consent_key.keys,consent_key.rt,recalled,recalled_rt,recall_acc,example_recall.thisRepN,example_recall.thisTrialN,example_recall.thisN,example_recall.thisIndex,example_recall.ran,file,word,participant,please enter your date of birth (dd/mm/yyyy),date,expName,psychopyVersion,OS,frameRate,STUDY_ID,SESSION_ID,list,prac_learn_study_loop.thisRepN,prac_learn_study_loop.thisTrialN,prac_learn_study_loop.thisN,prac_learn_study_loop.thisIndex,prac_learn_study_loop.ran,image,prac_learn_test_loop.thisRepN,prac_learn_test_loop.thisTrialN,prac_learn_test_loop.thisN,prac_learn_test_loop.thisIndex,prac_learn_test_loop.ran,learn_study_loop.thisRepN,learn_study_loop.thisTrialN,learn_study_loop.thisN,learn_study_loop.thisIndex,learn_study_loop.ran,list_no,block_no,learn_test_loop.thisRepN,learn_test_loop.thisTrialN,learn_test_loop.thisN,learn_test_loop.thisIndex,learn_test_loop.ran,learn_blocks.thisRepN,learn_blocks.thisTrialN,learn_blocks.thisN,learn_blocks.thisIndex,learn_blocks.ran,block_csv,key_resp_13.keys,key_resp_13.rt,learn_blocks_loop.thisRepN,learn_blocks_loop.thisTrialN,learn_blocks_loop.thisN,learn_blocks_loop.thisIndex,learn_blocks_loop.ran,final_learn_test.thisRepN,final_learn_test.thisTrialN,final_learn_test.thisN,final_learn_test.thisIndex,final_learn_test.ran,prac_wm_test_loop.thisRepN,prac_wm_test_loop.thisTrialN,prac_wm_test_loop.thisN,prac_wm_test_loop.thisIndex,prac_wm_test_loop.ran,wm_recalled1,wm_recall_rt1,wm_probed1,wm_recall_acc1,wm_recalled2,wm_recall_rt2,wm_probed2,wm_recall_acc2,wm_recalled3,wm_recall_rt3,wm_probed3,wm_recall_acc3,wm_recalled4,wm_recall_rt4,wm_probed4,wm_recall_acc4,prac_wm_trial_loop.thisRepN,prac_wm_trial_loop.thisTrialN,prac_wm_trial_loop.thisN,prac_wm_trial_loop.thisIndex,prac_wm_trial_loop.ran,word1,image1,file1,item_type1,word2,image2,file2,item_type2,word4,image4,file4,item_type4,word3,image3,file3,item_type3,wm_test_loop.thisRepN,wm_test_loop.thisTrialN,wm_test_loop.thisN,wm_test_loop.thisIndex,wm_test_loop.ran,wm_trial_loop.thisRepN,wm_trial_loop.thisTrialN,wm_trial_loop.thisN,wm_trial_loop.thisIndex,wm_trial_loop.ran
y,30.71652,TOUGH,3.249645,1,0,0,0,0,1,stimuli/images/PICTURE_747.png,TOUGH,5ea03c73d219f50266b79ae4,24/09/1948,2020-09-12_09h30.35.749,proactive3.2,2020.1.2,Win32,60,5f5adea66120081ea0f57a61,5f5c87064848f647691ef6bf,5,,,,,,,,,,,,,,,,,,,,,,,,,,,,,,,,,,,,,,,,,,,,,,,,,,,,,,,,,,,,,,,,,,,,,,,,,,,,,,,,,,,,,,,,,,,,,
,,,,,,,,,,stimuli/images/PICTURE_378.png,LOSS,5ea03c73d219f50266b79ae4,24/09/1948,2020-09-12_09h30.35.749,proactive3.2,2020.1.2,Win32,60,5f5adea66120081ea0f57a61,5f5c87064848f647691ef6bf,5,0,0,0,2,1,lobster,,,,,,,,,,,,,,,,,,,,,,,,,,,,,,,,,,,,,,,,,,,,,,,,,,,,,,,,,,,,,,,,,,,,,,,,,,,,,,,,,,,,,,,
,,,,,,,,,,stimuli/images/PICTURE_727.png,CELL,5ea03c73d219f50266b79ae4,24/09/1948,2020-09-12_09h30.35.749,proactive3.2,2020.1.2,Win32,60,5f5adea66120081ea0f57a61,5f5c87064848f647691ef6bf,5,0,1,1,1,1,hose,,,,,,,,,,,,,,,,,,,,,,,,,,,,,,,,,,,,,,,,,,,,,,,,,,,,,,,,,,,,,,,,,,,,,,,,,,,,,,,,,,,,,,,
,,,,,,,,,,stimuli/images/PICTURE_269.png,GENIUS,5ea03c73d219f50266b79ae4,24/09/1948,2020-09-12_09h30.35.749,proactive3.2,2020.1.2,Win32,60,5f5adea66120081ea0f57a61,5f5c87064848f647691ef6bf,5,0,2,2,0,1,chameleon,,,,,,,,,,,,,,,,,,,,,,,,,,,,,,,,,,,,,,,,,,,,,,,,,,,,,,,,,,,,,,,,,,,,,,,,,,,,,,,,,,,,,,,
,,,,,,,,,,stimuli/images/PICTURE_658.png,DEVIL,5ea03c73d219f50266b79ae4,24/09/1948,2020-09-12_09h30.35.749,proactive3.2,2020.1.2,Win32,60,5f5adea66120081ea0f57a61,5f5c87064848f647691ef6bf,5,0,3,3,3,1,crow,,,,,,,,,,,,,,,,,,,,,,,,,,,,,,,,,,,,,,,,,,,,,,,,,,,,,,,,,,,,,,,,,,,,,,,,,,,,,,,,,,,,,,,
,,GENIUS,10.54038,0,,,,,,stimuli/images/PICTURE_658.png,DEVIL,5ea03c73d219f50266b79ae4,24/09/1948,2020-09-12_09h30.35.749,proactive3.2,2020.1.2,Win32,60,5f5adea66120081ea0f57a61,5f5c87064848f647691ef6bf,5,,,,,,crow,0,0,0,3,1,,,,,,,,,,,,,,,,,,,,,,,,,,,,,,,,,,,,,,,,,,,,,,,,,,,,,,,,,,,,,,,,,,,,,,,,,,,,,,,,,,
,,?,15.003405,0,,,,,,stimuli/images/PICTURE_697.png,KILLER,5ea03c73d219f50266b79ae4,24/09/1948,2020-09-12_09h30.35.749,proactive3.2,2020.1.2,Win32,60,5f5adea66120081ea0f57a61,5f5c87064848f647691ef6bf,5,,,,,,peach,0,1,1,4,1,,,,,,,,,,,,,,,,,,,,,,,,,,,,,,,,,,,,,,,,,,,,,,,,,,,,,,,,,,,,,,,,,,,,,,,,,,,,,,,,,,
,,LOSS,4.89713,1,,,,,,stimuli/images/PICTURE_378.png,LOSS,5ea03c73d219f50266b79ae4,24/09/1948,2020-09-12_09h30.35.749,proactive3.2,2020.1.2,Win32,60,5f5adea66120081ea0f57a61,5f5c87064848f647691ef6bf,5,,,,,,lobster,0,2,2,2,1,,,,,,,,,,,,,,,,,,,,,,,,,,,,,,,,,,,,,,,,,,,,,,,,,,,,,,,,,,,,,,,,,,,,,,,,,,,,,,,,,,
,,CELL,3.79503,1,,,,,,stimuli/images/PICTURE_727.png,CELL,5ea03c73d219f50266b79ae4,24/09/1948,2020-09-12_09h30.35.749,proactive3.2,2020.1.2,Win32,60,5f5adea66120081ea0f57a61,5f5c87064848f647691ef6bf,5,,,,,,hose,0,3,3,1,1,,,,,,,,,,,,,,,,,,,,,,,,,,,,,,,,,,,,,,,,,,,,,,,,,,,,,,,,,,,,,,,,,,,,,,,,,,,,,,,,,,
,,GENIUS,3.402595,1,,,,,,stimuli/images/PICTURE_269.png,GENIUS,5ea03c73d219f50266b79ae4,24/09/1948,2020-09-12_09h30.35.749,proactive3.2,2020.1.2,Win32,60,5f5adea66120081ea0f57a61,5f5c87064848f647691ef6bf,5,,,,,,chameleon,0,4,4,0,1,,,,,,,,,,,,,,,,,,,,,,,,,,,,,,,,,,,,,,,,,,,,,,,,,,,,,,,,,,,,,,,,,,,,,,,,,,,,,,,,,,
,,,,,,,,,,stimuli/images/PICTURE_470.png,MOMENT,5ea03c73d219f50266b79ae4,24/09/1948,2020-09-12_09h30.35.749,proactive3.2,2020.1.2,Win32,60,5f5adea66120081ea0f57a61,5f5c87064848f647691ef6bf,5,,,,,,motorbike,,,,,,0,0,0,40,1,5,2,,,,,,,,,,,,,,,,,,,,,,,,,,,,,,,,,,,,,,,,,,,,,,,,,,,,,,,,,,,,,,,,,,,,,,,,,,,
,,,,,,,,,,stimuli/images/PICTURE_667.png,GLASS,5ea03c73d219f50266b79ae4,24/09/1948,2020-09-12_09h30.35.749,proactive3.2,2020.1.2,Win32,60,5f5adea66120081ea0f57a61,5f5c87064848f647691ef6bf,5,,,,,,daisy,,,,,,0,1,1,27,1,3,2,,,,,,,,,,,,,,,,,,,,,,,,,,,,,,,,,,,,,,,,,,,,,,,,,,,,,,,,,,,,,,,,,,,,,,,,,,,
,,,,,,,,,,stimuli/images/PICTURE_327.png,LEADER,5ea03c73d219f50266b79ae4,24/09/1948,2020-09-12_09h30.35.749,proactive3.2,2020.1.2,Win32,60,5f5adea66120081ea0f57a61,5f5c87064848f647691ef6bf,5,,,,,,helmet,,,,,,0,2,2,17,1,2,2,,,,,,,,,,,,,,,,,,,,,,,,,,,,,,,,,,,,,,,,,,,,,,,,,,,,,,,,,,,,,,,,,,,,,,,,,,,
,,,,,,,,,,stimuli/images/PICTURE_2.png,YARD,5ea03c73d219f50266b79ae4,24/09/1948,2020-09-12_09h30.35.749,proactive3.2,2020.1.2,Win32,60,5f5adea66120081ea0f57a61,5f5c87064848f647691ef6bf,5,,,,,,tyre,,,,,,0,3,3,55,1,6,2,,,,,,,,,,,,,,,,,,,,,,,,,,,,,,,,,,,,,,,,,,,,,,,,,,,,,,,,,,,,,,,,,,,,,,,,,,,
,,,,,,,,,,stimuli/images/PICTURE_453.png,FAMILY,5ea03c73d219f50266b79ae4,24/09/1948,2020-09-12_09h30.35.749,proactive3.2,2020.1.2,Win32,60,5f5adea66120081ea0f57a61,5f5c87064848f647691ef6bf,5,,,,,,scissors,,,,,,0,4,4,48,1,5,2,,,,,,,,,,,,,,,,,,,,,,,,,,,,,,,,,,,,,,,,,,,,,,,,,,,,,,,,,,,,,,,,,,,,,,,,,,,
,,,,,,,,,,stimuli/images/PICTURE_509.png,APPLE,5ea03c73d219f50266b79ae4,24/09/1948,2020-09-12_09h30.35.749,proactive3.2,2020.1.2,Win32,60,5f5adea66120081ea0f57a61,5f5c87064848f647691ef6bf,5,,,,,,telephone,,,,,,0,5,5,38,1,4,2,,,,,,,,,,,,,,,,,,,,,,,,,,,,,,,,,,,,,,,,,,,,,,,,,,,,,,,,,,,,,,,,,,,,,,,,,,,
,,,,,,,,,,stimuli/images/PICTURE_356.png,CANDY,5ea03c73d219f50266b79ae4,24/09/1948,2020-09-12_09h30.35.749,proactive3.2,2020.1.2,Win32,60,5f5adea66120081ea0f57a61,5f5c87064848f647691ef6bf,5,,,,,,pawn,,,,,,0,6,6,46,1,5,2,,,,,,,,,,,,,,,,,,,,,,,,,,,,,,,,,,,,,,,,,,,,,,,,,,,,,,,,,,,,,,,,,,,,,,,,,,,
,,,,,,,,,,stimuli/images/PICTURE_57.png,NATION,5ea03c73d219f50266b79ae4,24/09/1948,2020-09-12_09h30.35.749,proactive3.2,2020.1.2,Win32,60,5f5adea66120081ea0f57a61,5f5c87064848f647691ef6bf,5,,,,,,stamp,,,,,,0,7,7,21,1,3,2,,,,,,,,,,,,,,,,,,,,,,,,,,,,,,,,,,,,,,,,,,,,,,,,,,,,,,,,,,,,,,,,,,,,,,,,,,,
,,,,,,,,,,stimuli/images/PICTURE_147.png,LEADER,5ea03c73d219f50266b79ae4,24/09/1948,2020-09-12_09h30.35.749,proactive3.2,2020.1.2,Win32,60,5f5adea66120081ea0f57a61,5f5c87064848f647691ef6bf,5,,,,,,hanger,,,,,,0,8,8,33,1,4,2,,,,,,,,,,,,,,,,,,,,,,,,,,,,,,,,,,,,,,,,,,,,,,,,,,,,,,,,,,,,,,,,,,,,,,,,,,,
,,,,,,,,,,stimuli/images/PICTURE_677.png,FAMILY,5ea03c73d219f50266b79ae4,24/09/1948,2020-09-12_09h30.35.749,proactive3.2,2020.1.2,Win32,60,5f5adea66120081ea0f57a61,5f5c87064848f647691ef6bf,5,,,,,,map,,,,,,0,9,9,53,1,6,2,,,,,,,,,,,,,,,,,,,,,,,,,,,,,,,,,,,,,,,,,,,,,,,,,,,,,,,,,,,,,,,,,,,,,,,,,,,
,,,,,,,,,,stimuli/images/PICTURE_750.png,POLICY,5ea03c73d219f50266b79ae4,24/09/1948,2020-09-12_09h30.35.749,proactive3.2,2020.1.2,Win32,60,5f5adea66120081ea0f57a61,5f5c87064848f647691ef6bf,5,,,,,,kettle,,,,,,0,10,10,44,1,5,2,,,,,,,,,,,,,,,,,,,,,,,,,,,,,,,,,,,,,,,,,,,,,,,,,,,,,,,,,,,,,,,,,,,,,,,,,,,
,,,,,,,,,,stimuli/images/PICTURE_487.png,ROOF,5ea03c73d219f50266b79ae4,24/09/1948,2020-09-12_09h30.35.749,proactive3.2,2020.1.2,Win32,60,5f5adea66120081ea0f57a61,5f5c87064848f647691ef6bf,5,,,,,,basket,,,,,,0,11,11,50,1,6,2,,,,,,,,,,,,,,,,,,,,,,,,,,,,,,,,,,,,,,,,,,,,,,,,,,,,,,,,,,,,,,,,,,,,,,,,,,,
,,,,,,,,,,stimuli/images/PICTURE_405.png,JUNGLE,5ea03c73d219f50266b79ae4,24/09/1948,2020-09-12_09h30.35.749,proactive3.2,2020.1.2,Win32,60,5f5adea66120081ea0f57a61,5f5c87064848f647691ef6bf,5,,,,,,anchor,,,,,,0,12,12,58,1,6,2,,,,,,,,,,,,,,,,,,,,,,,,,,,,,,,,,,,,,,,,,,,,,,,,,,,,,,,,,,,,,,,,,,,,,,,,,,,
,,,,,,,,,,stimuli/images/PICTURE_208.png,SPIRIT,5ea03c73d219f50266b79ae4,24/09/1948,2020-09-12_09h30.35.749,proactive3.2,2020.1.2,Win32,60,5f5adea66120081ea0f57a61,5f5c87064848f647691ef6bf,5,,,,,,microphone,,,,,,0,13,13,28,1,3,2,,,,,,,,,,,,,,,,,,,,,,,,,,,,,,,,,,,,,,,,,,,,,,,,,,,,,,,,,,,,,,,,,,,,,,,,,,,
,,,,,,,,,,stimuli/images/PICTURE_93.png,GIRL,5ea03c73d219f50266b79ae4,24/09/1948,2020-09-12_09h30.35.749,proactive3.2,2020.1.2,Win32,60,5f5adea66120081ea0f57a61,5f5c87064848f647691ef6bf,5,,,,,,skateboard,,,,,,0,14,14,31,1,4,2,,,,,,,,,,,,,,,,,,,,,,,,,,,,,,,,,,,,,,,,,,,,,,,,,,,,,,,,,,,,,,,,,,,,,,,,,,,
,,,,,,,,,,stimuli/images/PICTURE_95.png,NIGHT,5ea03c73d219f50266b79ae4,24/09/1948,2020-09-12_09h30.35.749,proactive3.2,2020.1.2,Win32,60,5f5adea66120081ea0f57a61,5f5c87064848f647691ef6bf,5,,,,,,suitcase,,,,,,0,15,15,37,1,4,2,,,,,,,,,,,,,,,,,,,,,,,,,,,,,,,,,,,,,,,,,,,,,,,,,,,,,,,,,,,,,,,,,,,,,,,,,,,
,,,,,,,,,,stimuli/images/PICTURE_403.png,FAMILY,5ea03c73d219f50266b79ae4,24/09/1948,2020-09-12_09h30.35.749,proactive3.2,2020.1.2,Win32,60,5f5adea66120081ea0f57a61,5f5c87064848f647691ef6bf,5,,,,,,cathedral,,,,,,0,16,16,9,1,1,2,,,,,,,,,,,,,,,,,,,,,,,,,,,,,,,,,,,,,,,,,,,,,,,,,,,,,,,,,,,,,,,,,,,,,,,,,,,
,,,,,,,,,,stimuli/images/PICTURE_470.png,BEAUTY,5ea03c73d219f50266b79ae4,24/09/1948,2020-09-12_09h30.35.749,proactive3.2,2020.1.2,Win32,60,5f5adea66120081ea0f57a61,5f5c87064848f647691ef6bf,5,,,,,,motorbike,,,,,,0,17,17,26,1,3,2,,,,,,,,,,,,,,,,,,,,,,,,,,,,,,,,,,,,,,,,,,,,,,,,,,,,,,,,,,,,,,,,,,,,,,,,,,,
,,,,,,,,,,stimuli/images/PICTURE_255.png,PENNY,5ea03c73d219f50266b79ae4,24/09/1948,2020-09-12_09h30.35.749,proactive3.2,2020.1.2,Win32,60,5f5adea66120081ea0f57a61,5f5c87064848f647691ef6bf,5,,,,,,shovel,,,,,,0,18,18,19,1,2,2,,,,,,,,,,,,,,,,,,,,,,,,,,,,,,,,,,,,,,,,,,,,,,,,,,,,,,,,,,,,,,,,,,,,,,,,,,,
,,,,,,,,,,stimuli/images/PICTURE_33.png,COPS,5ea03c73d219f50266b79ae4,24/09/1948,2020-09-12_09h30.35.749,proactive3.2,2020.1.2,Win32,60,5f5adea66120081ea0f57a61,5f5c87064848f647691ef6bf,5,,,,,,frame,,,,,,0,19,19,29,1,3,2,,,,,,,,,,,,,,,,,,,,,,,,,,,,,,,,,,,,,,,,,,,,,,,,,,,,,,,,,,,,,,,,,,,,,,,,,,,
,,,,,,,,,,stimuli/images/PICTURE_491.png,SERIES,5ea03c73d219f50266b79ae4,24/09/1948,2020-09-12_09h30.35.749,proactive3.2,2020.1.2,Win32,60,5f5adea66120081ea0f57a61,5f5c87064848f647691ef6bf,5,,,,,,rug,,,,,,0,20,20,39,1,4,2,,,,,,,,,,,,,,,,,,,,,,,,,,,,,,,,,,,,,,,,,,,,,,,,,,,,,,,,,,,,,,,,,,,,,,,,,,,
,,,,,,,,,,stimuli/images/PICTURE_32.png,LETTER,5ea03c73d219f50266b79ae4,24/09/1948,2020-09-12_09h30.35.749,proactive3.2,2020.1.2,Win32,60,5f5adea66120081ea0f57a61,5f5c87064848f647691ef6bf,5,,,,,,crown,,,,,,0,21,21,56,1,6,2,,,,,,,,,,,,,,,,,,,,,,,,,,,,,,,,,,,,,,,,,,,,,,,,,,,,,,,,,,,,,,,,,,,,,,,,,,,
,,,,,,,,,,stimuli/images/PICTURE_285.png,WRITER,5ea03c73d219f50266b79ae4,24/09/1948,2020-09-12_09h30.35.749,proactive3.2,2020.1.2,Win32,60,5f5adea66120081ea0f57a61,5f5c87064848f647691ef6bf,5,,,,,,carrot,,,,,,0,22,22,6,1,1,2,,,,,,,,,,,,,,,,,,,,,,,,,,,,,,,,,,,,,,,,,,,,,,,,,,,,,,,,,,,,,,,,,,,,,,,,,,,
,,,,,,,,,,stimuli/images/PICTURE_177.png,HOUSE,5ea03c73d219f50266b79ae4,24/09/1948,2020-09-12_09h30.35.749,proactive3.2,2020.1.2,Win32,60,5f5adea66120081ea0f57a61,5f5c87064848f647691ef6bf,5,,,,,,mushroom,,,,,,0,23,23,25,1,3,2,,,,,,,,,,,,,,,,,,,,,,,,,,,,,,,,,,,,,,,,,,,,,,,,,,,,,,,,,,,,,,,,,,,,,,,,,,,
,,,,,,,,,,stimuli/images/PICTURE_654.png,YEAR,5ea03c73d219f50266b79ae4,24/09/1948,2020-09-12_09h30.35.749,proactive3.2,2020.1.2,Win32,60,5f5adea66120081ea0f57a61,5f5c87064848f647691ef6bf,5,,,,,,pencil,,,,,,0,24,24,41,1,5,2,,,,,,,,,,,,,,,,,,,,,,,,,,,,,,,,,,,,,,,,,,,,,,,,,,,,,,,,,,,,,,,,,,,,,,,,,,,
,,,,,,,,,,stimuli/images/PICTURE_348.png,TOILET,5ea03c73d219f50266b79ae4,24/09/1948,2020-09-12_09h30.35.749,proactive3.2,2020.1.2,Win32,60,5f5adea66120081ea0f57a61,5f5c87064848f647691ef6bf,5,,,,,,pepper,,,,,,0,25,25,4,1,1,2,,,,,,,,,,,,,,,,,,,,,,,,,,,,,,,,,,,,,,,,,,,,,,,,,,,,,,,,,,,,,,,,,,,,,,,,,,,
,,,,,,,,,,stimuli/images/PICTURE_160.png,HOTEL,5ea03c73d219f50266b79ae4,24/09/1948,2020-09-12_09h30.35.749,proactive3.2,2020.1.2,Win32,60,5f5adea66120081ea0f57a61,5f5c87064848f647691ef6bf,5,,,,,,wheelbarrow,,,,,,0,26,26,16,1,2,2,,,,,,,,,,,,,,,,,,,,,,,,,,,,,,,,,,,,,,,,,,,,,,,,,,,,,,,,,,,,,,,,,,,,,,,,,,,
,,,,,,,,,,stimuli/images/PICTURE_68.png,KIND,5ea03c73d219f50266b79ae4,24/09/1948,2020-09-12_09h30.35.749,proactive3.2,2020.1.2,Win32,60,5f5adea66120081ea0f57a61,5f5c87064848f647691ef6bf,5,,,,,,candle,,,,,,0,27,27,23,1,3,2,,,,,,,,,,,,,,,,,,,,,,,,,,,,,,,,,,,,,,,,,,,,,,,,,,,,,,,,,,,,,,,,,,,,,,,,,,,
,,,,,,,,,,stimuli/images/PICTURE_692.png,DUDE,5ea03c73d219f50266b79ae4,24/09/1948,2020-09-12_09h30.35.749,proactive3.2,2020.1.2,Win32,60,5f5adea66120081ea0f57a61,5f5c87064848f647691ef6bf,5,,,,,,cherry,,,,,,0,28,28,47,1,5,2,,,,,,,,,,,,,,,,,,,,,,,,,,,,,,,,,,,,,,,,,,,,,,,,,,,,,,,,,,,,,,,,,,,,,,,,,,,
,,,,,,,,,,stimuli/images/PICTURE_504.png,HOUSE,5ea03c73d219f50266b79ae4,24/09/1948,2020-09-12_09h30.35.749,proactive3.2,2020.1.2,Win32,60,5f5adea66120081ea0f57a61,5f5c87064848f647691ef6bf,5,,,,,,wheel,,,,,,0,29,29,36,1,4,2,,,,,,,,,,,,,,,,,,,,,,,,,,,,,,,,,,,,,,,,,,,,,,,,,,,,,,,,,,,,,,,,,,,,,,,,,,,
,,,,,,,,,,stimuli/images/PICTURE_215.png,FOOD,5ea03c73d219f50266b79ae4,24/09/1948,2020-09-12_09h30.35.749,proactive3.2,2020.1.2,Win32,60,5f5adea66120081ea0f57a61,5f5c87064848f647691ef6bf,5,,,,,,boot,,,,,,0,30,30,5,1,1,2,,,,,,,,,,,,,,,,,,,,,,,,,,,,,,,,,,,,,,,,,,,,,,,,,,,,,,,,,,,,,,,,,,,,,,,,,,,
,,,,,,,,,,stimuli/images/PICTURE_311.png,FLESH,5ea03c73d219f50266b79ae4,24/09/1948,2020-09-12_09h30.35.749,proactive3.2,2020.1.2,Win32,60,5f5adea66120081ea0f57a61,5f5c87064848f647691ef6bf,5,,,,,,razor,,,,,,0,31,31,3,1,1,2,,,,,,,,,,,,,,,,,,,,,,,,,,,,,,,,,,,,,,,,,,,,,,,,,,,,,,,,,,,,,,,,,,,,,,,,,,,
,,,,,,,,,,stimuli/images/PICTURE_487.png,POLICY,5ea03c73d219f50266b79ae4,24/09/1948,2020-09-12_09h30.35.749,proactive3.2,2020.1.2,Win32,60,5f5adea66120081ea0f57a61,5f5c87064848f647691ef6bf,5,,,,,,basket,,,,,,0,32,32,34,1,4,2,,,,,,,,,,,,,,,,,,,,,,,,,,,,,,,,,,,,,,,,,,,,,,,,,,,,,,,,,,,,,,,,,,,,,,,,,,,
,,,,,,,,,,stimuli/images/PICTURE_123.png,SALE,5ea03c73d219f50266b79ae4,24/09/1948,2020-09-12_09h30.35.749,proactive3.2,2020.1.2,Win32,60,5f5adea66120081ea0f57a61,5f5c87064848f647691ef6bf,5,,,,,,dart,,,,,,0,33,33,8,1,1,2,,,,,,,,,,,,,,,,,,,,,,,,,,,,,,,,,,,,,,,,,,,,,,,,,,,,,,,,,,,,,,,,,,,,,,,,,,,
,,,,,,,,,,stimuli/images/PICTURE_2.png,JUNGLE,5ea03c73d219f50266b79ae4,24/09/1948,2020-09-12_09h30.35.749,proactive3.2,2020.1.2,Win32,60,5f5adea66120081ea0f57a61,5f5c87064848f647691ef6bf,5,,,,,,tyre,,,,,,0,34,34,1,1,1,2,,,,,,,,,,,,,,,,,,,,,,,,,,,,,,,,,,,,,,,,,,,,,,,,,,,,,,,,,,,,,,,,,,,,,,,,,,,
,,,,,,,,,,stimuli/images/PICTURE_18.png,RIVER,5ea03c73d219f50266b79ae4,24/09/1948,2020-09-12_09h30.35.749,proactive3.2,2020.1.2,Win32,60,5f5adea66120081ea0f57a61,5f5c87064848f647691ef6bf,5,,,,,,planet,,,,,,0,35,35,22,1,3,2,,,,,,,,,,,,,,,,,,,,,,,,,,,,,,,,,,,,,,,,,,,,,,,,,,,,,,,,,,,,,,,,,,,,,,,,,,,
,,,,,,,,,,stimuli/images/PICTURE_564.png,PLENTY,5ea03c73d219f50266b79ae4,24/09/1948,2020-09-12_09h30.35.749,proactive3.2,2020.1.2,Win32,60,5f5adea66120081ea0f57a61,5f5c87064848f647691ef6bf,5,,,,,,spoon,,,,,,0,36,36,11,1,2,2,,,,,,,,,,,,,,,,,,,,,,,,,,,,,,,,,,,,,,,,,,,,,,,,,,,,,,,,,,,,,,,,,,,,,,,,,,,
,,,,,,,,,,stimuli/images/PICTURE_655.png,SALE,5ea03c73d219f50266b79ae4,24/09/1948,2020-09-12_09h30.35.749,proactive3.2,2020.1.2,Win32,60,5f5adea66120081ea0f57a61,5f5c87064848f647691ef6bf,5,,,,,,megaphone,,,,,,0,37,37,57,1,6,2,,,,,,,,,,,,,,,,,,,,,,,,,,,,,,,,,,,,,,,,,,,,,,,,,,,,,,,,,,,,,,,,,,,,,,,,,,,
,,,,,,,,,,stimuli/images/PICTURE_141.png,CLIENT,5ea03c73d219f50266b79ae4,24/09/1948,2020-09-12_09h30.35.749,proactive3.2,2020.1.2,Win32,60,5f5adea66120081ea0f57a61,5f5c87064848f647691ef6bf,5,,,,,,sunflower,,,,,,0,38,38,30,1,4,2,,,,,,,,,,,,,,,,,,,,,,,,,,,,,,,,,,,,,,,,,,,,,,,,,,,,,,,,,,,,,,,,,,,,,,,,,,,
,,,,,,,,,,stimuli/images/PICTURE_57.png,CASINO,5ea03c73d219f50266b79ae4,24/09/1948,2020-09-12_09h30.35.749,proactive3.2,2020.1.2,Win32,60,5f5adea66120081ea0f57a61,5f5c87064848f647691ef6bf,5,,,,,,stamp,,,,,,0,39,39,12,1,2,2,,,,,,,,,,,,,,,,,,,,,,,,,,,,,,,,,,,,,,,,,,,,,,,,,,,,,,,,,,,,,,,,,,,,,,,,,,,
,,,,,,,,,,stimuli/images/PICTURE_509.png,SHOTS,5ea03c73d219f50266b79ae4,24/09/1948,2020-09-12_09h30.35.749,proactive3.2,2020.1.2,Win32,60,5f5adea66120081ea0f57a61,5f5c87064848f647691ef6bf,5,,,,,,telephone,,,,,,0,40,40,7,1,1,2,,,,,,,,,,,,,,,,,,,,,,,,,,,,,,,,,,,,,,,,,,,,,,,,,,,,,,,,,,,,,,,,,,,,,,,,,,,
,,,,,,,,,,stimuli/images/PICTURE_654.png,COPS,5ea03c73d219f50266b79ae4,24/09/1948,2020-09-12_09h30.35.749,proactive3.2,2020.1.2,Win32,60,5f5adea66120081ea0f57a61,5f5c87064848f647691ef6bf,5,,,,,,pencil,,,,,,0,41,41,10,1,2,2,,,,,,,,,,,,,,,,,,,,,,,,,,,,,,,,,,,,,,,,,,,,,,,,,,,,,,,,,,,,,,,,,,,,,,,,,,,
,,,,,,,,,,stimuli/images/PICTURE_285.png,PRINCE,5ea03c73d219f50266b79ae4,24/09/1948,2020-09-12_09h30.35.749,proactive3.2,2020.1.2,Win32,60,5f5adea66120081ea0f57a61,5f5c87064848f647691ef6bf,5,,,,,,carrot,,,,,,0,42,42,20,1,3,2,,,,,,,,,,,,,,,,,,,,,,,,,,,,,,,,,,,,,,,,,,,,,,,,,,,,,,,,,,,,,,,,,,,,,,,,,,,
,,,,,,,,,,stimuli/images/PICTURE_297.png,BODY,5ea03c73d219f50266b79ae4,24/09/1948,2020-09-12_09h30.35.749,proactive3.2,2020.1.2,Win32,60,5f5adea66120081ea0f57a61,5f5c87064848f647691ef6bf,5,,,,,,aeroplane,,,,,,0,43,43,51,1,6,2,,,,,,,,,,,,,,,,,,,,,,,,,,,,,,,,,,,,,,,,,,,,,,,,,,,,,,,,,,,,,,,,,,,,,,,,,,,
,,,,,,,,,,stimuli/images/PICTURE_688.png,CLOCK,5ea03c73d219f50266b79ae4,24/09/1948,2020-09-12_09h30.35.749,proactive3.2,2020.1.2,Win32,60,5f5adea66120081ea0f57a61,5f5c87064848f647691ef6bf,5,,,,,,runner,,,,,,0,44,44,42,1,5,2,,,,,,,,,,,,,,,,,,,,,,,,,,,,,,,,,,,,,,,,,,,,,,,,,,,,,,,,,,,,,,,,,,,,,,,,,,,
,,,,,,,,,,stimuli/images/PICTURE_405.png,JUNGLE,5ea03c73d219f50266b79ae4,24/09/1948,2020-09-12_09h30.35.749,proactive3.2,2020.1.2,Win32,60,5f5adea66120081ea0f57a61,5f5c87064848f647691ef6bf,5,,,,,,anchor,,,,,,0,45,45,13,1,2,2,,,,,,,,,,,,,,,,,,,,,,,,,,,,,,,,,,,,,,,,,,,,,,,,,,,,,,,,,,,,,,,,,,,,,,,,,,,
,,,,,,,,,,stimuli/images/PICTURE_296.png,CLOCK,5ea03c73d219f50266b79ae4,24/09/1948,2020-09-12_09h30.35.749,proactive3.2,2020.1.2,Win32,60,5f5adea66120081ea0f57a61,5f5c87064848f647691ef6bf,5,,,,,,bolt,,,,,,0,46,46,18,1,2,2,,,,,,,,,,,,,,,,,,,,,,,,,,,,,,,,,,,,,,,,,,,,,,,,,,,,,,,,,,,,,,,,,,,,,,,,,,,
,,,,,,,,,,stimuli/images/PICTURE_57.png,CANDY,5ea03c73d219f50266b79ae4,24/09/1948,2020-09-12_09h30.35.749,proactive3.2,2020.1.2,Win32,60,5f5adea66120081ea0f57a61,5f5c87064848f647691ef6bf,5,,,,,,stamp,,,,,,0,47,47,52,1,6,2,,,,,,,,,,,,,,,,,,,,,,,,,,,,,,,,,,,,,,,,,,,,,,,,,,,,,,,,,,,,,,,,,,,,,,,,,,,
,,,,,,,,,,stimuli/images/PICTURE_708.png,VALLEY,5ea03c73d219f50266b79ae4,24/09/1948,2020-09-12_09h30.35.749,proactive3.2,2020.1.2,Win32,60,5f5adea66120081ea0f57a61,5f5c87064848f647691ef6bf,5,,,,,,monkey,,,,,,0,48,48,45,1,5,2,,,,,,,,,,,,,,,,,,,,,,,,,,,,,,,,,,,,,,,,,,,,,,,,,,,,,,,,,,,,,,,,,,,,,,,,,,,
,,,,,,,,,,stimuli/images/PICTURE_677.png,PHOTO,5ea03c73d219f50266b79ae4,24/09/1948,2020-09-12_09h30.35.749,proactive3.2,2020.1.2,Win32,60,5f5adea66120081ea0f57a61,5f5c87064848f647691ef6bf,5,,,,,,map,,,,,,0,49,49,14,1,2,2,,,,,,,,,,,,,,,,,,,,,,,,,,,,,,,,,,,,,,,,,,,,,,,,,,,,,,,,,,,,,,,,,,,,,,,,,,,
,,,,,,,,,,stimuli/images/PICTURE_215.png,LEADER,5ea03c73d219f50266b79ae4,24/09/1948,2020-09-12_09h30.35.749,proactive3.2,2020.1.2,Win32,60,5f5adea66120081ea0f57a61,5f5c87064848f647691ef6bf,5,,,,,,boot,,,,,,0,50,50,43,1,5,2,,,,,,,,,,,,,,,,,,,,,,,,,,,,,,,,,,,,,,,,,,,,,,,,,,,,,,,,,,,,,,,,,,,,,,,,,,,
,,,,,,,,,,stimuli/images/PICTURE_2.png,AREA,5ea03c73d219f50266b79ae4,24/09/1948,2020-09-12_09h30.35.749,proactive3.2,2020.1.2,Win32,60,5f5adea66120081ea0f57a61,5f5c87064848f647691ef6bf,5,,,,,,tyre,,,,,,0,51,51,32,1,4,2,,,,,,,,,,,,,,,,,,,,,,,,,,,,,,,,,,,,,,,,,,,,,,,,,,,,,,,,,,,,,,,,,,,,,,,,,,,
,,,,,,,,,,stimuli/images/PICTURE_314.png,SPEECH,5ea03c73d219f50266b79ae4,24/09/1948,2020-09-12_09h30.35.749,proactive3.2,2020.1.2,Win32,60,5f5adea66120081ea0f57a61,5f5c87064848f647691ef6bf,5,,,,,,perfume,,,,,,0,52,52,35,1,4,2,,,,,,,,,,,,,,,,,,,,,,,,,,,,,,,,,,,,,,,,,,,,,,,,,,,,,,,,,,,,,,,,,,,,,,,,,,,
,,,,,,,,,,stimuli/images/PICTURE_348.png,DUDE,5ea03c73d219f50266b79ae4,24/09/1948,2020-09-12_09h30.35.749,proactive3.2,2020.1.2,Win32,60,5f5adea66120081ea0f57a61,5f5c87064848f647691ef6bf,5,,,,,,pepper,,,,,,0,53,53,59,1,6,2,,,,,,,,,,,,,,,,,,,,,,,,,,,,,,,,,,,,,,,,,,,,,,,,,,,,,,,,,,,,,,,,,,,,,,,,,,,
,,,,,,,,,,stimuli/images/PICTURE_311.png,TOILET,5ea03c73d219f50266b79ae4,24/09/1948,2020-09-12_09h30.35.749,proactive3.2,2020.1.2,Win32,60,5f5adea66120081ea0f57a61,5f5c87064848f647691ef6bf,5,,,,,,razor,,,,,,0,54,54,54,1,6,2,,,,,,,,,,,,,,,,,,,,,,,,,,,,,,,,,,,,,,,,,,,,,,,,,,,,,,,,,,,,,,,,,,,,,,,,,,,
,,,,,,,,,,stimuli/images/PICTURE_509.png,BATH,5ea03c73d219f50266b79ae4,24/09/1948,2020-09-12_09h30.35.749,proactive3.2,2020.1.2,Win32,60,5f5adea66120081ea0f57a61,5f5c87064848f647691ef6bf,5,,,,,,telephone,,,,,,0,55,55,15,1,2,2,,,,,,,,,,,,,,,,,,,,,,,,,,,,,,,,,,,,,,,,,,,,,,,,,,,,,,,,,,,,,,,,,,,,,,,,,,,
,,,,,,,,,,stimuli/images/PICTURE_405.png,HOUSE,5ea03c73d219f50266b79ae4,24/09/1948,2020-09-12_09h30.35.749,proactive3.2,2020.1.2,Win32,60,5f5adea66120081ea0f57a61,5f5c87064848f647691ef6bf,5,,,,,,anchor,,,,,,0,56,56,2,1,1,2,,,,,,,,,,,,,,,,,,,,,,,,,,,,,,,,,,,,,,,,,,,,,,,,,,,,,,,,,,,,,,,,,,,,,,,,,,,
,,,,,,,,,,stimuli/images/PICTURE_452.png,COPS,5ea03c73d219f50266b79ae4,24/09/1948,2020-09-12_09h30.35.749,proactive3.2,2020.1.2,Win32,60,5f5adea66120081ea0f57a61,5f5c87064848f647691ef6bf,5,,,,,,watch,,,,,,0,57,57,0,1,1,2,,,,,,,,,,,,,,,,,,,,,,,,,,,,,,,,,,,,,,,,,,,,,,,,,,,,,,,,,,,,,,,,,,,,,,,,,,,
,,,,,,,,,,stimuli/images/PICTURE_509.png,MILLER,5ea03c73d219f50266b79ae4,24/09/1948,2020-09-12_09h30.35.749,proactive3.2,2020.1.2,Win32,60,5f5adea66120081ea0f57a61,5f5c87064848f647691ef6bf,5,,,,,,telephone,,,,,,0,58,58,49,1,5,2,,,,,,,,,,,,,,,,,,,,,,,,,,,,,,,,,,,,,,,,,,,,,,,,,,,,,,,,,,,,,,,,,,,,,,,,,,,
,,?,0.001085,0,,,,,,stimuli/images/PICTURE_18.png,RIVER,5ea03c73d219f50266b79ae4,24/09/1948,2020-09-12_09h30.35.749,proactive3.2,2020.1.2,Win32,60,5f5adea66120081ea0f57a61,5f5c87064848f647691ef6bf,5,,,,,,planet,,,,,,,,,,,3,2,0,0,0,22,1,,,,,,,,,,,,,,,,,,,,,,,,,,,,,,,,,,,,,,,,,,,,,,,,,,,,,,,,,,,,,,,,,,,,,,
,,?,0.000925,0,,,,,,stimuli/images/PICTURE_327.png,LEADER,5ea03c73d219f50266b79ae4,24/09/1948,2020-09-12_09h30.35.749,proactive3.2,2020.1.2,Win32,60,5f5adea66120081ea0f57a61,5f5c87064848f647691ef6bf,5,,,,,,helmet,,,,,,,,,,,2,2,0,1,1,17,1,,,,,,,,,,,,,,,,,,,,,,,,,,,,,,,,,,,,,,,,,,,,,,,,,,,,,,,,,,,,,,,,,,,,,,
,,?,0.001165,0,,,,,,stimuli/images/PICTURE_314.png,SPEECH,5ea03c73d219f50266b79ae4,24/09/1948,2020-09-12_09h30.35.749,proactive3.2,2020.1.2,Win32,60,5f5adea66120081ea0f57a61,5f5c87064848f647691ef6bf,5,,,,,,perfume,,,,,,,,,,,4,2,0,2,2,35,1,,,,,,,,,,,,,,,,,,,,,,,,,,,,,,,,,,,,,,,,,,,,,,,,,,,,,,,,,,,,,,,,,,,,,,
,,DUDE,4.67477,1,,,,,,stimuli/images/PICTURE_692.png,DUDE,5ea03c73d219f50266b79ae4,24/09/1948,2020-09-12_09h30.35.749,proactive3.2,2020.1.2,Win32,60,5f5adea66120081ea0f57a61,5f5c87064848f647691ef6bf,5,,,,,,cherry,,,,,,,,,,,5,2,0,3,3,47,1,,,,,,,,,,,,,,,,,,,,,,,,,,,,,,,,,,,,,,,,,,,,,,,,,,,,,,,,,,,,,,,,,,,,,,
,,?,0.00177,0,,,,,,stimuli/images/PICTURE_215.png,FOOD,5ea03c73d219f50266b79ae4,24/09/1948,2020-09-12_09h30.35.749,proactive3.2,2020.1.2,Win32,60,5f5adea66120081ea0f57a61,5f5c87064848f647691ef6bf,5,,,,,,boot,,,,,,,,,,,1,2,0,4,4,5,1,,,,,,,,,,,,,,,,,,,,,,,,,,,,,,,,,,,,,,,,,,,,,,,,,,,,,,,,,,,,,,,,,,,,,,
,,?,0.00127,0,,,,,,stimuli/images/PICTURE_57.png,NATION,5ea03c73d219f50266b79ae4,24/09/1948,2020-09-12_09h30.35.749,proactive3.2,2020.1.2,Win32,60,5f5adea66120081ea0f57a61,5f5c87064848f647691ef6bf,5,,,,,,stamp,,,,,,,,,,,3,2,0,5,5,21,1,,,,,,,,,,,,,,,,,,,,,,,,,,,,,,,,,,,,,,,,,,,,,,,,,,,,,,,,,,,,,,,,,,,,,,
,,?,0.000905,0,,,,,,stimuli/images/PICTURE_405.png,JUNGLE,5ea03c73d219f50266b79ae4,24/09/1948,2020-09-12_09h30.35.749,proactive3.2,2020.1.2,Win32,60,5f5adea66120081ea0f57a61,5f5c87064848f647691ef6bf,5,,,,,,anchor,,,,,,,,,,,6,2,0,6,6,58,1,,,,,,,,,,,,,,,,,,,,,,,,,,,,,,,,,,,,,,,,,,,,,,,,,,,,,,,,,,,,,,,,,,,,,,
,,?,0.000895,0,,,,,,stimuli/images/PICTURE_32.png,LETTER,5ea03c73d219f50266b79ae4,24/09/1948,2020-09-12_09h30.35.749,proactive3.2,2020.1.2,Win32,60,5f5adea66120081ea0f57a61,5f5c87064848f647691ef6bf,5,,,,,,crown,,,,,,,,,,,6,2,0,7,7,56,1,,,,,,,,,,,,,,,,,,,,,,,,,,,,,,,,,,,,,,,,,,,,,,,,,,,,,,,,,,,,,,,,,,,,,,
,,?,0.000945,0,,,,,,stimuli/images/PICTURE_2.png,JUNGLE,5ea03c73d219f50266b79ae4,24/09/1948,2020-09-12_09h30.35.749,proactive3.2,2020.1.2,Win32,60,5f5adea66120081ea0f57a61,5f5c87064848f647691ef6bf,5,,,,,,tyre,,,,,,,,,,,1,2,0,8,8,1,1,,,,,,,,,,,,,,,,,,,,,,,,,,,,,,,,,,,,,,,,,,,,,,,,,,,,,,,,,,,,,,,,,,,,,,
,,?,0.00131,0,,,,,,stimuli/images/PICTURE_509.png,APPLE,5ea03c73d219f50266b79ae4,24/09/1948,2020-09-12_09h30.35.749,proactive3.2,2020.1.2,Win32,60,5f5adea66120081ea0f57a61,5f5c87064848f647691ef6bf,5,,,,,,telephone,,,,,,,,,,,4,2,0,9,9,38,1,,,,,,,,,,,,,,,,,,,,,,,,,,,,,,,,,,,,,,,,,,,,,,,,,,,,,,,,,,,,,,,,,,,,,,
,,?,0.001065,0,,,,,,stimuli/images/PICTURE_296.png,CLOCK,5ea03c73d219f50266b79ae4,24/09/1948,2020-09-12_09h30.35.749,proactive3.2,2020.1.2,Win32,60,5f5adea66120081ea0f57a61,5f5c87064848f647691ef6bf,5,,,,,,bolt,,,,,,,,,,,2,2,0,10,10,18,1,,,,,,,,,,,,,,,,,,,,,,,,,,,,,,,,,,,,,,,,,,,,,,,,,,,,,,,,,,,,,,,,,,,,,,
,,FAMILY,11.54055,0,,,,,,stimuli/images/PICTURE_470.png,MOMENT,5ea03c73d219f50266b79ae4,24/09/1948,2020-09-12_09h30.35.749,proactive3.2,2020.1.2,Win32,60,5f5adea66120081ea0f57a61,5f5c87064848f647691ef6bf,5,,,,,,motorbike,,,,,,,,,,,5,2,0,11,11,40,1,,,,,,,,,,,,,,,,,,,,,,,,,,,,,,,,,,,,,,,,,,,,,,,,,,,,,,,,,,,,,,,,,,,,,,
,,LEADER,6.06306,1,,,,,,stimuli/images/PICTURE_215.png,LEADER,5ea03c73d219f50266b79ae4,24/09/1948,2020-09-12_09h30.35.749,proactive3.2,2020.1.2,Win32,60,5f5adea66120081ea0f57a61,5f5c87064848f647691ef6bf,5,,,,,,boot,,,,,,,,,,,5,2,0,12,12,43,1,,,,,,,,,,,,,,,,,,,,,,,,,,,,,,,,,,,,,,,,,,,,,,,,,,,,,,,,,,,,,,,,,,,,,,
,,FAMILY,5.061385,0,,,,,,stimuli/images/PICTURE_708.png,VALLEY,5ea03c73d219f50266b79ae4,24/09/1948,2020-09-12_09h30.35.749,proactive3.2,2020.1.2,Win32,60,5f5adea66120081ea0f57a61,5f5c87064848f647691ef6bf,5,,,,,,monkey,,,,,,,,,,,5,2,0,13,13,45,1,,,,,,,,,,,,,,,,,,,,,,,,,,,,,,,,,,,,,,,,,,,,,,,,,,,,,,,,,,,,,,,,,,,,,,
,,?,0.004185,0,,,,,,stimuli/images/PICTURE_654.png,COPS,5ea03c73d219f50266b79ae4,24/09/1948,2020-09-12_09h30.35.749,proactive3.2,2020.1.2,Win32,60,5f5adea66120081ea0f57a61,5f5c87064848f647691ef6bf,5,,,,,,pencil,,,,,,,,,,,2,2,0,14,14,10,1,,,,,,,,,,,,,,,,,,,,,,,,,,,,,,,,,,,,,,,,,,,,,,,,,,,,,,,,,,,,,,,,,,,,,,
,,?,0.00114,0,,,,,,stimuli/images/PICTURE_57.png,CASINO,5ea03c73d219f50266b79ae4,24/09/1948,2020-09-12_09h30.35.749,proactive3.2,2020.1.2,Win32,60,5f5adea66120081ea0f57a61,5f5c87064848f647691ef6bf,5,,,,,,stamp,,,,,,,,,,,2,2,0,15,15,12,1,,,,,,,,,,,,,,,,,,,,,,,,,,,,,,,,,,,,,,,,,,,,,,,,,,,,,,,,,,,,,,,,,,,,,,
,,?,0.002015,0,,,,,,stimuli/images/PICTURE_487.png,ROOF,5ea03c73d219f50266b79ae4,24/09/1948,2020-09-12_09h30.35.749,proactive3.2,2020.1.2,Win32,60,5f5adea66120081ea0f57a61,5f5c87064848f647691ef6bf,5,,,,,,basket,,,,,,,,,,,6,2,0,16,16,50,1,,,,,,,,,,,,,,,,,,,,,,,,,,,,,,,,,,,,,,,,,,,,,,,,,,,,,,,,,,,,,,,,,,,,,,
,,?,0.001145,0,,,,,,stimuli/images/PICTURE_667.png,GLASS,5ea03c73d219f50266b79ae4,24/09/1948,2020-09-12_09h30.35.749,proactive3.2,2020.1.2,Win32,60,5f5adea66120081ea0f57a61,5f5c87064848f647691ef6bf,5,,,,,,daisy,,,,,,,,,,,3,2,0,17,17,27,1,,,,,,,,,,,,,,,,,,,,,,,,,,,,,,,,,,,,,,,,,,,,,,,,,,,,,,,,,,,,,,,,,,,,,,
,,LEADER,3.84557,0,,,,,,stimuli/images/PICTURE_453.png,FAMILY,5ea03c73d219f50266b79ae4,24/09/1948,2020-09-12_09h30.35.749,proactive3.2,2020.1.2,Win32,60,5f5adea66120081ea0f57a61,5f5c87064848f647691ef6bf,5,,,,,,scissors,,,,,,,,,,,5,2,0,18,18,48,1,,,,,,,,,,,,,,,,,,,,,,,,,,,,,,,,,,,,,,,,,,,,,,,,,,,,,,,,,,,,,,,,,,,,,,
,,?,0.0012,0,,,,,,stimuli/images/PICTURE_215.png,BOYS,5ea03c73d219f50266b79ae4,24/09/1948,2020-09-12_09h30.35.749,proactive3.2,2020.1.2,Win32,60,5f5adea66120081ea0f57a61,5f5c87064848f647691ef6bf,5,,,,,,boot,,,,,,,,,,,3,2,0,19,19,24,1,,,,,,,,,,,,,,,,,,,,,,,,,,,,,,,,,,,,,,,,,,,,,,,,,,,,,,,,,,,,,,,,,,,,,,
,,?,0.00131,0,,,,,,stimuli/images/PICTURE_33.png,COPS,5ea03c73d219f50266b79ae4,24/09/1948,2020-09-12_09h30.35.749,proactive3.2,2020.1.2,Win32,60,5f5adea66120081ea0f57a61,5f5c87064848f647691ef6bf,5,,,,,,frame,,,,,,,,,,,3,2,0,20,20,29,1,,,,,,,,,,,,,,,,,,,,,,,,,,,,,,,,,,,,,,,,,,,,,,,,,,,,,,,,,,,,,,,,,,,,,,
,,?,0.000985,0,,,,,,stimuli/images/PICTURE_2.png,YARD,5ea03c73d219f50266b79ae4,24/09/1948,2020-09-12_09h30.35.749,proactive3.2,2020.1.2,Win32,60,5f5adea66120081ea0f57a61,5f5c87064848f647691ef6bf,5,,,,,,tyre,,,,,,,,,,,6,2,0,21,21,55,1,,,,,,,,,,,,,,,,,,,,,,,,,,,,,,,,,,,,,,,,,,,,,,,,,,,,,,,,,,,,,,,,,,,,,,
,,?,0.00087,0,,,,,,stimuli/images/PICTURE_285.png,PRINCE,5ea03c73d219f50266b79ae4,24/09/1948,2020-09-12_09h30.35.749,proactive3.2,2020.1.2,Win32,60,5f5adea66120081ea0f57a61,5f5c87064848f647691ef6bf,5,,,,,,carrot,,,,,,,,,,,3,2,0,22,22,20,1,,,,,,,,,,,,,,,,,,,,,,,,,,,,,,,,,,,,,,,,,,,,,,,,,,,,,,,,,,,,,,,,,,,,,,
,,?,0.000835,0,,,,,,stimuli/images/PICTURE_177.png,HOUSE,5ea03c73d219f50266b79ae4,24/09/1948,2020-09-12_09h30.35.749,proactive3.2,2020.1.2,Win32,60,5f5adea66120081ea0f57a61,5f5c87064848f647691ef6bf,5,,,,,,mushroom,,,,,,,,,,,3,2,0,23,23,25,1,,,,,,,,,,,,,,,,,,,,,,,,,,,,,,,,,,,,,,,,,,,,,,,,,,,,,,,,,,,,,,,,,,,,,,
,,?,0.00129,0,,,,,,stimuli/images/PICTURE_311.png,TOILET,5ea03c73d219f50266b79ae4,24/09/1948,2020-09-12_09h30.35.749,proactive3.2,2020.1.2,Win32,60,5f5adea66120081ea0f57a61,5f5c87064848f647691ef6bf,5,,,,,,razor,,,,,,,,,,,6,2,0,24,24,54,1,,,,,,,,,,,,,,,,,,,,,,,,,,,,,,,,,,,,,,,,,,,,,,,,,,,,,,,,,,,,,,,,,,,,,,
,,?,4.74688,0,,,,,,stimuli/images/PICTURE_654.png,YEAR,5ea03c73d219f50266b79ae4,24/09/1948,2020-09-12_09h30.35.749,proactive3.2,2020.1.2,Win32,60,5f5adea66120081ea0f57a61,5f5c87064848f647691ef6bf,5,,,,,,pencil,,,,,,,,,,,5,2,0,25,25,41,1,,,,,,,,,,,,,,,,,,,,,,,,,,,,,,,,,,,,,,,,,,,,,,,,,,,,,,,,,,,,,,,,,,,,,,
,,?,0.001205,0,,,,,,stimuli/images/PICTURE_160.png,HOTEL,5ea03c73d219f50266b79ae4,24/09/1948,2020-09-12_09h30.35.749,proactive3.2,2020.1.2,Win32,60,5f5adea66120081ea0f57a61,5f5c87064848f647691ef6bf,5,,,,,,wheelbarrow,,,,,,,,,,,2,2,0,26,26,16,1,,,,,,,,,,,,,,,,,,,,,,,,,,,,,,,,,,,,,,,,,,,,,,,,,,,,,,,,,,,,,,,,,,,,,,
,,?,0.001295,0,,,,,,stimuli/images/PICTURE_68.png,KIND,5ea03c73d219f50266b79ae4,24/09/1948,2020-09-12_09h30.35.749,proactive3.2,2020.1.2,Win32,60,5f5adea66120081ea0f57a61,5f5c87064848f647691ef6bf,5,,,,,,candle,,,,,,,,,,,3,2,0,27,27,23,1,,,,,,,,,,,,,,,,,,,,,,,,,,,,,,,,,,,,,,,,,,,,,,,,,,,,,,,,,,,,,,,,,,,,,,
,,?,0.000935,0,,,,,,stimuli/images/PICTURE_509.png,BATH,5ea03c73d219f50266b79ae4,24/09/1948,2020-09-12_09h30.35.749,proactive3.2,2020.1.2,Win32,60,5f5adea66120081ea0f57a61,5f5c87064848f647691ef6bf,5,,,,,,telephone,,,,,,,,,,,2,2,0,28,28,15,1,,,,,,,,,,,,,,,,,,,,,,,,,,,,,,,,,,,,,,,,,,,,,,,,,,,,,,,,,,,,,,,,,,,,,,
,,?,5.68965,0,,,,,,stimuli/images/PICTURE_356.png,CANDY,5ea03c73d219f50266b79ae4,24/09/1948,2020-09-12_09h30.35.749,proactive3.2,2020.1.2,Win32,60,5f5adea66120081ea0f57a61,5f5c87064848f647691ef6bf,5,,,,,,pawn,,,,,,,,,,,5,2,0,29,29,46,1,,,,,,,,,,,,,,,,,,,,,,,,,,,,,,,,,,,,,,,,,,,,,,,,,,,,,,,,,,,,,,,,,,,,,,
,,?,3.077985,0,,,,,,stimuli/images/PICTURE_509.png,MILLER,5ea03c73d219f50266b79ae4,24/09/1948,2020-09-12_09h30.35.749,proactive3.2,2020.1.2,Win32,60,5f5adea66120081ea0f57a61,5f5c87064848f647691ef6bf,5,,,,,,telephone,,,,,,,,,,,5,2,0,30,30,49,1,,,,,,,,,,,,,,,,,,,,,,,,,,,,,,,,,,,,,,,,,,,,,,,,,,,,,,,,,,,,,,,,,,,,,,
,,?,0.001585,0,,,,,,stimuli/images/PICTURE_348.png,DUDE,5ea03c73d219f50266b79ae4,24/09/1948,2020-09-12_09h30.35.749,proactive3.2,2020.1.2,Win32,60,5f5adea66120081ea0f57a61,5f5c87064848f647691ef6bf,5,,,,,,pepper,,,,,,,,,,,6,2,0,31,31,59,1,,,,,,,,,,,,,,,,,,,,,,,,,,,,,,,,,,,,,,,,,,,,,,,,,,,,,,,,,,,,,,,,,,,,,,
,,?,0.00115,0,,,,,,stimuli/images/PICTURE_255.png,PENNY,5ea03c73d219f50266b79ae4,24/09/1948,2020-09-12_09h30.35.749,proactive3.2,2020.1.2,Win32,60,5f5adea66120081ea0f57a61,5f5c87064848f647691ef6bf,5,,,,,,shovel,,,,,,,,,,,2,2,0,32,32,19,1,,,,,,,,,,,,,,,,,,,,,,,,,,,,,,,,,,,,,,,,,,,,,,,,,,,,,,,,,,,,,,,,,,,,,,
,,?,0.00111,0,,,,,,stimuli/images/PICTURE_509.png,SHOTS,5ea03c73d219f50266b79ae4,24/09/1948,2020-09-12_09h30.35.749,proactive3.2,2020.1.2,Win32,60,5f5adea66120081ea0f57a61,5f5c87064848f647691ef6bf,5,,,,,,telephone,,,,,,,,,,,1,2,0,33,33,7,1,,,,,,,,,,,,,,,,,,,,,,,,,,,,,,,,,,,,,,,,,,,,,,,,,,,,,,,,,,,,,,,,,,,,,,
,,?,0.001375,0,,,,,,stimuli/images/PICTURE_95.png,NIGHT,5ea03c73d219f50266b79ae4,24/09/1948,2020-09-12_09h30.35.749,proactive3.2,2020.1.2,Win32,60,5f5adea66120081ea0f57a61,5f5c87064848f647691ef6bf,5,,,,,,suitcase,,,,,,,,,,,4,2,0,34,34,37,1,,,,,,,,,,,,,,,,,,,,,,,,,,,,,,,,,,,,,,,,,,,,,,,,,,,,,,,,,,,,,,,,,,,,,,
,,?,0.00105,0,,,,,,stimuli/images/PICTURE_452.png,COPS,5ea03c73d219f50266b79ae4,24/09/1948,2020-09-12_09h30.35.749,proactive3.2,2020.1.2,Win32,60,5f5adea66120081ea0f57a61,5f5c87064848f647691ef6bf,5,,,,,,watch,,,,,,,,,,,1,2,0,35,35,0,1,,,,,,,,,,,,,,,,,,,,,,,,,,,,,,,,,,,,,,,,,,,,,,,,,,,,,,,,,,,,,,,,,,,,,,
,,?,0.00115,0,,,,,,stimuli/images/PICTURE_504.png,HOUSE,5ea03c73d219f50266b79ae4,24/09/1948,2020-09-12_09h30.35.749,proactive3.2,2020.1.2,Win32,60,5f5adea66120081ea0f57a61,5f5c87064848f647691ef6bf,5,,,,,,wheel,,,,,,,,,,,4,2,0,36,36,36,1,,,,,,,,,,,,,,,,,,,,,,,,,,,,,,,,,,,,,,,,,,,,,,,,,,,,,,,,,,,,,,,,,,,,,,
,,?,0.000925,0,,,,,,stimuli/images/PICTURE_297.png,BODY,5ea03c73d219f50266b79ae4,24/09/1948,2020-09-12_09h30.35.749,proactive3.2,2020.1.2,Win32,60,5f5adea66120081ea0f57a61,5f5c87064848f647691ef6bf,5,,,,,,aeroplane,,,,,,,,,,,6,2,0,37,37,51,1,,,,,,,,,,,,,,,,,,,,,,,,,,,,,,,,,,,,,,,,,,,,,,,,,,,,,,,,,,,,,,,,,,,,,,
,,?,0.00089,0,,,,,,stimuli/images/PICTURE_677.png,FAMILY,5ea03c73d219f50266b79ae4,24/09/1948,2020-09-12_09h30.35.749,proactive3.2,2020.1.2,Win32,60,5f5adea66120081ea0f57a61,5f5c87064848f647691ef6bf,5,,,,,,map,,,,,,,,,,,6,2,0,38,38,53,1,,,,,,,,,,,,,,,,,,,,,,,,,,,,,,,,,,,,,,,,,,,,,,,,,,,,,,,,,,,,,,,,,,,,,,
,,?,0.001135,0,,,,,,stimuli/images/PICTURE_141.png,CLIENT,5ea03c73d219f50266b79ae4,24/09/1948,2020-09-12_09h30.35.749,proactive3.2,2020.1.2,Win32,60,5f5adea66120081ea0f57a61,5f5c87064848f647691ef6bf,5,,,,,,sunflower,,,,,,,,,,,4,2,0,39,39,30,1,,,,,,,,,,,,,,,,,,,,,,,,,,,,,,,,,,,,,,,,,,,,,,,,,,,,,,,,,,,,,,,,,,,,,,
,,?,0.000975,0,,,,,,stimuli/images/PICTURE_655.png,SALE,5ea03c73d219f50266b79ae4,24/09/1948,2020-09-12_09h30.35.749,proactive3.2,2020.1.2,Win32,60,5f5adea66120081ea0f57a61,5f5c87064848f647691ef6bf,5,,,,,,megaphone,,,,,,,,,,,6,2,0,40,40,57,1,,,,,,,,,,,,,,,,,,,,,,,,,,,,,,,,,,,,,,,,,,,,,,,,,,,,,,,,,,,,,,,,,,,,,,
,,?,0.00084,0,,,,,,stimuli/images/PICTURE_57.png,CANDY,5ea03c73d219f50266b79ae4,24/09/1948,2020-09-12_09h30.35.749,proactive3.2,2020.1.2,Win32,60,5f5adea66120081ea0f57a61,5f5c87064848f647691ef6bf,5,,,,,,stamp,,,,,,,,,,,6,2,0,41,41,52,1,,,,,,,,,,,,,,,,,,,,,,,,,,,,,,,,,,,,,,,,,,,,,,,,,,,,,,,,,,,,,,,,,,,,,,
,,?,0.00082,0,,,,,,stimuli/images/PICTURE_147.png,LEADER,5ea03c73d219f50266b79ae4,24/09/1948,2020-09-12_09h30.35.749,proactive3.2,2020.1.2,Win32,60,5f5adea66120081ea0f57a61,5f5c87064848f647691ef6bf,5,,,,,,hanger,,,,,,,,,,,4,2,0,42,42,33,1,,,,,,,,,,,,,,,,,,,,,,,,,,,,,,,,,,,,,,,,,,,,,,,,,,,,,,,,,,,,,,,,,,,,,,
,,?,0.001055,0,,,,,,stimuli/images/PICTURE_677.png,PHOTO,5ea03c73d219f50266b79ae4,24/09/1948,2020-09-12_09h30.35.749,proactive3.2,2020.1.2,Win32,60,5f5adea66120081ea0f57a61,5f5c87064848f647691ef6bf,5,,,,,,map,,,,,,,,,,,2,2,0,43,43,14,1,,,,,,,,,,,,,,,,,,,,,,,,,,,,,,,,,,,,,,,,,,,,,,,,,,,,,,,,,,,,,,,,,,,,,,
,,?,0.001065,0,,,,,,stimuli/images/PICTURE_405.png,JUNGLE,5ea03c73d219f50266b79ae4,24/09/1948,2020-09-12_09h30.35.749,proactive3.2,2020.1.2,Win32,60,5f5adea66120081ea0f57a61,5f5c87064848f647691ef6bf,5,,,,,,anchor,,,,,,,,,,,2,2,0,44,44,13,1,,,,,,,,,,,,,,,,,,,,,,,,,,,,,,,,,,,,,,,,,,,,,,,,,,,,,,,,,,,,,,,,,,,,,,
,,?,0.000885,0,,,,,,stimuli/images/PICTURE_487.png,POLICY,5ea03c73d219f50266b79ae4,24/09/1948,2020-09-12_09h30.35.749,proactive3.2,2020.1.2,Win32,60,5f5adea66120081ea0f57a61,5f5c87064848f647691ef6bf,5,,,,,,basket,,,,,,,,,,,4,2,0,45,45,34,1,,,,,,,,,,,,,,,,,,,,,,,,,,,,,,,,,,,,,,,,,,,,,,,,,,,,,,,,,,,,,,,,,,,,,,
,,?,0.000995,0,,,,,,stimuli/images/PICTURE_491.png,SERIES,5ea03c73d219f50266b79ae4,24/09/1948,2020-09-12_09h30.35.749,proactive3.2,2020.1.2,Win32,60,5f5adea66120081ea0f57a61,5f5c87064848f647691ef6bf,5,,,,,,rug,,,,,,,,,,,4,2,0,46,46,39,1,,,,,,,,,,,,,,,,,,,,,,,,,,,,,,,,,,,,,,,,,,,,,,,,,,,,,,,,,,,,,,,,,,,,,,
,,?,0.000885,0,,,,,,stimuli/images/PICTURE_123.png,SALE,5ea03c73d219f50266b79ae4,24/09/1948,2020-09-12_09h30.35.749,proactive3.2,2020.1.2,Win32,60,5f5adea66120081ea0f57a61,5f5c87064848f647691ef6bf,5,,,,,,dart,,,,,,,,,,,1,2,0,47,47,8,1,,,,,,,,,,,,,,,,,,,,,,,,,,,,,,,,,,,,,,,,,,,,,,,,,,,,,,,,,,,,,,,,,,,,,,
,,?,0.000835,0,,,,,,stimuli/images/PICTURE_348.png,TOILET,5ea03c73d219f50266b79ae4,24/09/1948,2020-09-12_09h30.35.749,proactive3.2,2020.1.2,Win32,60,5f5adea66120081ea0f57a61,5f5c87064848f647691ef6bf,5,,,,,,pepper,,,,,,,,,,,1,2,0,48,48,4,1,,,,,,,,,,,,,,,,,,,,,,,,,,,,,,,,,,,,,,,,,,,,,,,,,,,,,,,,,,,,,,,,,,,,,,
,,?,0.00094,0,,,,,,stimuli/images/PICTURE_470.png,BEAUTY,5ea03c73d219f50266b79ae4,24/09/1948,2020-09-12_09h30.35.749,proactive3.2,2020.1.2,Win32,60,5f5adea66120081ea0f57a61,5f5c87064848f647691ef6bf,5,,,,,,motorbike,,,,,,,,,,,3,2,0,49,49,26,1,,,,,,,,,,,,,,,,,,,,,,,,,,,,,,,,,,,,,,,,,,,,,,,,,,,,,,,,,,,,,,,,,,,,,,
,,?,6.07928,0,,,,,,stimuli/images/PICTURE_750.png,POLICY,5ea03c73d219f50266b79ae4,24/09/1948,2020-09-12_09h30.35.749,proactive3.2,2020.1.2,Win32,60,5f5adea66120081ea0f57a61,5f5c87064848f647691ef6bf,5,,,,,,kettle,,,,,,,,,,,5,2,0,50,50,44,1,,,,,,,,,,,,,,,,,,,,,,,,,,,,,,,,,,,,,,,,,,,,,,,,,,,,,,,,,,,,,,,,,,,,,,
,,?,0.001405,0,,,,,,stimuli/images/PICTURE_564.png,PLENTY,5ea03c73d219f50266b79ae4,24/09/1948,2020-09-12_09h30.35.749,proactive3.2,2020.1.2,Win32,60,5f5adea66120081ea0f57a61,5f5c87064848f647691ef6bf,5,,,,,,spoon,,,,,,,,,,,2,2,0,51,51,11,1,,,,,,,,,,,,,,,,,,,,,,,,,,,,,,,,,,,,,,,,,,,,,,,,,,,,,,,,,,,,,,,,,,,,,,
,,?,0.00145,0,,,,,,stimuli/images/PICTURE_208.png,SPIRIT,5ea03c73d219f50266b79ae4,24/09/1948,2020-09-12_09h30.35.749,proactive3.2,2020.1.2,Win32,60,5f5adea66120081ea0f57a61,5f5c87064848f647691ef6bf,5,,,,,,microphone,,,,,,,,,,,3,2,0,52,52,28,1,,,,,,,,,,,,,,,,,,,,,,,,,,,,,,,,,,,,,,,,,,,,,,,,,,,,,,,,,,,,,,,,,,,,,,
,,?,0.00097,0,,,,,,stimuli/images/PICTURE_93.png,GIRL,5ea03c73d219f50266b79ae4,24/09/1948,2020-09-12_09h30.35.749,proactive3.2,2020.1.2,Win32,60,5f5adea66120081ea0f57a61,5f5c87064848f647691ef6bf,5,,,,,,skateboard,,,,,,,,,,,4,2,0,53,53,31,1,,,,,,,,,,,,,,,,,,,,,,,,,,,,,,,,,,,,,,,,,,,,,,,,,,,,,,,,,,,,,,,,,,,,,,
,,?,0.00099,0,,,,,,stimuli/images/PICTURE_285.png,WRITER,5ea03c73d219f50266b79ae4,24/09/1948,2020-09-12_09h30.35.749,proactive3.2,2020.1.2,Win32,60,5f5adea66120081ea0f57a61,5f5c87064848f647691ef6bf,5,,,,,,carrot,,,,,,,,,,,1,2,0,54,54,6,1,,,,,,,,,,,,,,,,,,,,,,,,,,,,,,,,,,,,,,,,,,,,,,,,,,,,,,,,,,,,,,,,,,,,,,
,,?,0.00138,0,,,,,,stimuli/images/PICTURE_311.png,FLESH,5ea03c73d219f50266b79ae4,24/09/1948,2020-09-12_09h30.35.749,proactive3.2,2020.1.2,Win32,60,5f5adea66120081ea0f57a61,5f5c87064848f647691ef6bf,5,,,,,,razor,,,,,,,,,,,1,2,0,55,55,3,1,,,,,,,,,,,,,,,,,,,,,,,,,,,,,,,,,,,,,,,,,,,,,,,,,,,,,,,,,,,,,,,,,,,,,,
,,?,0.001095,0,,,,,,stimuli/images/PICTURE_2.png,AREA,5ea03c73d219f50266b79ae4,24/09/1948,2020-09-12_09h30.35.749,proactive3.2,2020.1.2,Win32,60,5f5adea66120081ea0f57a61,5f5c87064848f647691ef6bf,5,,,,,,tyre,,,,,,,,,,,4,2,0,56,56,32,1,,,,,,,,,,,,,,,,,,,,,,,,,,,,,,,,,,,,,,,,,,,,,,,,,,,,,,,,,,,,,,,,,,,,,,
,,?,0.00097,0,,,,,,stimuli/images/PICTURE_403.png,FAMILY,5ea03c73d219f50266b79ae4,24/09/1948,2020-09-12_09h30.35.749,proactive3.2,2020.1.2,Win32,60,5f5adea66120081ea0f57a61,5f5c87064848f647691ef6bf,5,,,,,,cathedral,,,,,,,,,,,1,2,0,57,57,9,1,,,,,,,,,,,,,,,,,,,,,,,,,,,,,,,,,,,,,,,,,,,,,,,,,,,,,,,,,,,,,,,,,,,,,,
,,?,0.000955,0,,,,,,stimuli/images/PICTURE_405.png,HOUSE,5ea03c73d219f50266b79ae4,24/09/1948,2020-09-12_09h30.35.749,proactive3.2,2020.1.2,Win32,60,5f5adea66120081ea0f57a61,5f5c87064848f647691ef6bf,5,,,,,,anchor,,,,,,,,,,,1,2,0,58,58,2,1,,,,,,,,,,,,,,,,,,,,,,,,,,,,,,,,,,,,,,,,,,,,,,,,,,,,,,,,,,,,,,,,,,,,,,
,,?,4.770115,0,,,,,,stimuli/images/PICTURE_688.png,CLOCK,5ea03c73d219f50266b79ae4,24/09/1948,2020-09-12_09h30.35.749,proactive3.2,2020.1.2,Win32,60,5f5adea66120081ea0f57a61,5f5c87064848f647691ef6bf,5,,,,,,runner,,,,,,,,,,,5,2,0,59,59,42,1,,,,,,,,,,,,,,,,,,,,,,,,,,,,,,,,,,,,,,,,,,,,,,,,,,,,,,,,,,,,,,,,,,,,,,
,,,,,,,,,,,,5ea03c73d219f50266b79ae4,24/09/1948,2020-09-12_09h30.35.749,proactive3.2,2020.1.2,Win32,60,5f5adea66120081ea0f57a61,5f5c87064848f647691ef6bf,5,,,,,,,,,,,,,,,,,,,,,,,,0,0,0,2,1,stimuli/learn-block3.csv,,,,,,,,,,,,,,,,,,,,,,,,,,,,,,,,,,,,,,,,,,,,,,,,,,,,,,,,,,,,,,,,
,,,,,,,,,,stimuli/images/PICTURE_692.png,MONTH,5ea03c73d219f50266b79ae4,24/09/1948,2020-09-12_09h30.35.749,proactive3.2,2020.1.2,Win32,60,5f5adea66120081ea0f57a61,5f5c87064848f647691ef6bf,5,,,,,,cherry,,,,,,0,0,0,16,1,2,0,,,,,,,,,,,,,,,,,,,,,,,,,,,,,,,,,,,,,,,,,,,,,,,,,,,,,,,,,,,,,,,,,,,,,,,,,,,
,,,,,,,,,,stimuli/images/PICTURE_147.png,MOMENT,5ea03c73d219f50266b79ae4,24/09/1948,2020-09-12_09h30.35.749,proactive3.2,2020.1.2,Win32,60,5f5adea66120081ea0f57a61,5f5c87064848f647691ef6bf,5,,,,,,hanger,,,,,,0,1,1,51,1,6,0,,,,,,,,,,,,,,,,,,,,,,,,,,,,,,,,,,,,,,,,,,,,,,,,,,,,,,,,,,,,,,,,,,,,,,,,,,,
,,,,,,,,,,stimuli/images/PICTURE_339.png,PLENTY,5ea03c73d219f50266b79ae4,24/09/1948,2020-09-12_09h30.35.749,proactive3.2,2020.1.2,Win32,60,5f5adea66120081ea0f57a61,5f5c87064848f647691ef6bf,5,,,,,,backpack,,,,,,0,2,2,0,1,1,0,,,,,,,,,,,,,,,,,,,,,,,,,,,,,,,,,,,,,,,,,,,,,,,,,,,,,,,,,,,,,,,,,,,,,,,,,,,
,,,,,,,,,,stimuli/images/PICTURE_667.png,BATH,5ea03c73d219f50266b79ae4,24/09/1948,2020-09-12_09h30.35.749,proactive3.2,2020.1.2,Win32,60,5f5adea66120081ea0f57a61,5f5c87064848f647691ef6bf,5,,,,,,daisy,,,,,,0,3,3,4,1,1,0,,,,,,,,,,,,,,,,,,,,,,,,,,,,,,,,,,,,,,,,,,,,,,,,,,,,,,,,,,,,,,,,,,,,,,,,,,,
,,,,,,,,,,stimuli/images/PICTURE_208.png,MONTH,5ea03c73d219f50266b79ae4,24/09/1948,2020-09-12_09h30.35.749,proactive3.2,2020.1.2,Win32,60,5f5adea66120081ea0f57a61,5f5c87064848f647691ef6bf,5,,,,,,microphone,,,,,,0,4,4,53,1,6,0,,,,,,,,,,,,,,,,,,,,,,,,,,,,,,,,,,,,,,,,,,,,,,,,,,,,,,,,,,,,,,,,,,,,,,,,,,,
,,,,,,,,,,stimuli/images/PICTURE_348.png,SPEECH,5ea03c73d219f50266b79ae4,24/09/1948,2020-09-12_09h30.35.749,proactive3.2,2020.1.2,Win32,60,5f5adea66120081ea0f57a61,5f5c87064848f647691ef6bf,5,,,,,,pepper,,,,,,0,5,5,20,1,3,0,,,,,,,,,,,,,,,,,,,,,,,,,,,,,,,,,,,,,,,,,,,,,,,,,,,,,,,,,,,,,,,,,,,,,,,,,,,
,,,,,,,,,,stimuli/images/PICTURE_85.png,THING,5ea03c73d219f50266b79ae4,24/09/1948,2020-09-12_09h30.35.749,proactive3.2,2020.1.2,Win32,60,5f5adea66120081ea0f57a61,5f5c87064848f647691ef6bf,5,,,,,,diamond,,,,,,0,6,6,15,1,2,0,,,,,,,,,,,,,,,,,,,,,,,,,,,,,,,,,,,,,,,,,,,,,,,,,,,,,,,,,,,,,,,,,,,,,,,,,,,
,,,,,,,,,,stimuli/images/PICTURE_654.png,VALLEY,5ea03c73d219f50266b79ae4,24/09/1948,2020-09-12_09h30.35.749,proactive3.2,2020.1.2,Win32,60,5f5adea66120081ea0f57a61,5f5c87064848f647691ef6bf,5,,,,,,pencil,,,,,,0,7,7,1,1,1,0,,,,,,,,,,,,,,,,,,,,,,,,,,,,,,,,,,,,,,,,,,,,,,,,,,,,,,,,,,,,,,,,,,,,,,,,,,,
,,,,,,,,,,stimuli/images/PICTURE_380.png,DEATH,5ea03c73d219f50266b79ae4,24/09/1948,2020-09-12_09h30.35.749,proactive3.2,2020.1.2,Win32,60,5f5adea66120081ea0f57a61,5f5c87064848f647691ef6bf,5,,,,,,gorilla,,,,,,0,8,8,49,1,5,0,,,,,,,,,,,,,,,,,,,,,,,,,,,,,,,,,,,,,,,,,,,,,,,,,,,,,,,,,,,,,,,,,,,,,,,,,,,
,,,,,,,,,,stimuli/images/PICTURE_491.png,ROOF,5ea03c73d219f50266b79ae4,24/09/1948,2020-09-12_09h30.35.749,proactive3.2,2020.1.2,Win32,60,5f5adea66120081ea0f57a61,5f5c87064848f647691ef6bf,5,,,,,,rug,,,,,,0,9,9,24,1,3,0,,,,,,,,,,,,,,,,,,,,,,,,,,,,,,,,,,,,,,,,,,,,,,,,,,,,,,,,,,,,,,,,,,,,,,,,,,,
,,,,,,,,,,stimuli/images/PICTURE_95.png,STYLE,5ea03c73d219f50266b79ae4,24/09/1948,2020-09-12_09h30.35.749,proactive3.2,2020.1.2,Win32,60,5f5adea66120081ea0f57a61,5f5c87064848f647691ef6bf,5,,,,,,suitcase,,,,,,0,10,10,25,1,3,0,,,,,,,,,,,,,,,,,,,,,,,,,,,,,,,,,,,,,,,,,,,,,,,,,,,,,,,,,,,,,,,,,,,,,,,,,,,
,,,,,,,,,,stimuli/images/PICTURE_248.png,DOZEN,5ea03c73d219f50266b79ae4,24/09/1948,2020-09-12_09h30.35.749,proactive3.2,2020.1.2,Win32,60,5f5adea66120081ea0f57a61,5f5c87064848f647691ef6bf,5,,,,,,cart,,,,,,0,11,11,39,1,4,0,,,,,,,,,,,,,,,,,,,,,,,,,,,,,,,,,,,,,,,,,,,,,,,,,,,,,,,,,,,,,,,,,,,,,,,,,,,
,,,,,,,,,,stimuli/images/PICTURE_469.png,LETTER,5ea03c73d219f50266b79ae4,24/09/1948,2020-09-12_09h30.35.749,proactive3.2,2020.1.2,Win32,60,5f5adea66120081ea0f57a61,5f5c87064848f647691ef6bf,5,,,,,,stool,,,,,,0,12,12,42,1,5,0,,,,,,,,,,,,,,,,,,,,,,,,,,,,,,,,,,,,,,,,,,,,,,,,,,,,,,,,,,,,,,,,,,,,,,,,,,,
,,,,,,,,,,stimuli/images/PICTURE_675.png,WEAPON,5ea03c73d219f50266b79ae4,24/09/1948,2020-09-12_09h30.35.749,proactive3.2,2020.1.2,Win32,60,5f5adea66120081ea0f57a61,5f5c87064848f647691ef6bf,5,,,,,,windmill,,,,,,0,13,13,32,1,4,0,,,,,,,,,,,,,,,,,,,,,,,,,,,,,,,,,,,,,,,,,,,,,,,,,,,,,,,,,,,,,,,,,,,,,,,,,,,
,,,,,,,,,,stimuli/images/PICTURE_160.png,LEADER,5ea03c73d219f50266b79ae4,24/09/1948,2020-09-12_09h30.35.749,proactive3.2,2020.1.2,Win32,60,5f5adea66120081ea0f57a61,5f5c87064848f647691ef6bf,5,,,,,,wheelbarrow,,,,,,0,14,14,3,1,1,0,,,,,,,,,,,,,,,,,,,,,,,,,,,,,,,,,,,,,,,,,,,,,,,,,,,,,,,,,,,,,,,,,,,,,,,,,,,
,,,,,,,,,,stimuli/images/PICTURE_380.png,PHOTO,5ea03c73d219f50266b79ae4,24/09/1948,2020-09-12_09h30.35.749,proactive3.2,2020.1.2,Win32,60,5f5adea66120081ea0f57a61,5f5c87064848f647691ef6bf,5,,,,,,gorilla,,,,,,0,15,15,52,1,6,0,,,,,,,,,,,,,,,,,,,,,,,,,,,,,,,,,,,,,,,,,,,,,,,,,,,,,,,,,,,,,,,,,,,,,,,,,,,
,,,,,,,,,,stimuli/images/PICTURE_488.png,STYLE,5ea03c73d219f50266b79ae4,24/09/1948,2020-09-12_09h30.35.749,proactive3.2,2020.1.2,Win32,60,5f5adea66120081ea0f57a61,5f5c87064848f647691ef6bf,5,,,,,,sun,,,,,,0,16,16,33,1,4,0,,,,,,,,,,,,,,,,,,,,,,,,,,,,,,,,,,,,,,,,,,,,,,,,,,,,,,,,,,,,,,,,,,,,,,,,,,,
,,,,,,,,,,stimuli/images/PICTURE_285.png,ADVICE,5ea03c73d219f50266b79ae4,24/09/1948,2020-09-12_09h30.35.749,proactive3.2,2020.1.2,Win32,60,5f5adea66120081ea0f57a61,5f5c87064848f647691ef6bf,5,,,,,,carrot,,,,,,0,17,17,12,1,2,0,,,,,,,,,,,,,,,,,,,,,,,,,,,,,,,,,,,,,,,,,,,,,,,,,,,,,,,,,,,,,,,,,,,,,,,,,,,
,,,,,,,,,,stimuli/images/PICTURE_487.png,FLIGHT,5ea03c73d219f50266b79ae4,24/09/1948,2020-09-12_09h30.35.749,proactive3.2,2020.1.2,Win32,60,5f5adea66120081ea0f57a61,5f5c87064848f647691ef6bf,5,,,,,,basket,,,,,,0,18,18,9,1,1,0,,,,,,,,,,,,,,,,,,,,,,,,,,,,,,,,,,,,,,,,,,,,,,,,,,,,,,,,,,,,,,,,,,,,,,,,,,,
,,,,,,,,,,stimuli/images/PICTURE_308.png,ESTATE,5ea03c73d219f50266b79ae4,24/09/1948,2020-09-12_09h30.35.749,proactive3.2,2020.1.2,Win32,60,5f5adea66120081ea0f57a61,5f5c87064848f647691ef6bf,5,,,,,,dice,,,,,,0,19,19,46,1,5,0,,,,,,,,,,,,,,,,,,,,,,,,,,,,,,,,,,,,,,,,,,,,,,,,,,,,,,,,,,,,,,,,,,,,,,,,,,,
,,,,,,,,,,stimuli/images/PICTURE_327.png,BEAUTY,5ea03c73d219f50266b79ae4,24/09/1948,2020-09-12_09h30.35.749,proactive3.2,2020.1.2,Win32,60,5f5adea66120081ea0f57a61,5f5c87064848f647691ef6bf,5,,,,,,helmet,,,,,,0,20,20,48,1,5,0,,,,,,,,,,,,,,,,,,,,,,,,,,,,,,,,,,,,,,,,,,,,,,,,,,,,,,,,,,,,,,,,,,,,,,,,,,,
,,,,,,,,,,stimuli/images/PICTURE_453.png,DUDE,5ea03c73d219f50266b79ae4,24/09/1948,2020-09-12_09h30.35.749,proactive3.2,2020.1.2,Win32,60,5f5adea66120081ea0f57a61,5f5c87064848f647691ef6bf,5,,,,,,scissors,,,,,,0,21,21,27,1,3,0,,,,,,,,,,,,,,,,,,,,,,,,,,,,,,,,,,,,,,,,,,,,,,,,,,,,,,,,,,,,,,,,,,,,,,,,,,,
,,,,,,,,,,stimuli/images/PICTURE_708.png,PENNY,5ea03c73d219f50266b79ae4,24/09/1948,2020-09-12_09h30.35.749,proactive3.2,2020.1.2,Win32,60,5f5adea66120081ea0f57a61,5f5c87064848f647691ef6bf,5,,,,,,monkey,,,,,,0,22,22,31,1,4,0,,,,,,,,,,,,,,,,,,,,,,,,,,,,,,,,,,,,,,,,,,,,,,,,,,,,,,,,,,,,,,,,,,,,,,,,,,,
,,,,,,,,,,stimuli/images/PICTURE_177.png,CARS,5ea03c73d219f50266b79ae4,24/09/1948,2020-09-12_09h30.35.749,proactive3.2,2020.1.2,Win32,60,5f5adea66120081ea0f57a61,5f5c87064848f647691ef6bf,5,,,,,,mushroom,,,,,,0,23,23,35,1,4,0,,,,,,,,,,,,,,,,,,,,,,,,,,,,,,,,,,,,,,,,,,,,,,,,,,,,,,,,,,,,,,,,,,,,,,,,,,,
,,,,,,,,,,stimuli/images/PICTURE_123.png,ADVICE,5ea03c73d219f50266b79ae4,24/09/1948,2020-09-12_09h30.35.749,proactive3.2,2020.1.2,Win32,60,5f5adea66120081ea0f57a61,5f5c87064848f647691ef6bf,5,,,,,,dart,,,,,,0,24,24,40,1,5,0,,,,,,,,,,,,,,,,,,,,,,,,,,,,,,,,,,,,,,,,,,,,,,,,,,,,,,,,,,,,,,,,,,,,,,,,,,,
,,,,,,,,,,stimuli/images/PICTURE_677.png,MILE,5ea03c73d219f50266b79ae4,24/09/1948,2020-09-12_09h30.35.749,proactive3.2,2020.1.2,Win32,60,5f5adea66120081ea0f57a61,5f5c87064848f647691ef6bf,5,,,,,,map,,,,,,0,25,25,30,1,4,0,,,,,,,,,,,,,,,,,,,,,,,,,,,,,,,,,,,,,,,,,,,,,,,,,,,,,,,,,,,,,,,,,,,,,,,,,,,
,,,,,,,,,,stimuli/images/PICTURE_744.png,SYSTEM,5ea03c73d219f50266b79ae4,24/09/1948,2020-09-12_09h30.35.749,proactive3.2,2020.1.2,Win32,60,5f5adea66120081ea0f57a61,5f5c87064848f647691ef6bf,5,,,,,,ring,,,,,,0,26,26,43,1,5,0,,,,,,,,,,,,,,,,,,,,,,,,,,,,,,,,,,,,,,,,,,,,,,,,,,,,,,,,,,,,,,,,,,,,,,,,,,,
,,,,,,,,,,stimuli/images/PICTURE_208.png,LOTS,5ea03c73d219f50266b79ae4,24/09/1948,2020-09-12_09h30.35.749,proactive3.2,2020.1.2,Win32,60,5f5adea66120081ea0f57a61,5f5c87064848f647691ef6bf,5,,,,,,microphone,,,,,,0,27,27,10,1,2,0,,,,,,,,,,,,,,,,,,,,,,,,,,,,,,,,,,,,,,,,,,,,,,,,,,,,,,,,,,,,,,,,,,,,,,,,,,,
,,,,,,,,,,stimuli/images/PICTURE_509.png,PHOTO,5ea03c73d219f50266b79ae4,24/09/1948,2020-09-12_09h30.35.749,proactive3.2,2020.1.2,Win32,60,5f5adea66120081ea0f57a61,5f5c87064848f647691ef6bf,5,,,,,,telephone,,,,,,0,28,28,21,1,3,0,,,,,,,,,,,,,,,,,,,,,,,,,,,,,,,,,,,,,,,,,,,,,,,,,,,,,,,,,,,,,,,,,,,,,,,,,,,
,,,,,,,,,,stimuli/images/PICTURE_453.png,PLENTY,5ea03c73d219f50266b79ae4,24/09/1948,2020-09-12_09h30.35.749,proactive3.2,2020.1.2,Win32,60,5f5adea66120081ea0f57a61,5f5c87064848f647691ef6bf,5,,,,,,scissors,,,,,,0,29,29,56,1,6,0,,,,,,,,,,,,,,,,,,,,,,,,,,,,,,,,,,,,,,,,,,,,,,,,,,,,,,,,,,,,,,,,,,,,,,,,,,,
,,,,,,,,,,stimuli/images/PICTURE_491.png,WRITER,5ea03c73d219f50266b79ae4,24/09/1948,2020-09-12_09h30.35.749,proactive3.2,2020.1.2,Win32,60,5f5adea66120081ea0f57a61,5f5c87064848f647691ef6bf,5,,,,,,rug,,,,,,0,30,30,57,1,6,0,,,,,,,,,,,,,,,,,,,,,,,,,,,,,,,,,,,,,,,,,,,,,,,,,,,,,,,,,,,,,,,,,,,,,,,,,,,
,,,,,,,,,,stimuli/images/PICTURE_151.png,GIRL,5ea03c73d219f50266b79ae4,24/09/1948,2020-09-12_09h30.35.749,proactive3.2,2020.1.2,Win32,60,5f5adea66120081ea0f57a61,5f5c87064848f647691ef6bf,5,,,,,,tray,,,,,,0,31,31,19,1,2,0,,,,,,,,,,,,,,,,,,,,,,,,,,,,,,,,,,,,,,,,,,,,,,,,,,,,,,,,,,,,,,,,,,,,,,,,,,,
,,,,,,,,,,stimuli/images/PICTURE_233.png,WOMEN,5ea03c73d219f50266b79ae4,24/09/1948,2020-09-12_09h30.35.749,proactive3.2,2020.1.2,Win32,60,5f5adea66120081ea0f57a61,5f5c87064848f647691ef6bf,5,,,,,,salt,,,,,,0,32,32,38,1,4,0,,,,,,,,,,,,,,,,,,,,,,,,,,,,,,,,,,,,,,,,,,,,,,,,,,,,,,,,,,,,,,,,,,,,,,,,,,,
,,,,,,,,,,stimuli/images/PICTURE_449.png,THING,5ea03c73d219f50266b79ae4,24/09/1948,2020-09-12_09h30.35.749,proactive3.2,2020.1.2,Win32,60,5f5adea66120081ea0f57a61,5f5c87064848f647691ef6bf,5,,,,,,bench,,,,,,0,33,33,59,1,6,0,,,,,,,,,,,,,,,,,,,,,,,,,,,,,,,,,,,,,,,,,,,,,,,,,,,,,,,,,,,,,,,,,,,,,,,,,,,
,,,,,,,,,,stimuli/images/PICTURE_208.png,THING,5ea03c73d219f50266b79ae4,24/09/1948,2020-09-12_09h30.35.749,proactive3.2,2020.1.2,Win32,60,5f5adea66120081ea0f57a61,5f5c87064848f647691ef6bf,5,,,,,,microphone,,,,,,0,34,34,47,1,5,0,,,,,,,,,,,,,,,,,,,,,,,,,,,,,,,,,,,,,,,,,,,,,,,,,,,,,,,,,,,,,,,,,,,,,,,,,,,
,,,,,,,,,,stimuli/images/PICTURE_233.png,IDEAS,5ea03c73d219f50266b79ae4,24/09/1948,2020-09-12_09h30.35.749,proactive3.2,2020.1.2,Win32,60,5f5adea66120081ea0f57a61,5f5c87064848f647691ef6bf,5,,,,,,salt,,,,,,0,35,35,28,1,3,0,,,,,,,,,,,,,,,,,,,,,,,,,,,,,,,,,,,,,,,,,,,,,,,,,,,,,,,,,,,,,,,,,,,,,,,,,,,
,,,,,,,,,,stimuli/images/PICTURE_504.png,BODY,5ea03c73d219f50266b79ae4,24/09/1948,2020-09-12_09h30.35.749,proactive3.2,2020.1.2,Win32,60,5f5adea66120081ea0f57a61,5f5c87064848f647691ef6bf,5,,,,,,wheel,,,,,,0,36,36,8,1,1,0,,,,,,,,,,,,,,,,,,,,,,,,,,,,,,,,,,,,,,,,,,,,,,,,,,,,,,,,,,,,,,,,,,,,,,,,,,,
,,,,,,,,,,stimuli/images/PICTURE_215.png,PLENTY,5ea03c73d219f50266b79ae4,24/09/1948,2020-09-12_09h30.35.749,proactive3.2,2020.1.2,Win32,60,5f5adea66120081ea0f57a61,5f5c87064848f647691ef6bf,5,,,,,,boot,,,,,,0,37,37,37,1,4,0,,,,,,,,,,,,,,,,,,,,,,,,,,,,,,,,,,,,,,,,,,,,,,,,,,,,,,,,,,,,,,,,,,,,,,,,,,,
,,,,,,,,,,stimuli/images/PICTURE_744.png,SAKE,5ea03c73d219f50266b79ae4,24/09/1948,2020-09-12_09h30.35.749,proactive3.2,2020.1.2,Win32,60,5f5adea66120081ea0f57a61,5f5c87064848f647691ef6bf,5,,,,,,ring,,,,,,0,38,38,17,1,2,0,,,,,,,,,,,,,,,,,,,,,,,,,,,,,,,,,,,,,,,,,,,,,,,,,,,,,,,,,,,,,,,,,,,,,,,,,,,
,,,,,,,,,,stimuli/images/PICTURE_688.png,WOMEN,5ea03c73d219f50266b79ae4,24/09/1948,2020-09-12_09h30.35.749,proactive3.2,2020.1.2,Win32,60,5f5adea66120081ea0f57a61,5f5c87064848f647691ef6bf,5,,,,,,runner,,,,,,0,39,39,14,1,2,0,,,,,,,,,,,,,,,,,,,,,,,,,,,,,,,,,,,,,,,,,,,,,,,,,,,,,,,,,,,,,,,,,,,,,,,,,,,
,,,,,,,,,,stimuli/images/PICTURE_255.png,AREA,5ea03c73d219f50266b79ae4,24/09/1948,2020-09-12_09h30.35.749,proactive3.2,2020.1.2,Win32,60,5f5adea66120081ea0f57a61,5f5c87064848f647691ef6bf,5,,,,,,shovel,,,,,,0,40,40,22,1,3,0,,,,,,,,,,,,,,,,,,,,,,,,,,,,,,,,,,,,,,,,,,,,,,,,,,,,,,,,,,,,,,,,,,,,,,,,,,,
,,,,,,,,,,stimuli/images/PICTURE_708.png,CLIENT,5ea03c73d219f50266b79ae4,24/09/1948,2020-09-12_09h30.35.749,proactive3.2,2020.1.2,Win32,60,5f5adea66120081ea0f57a61,5f5c87064848f647691ef6bf,5,,,,,,monkey,,,,,,0,41,41,5,1,1,0,,,,,,,,,,,,,,,,,,,,,,,,,,,,,,,,,,,,,,,,,,,,,,,,,,,,,,,,,,,,,,,,,,,,,,,,,,,
,,,,,,,,,,stimuli/images/PICTURE_203.png,ARTIST,5ea03c73d219f50266b79ae4,24/09/1948,2020-09-12_09h30.35.749,proactive3.2,2020.1.2,Win32,60,5f5adea66120081ea0f57a61,5f5c87064848f647691ef6bf,5,,,,,,cap,,,,,,0,42,42,26,1,3,0,,,,,,,,,,,,,,,,,,,,,,,,,,,,,,,,,,,,,,,,,,,,,,,,,,,,,,,,,,,,,,,,,,,,,,,,,,,
,,,,,,,,,,stimuli/images/PICTURE_688.png,CASINO,5ea03c73d219f50266b79ae4,24/09/1948,2020-09-12_09h30.35.749,proactive3.2,2020.1.2,Win32,60,5f5adea66120081ea0f57a61,5f5c87064848f647691ef6bf,5,,,,,,runner,,,,,,0,43,43,2,1,1,0,,,,,,,,,,,,,,,,,,,,,,,,,,,,,,,,,,,,,,,,,,,,,,,,,,,,,,,,,,,,,,,,,,,,,,,,,,,
,,,,,,,,,,stimuli/images/PICTURE_469.png,ARTIST,5ea03c73d219f50266b79ae4,24/09/1948,2020-09-12_09h30.35.749,proactive3.2,2020.1.2,Win32,60,5f5adea66120081ea0f57a61,5f5c87064848f647691ef6bf,5,,,,,,stool,,,,,,0,44,44,6,1,1,0,,,,,,,,,,,,,,,,,,,,,,,,,,,,,,,,,,,,,,,,,,,,,,,,,,,,,,,,,,,,,,,,,,,,,,,,,,,
,,,,,,,,,,stimuli/images/PICTURE_470.png,CASINO,5ea03c73d219f50266b79ae4,24/09/1948,2020-09-12_09h30.35.749,proactive3.2,2020.1.2,Win32,60,5f5adea66120081ea0f57a61,5f5c87064848f647691ef6bf,5,,,,,,motorbike,,,,,,0,45,45,36,1,4,0,,,,,,,,,,,,,,,,,,,,,,,,,,,,,,,,,,,,,,,,,,,,,,,,,,,,,,,,,,,,,,,,,,,,,,,,,,,
,,,,,,,,,,stimuli/images/PICTURE_311.png,BEAUTY,5ea03c73d219f50266b79ae4,24/09/1948,2020-09-12_09h30.35.749,proactive3.2,2020.1.2,Win32,60,5f5adea66120081ea0f57a61,5f5c87064848f647691ef6bf,5,,,,,,razor,,,,,,0,46,46,13,1,2,0,,,,,,,,,,,,,,,,,,,,,,,,,,,,,,,,,,,,,,,,,,,,,,,,,,,,,,,,,,,,,,,,,,,,,,,,,,,
,,,,,,,,,,stimuli/images/PICTURE_160.png,FEET,5ea03c73d219f50266b79ae4,24/09/1948,2020-09-12_09h30.35.749,proactive3.2,2020.1.2,Win32,60,5f5adea66120081ea0f57a61,5f5c87064848f647691ef6bf,5,,,,,,wheelbarrow,,,,,,0,47,47,58,1,6,0,,,,,,,,,,,,,,,,,,,,,,,,,,,,,,,,,,,,,,,,,,,,,,,,,,,,,,,,,,,,,,,,,,,,,,,,,,,
,,,,,,,,,,stimuli/images/PICTURE_314.png,GODS,5ea03c73d219f50266b79ae4,24/09/1948,2020-09-12_09h30.35.749,proactive3.2,2020.1.2,Win32,60,5f5adea66120081ea0f57a61,5f5c87064848f647691ef6bf,5,,,,,,perfume,,,,,,0,48,48,11,1,2,0,,,,,,,,,,,,,,,,,,,,,,,,,,,,,,,,,,,,,,,,,,,,,,,,,,,,,,,,,,,,,,,,,,,,,,,,,,,
,,,,,,,,,,stimuli/images/PICTURE_314.png,SAKE,5ea03c73d219f50266b79ae4,24/09/1948,2020-09-12_09h30.35.749,proactive3.2,2020.1.2,Win32,60,5f5adea66120081ea0f57a61,5f5c87064848f647691ef6bf,5,,,,,,perfume,,,,,,0,49,49,7,1,1,0,,,,,,,,,,,,,,,,,,,,,,,,,,,,,,,,,,,,,,,,,,,,,,,,,,,,,,,,,,,,,,,,,,,,,,,,,,,
,,,,,,,,,,stimuli/images/PICTURE_123.png,ADVICE,5ea03c73d219f50266b79ae4,24/09/1948,2020-09-12_09h30.35.749,proactive3.2,2020.1.2,Win32,60,5f5adea66120081ea0f57a61,5f5c87064848f647691ef6bf,5,,,,,,dart,,,,,,0,50,50,50,1,6,0,,,,,,,,,,,,,,,,,,,,,,,,,,,,,,,,,,,,,,,,,,,,,,,,,,,,,,,,,,,,,,,,,,,,,,,,,,,
,,,,,,,,,,stimuli/images/PICTURE_667.png,PLENTY,5ea03c73d219f50266b79ae4,24/09/1948,2020-09-12_09h30.35.749,proactive3.2,2020.1.2,Win32,60,5f5adea66120081ea0f57a61,5f5c87064848f647691ef6bf,5,,,,,,daisy,,,,,,0,51,51,41,1,5,0,,,,,,,,,,,,,,,,,,,,,,,,,,,,,,,,,,,,,,,,,,,,,,,,,,,,,,,,,,,,,,,,,,,,,,,,,,,
,,,,,,,,,,stimuli/images/PICTURE_308.png,KIND,5ea03c73d219f50266b79ae4,24/09/1948,2020-09-12_09h30.35.749,proactive3.2,2020.1.2,Win32,60,5f5adea66120081ea0f57a61,5f5c87064848f647691ef6bf,5,,,,,,dice,,,,,,0,52,52,54,1,6,0,,,,,,,,,,,,,,,,,,,,,,,,,,,,,,,,,,,,,,,,,,,,,,,,,,,,,,,,,,,,,,,,,,,,,,,,,,,
,,,,,,,,,,stimuli/images/PICTURE_302.png,FAMILY,5ea03c73d219f50266b79ae4,24/09/1948,2020-09-12_09h30.35.749,proactive3.2,2020.1.2,Win32,60,5f5adea66120081ea0f57a61,5f5c87064848f647691ef6bf,5,,,,,,taxi,,,,,,0,53,53,18,1,2,0,,,,,,,,,,,,,,,,,,,,,,,,,,,,,,,,,,,,,,,,,,,,,,,,,,,,,,,,,,,,,,,,,,,,,,,,,,,
,,,,,,,,,,stimuli/images/PICTURE_32.png,JUNGLE,5ea03c73d219f50266b79ae4,24/09/1948,2020-09-12_09h30.35.749,proactive3.2,2020.1.2,Win32,60,5f5adea66120081ea0f57a61,5f5c87064848f647691ef6bf,5,,,,,,crown,,,,,,0,54,54,45,1,5,0,,,,,,,,,,,,,,,,,,,,,,,,,,,,,,,,,,,,,,,,,,,,,,,,,,,,,,,,,,,,,,,,,,,,,,,,,,,
,,,,,,,,,,stimuli/images/PICTURE_311.png,FRIEND,5ea03c73d219f50266b79ae4,24/09/1948,2020-09-12_09h30.35.749,proactive3.2,2020.1.2,Win32,60,5f5adea66120081ea0f57a61,5f5c87064848f647691ef6bf,5,,,,,,razor,,,,,,0,55,55,34,1,4,0,,,,,,,,,,,,,,,,,,,,,,,,,,,,,,,,,,,,,,,,,,,,,,,,,,,,,,,,,,,,,,,,,,,,,,,,,,,
,,,,,,,,,,stimuli/images/PICTURE_68.png,MILE,5ea03c73d219f50266b79ae4,24/09/1948,2020-09-12_09h30.35.749,proactive3.2,2020.1.2,Win32,60,5f5adea66120081ea0f57a61,5f5c87064848f647691ef6bf,5,,,,,,candle,,,,,,0,56,56,44,1,5,0,,,,,,,,,,,,,,,,,,,,,,,,,,,,,,,,,,,,,,,,,,,,,,,,,,,,,,,,,,,,,,,,,,,,,,,,,,,
,,,,,,,,,,stimuli/images/PICTURE_356.png,DANGER,5ea03c73d219f50266b79ae4,24/09/1948,2020-09-12_09h30.35.749,proactive3.2,2020.1.2,Win32,60,5f5adea66120081ea0f57a61,5f5c87064848f647691ef6bf,5,,,,,,pawn,,,,,,0,57,57,55,1,6,0,,,,,,,,,,,,,,,,,,,,,,,,,,,,,,,,,,,,,,,,,,,,,,,,,,,,,,,,,,,,,,,,,,,,,,,,,,,
,,,,,,,,,,stimuli/images/PICTURE_467.png,DEMON,5ea03c73d219f50266b79ae4,24/09/1948,2020-09-12_09h30.35.749,proactive3.2,2020.1.2,Win32,60,5f5adea66120081ea0f57a61,5f5c87064848f647691ef6bf,5,,,,,,peg,,,,,,0,58,58,23,1,3,0,,,,,,,,,,,,,,,,,,,,,,,,,,,,,,,,,,,,,,,,,,,,,,,,,,,,,,,,,,,,,,,,,,,,,,,,,,,
,,?,0.001265,0,,,,,,stimuli/images/PICTURE_348.png,SPEECH,5ea03c73d219f50266b79ae4,24/09/1948,2020-09-12_09h30.35.749,proactive3.2,2020.1.2,Win32,60,5f5adea66120081ea0f57a61,5f5c87064848f647691ef6bf,5,,,,,,pepper,,,,,,,,,,,3,0,0,0,0,20,1,,,,,,,,,,,,,,,,,,,,,,,,,,,,,,,,,,,,,,,,,,,,,,,,,,,,,,,,,,,,,,,,,,,,,,
,,?,0.00084,0,,,,,,stimuli/images/PICTURE_215.png,PLENTY,5ea03c73d219f50266b79ae4,24/09/1948,2020-09-12_09h30.35.749,proactive3.2,2020.1.2,Win32,60,5f5adea66120081ea0f57a61,5f5c87064848f647691ef6bf,5,,,,,,boot,,,,,,,,,,,4,0,0,1,1,37,1,,,,,,,,,,,,,,,,,,,,,,,,,,,,,,,,,,,,,,,,,,,,,,,,,,,,,,,,,,,,,,,,,,,,,,
,,ESTATE,6.48456,0,,,,,,stimuli/images/PICTURE_32.png,JUNGLE,5ea03c73d219f50266b79ae4,24/09/1948,2020-09-12_09h30.35.749,proactive3.2,2020.1.2,Win32,60,5f5adea66120081ea0f57a61,5f5c87064848f647691ef6bf,5,,,,,,crown,,,,,,,,,,,5,0,0,2,2,45,1,,,,,,,,,,,,,,,,,,,,,,,,,,,,,,,,,,,,,,,,,,,,,,,,,,,,,,,,,,,,,,,,,,,,,,
,,?,0.001255,0,,,,,,stimuli/images/PICTURE_85.png,THING,5ea03c73d219f50266b79ae4,24/09/1948,2020-09-12_09h30.35.749,proactive3.2,2020.1.2,Win32,60,5f5adea66120081ea0f57a61,5f5c87064848f647691ef6bf,5,,,,,,diamond,,,,,,,,,,,2,0,0,3,3,15,1,,,,,,,,,,,,,,,,,,,,,,,,,,,,,,,,,,,,,,,,,,,,,,,,,,,,,,,,,,,,,,,,,,,,,,
,,?,0.0013,0,,,,,,stimuli/images/PICTURE_491.png,ROOF,5ea03c73d219f50266b79ae4,24/09/1948,2020-09-12_09h30.35.749,proactive3.2,2020.1.2,Win32,60,5f5adea66120081ea0f57a61,5f5c87064848f647691ef6bf,5,,,,,,rug,,,,,,,,,,,3,0,0,4,4,24,1,,,,,,,,,,,,,,,,,,,,,,,,,,,,,,,,,,,,,,,,,,,,,,,,,,,,,,,,,,,,,,,,,,,,,,
,,?,0.00116,0,,,,,,stimuli/images/PICTURE_449.png,THING,5ea03c73d219f50266b79ae4,24/09/1948,2020-09-12_09h30.35.749,proactive3.2,2020.1.2,Win32,60,5f5adea66120081ea0f57a61,5f5c87064848f647691ef6bf,5,,,,,,bench,,,,,,,,,,,6,0,0,5,5,59,1,,,,,,,,,,,,,,,,,,,,,,,,,,,,,,,,,,,,,,,,,,,,,,,,,,,,,,,,,,,,,,,,,,,,,,
,,LETTER,7.57773,0,,,,,,stimuli/images/PICTURE_327.png,BEAUTY,5ea03c73d219f50266b79ae4,24/09/1948,2020-09-12_09h30.35.749,proactive3.2,2020.1.2,Win32,60,5f5adea66120081ea0f57a61,5f5c87064848f647691ef6bf,5,,,,,,helmet,,,,,,,,,,,5,0,0,6,6,48,1,,,,,,,,,,,,,,,,,,,,,,,,,,,,,,,,,,,,,,,,,,,,,,,,,,,,,,,,,,,,,,,,,,,,,,
,,?,0.00174,0,,,,,,stimuli/images/PICTURE_491.png,WRITER,5ea03c73d219f50266b79ae4,24/09/1948,2020-09-12_09h30.35.749,proactive3.2,2020.1.2,Win32,60,5f5adea66120081ea0f57a61,5f5c87064848f647691ef6bf,5,,,,,,rug,,,,,,,,,,,6,0,0,7,7,57,1,,,,,,,,,,,,,,,,,,,,,,,,,,,,,,,,,,,,,,,,,,,,,,,,,,,,,,,,,,,,,,,,,,,,,,
,,ESTATE,5.024135,1,,,,,,stimuli/images/PICTURE_308.png,ESTATE,5ea03c73d219f50266b79ae4,24/09/1948,2020-09-12_09h30.35.749,proactive3.2,2020.1.2,Win32,60,5f5adea66120081ea0f57a61,5f5c87064848f647691ef6bf,5,,,,,,dice,,,,,,,,,,,5,0,0,8,8,46,1,,,,,,,,,,,,,,,,,,,,,,,,,,,,,,,,,,,,,,,,,,,,,,,,,,,,,,,,,,,,,,,,,,,,,,
,,?,0.00141,0,,,,,,stimuli/images/PICTURE_233.png,WOMEN,5ea03c73d219f50266b79ae4,24/09/1948,2020-09-12_09h30.35.749,proactive3.2,2020.1.2,Win32,60,5f5adea66120081ea0f57a61,5f5c87064848f647691ef6bf,5,,,,,,salt,,,,,,,,,,,4,0,0,9,9,38,1,,,,,,,,,,,,,,,,,,,,,,,,,,,,,,,,,,,,,,,,,,,,,,,,,,,,,,,,,,,,,,,,,,,,,,
,,?,0.00137,0,,,,,,stimuli/images/PICTURE_285.png,ADVICE,5ea03c73d219f50266b79ae4,24/09/1948,2020-09-12_09h30.35.749,proactive3.2,2020.1.2,Win32,60,5f5adea66120081ea0f57a61,5f5c87064848f647691ef6bf,5,,,,,,carrot,,,,,,,,,,,2,0,0,10,10,12,1,,,,,,,,,,,,,,,,,,,,,,,,,,,,,,,,,,,,,,,,,,,,,,,,,,,,,,,,,,,,,,,,,,,,,,
,,?,0.00094,0,,,,,,stimuli/images/PICTURE_654.png,VALLEY,5ea03c73d219f50266b79ae4,24/09/1948,2020-09-12_09h30.35.749,proactive3.2,2020.1.2,Win32,60,5f5adea66120081ea0f57a61,5f5c87064848f647691ef6bf,5,,,,,,pencil,,,,,,,,,,,1,0,0,11,11,1,1,,,,,,,,,,,,,,,,,,,,,,,,,,,,,,,,,,,,,,,,,,,,,,,,,,,,,,,,,,,,,,,,,,,,,,
,,LETTER,3.250975,1,,,,,,stimuli/images/PICTURE_469.png,LETTER,5ea03c73d219f50266b79ae4,24/09/1948,2020-09-12_09h30.35.749,proactive3.2,2020.1.2,Win32,60,5f5adea66120081ea0f57a61,5f5c87064848f647691ef6bf,5,,,,,,stool,,,,,,,,,,,5,0,0,12,12,42,1,,,,,,,,,,,,,,,,,,,,,,,,,,,,,,,,,,,,,,,,,,,,,,,,,,,,,,,,,,,,,,,,,,,,,,
,,?,0.00138,0,,,,,,stimuli/images/PICTURE_688.png,CASINO,5ea03c73d219f50266b79ae4,24/09/1948,2020-09-12_09h30.35.749,proactive3.2,2020.1.2,Win32,60,5f5adea66120081ea0f57a61,5f5c87064848f647691ef6bf,5,,,,,,runner,,,,,,,,,,,1,0,0,13,13,2,1,,,,,,,,,,,,,,,,,,,,,,,,,,,,,,,,,,,,,,,,,,,,,,,,,,,,,,,,,,,,,,,,,,,,,,
,,MILE,3.68621,1,,,,,,stimuli/images/PICTURE_68.png,MILE,5ea03c73d219f50266b79ae4,24/09/1948,2020-09-12_09h30.35.749,proactive3.2,2020.1.2,Win32,60,5f5adea66120081ea0f57a61,5f5c87064848f647691ef6bf,5,,,,,,candle,,,,,,,,,,,5,0,0,14,14,44,1,,,,,,,,,,,,,,,,,,,,,,,,,,,,,,,,,,,,,,,,,,,,,,,,,,,,,,,,,,,,,,,,,,,,,,
,,?,0.001465,0,,,,,,stimuli/images/PICTURE_160.png,FEET,5ea03c73d219f50266b79ae4,24/09/1948,2020-09-12_09h30.35.749,proactive3.2,2020.1.2,Win32,60,5f5adea66120081ea0f57a61,5f5c87064848f647691ef6bf,5,,,,,,wheelbarrow,,,,,,,,,,,6,0,0,15,15,58,1,,,,,,,,,,,,,,,,,,,,,,,,,,,,,,,,,,,,,,,,,,,,,,,,,,,,,,,,,,,,,,,,,,,,,,
,,?,0.00147,0,,,,,,stimuli/images/PICTURE_380.png,PHOTO,5ea03c73d219f50266b79ae4,24/09/1948,2020-09-12_09h30.35.749,proactive3.2,2020.1.2,Win32,60,5f5adea66120081ea0f57a61,5f5c87064848f647691ef6bf,5,,,,,,gorilla,,,,,,,,,,,6,0,0,16,16,52,1,,,,,,,,,,,,,,,,,,,,,,,,,,,,,,,,,,,,,,,,,,,,,,,,,,,,,,,,,,,,,,,,,,,,,,
,,?,0.000925,0,,,,,,stimuli/images/PICTURE_314.png,GODS,5ea03c73d219f50266b79ae4,24/09/1948,2020-09-12_09h30.35.749,proactive3.2,2020.1.2,Win32,60,5f5adea66120081ea0f57a61,5f5c87064848f647691ef6bf,5,,,,,,perfume,,,,,,,,,,,2,0,0,17,17,11,1,,,,,,,,,,,,,,,,,,,,,,,,,,,,,,,,,,,,,,,,,,,,,,,,,,,,,,,,,,,,,,,,,,,,,,
,,?,0.00089,0,,,,,,stimuli/images/PICTURE_311.png,BEAUTY,5ea03c73d219f50266b79ae4,24/09/1948,2020-09-12_09h30.35.749,proactive3.2,2020.1.2,Win32,60,5f5adea66120081ea0f57a61,5f5c87064848f647691ef6bf,5,,,,,,razor,,,,,,,,,,,2,0,0,18,18,13,1,,,,,,,,,,,,,,,,,,,,,,,,,,,,,,,,,,,,,,,,,,,,,,,,,,,,,,,,,,,,,,,,,,,,,,
,,?,0.00083,0,,,,,,stimuli/images/PICTURE_692.png,MONTH,5ea03c73d219f50266b79ae4,24/09/1948,2020-09-12_09h30.35.749,proactive3.2,2020.1.2,Win32,60,5f5adea66120081ea0f57a61,5f5c87064848f647691ef6bf,5,,,,,,cherry,,,,,,,,,,,2,0,0,19,19,16,1,,,,,,,,,,,,,,,,,,,,,,,,,,,,,,,,,,,,,,,,,,,,,,,,,,,,,,,,,,,,,,,,,,,,,,
,,?,0.001685,0,,,,,,stimuli/images/PICTURE_233.png,IDEAS,5ea03c73d219f50266b79ae4,24/09/1948,2020-09-12_09h30.35.749,proactive3.2,2020.1.2,Win32,60,5f5adea66120081ea0f57a61,5f5c87064848f647691ef6bf,5,,,,,,salt,,,,,,,,,,,3,0,0,20,20,28,1,,,,,,,,,,,,,,,,,,,,,,,,,,,,,,,,,,,,,,,,,,,,,,,,,,,,,,,,,,,,,,,,,,,,,,
,,?,0.001125,0,,,,,,stimuli/images/PICTURE_356.png,DANGER,5ea03c73d219f50266b79ae4,24/09/1948,2020-09-12_09h30.35.749,proactive3.2,2020.1.2,Win32,60,5f5adea66120081ea0f57a61,5f5c87064848f647691ef6bf,5,,,,,,pawn,,,,,,,,,,,6,0,0,21,21,55,1,,,,,,,,,,,,,,,,,,,,,,,,,,,,,,,,,,,,,,,,,,,,,,,,,,,,,,,,,,,,,,,,,,,,,,
,,?,0.000875,0,,,,,,stimuli/images/PICTURE_688.png,WOMEN,5ea03c73d219f50266b79ae4,24/09/1948,2020-09-12_09h30.35.749,proactive3.2,2020.1.2,Win32,60,5f5adea66120081ea0f57a61,5f5c87064848f647691ef6bf,5,,,,,,runner,,,,,,,,,,,2,0,0,22,22,14,1,,,,,,,,,,,,,,,,,,,,,,,,,,,,,,,,,,,,,,,,,,,,,,,,,,,,,,,,,,,,,,,,,,,,,,
,,?,0.00088,0,,,,,,stimuli/images/PICTURE_504.png,BODY,5ea03c73d219f50266b79ae4,24/09/1948,2020-09-12_09h30.35.749,proactive3.2,2020.1.2,Win32,60,5f5adea66120081ea0f57a61,5f5c87064848f647691ef6bf,5,,,,,,wheel,,,,,,,,,,,1,0,0,23,23,8,1,,,,,,,,,,,,,,,,,,,,,,,,,,,,,,,,,,,,,,,,,,,,,,,,,,,,,,,,,,,,,,,,,,,,,,
,,?,0.000845,0,,,,,,stimuli/images/PICTURE_147.png,MOMENT,5ea03c73d219f50266b79ae4,24/09/1948,2020-09-12_09h30.35.749,proactive3.2,2020.1.2,Win32,60,5f5adea66120081ea0f57a61,5f5c87064848f647691ef6bf,5,,,,,,hanger,,,,,,,,,,,6,0,0,24,24,51,1,,,,,,,,,,,,,,,,,,,,,,,,,,,,,,,,,,,,,,,,,,,,,,,,,,,,,,,,,,,,,,,,,,,,,,
,,?,0.00093,0,,,,,,stimuli/images/PICTURE_469.png,ARTIST,5ea03c73d219f50266b79ae4,24/09/1948,2020-09-12_09h30.35.749,proactive3.2,2020.1.2,Win32,60,5f5adea66120081ea0f57a61,5f5c87064848f647691ef6bf,5,,,,,,stool,,,,,,,,,,,1,0,0,25,25,6,1,,,,,,,,,,,,,,,,,,,,,,,,,,,,,,,,,,,,,,,,,,,,,,,,,,,,,,,,,,,,,,,,,,,,,,
,,DEATH,3.712655,1,,,,,,stimuli/images/PICTURE_380.png,DEATH,5ea03c73d219f50266b79ae4,24/09/1948,2020-09-12_09h30.35.749,proactive3.2,2020.1.2,Win32,60,5f5adea66120081ea0f57a61,5f5c87064848f647691ef6bf,5,,,,,,gorilla,,,,,,,,,,,5,0,0,26,26,49,1,,,,,,,,,,,,,,,,,,,,,,,,,,,,,,,,,,,,,,,,,,,,,,,,,,,,,,,,,,,,,,,,,,,,,,
,,?,0.001235,0,,,,,,stimuli/images/PICTURE_453.png,DUDE,5ea03c73d219f50266b79ae4,24/09/1948,2020-09-12_09h30.35.749,proactive3.2,2020.1.2,Win32,60,5f5adea66120081ea0f57a61,5f5c87064848f647691ef6bf,5,,,,,,scissors,,,,,,,,,,,3,0,0,27,27,27,1,,,,,,,,,,,,,,,,,,,,,,,,,,,,,,,,,,,,,,,,,,,,,,,,,,,,,,,,,,,,,,,,,,,,,,
,,BEAUTY,9.96899,0,,,,,,stimuli/images/PICTURE_667.png,PLENTY,5ea03c73d219f50266b79ae4,24/09/1948,2020-09-12_09h30.35.749,proactive3.2,2020.1.2,Win32,60,5f5adea66120081ea0f57a61,5f5c87064848f647691ef6bf,5,,,,,,daisy,,,,,,,,,,,5,0,0,28,28,41,1,,,,,,,,,,,,,,,,,,,,,,,,,,,,,,,,,,,,,,,,,,,,,,,,,,,,,,,,,,,,,,,,,,,,,,
,,?,0.00133,0,,,,,,stimuli/images/PICTURE_509.png,PHOTO,5ea03c73d219f50266b79ae4,24/09/1948,2020-09-12_09h30.35.749,proactive3.2,2020.1.2,Win32,60,5f5adea66120081ea0f57a61,5f5c87064848f647691ef6bf,5,,,,,,telephone,,,,,,,,,,,3,0,0,29,29,21,1,,,,,,,,,,,,,,,,,,,,,,,,,,,,,,,,,,,,,,,,,,,,,,,,,,,,,,,,,,,,,,,,,,,,,,
,,?,0.0013,0,,,,,,stimuli/images/PICTURE_467.png,DEMON,5ea03c73d219f50266b79ae4,24/09/1948,2020-09-12_09h30.35.749,proactive3.2,2020.1.2,Win32,60,5f5adea66120081ea0f57a61,5f5c87064848f647691ef6bf,5,,,,,,peg,,,,,,,,,,,3,0,0,30,30,23,1,,,,,,,,,,,,,,,,,,,,,,,,,,,,,,,,,,,,,,,,,,,,,,,,,,,,,,,,,,,,,,,,,,,,,,
,,?,0.000905,0,,,,,,stimuli/images/PICTURE_487.png,FLIGHT,5ea03c73d219f50266b79ae4,24/09/1948,2020-09-12_09h30.35.749,proactive3.2,2020.1.2,Win32,60,5f5adea66120081ea0f57a61,5f5c87064848f647691ef6bf,5,,,,,,basket,,,,,,,,,,,1,0,0,31,31,9,1,,,,,,,,,,,,,,,,,,,,,,,,,,,,,,,,,,,,,,,,,,,,,,,,,,,,,,,,,,,,,,,,,,,,,,
,,?,0.000865,0,,,,,,stimuli/images/PICTURE_208.png,MONTH,5ea03c73d219f50266b79ae4,24/09/1948,2020-09-12_09h30.35.749,proactive3.2,2020.1.2,Win32,60,5f5adea66120081ea0f57a61,5f5c87064848f647691ef6bf,5,,,,,,microphone,,,,,,,,,,,6,0,0,32,32,53,1,,,,,,,,,,,,,,,,,,,,,,,,,,,,,,,,,,,,,,,,,,,,,,,,,,,,,,,,,,,,,,,,,,,,,,
,,MILE,5.703215,0,,,,,,stimuli/images/PICTURE_208.png,THING,5ea03c73d219f50266b79ae4,24/09/1948,2020-09-12_09h30.35.749,proactive3.2,2020.1.2,Win32,60,5f5adea66120081ea0f57a61,5f5c87064848f647691ef6bf,5,,,,,,microphone,,,,,,,,,,,5,0,0,33,33,47,1,,,,,,,,,,,,,,,,,,,,,,,,,,,,,,,,,,,,,,,,,,,,,,,,,,,,,,,,,,,,,,,,,,,,,,
,,?,0.00132,0,,,,,,stimuli/images/PICTURE_123.png,ADVICE,5ea03c73d219f50266b79ae4,24/09/1948,2020-09-12_09h30.35.749,proactive3.2,2020.1.2,Win32,60,5f5adea66120081ea0f57a61,5f5c87064848f647691ef6bf,5,,,,,,dart,,,,,,,,,,,6,0,0,34,34,50,1,,,,,,,,,,,,,,,,,,,,,,,,,,,,,,,,,,,,,,,,,,,,,,,,,,,,,,,,,,,,,,,,,,,,,,
,,?,0.001295,0,,,,,,stimuli/images/PICTURE_677.png,MILE,5ea03c73d219f50266b79ae4,24/09/1948,2020-09-12_09h30.35.749,proactive3.2,2020.1.2,Win32,60,5f5adea66120081ea0f57a61,5f5c87064848f647691ef6bf,5,,,,,,map,,,,,,,,,,,4,0,0,35,35,30,1,,,,,,,,,,,,,,,,,,,,,,,,,,,,,,,,,,,,,,,,,,,,,,,,,,,,,,,,,,,,,,,,,,,,,,
,,?,0.000915,0,,,,,,stimuli/images/PICTURE_302.png,FAMILY,5ea03c73d219f50266b79ae4,24/09/1948,2020-09-12_09h30.35.749,proactive3.2,2020.1.2,Win32,60,5f5adea66120081ea0f57a61,5f5c87064848f647691ef6bf,5,,,,,,taxi,,,,,,,,,,,2,0,0,36,36,18,1,,,,,,,,,,,,,,,,,,,,,,,,,,,,,,,,,,,,,,,,,,,,,,,,,,,,,,,,,,,,,,,,,,,,,,
,,?,0.000875,0,,,,,,stimuli/images/PICTURE_248.png,DOZEN,5ea03c73d219f50266b79ae4,24/09/1948,2020-09-12_09h30.35.749,proactive3.2,2020.1.2,Win32,60,5f5adea66120081ea0f57a61,5f5c87064848f647691ef6bf,5,,,,,,cart,,,,,,,,,,,4,0,0,37,37,39,1,,,,,,,,,,,,,,,,,,,,,,,,,,,,,,,,,,,,,,,,,,,,,,,,,,,,,,,,,,,,,,,,,,,,,,
,,?,0.00092,0,,,,,,stimuli/images/PICTURE_208.png,LOTS,5ea03c73d219f50266b79ae4,24/09/1948,2020-09-12_09h30.35.749,proactive3.2,2020.1.2,Win32,60,5f5adea66120081ea0f57a61,5f5c87064848f647691ef6bf,5,,,,,,microphone,,,,,,,,,,,2,0,0,38,38,10,1,,,,,,,,,,,,,,,,,,,,,,,,,,,,,,,,,,,,,,,,,,,,,,,,,,,,,,,,,,,,,,,,,,,,,,
,,?,0.000895,0,,,,,,stimuli/images/PICTURE_95.png,STYLE,5ea03c73d219f50266b79ae4,24/09/1948,2020-09-12_09h30.35.749,proactive3.2,2020.1.2,Win32,60,5f5adea66120081ea0f57a61,5f5c87064848f647691ef6bf,5,,,,,,suitcase,,,,,,,,,,,3,0,0,39,39,25,1,,,,,,,,,,,,,,,,,,,,,,,,,,,,,,,,,,,,,,,,,,,,,,,,,,,,,,,,,,,,,,,,,,,,,,
,,?,0.001045,0,,,,,,stimuli/images/PICTURE_744.png,SAKE,5ea03c73d219f50266b79ae4,24/09/1948,2020-09-12_09h30.35.749,proactive3.2,2020.1.2,Win32,60,5f5adea66120081ea0f57a61,5f5c87064848f647691ef6bf,5,,,,,,ring,,,,,,,,,,,2,0,0,40,40,17,1,,,,,,,,,,,,,,,,,,,,,,,,,,,,,,,,,,,,,,,,,,,,,,,,,,,,,,,,,,,,,,,,,,,,,,
,,?,0.00095,0,,,,,,stimuli/images/PICTURE_311.png,FRIEND,5ea03c73d219f50266b79ae4,24/09/1948,2020-09-12_09h30.35.749,proactive3.2,2020.1.2,Win32,60,5f5adea66120081ea0f57a61,5f5c87064848f647691ef6bf,5,,,,,,razor,,,,,,,,,,,4,0,0,41,41,34,1,,,,,,,,,,,,,,,,,,,,,,,,,,,,,,,,,,,,,,,,,,,,,,,,,,,,,,,,,,,,,,,,,,,,,,
,,?,0.000955,0,,,,,,stimuli/images/PICTURE_667.png,BATH,5ea03c73d219f50266b79ae4,24/09/1948,2020-09-12_09h30.35.749,proactive3.2,2020.1.2,Win32,60,5f5adea66120081ea0f57a61,5f5c87064848f647691ef6bf,5,,,,,,daisy,,,,,,,,,,,1,0,0,42,42,4,1,,,,,,,,,,,,,,,,,,,,,,,,,,,,,,,,,,,,,,,,,,,,,,,,,,,,,,,,,,,,,,,,,,,,,,
,,?,0.000855,0,,,,,,stimuli/images/PICTURE_203.png,ARTIST,5ea03c73d219f50266b79ae4,24/09/1948,2020-09-12_09h30.35.749,proactive3.2,2020.1.2,Win32,60,5f5adea66120081ea0f57a61,5f5c87064848f647691ef6bf,5,,,,,,cap,,,,,,,,,,,3,0,0,43,43,26,1,,,,,,,,,,,,,,,,,,,,,,,,,,,,,,,,,,,,,,,,,,,,,,,,,,,,,,,,,,,,,,,,,,,,,,
,,?,0.000955,0,,,,,,stimuli/images/PICTURE_308.png,KIND,5ea03c73d219f50266b79ae4,24/09/1948,2020-09-12_09h30.35.749,proactive3.2,2020.1.2,Win32,60,5f5adea66120081ea0f57a61,5f5c87064848f647691ef6bf,5,,,,,,dice,,,,,,,,,,,6,0,0,44,44,54,1,,,,,,,,,,,,,,,,,,,,,,,,,,,,,,,,,,,,,,,,,,,,,,,,,,,,,,,,,,,,,,,,,,,,,,
,,?,0.000885,0,,,,,,stimuli/images/PICTURE_488.png,STYLE,5ea03c73d219f50266b79ae4,24/09/1948,2020-09-12_09h30.35.749,proactive3.2,2020.1.2,Win32,60,5f5adea66120081ea0f57a61,5f5c87064848f647691ef6bf,5,,,,,,sun,,,,,,,,,,,4,0,0,45,45,33,1,,,,,,,,,,,,,,,,,,,,,,,,,,,,,,,,,,,,,,,,,,,,,,,,,,,,,,,,,,,,,,,,,,,,,,
,,?,0.00142,0,,,,,,stimuli/images/PICTURE_470.png,CASINO,5ea03c73d219f50266b79ae4,24/09/1948,2020-09-12_09h30.35.749,proactive3.2,2020.1.2,Win32,60,5f5adea66120081ea0f57a61,5f5c87064848f647691ef6bf,5,,,,,,motorbike,,,,,,,,,,,4,0,0,46,46,36,1,,,,,,,,,,,,,,,,,,,,,,,,,,,,,,,,,,,,,,,,,,,,,,,,,,,,,,,,,,,,,,,,,,,,,,
,,?,0.000925,0,,,,,,stimuli/images/PICTURE_151.png,GIRL,5ea03c73d219f50266b79ae4,24/09/1948,2020-09-12_09h30.35.749,proactive3.2,2020.1.2,Win32,60,5f5adea66120081ea0f57a61,5f5c87064848f647691ef6bf,5,,,,,,tray,,,,,,,,,,,2,0,0,47,47,19,1,,,,,,,,,,,,,,,,,,,,,,,,,,,,,,,,,,,,,,,,,,,,,,,,,,,,,,,,,,,,,,,,,,,,,,
,,?,0.00093,0,,,,,,stimuli/images/PICTURE_314.png,SAKE,5ea03c73d219f50266b79ae4,24/09/1948,2020-09-12_09h30.35.749,proactive3.2,2020.1.2,Win32,60,5f5adea66120081ea0f57a61,5f5c87064848f647691ef6bf,5,,,,,,perfume,,,,,,,,,,,1,0,0,48,48,7,1,,,,,,,,,,,,,,,,,,,,,,,,,,,,,,,,,,,,,,,,,,,,,,,,,,,,,,,,,,,,,,,,,,,,,,
,,?,0.000875,0,,,,,,stimuli/images/PICTURE_339.png,PLENTY,5ea03c73d219f50266b79ae4,24/09/1948,2020-09-12_09h30.35.749,proactive3.2,2020.1.2,Win32,60,5f5adea66120081ea0f57a61,5f5c87064848f647691ef6bf,5,,,,,,backpack,,,,,,,,,,,1,0,0,49,49,0,1,,,,,,,,,,,,,,,,,,,,,,,,,,,,,,,,,,,,,,,,,,,,,,,,,,,,,,,,,,,,,,,,,,,,,,
,,?,0.00088,0,,,,,,stimuli/images/PICTURE_708.png,PENNY,5ea03c73d219f50266b79ae4,24/09/1948,2020-09-12_09h30.35.749,proactive3.2,2020.1.2,Win32,60,5f5adea66120081ea0f57a61,5f5c87064848f647691ef6bf,5,,,,,,monkey,,,,,,,,,,,4,0,0,50,50,31,1,,,,,,,,,,,,,,,,,,,,,,,,,,,,,,,,,,,,,,,,,,,,,,,,,,,,,,,,,,,,,,,,,,,,,,
,,?,0.00086,0,,,,,,stimuli/images/PICTURE_177.png,CARS,5ea03c73d219f50266b79ae4,24/09/1948,2020-09-12_09h30.35.749,proactive3.2,2020.1.2,Win32,60,5f5adea66120081ea0f57a61,5f5c87064848f647691ef6bf,5,,,,,,mushroom,,,,,,,,,,,4,0,0,51,51,35,1,,,,,,,,,,,,,,,,,,,,,,,,,,,,,,,,,,,,,,,,,,,,,,,,,,,,,,,,,,,,,,,,,,,,,,
,,?,0.000935,0,,,,,,stimuli/images/PICTURE_160.png,LEADER,5ea03c73d219f50266b79ae4,24/09/1948,2020-09-12_09h30.35.749,proactive3.2,2020.1.2,Win32,60,5f5adea66120081ea0f57a61,5f5c87064848f647691ef6bf,5,,,,,,wheelbarrow,,,,,,,,,,,1,0,0,52,52,3,1,,,,,,,,,,,,,,,,,,,,,,,,,,,,,,,,,,,,,,,,,,,,,,,,,,,,,,,,,,,,,,,,,,,,,,
,,?,3.978555,0,,,,,,stimuli/images/PICTURE_744.png,SYSTEM,5ea03c73d219f50266b79ae4,24/09/1948,2020-09-12_09h30.35.749,proactive3.2,2020.1.2,Win32,60,5f5adea66120081ea0f57a61,5f5c87064848f647691ef6bf,5,,,,,,ring,,,,,,,,,,,5,0,0,53,53,43,1,,,,,,,,,,,,,,,,,,,,,,,,,,,,,,,,,,,,,,,,,,,,,,,,,,,,,,,,,,,,,,,,,,,,,,
,,?,0.001195,0,,,,,,stimuli/images/PICTURE_453.png,PLENTY,5ea03c73d219f50266b79ae4,24/09/1948,2020-09-12_09h30.35.749,proactive3.2,2020.1.2,Win32,60,5f5adea66120081ea0f57a61,5f5c87064848f647691ef6bf,5,,,,,,scissors,,,,,,,,,,,6,0,0,54,54,56,1,,,,,,,,,,,,,,,,,,,,,,,,,,,,,,,,,,,,,,,,,,,,,,,,,,,,,,,,,,,,,,,,,,,,,,
,,THING,7.91493,0,,,,,,stimuli/images/PICTURE_123.png,ADVICE,5ea03c73d219f50266b79ae4,24/09/1948,2020-09-12_09h30.35.749,proactive3.2,2020.1.2,Win32,60,5f5adea66120081ea0f57a61,5f5c87064848f647691ef6bf,5,,,,,,dart,,,,,,,,,,,5,0,0,55,55,40,1,,,,,,,,,,,,,,,,,,,,,,,,,,,,,,,,,,,,,,,,,,,,,,,,,,,,,,,,,,,,,,,,,,,,,,
,,?,0.00146,0,,,,,,stimuli/images/PICTURE_708.png,CLIENT,5ea03c73d219f50266b79ae4,24/09/1948,2020-09-12_09h30.35.749,proactive3.2,2020.1.2,Win32,60,5f5adea66120081ea0f57a61,5f5c87064848f647691ef6bf,5,,,,,,monkey,,,,,,,,,,,1,0,0,56,56,5,1,,,,,,,,,,,,,,,,,,,,,,,,,,,,,,,,,,,,,,,,,,,,,,,,,,,,,,,,,,,,,,,,,,,,,,
,,?,0.00107,0,,,,,,stimuli/images/PICTURE_708.png,YARD,5ea03c73d219f50266b79ae4,24/09/1948,2020-09-12_09h30.35.749,proactive3.2,2020.1.2,Win32,60,5f5adea66120081ea0f57a61,5f5c87064848f647691ef6bf,5,,,,,,monkey,,,,,,,,,,,3,0,0,57,57,29,1,,,,,,,,,,,,,,,,,,,,,,,,,,,,,,,,,,,,,,,,,,,,,,,,,,,,,,,,,,,,,,,,,,,,,,
,,?,0.00087,0,,,,,,stimuli/images/PICTURE_255.png,AREA,5ea03c73d219f50266b79ae4,24/09/1948,2020-09-12_09h30.35.749,proactive3.2,2020.1.2,Win32,60,5f5adea66120081ea0f57a61,5f5c87064848f647691ef6bf,5,,,,,,shovel,,,,,,,,,,,3,0,0,58,58,22,1,,,,,,,,,,,,,,,,,,,,,,,,,,,,,,,,,,,,,,,,,,,,,,,,,,,,,,,,,,,,,,,,,,,,,,
,,?,0.00087,0,,,,,,stimuli/images/PICTURE_675.png,WEAPON,5ea03c73d219f50266b79ae4,24/09/1948,2020-09-12_09h30.35.749,proactive3.2,2020.1.2,Win32,60,5f5adea66120081ea0f57a61,5f5c87064848f647691ef6bf,5,,,,,,windmill,,,,,,,,,,,4,0,0,59,59,32,1,,,,,,,,,,,,,,,,,,,,,,,,,,,,,,,,,,,,,,,,,,,,,,,,,,,,,,,,,,,,,,,,,,,,,,
,,,,,,,,,,,,5ea03c73d219f50266b79ae4,24/09/1948,2020-09-12_09h30.35.749,proactive3.2,2020.1.2,Win32,60,5f5adea66120081ea0f57a61,5f5c87064848f647691ef6bf,5,,,,,,,,,,,,,,,,,,,,,,,,0,1,1,0,1,stimuli/learn-block1.csv,,,,,,,,,,,,,,,,,,,,,,,,,,,,,,,,,,,,,,,,,,,,,,,,,,,,,,,,,,,,,,,,
,,,,,,,,,,stimuli/images/PICTURE_203.png,NIGHT,5ea03c73d219f50266b79ae4,24/09/1948,2020-09-12_09h30.35.749,proactive3.2,2020.1.2,Win32,60,5f5adea66120081ea0f57a61,5f5c87064848f647691ef6bf,5,,,,,,cap,,,,,,0,0,0,2,1,1,1,,,,,,,,,,,,,,,,,,,,,,,,,,,,,,,,,,,,,,,,,,,,,,,,,,,,,,,,,,,,,,,,,,,,,,,,,,,
,,,,,,,,,,stimuli/images/PICTURE_32.png,KIND,5ea03c73d219f50266b79ae4,24/09/1948,2020-09-12_09h30.35.749,proactive3.2,2020.1.2,Win32,60,5f5adea66120081ea0f57a61,5f5c87064848f647691ef6bf,5,,,,,,crown,,,,,,0,1,1,35,1,4,1,,,,,,,,,,,,,,,,,,,,,,,,,,,,,,,,,,,,,,,,,,,,,,,,,,,,,,,,,,,,,,,,,,,,,,,,,,,
,,,,,,,,,,stimuli/images/PICTURE_487.png,GIRL,5ea03c73d219f50266b79ae4,24/09/1948,2020-09-12_09h30.35.749,proactive3.2,2020.1.2,Win32,60,5f5adea66120081ea0f57a61,5f5c87064848f647691ef6bf,5,,,,,,basket,,,,,,0,2,2,45,1,5,1,,,,,,,,,,,,,,,,,,,,,,,,,,,,,,,,,,,,,,,,,,,,,,,,,,,,,,,,,,,,,,,,,,,,,,,,,,,
,,,,,,,,,,stimuli/images/PICTURE_744.png,WEAPON,5ea03c73d219f50266b79ae4,24/09/1948,2020-09-12_09h30.35.749,proactive3.2,2020.1.2,Win32,60,5f5adea66120081ea0f57a61,5f5c87064848f647691ef6bf,5,,,,,,ring,,,,,,0,3,3,50,1,6,1,,,,,,,,,,,,,,,,,,,,,,,,,,,,,,,,,,,,,,,,,,,,,,,,,,,,,,,,,,,,,,,,,,,,,,,,,,,
,,,,,,,,,,stimuli/images/PICTURE_380.png,CANDY,5ea03c73d219f50266b79ae4,24/09/1948,2020-09-12_09h30.35.749,proactive3.2,2020.1.2,Win32,60,5f5adea66120081ea0f57a61,5f5c87064848f647691ef6bf,5,,,,,,gorilla,,,,,,0,4,4,0,1,1,1,,,,,,,,,,,,,,,,,,,,,,,,,,,,,,,,,,,,,,,,,,,,,,,,,,,,,,,,,,,,,,,,,,,,,,,,,,,
,,,,,,,,,,stimuli/images/PICTURE_675.png,SALE,5ea03c73d219f50266b79ae4,24/09/1948,2020-09-12_09h30.35.749,proactive3.2,2020.1.2,Win32,60,5f5adea66120081ea0f57a61,5f5c87064848f647691ef6bf,5,,,,,,windmill,,,,,,0,5,5,47,1,5,1,,,,,,,,,,,,,,,,,,,,,,,,,,,,,,,,,,,,,,,,,,,,,,,,,,,,,,,,,,,,,,,,,,,,,,,,,,,
,,,,,,,,,,stimuli/images/PICTURE_85.png,NATION,5ea03c73d219f50266b79ae4,24/09/1948,2020-09-12_09h30.35.749,proactive3.2,2020.1.2,Win32,60,5f5adea66120081ea0f57a61,5f5c87064848f647691ef6bf,5,,,,,,diamond,,,,,,0,6,6,5,1,1,1,,,,,,,,,,,,,,,,,,,,,,,,,,,,,,,,,,,,,,,,,,,,,,,,,,,,,,,,,,,,,,,,,,,,,,,,,,,
,,,,,,,,,,stimuli/images/PICTURE_95.png,BOYS,5ea03c73d219f50266b79ae4,24/09/1948,2020-09-12_09h30.35.749,proactive3.2,2020.1.2,Win32,60,5f5adea66120081ea0f57a61,5f5c87064848f647691ef6bf,5,,,,,,suitcase,,,,,,0,7,7,1,1,1,1,,,,,,,,,,,,,,,,,,,,,,,,,,,,,,,,,,,,,,,,,,,,,,,,,,,,,,,,,,,,,,,,,,,,,,,,,,,
,,,,,,,,,,stimuli/images/PICTURE_677.png,APPLE,5ea03c73d219f50266b79ae4,24/09/1948,2020-09-12_09h30.35.749,proactive3.2,2020.1.2,Win32,60,5f5adea66120081ea0f57a61,5f5c87064848f647691ef6bf,5,,,,,,map,,,,,,0,8,8,43,1,5,1,,,,,,,,,,,,,,,,,,,,,,,,,,,,,,,,,,,,,,,,,,,,,,,,,,,,,,,,,,,,,,,,,,,,,,,,,,,
,,,,,,,,,,stimuli/images/PICTURE_297.png,RIVER,5ea03c73d219f50266b79ae4,24/09/1948,2020-09-12_09h30.35.749,proactive3.2,2020.1.2,Win32,60,5f5adea66120081ea0f57a61,5f5c87064848f647691ef6bf,5,,,,,,aeroplane,,,,,,0,9,9,39,1,4,1,,,,,,,,,,,,,,,,,,,,,,,,,,,,,,,,,,,,,,,,,,,,,,,,,,,,,,,,,,,,,,,,,,,,,,,,,,,
,,,,,,,,,,stimuli/images/PICTURE_203.png,GODS,5ea03c73d219f50266b79ae4,24/09/1948,2020-09-12_09h30.35.749,proactive3.2,2020.1.2,Win32,60,5f5adea66120081ea0f57a61,5f5c87064848f647691ef6bf,5,,,,,,cap,,,,,,0,10,10,30,1,4,1,,,,,,,,,,,,,,,,,,,,,,,,,,,,,,,,,,,,,,,,,,,,,,,,,,,,,,,,,,,,,,,,,,,,,,,,,,,
,,,,,,,,,,stimuli/images/PICTURE_296.png,LOTS,5ea03c73d219f50266b79ae4,24/09/1948,2020-09-12_09h30.35.749,proactive3.2,2020.1.2,Win32,60,5f5adea66120081ea0f57a61,5f5c87064848f647691ef6bf,5,,,,,,bolt,,,,,,0,11,11,9,1,1,1,,,,,,,,,,,,,,,,,,,,,,,,,,,,,,,,,,,,,,,,,,,,,,,,,,,,,,,,,,,,,,,,,,,,,,,,,,,
,,,,,,,,,,stimuli/images/PICTURE_708.png,RECORD,5ea03c73d219f50266b79ae4,24/09/1948,2020-09-12_09h30.35.749,proactive3.2,2020.1.2,Win32,60,5f5adea66120081ea0f57a61,5f5c87064848f647691ef6bf,5,,,,,,monkey,,,,,,0,12,12,58,1,6,1,,,,,,,,,,,,,,,,,,,,,,,,,,,,,,,,,,,,,,,,,,,,,,,,,,,,,,,,,,,,,,,,,,,,,,,,,,,
,,,,,,,,,,stimuli/images/PICTURE_750.png,HOTEL,5ea03c73d219f50266b79ae4,24/09/1948,2020-09-12_09h30.35.749,proactive3.2,2020.1.2,Win32,60,5f5adea66120081ea0f57a61,5f5c87064848f647691ef6bf,5,,,,,,kettle,,,,,,0,13,13,27,1,3,1,,,,,,,,,,,,,,,,,,,,,,,,,,,,,,,,,,,,,,,,,,,,,,,,,,,,,,,,,,,,,,,,,,,,,,,,,,,
,,,,,,,,,,stimuli/images/PICTURE_340.png,VALLEY,5ea03c73d219f50266b79ae4,24/09/1948,2020-09-12_09h30.35.749,proactive3.2,2020.1.2,Win32,60,5f5adea66120081ea0f57a61,5f5c87064848f647691ef6bf,5,,,,,,mirror,,,,,,0,14,14,54,1,6,1,,,,,,,,,,,,,,,,,,,,,,,,,,,,,,,,,,,,,,,,,,,,,,,,,,,,,,,,,,,,,,,,,,,,,,,,,,,
,,,,,,,,,,stimuli/images/PICTURE_68.png,ROOF,5ea03c73d219f50266b79ae4,24/09/1948,2020-09-12_09h30.35.749,proactive3.2,2020.1.2,Win32,60,5f5adea66120081ea0f57a61,5f5c87064848f647691ef6bf,5,,,,,,candle,,,,,,0,15,15,38,1,4,1,,,,,,,,,,,,,,,,,,,,,,,,,,,,,,,,,,,,,,,,,,,,,,,,,,,,,,,,,,,,,,,,,,,,,,,,,,,
,,,,,,,,,,stimuli/images/PICTURE_296.png,LIFE,5ea03c73d219f50266b79ae4,24/09/1948,2020-09-12_09h30.35.749,proactive3.2,2020.1.2,Win32,60,5f5adea66120081ea0f57a61,5f5c87064848f647691ef6bf,5,,,,,,bolt,,,,,,0,16,16,57,1,6,1,,,,,,,,,,,,,,,,,,,,,,,,,,,,,,,,,,,,,,,,,,,,,,,,,,,,,,,,,,,,,,,,,,,,,,,,,,,
,,,,,,,,,,stimuli/images/PICTURE_504.png,ARTIST,5ea03c73d219f50266b79ae4,24/09/1948,2020-09-12_09h30.35.749,proactive3.2,2020.1.2,Win32,60,5f5adea66120081ea0f57a61,5f5c87064848f647691ef6bf,5,,,,,,wheel,,,,,,0,17,17,49,1,5,1,,,,,,,,,,,,,,,,,,,,,,,,,,,,,,,,,,,,,,,,,,,,,,,,,,,,,,,,,,,,,,,,,,,,,,,,,,,
,,,,,,,,,,stimuli/images/PICTURE_491.png,GLASS,5ea03c73d219f50266b79ae4,24/09/1948,2020-09-12_09h30.35.749,proactive3.2,2020.1.2,Win32,60,5f5adea66120081ea0f57a61,5f5c87064848f647691ef6bf,5,,,,,,rug,,,,,,0,18,18,14,1,2,1,,,,,,,,,,,,,,,,,,,,,,,,,,,,,,,,,,,,,,,,,,,,,,,,,,,,,,,,,,,,,,,,,,,,,,,,,,,
,,,,,,,,,,stimuli/images/PICTURE_564.png,BATH,5ea03c73d219f50266b79ae4,24/09/1948,2020-09-12_09h30.35.749,proactive3.2,2020.1.2,Win32,60,5f5adea66120081ea0f57a61,5f5c87064848f647691ef6bf,5,,,,,,spoon,,,,,,0,19,19,26,1,3,1,,,,,,,,,,,,,,,,,,,,,,,,,,,,,,,,,,,,,,,,,,,,,,,,,,,,,,,,,,,,,,,,,,,,,,,,,,,
,,,,,,,,,,stimuli/images/PICTURE_108.png,FLIGHT,5ea03c73d219f50266b79ae4,24/09/1948,2020-09-12_09h30.35.749,proactive3.2,2020.1.2,Win32,60,5f5adea66120081ea0f57a61,5f5c87064848f647691ef6bf,5,,,,,,calendar,,,,,,0,20,20,59,1,6,1,,,,,,,,,,,,,,,,,,,,,,,,,,,,,,,,,,,,,,,,,,,,,,,,,,,,,,,,,,,,,,,,,,,,,,,,,,,
,,,,,,,,,,stimuli/images/PICTURE_504.png,COPS,5ea03c73d219f50266b79ae4,24/09/1948,2020-09-12_09h30.35.749,proactive3.2,2020.1.2,Win32,60,5f5adea66120081ea0f57a61,5f5c87064848f647691ef6bf,5,,,,,,wheel,,,,,,0,21,21,52,1,6,1,,,,,,,,,,,,,,,,,,,,,,,,,,,,,,,,,,,,,,,,,,,,,,,,,,,,,,,,,,,,,,,,,,,,,,,,,,,
,,,,,,,,,,stimuli/images/PICTURE_685.png,PENNY,5ea03c73d219f50266b79ae4,24/09/1948,2020-09-12_09h30.35.749,proactive3.2,2020.1.2,Win32,60,5f5adea66120081ea0f57a61,5f5c87064848f647691ef6bf,5,,,,,,goose,,,,,,0,22,22,4,1,1,1,,,,,,,,,,,,,,,,,,,,,,,,,,,,,,,,,,,,,,,,,,,,,,,,,,,,,,,,,,,,,,,,,,,,,,,,,,,
,,,,,,,,,,stimuli/images/PICTURE_95.png,MILLER,5ea03c73d219f50266b79ae4,24/09/1948,2020-09-12_09h30.35.749,proactive3.2,2020.1.2,Win32,60,5f5adea66120081ea0f57a61,5f5c87064848f647691ef6bf,5,,,,,,suitcase,,,,,,0,23,23,56,1,6,1,,,,,,,,,,,,,,,,,,,,,,,,,,,,,,,,,,,,,,,,,,,,,,,,,,,,,,,,,,,,,,,,,,,,,,,,,,,
,,,,,,,,,,stimuli/images/PICTURE_42.png,BOYS,5ea03c73d219f50266b79ae4,24/09/1948,2020-09-12_09h30.35.749,proactive3.2,2020.1.2,Win32,60,5f5adea66120081ea0f57a61,5f5c87064848f647691ef6bf,5,,,,,,pear,,,,,,0,24,24,55,1,6,1,,,,,,,,,,,,,,,,,,,,,,,,,,,,,,,,,,,,,,,,,,,,,,,,,,,,,,,,,,,,,,,,,,,,,,,,,,,
,,,,,,,,,,stimuli/images/PICTURE_108.png,POLICY,5ea03c73d219f50266b79ae4,24/09/1948,2020-09-12_09h30.35.749,proactive3.2,2020.1.2,Win32,60,5f5adea66120081ea0f57a61,5f5c87064848f647691ef6bf,5,,,,,,calendar,,,,,,0,25,25,22,1,3,1,,,,,,,,,,,,,,,,,,,,,,,,,,,,,,,,,,,,,,,,,,,,,,,,,,,,,,,,,,,,,,,,,,,,,,,,,,,
,,,,,,,,,,stimuli/images/PICTURE_504.png,YEAR,5ea03c73d219f50266b79ae4,24/09/1948,2020-09-12_09h30.35.749,proactive3.2,2020.1.2,Win32,60,5f5adea66120081ea0f57a61,5f5c87064848f647691ef6bf,5,,,,,,wheel,,,,,,0,26,26,13,1,2,1,,,,,,,,,,,,,,,,,,,,,,,,,,,,,,,,,,,,,,,,,,,,,,,,,,,,,,,,,,,,,,,,,,,,,,,,,,,
,,,,,,,,,,stimuli/images/PICTURE_208.png,SYSTEM,5ea03c73d219f50266b79ae4,24/09/1948,2020-09-12_09h30.35.749,proactive3.2,2020.1.2,Win32,60,5f5adea66120081ea0f57a61,5f5c87064848f647691ef6bf,5,,,,,,microphone,,,,,,0,27,27,32,1,4,1,,,,,,,,,,,,,,,,,,,,,,,,,,,,,,,,,,,,,,,,,,,,,,,,,,,,,,,,,,,,,,,,,,,,,,,,,,,
,,,,,,,,,,stimuli/images/PICTURE_147.png,YEAR,5ea03c73d219f50266b79ae4,24/09/1948,2020-09-12_09h30.35.749,proactive3.2,2020.1.2,Win32,60,5f5adea66120081ea0f57a61,5f5c87064848f647691ef6bf,5,,,,,,hanger,,,,,,0,28,28,21,1,3,1,,,,,,,,,,,,,,,,,,,,,,,,,,,,,,,,,,,,,,,,,,,,,,,,,,,,,,,,,,,,,,,,,,,,,,,,,,,
,,,,,,,,,,stimuli/images/PICTURE_285.png,LIFE,5ea03c73d219f50266b79ae4,24/09/1948,2020-09-12_09h30.35.749,proactive3.2,2020.1.2,Win32,60,5f5adea66120081ea0f57a61,5f5c87064848f647691ef6bf,5,,,,,,carrot,,,,,,0,29,29,33,1,4,1,,,,,,,,,,,,,,,,,,,,,,,,,,,,,,,,,,,,,,,,,,,,,,,,,,,,,,,,,,,,,,,,,,,,,,,,,,,
,,,,,,,,,,stimuli/images/PICTURE_2.png,FLIGHT,5ea03c73d219f50266b79ae4,24/09/1948,2020-09-12_09h30.35.749,proactive3.2,2020.1.2,Win32,60,5f5adea66120081ea0f57a61,5f5c87064848f647691ef6bf,5,,,,,,tyre,,,,,,0,30,30,15,1,2,1,,,,,,,,,,,,,,,,,,,,,,,,,,,,,,,,,,,,,,,,,,,,,,,,,,,,,,,,,,,,,,,,,,,,,,,,,,,
,,,,,,,,,,stimuli/images/PICTURE_491.png,RIVER,5ea03c73d219f50266b79ae4,24/09/1948,2020-09-12_09h30.35.749,proactive3.2,2020.1.2,Win32,60,5f5adea66120081ea0f57a61,5f5c87064848f647691ef6bf,5,,,,,,rug,,,,,,0,31,31,6,1,1,1,,,,,,,,,,,,,,,,,,,,,,,,,,,,,,,,,,,,,,,,,,,,,,,,,,,,,,,,,,,,,,,,,,,,,,,,,,,
,,,,,,,,,,stimuli/images/PICTURE_380.png,HONEY,5ea03c73d219f50266b79ae4,24/09/1948,2020-09-12_09h30.35.749,proactive3.2,2020.1.2,Win32,60,5f5adea66120081ea0f57a61,5f5c87064848f647691ef6bf,5,,,,,,gorilla,,,,,,0,32,32,19,1,2,1,,,,,,,,,,,,,,,,,,,,,,,,,,,,,,,,,,,,,,,,,,,,,,,,,,,,,,,,,,,,,,,,,,,,,,,,,,,
,,,,,,,,,,stimuli/images/PICTURE_654.png,MONTH,5ea03c73d219f50266b79ae4,24/09/1948,2020-09-12_09h30.35.749,proactive3.2,2020.1.2,Win32,60,5f5adea66120081ea0f57a61,5f5c87064848f647691ef6bf,5,,,,,,pencil,,,,,,0,33,33,29,1,3,1,,,,,,,,,,,,,,,,,,,,,,,,,,,,,,,,,,,,,,,,,,,,,,,,,,,,,,,,,,,,,,,,,,,,,,,,,,,
,,,,,,,,,,stimuli/images/PICTURE_85.png,TOILET,5ea03c73d219f50266b79ae4,24/09/1948,2020-09-12_09h30.35.749,proactive3.2,2020.1.2,Win32,60,5f5adea66120081ea0f57a61,5f5c87064848f647691ef6bf,5,,,,,,diamond,,,,,,0,34,34,48,1,5,1,,,,,,,,,,,,,,,,,,,,,,,,,,,,,,,,,,,,,,,,,,,,,,,,,,,,,,,,,,,,,,,,,,,,,,,,,,,
,,,,,,,,,,stimuli/images/PICTURE_403.png,WRITER,5ea03c73d219f50266b79ae4,24/09/1948,2020-09-12_09h30.35.749,proactive3.2,2020.1.2,Win32,60,5f5adea66120081ea0f57a61,5f5c87064848f647691ef6bf,5,,,,,,cathedral,,,,,,0,35,35,31,1,4,1,,,,,,,,,,,,,,,,,,,,,,,,,,,,,,,,,,,,,,,,,,,,,,,,,,,,,,,,,,,,,,,,,,,,,,,,,,,
,,,,,,,,,,stimuli/images/PICTURE_68.png,MILE,5ea03c73d219f50266b79ae4,24/09/1948,2020-09-12_09h30.35.749,proactive3.2,2020.1.2,Win32,60,5f5adea66120081ea0f57a61,5f5c87064848f647691ef6bf,5,,,,,,candle,,,,,,0,36,36,51,1,6,1,,,,,,,,,,,,,,,,,,,,,,,,,,,,,,,,,,,,,,,,,,,,,,,,,,,,,,,,,,,,,,,,,,,,,,,,,,,
,,,,,,,,,,stimuli/images/PICTURE_405.png,PLENTY,5ea03c73d219f50266b79ae4,24/09/1948,2020-09-12_09h30.35.749,proactive3.2,2020.1.2,Win32,60,5f5adea66120081ea0f57a61,5f5c87064848f647691ef6bf,5,,,,,,anchor,,,,,,0,37,37,23,1,3,1,,,,,,,,,,,,,,,,,,,,,,,,,,,,,,,,,,,,,,,,,,,,,,,,,,,,,,,,,,,,,,,,,,,,,,,,,,,
,,,,,,,,,,stimuli/images/PICTURE_340.png,LETTER,5ea03c73d219f50266b79ae4,24/09/1948,2020-09-12_09h30.35.749,proactive3.2,2020.1.2,Win32,60,5f5adea66120081ea0f57a61,5f5c87064848f647691ef6bf,5,,,,,,mirror,,,,,,0,38,38,24,1,3,1,,,,,,,,,,,,,,,,,,,,,,,,,,,,,,,,,,,,,,,,,,,,,,,,,,,,,,,,,,,,,,,,,,,,,,,,,,,
,,,,,,,,,,stimuli/images/PICTURE_667.png,RIVER,5ea03c73d219f50266b79ae4,24/09/1948,2020-09-12_09h30.35.749,proactive3.2,2020.1.2,Win32,60,5f5adea66120081ea0f57a61,5f5c87064848f647691ef6bf,5,,,,,,daisy,,,,,,0,39,39,10,1,2,1,,,,,,,,,,,,,,,,,,,,,,,,,,,,,,,,,,,,,,,,,,,,,,,,,,,,,,,,,,,,,,,,,,,,,,,,,,,
,,,,,,,,,,stimuli/images/PICTURE_467.png,POLICY,5ea03c73d219f50266b79ae4,24/09/1948,2020-09-12_09h30.35.749,proactive3.2,2020.1.2,Win32,60,5f5adea66120081ea0f57a61,5f5c87064848f647691ef6bf,5,,,,,,peg,,,,,,0,40,40,53,1,6,1,,,,,,,,,,,,,,,,,,,,,,,,,,,,,,,,,,,,,,,,,,,,,,,,,,,,,,,,,,,,,,,,,,,,,,,,,,,
,,,,,,,,,,stimuli/images/PICTURE_449.png,DUDE,5ea03c73d219f50266b79ae4,24/09/1948,2020-09-12_09h30.35.749,proactive3.2,2020.1.2,Win32,60,5f5adea66120081ea0f57a61,5f5c87064848f647691ef6bf,5,,,,,,bench,,,,,,0,41,41,17,1,2,1,,,,,,,,,,,,,,,,,,,,,,,,,,,,,,,,,,,,,,,,,,,,,,,,,,,,,,,,,,,,,,,,,,,,,,,,,,,
,,,,,,,,,,stimuli/images/PICTURE_383.png,WRITER,5ea03c73d219f50266b79ae4,24/09/1948,2020-09-12_09h30.35.749,proactive3.2,2020.1.2,Win32,60,5f5adea66120081ea0f57a61,5f5c87064848f647691ef6bf,5,,,,,,coin,,,,,,0,42,42,28,1,3,1,,,,,,,,,,,,,,,,,,,,,,,,,,,,,,,,,,,,,,,,,,,,,,,,,,,,,,,,,,,,,,,,,,,,,,,,,,,
,,,,,,,,,,stimuli/images/PICTURE_405.png,YEAR,5ea03c73d219f50266b79ae4,24/09/1948,2020-09-12_09h30.35.749,proactive3.2,2020.1.2,Win32,60,5f5adea66120081ea0f57a61,5f5c87064848f647691ef6bf,5,,,,,,anchor,,,,,,0,43,43,34,1,4,1,,,,,,,,,,,,,,,,,,,,,,,,,,,,,,,,,,,,,,,,,,,,,,,,,,,,,,,,,,,,,,,,,,,,,,,,,,,
,,,,,,,,,,stimuli/images/PICTURE_655.png,TOILET,5ea03c73d219f50266b79ae4,24/09/1948,2020-09-12_09h30.35.749,proactive3.2,2020.1.2,Win32,60,5f5adea66120081ea0f57a61,5f5c87064848f647691ef6bf,5,,,,,,megaphone,,,,,,0,44,44,12,1,2,1,,,,,,,,,,,,,,,,,,,,,,,,,,,,,,,,,,,,,,,,,,,,,,,,,,,,,,,,,,,,,,,,,,,,,,,,,,,
,,,,,,,,,,stimuli/images/PICTURE_57.png,MOMENT,5ea03c73d219f50266b79ae4,24/09/1948,2020-09-12_09h30.35.749,proactive3.2,2020.1.2,Win32,60,5f5adea66120081ea0f57a61,5f5c87064848f647691ef6bf,5,,,,,,stamp,,,,,,0,45,45,37,1,4,1,,,,,,,,,,,,,,,,,,,,,,,,,,,,,,,,,,,,,,,,,,,,,,,,,,,,,,,,,,,,,,,,,,,,,,,,,,,
,,,,,,,,,,stimuli/images/PICTURE_32.png,PILLS,5ea03c73d219f50266b79ae4,24/09/1948,2020-09-12_09h30.35.749,proactive3.2,2020.1.2,Win32,60,5f5adea66120081ea0f57a61,5f5c87064848f647691ef6bf,5,,,,,,crown,,,,,,0,46,46,18,1,2,1,,,,,,,,,,,,,,,,,,,,,,,,,,,,,,,,,,,,,,,,,,,,,,,,,,,,,,,,,,,,,,,,,,,,,,,,,,,
,,,,,,,,,,stimuli/images/PICTURE_95.png,HONEY,5ea03c73d219f50266b79ae4,24/09/1948,2020-09-12_09h30.35.749,proactive3.2,2020.1.2,Win32,60,5f5adea66120081ea0f57a61,5f5c87064848f647691ef6bf,5,,,,,,suitcase,,,,,,0,47,47,44,1,5,1,,,,,,,,,,,,,,,,,,,,,,,,,,,,,,,,,,,,,,,,,,,,,,,,,,,,,,,,,,,,,,,,,,,,,,,,,,,
,,,,,,,,,,stimuli/images/PICTURE_339.png,CLIENT,5ea03c73d219f50266b79ae4,24/09/1948,2020-09-12_09h30.35.749,proactive3.2,2020.1.2,Win32,60,5f5adea66120081ea0f57a61,5f5c87064848f647691ef6bf,5,,,,,,backpack,,,,,,0,48,48,11,1,2,1,,,,,,,,,,,,,,,,,,,,,,,,,,,,,,,,,,,,,,,,,,,,,,,,,,,,,,,,,,,,,,,,,,,,,,,,,,,
,,,,,,,,,,stimuli/images/PICTURE_403.png,RIVER,5ea03c73d219f50266b79ae4,24/09/1948,2020-09-12_09h30.35.749,proactive3.2,2020.1.2,Win32,60,5f5adea66120081ea0f57a61,5f5c87064848f647691ef6bf,5,,,,,,cathedral,,,,,,0,49,49,40,1,5,1,,,,,,,,,,,,,,,,,,,,,,,,,,,,,,,,,,,,,,,,,,,,,,,,,,,,,,,,,,,,,,,,,,,,,,,,,,,
,,,,,,,,,,stimuli/images/PICTURE_33.png,FRIEND,5ea03c73d219f50266b79ae4,24/09/1948,2020-09-12_09h30.35.749,proactive3.2,2020.1.2,Win32,60,5f5adea66120081ea0f57a61,5f5c87064848f647691ef6bf,5,,,,,,frame,,,,,,0,50,50,8,1,1,1,,,,,,,,,,,,,,,,,,,,,,,,,,,,,,,,,,,,,,,,,,,,,,,,,,,,,,,,,,,,,,,,,,,,,,,,,,,
,,,,,,,,,,stimuli/images/PICTURE_327.png,CASINO,5ea03c73d219f50266b79ae4,24/09/1948,2020-09-12_09h30.35.749,proactive3.2,2020.1.2,Win32,60,5f5adea66120081ea0f57a61,5f5c87064848f647691ef6bf,5,,,,,,helmet,,,,,,0,51,51,20,1,3,1,,,,,,,,,,,,,,,,,,,,,,,,,,,,,,,,,,,,,,,,,,,,,,,,,,,,,,,,,,,,,,,,,,,,,,,,,,,
,,,,,,,,,,stimuli/images/PICTURE_177.png,WRITER,5ea03c73d219f50266b79ae4,24/09/1948,2020-09-12_09h30.35.749,proactive3.2,2020.1.2,Win32,60,5f5adea66120081ea0f57a61,5f5c87064848f647691ef6bf,5,,,,,,mushroom,,,,,,0,52,52,41,1,5,1,,,,,,,,,,,,,,,,,,,,,,,,,,,,,,,,,,,,,,,,,,,,,,,,,,,,,,,,,,,,,,,,,,,,,,,,,,,
,,,,,,,,,,stimuli/images/PICTURE_383.png,SERIES,5ea03c73d219f50266b79ae4,24/09/1948,2020-09-12_09h30.35.749,proactive3.2,2020.1.2,Win32,60,5f5adea66120081ea0f57a61,5f5c87064848f647691ef6bf,5,,,,,,coin,,,,,,0,53,53,46,1,5,1,,,,,,,,,,,,,,,,,,,,,,,,,,,,,,,,,,,,,,,,,,,,,,,,,,,,,,,,,,,,,,,,,,,,,,,,,,,
,,,,,,,,,,stimuli/images/PICTURE_308.png,FAMILY,5ea03c73d219f50266b79ae4,24/09/1948,2020-09-12_09h30.35.749,proactive3.2,2020.1.2,Win32,60,5f5adea66120081ea0f57a61,5f5c87064848f647691ef6bf,5,,,,,,dice,,,,,,0,54,54,36,1,4,1,,,,,,,,,,,,,,,,,,,,,,,,,,,,,,,,,,,,,,,,,,,,,,,,,,,,,,,,,,,,,,,,,,,,,,,,,,,
,,,,,,,,,,stimuli/images/PICTURE_403.png,TOILET,5ea03c73d219f50266b79ae4,24/09/1948,2020-09-12_09h30.35.749,proactive3.2,2020.1.2,Win32,60,5f5adea66120081ea0f57a61,5f5c87064848f647691ef6bf,5,,,,,,cathedral,,,,,,0,55,55,25,1,3,1,,,,,,,,,,,,,,,,,,,,,,,,,,,,,,,,,,,,,,,,,,,,,,,,,,,,,,,,,,,,,,,,,,,,,,,,,,,
,,,,,,,,,,stimuli/images/PICTURE_327.png,SERIES,5ea03c73d219f50266b79ae4,24/09/1948,2020-09-12_09h30.35.749,proactive3.2,2020.1.2,Win32,60,5f5adea66120081ea0f57a61,5f5c87064848f647691ef6bf,5,,,,,,helmet,,,,,,0,56,56,3,1,1,1,,,,,,,,,,,,,,,,,,,,,,,,,,,,,,,,,,,,,,,,,,,,,,,,,,,,,,,,,,,,,,,,,,,,,,,,,,,
,,,,,,,,,,stimuli/images/PICTURE_233.png,LOTS,5ea03c73d219f50266b79ae4,24/09/1948,2020-09-12_09h30.35.749,proactive3.2,2020.1.2,Win32,60,5f5adea66120081ea0f57a61,5f5c87064848f647691ef6bf,5,,,,,,salt,,,,,,0,57,57,42,1,5,1,,,,,,,,,,,,,,,,,,,,,,,,,,,,,,,,,,,,,,,,,,,,,,,,,,,,,,,,,,,,,,,,,,,,,,,,,,,
,,,,,,,,,,stimuli/images/PICTURE_469.png,AGENT,5ea03c73d219f50266b79ae4,24/09/1948,2020-09-12_09h30.35.749,proactive3.2,2020.1.2,Win32,60,5f5adea66120081ea0f57a61,5f5c87064848f647691ef6bf,5,,,,,,stool,,,,,,0,58,58,16,1,2,1,,,,,,,,,,,,,,,,,,,,,,,,,,,,,,,,,,,,,,,,,,,,,,,,,,,,,,,,,,,,,,,,,,,,,,,,,,,
,,?,0.00105,0,,,,,,stimuli/images/PICTURE_708.png,RECORD,5ea03c73d219f50266b79ae4,24/09/1948,2020-09-12_09h30.35.749,proactive3.2,2020.1.2,Win32,60,5f5adea66120081ea0f57a61,5f5c87064848f647691ef6bf,5,,,,,,monkey,,,,,,,,,,,6,1,0,0,0,58,1,,,,,,,,,,,,,,,,,,,,,,,,,,,,,,,,,,,,,,,,,,,,,,,,,,,,,,,,,,,,,,,,,,,,,,
,,?,0.000895,0,,,,,,stimuli/images/PICTURE_308.png,FAMILY,5ea03c73d219f50266b79ae4,24/09/1948,2020-09-12_09h30.35.749,proactive3.2,2020.1.2,Win32,60,5f5adea66120081ea0f57a61,5f5c87064848f647691ef6bf,5,,,,,,dice,,,,,,,,,,,4,1,0,1,1,36,1,,,,,,,,,,,,,,,,,,,,,,,,,,,,,,,,,,,,,,,,,,,,,,,,,,,,,,,,,,,,,,,,,,,,,,
,,?,0.00122,0,,,,,,stimuli/images/PICTURE_95.png,BOYS,5ea03c73d219f50266b79ae4,24/09/1948,2020-09-12_09h30.35.749,proactive3.2,2020.1.2,Win32,60,5f5adea66120081ea0f57a61,5f5c87064848f647691ef6bf,5,,,,,,suitcase,,,,,,,,,,,1,1,0,2,2,1,1,,,,,,,,,,,,,,,,,,,,,,,,,,,,,,,,,,,,,,,,,,,,,,,,,,,,,,,,,,,,,,,,,,,,,,
,,?,0.00159,0,,,,,,stimuli/images/PICTURE_147.png,WOMEN,5ea03c73d219f50266b79ae4,24/09/1948,2020-09-12_09h30.35.749,proactive3.2,2020.1.2,Win32,60,5f5adea66120081ea0f57a61,5f5c87064848f647691ef6bf,5,,,,,,hanger,,,,,,,,,,,1,1,0,3,3,7,1,,,,,,,,,,,,,,,,,,,,,,,,,,,,,,,,,,,,,,,,,,,,,,,,,,,,,,,,,,,,,,,,,,,,,,
,,?,0.000885,0,,,,,,stimuli/images/PICTURE_42.png,BOYS,5ea03c73d219f50266b79ae4,24/09/1948,2020-09-12_09h30.35.749,proactive3.2,2020.1.2,Win32,60,5f5adea66120081ea0f57a61,5f5c87064848f647691ef6bf,5,,,,,,pear,,,,,,,,,,,6,1,0,4,4,55,1,,,,,,,,,,,,,,,,,,,,,,,,,,,,,,,,,,,,,,,,,,,,,,,,,,,,,,,,,,,,,,,,,,,,,,
,,?,0.000895,0,,,,,,stimuli/images/PICTURE_203.png,GODS,5ea03c73d219f50266b79ae4,24/09/1948,2020-09-12_09h30.35.749,proactive3.2,2020.1.2,Win32,60,5f5adea66120081ea0f57a61,5f5c87064848f647691ef6bf,5,,,,,,cap,,,,,,,,,,,4,1,0,5,5,30,1,,,,,,,,,,,,,,,,,,,,,,,,,,,,,,,,,,,,,,,,,,,,,,,,,,,,,,,,,,,,,,,,,,,,,,
,,?,0.00083,0,,,,,,stimuli/images/PICTURE_147.png,YEAR,5ea03c73d219f50266b79ae4,24/09/1948,2020-09-12_09h30.35.749,proactive3.2,2020.1.2,Win32,60,5f5adea66120081ea0f57a61,5f5c87064848f647691ef6bf,5,,,,,,hanger,,,,,,,,,,,3,1,0,6,6,21,1,,,,,,,,,,,,,,,,,,,,,,,,,,,,,,,,,,,,,,,,,,,,,,,,,,,,,,,,,,,,,,,,,,,,,,
,,TOILET,4.414025,1,,,,,,stimuli/images/PICTURE_85.png,TOILET,5ea03c73d219f50266b79ae4,24/09/1948,2020-09-12_09h30.35.749,proactive3.2,2020.1.2,Win32,60,5f5adea66120081ea0f57a61,5f5c87064848f647691ef6bf,5,,,,,,diamond,,,,,,,,,,,5,1,0,7,7,48,1,,,,,,,,,,,,,,,,,,,,,,,,,,,,,,,,,,,,,,,,,,,,,,,,,,,,,,,,,,,,,,,,,,,,,,
,,?,0.001445,0,,,,,,stimuli/images/PICTURE_2.png,FLIGHT,5ea03c73d219f50266b79ae4,24/09/1948,2020-09-12_09h30.35.749,proactive3.2,2020.1.2,Win32,60,5f5adea66120081ea0f57a61,5f5c87064848f647691ef6bf,5,,,,,,tyre,,,,,,,,,,,2,1,0,8,8,15,1,,,,,,,,,,,,,,,,,,,,,,,,,,,,,,,,,,,,,,,,,,,,,,,,,,,,,,,,,,,,,,,,,,,,,,
,,CASE,3.369945,0,,,,,,stimuli/images/PICTURE_177.png,WRITER,5ea03c73d219f50266b79ae4,24/09/1948,2020-09-12_09h30.35.749,proactive3.2,2020.1.2,Win32,60,5f5adea66120081ea0f57a61,5f5c87064848f647691ef6bf,5,,,,,,mushroom,,,,,,,,,,,5,1,0,9,9,41,1,,,,,,,,,,,,,,,,,,,,,,,,,,,,,,,,,,,,,,,,,,,,,,,,,,,,,,,,,,,,,,,,,,,,,,
,,APPLE,4.1915,1,,,,,,stimuli/images/PICTURE_677.png,APPLE,5ea03c73d219f50266b79ae4,24/09/1948,2020-09-12_09h30.35.749,proactive3.2,2020.1.2,Win32,60,5f5adea66120081ea0f57a61,5f5c87064848f647691ef6bf,5,,,,,,map,,,,,,,,,,,5,1,0,10,10,43,1,,,,,,,,,,,,,,,,,,,,,,,,,,,,,,,,,,,,,,,,,,,,,,,,,,,,,,,,,,,,,,,,,,,,,,
,,?,0.001685,0,,,,,,stimuli/images/PICTURE_504.png,YEAR,5ea03c73d219f50266b79ae4,24/09/1948,2020-09-12_09h30.35.749,proactive3.2,2020.1.2,Win32,60,5f5adea66120081ea0f57a61,5f5c87064848f647691ef6bf,5,,,,,,wheel,,,,,,,,,,,2,1,0,11,11,13,1,,,,,,,,,,,,,,,,,,,,,,,,,,,,,,,,,,,,,,,,,,,,,,,,,,,,,,,,,,,,,,,,,,,,,,
,,?,0.00162,0,,,,,,stimuli/images/PICTURE_297.png,RIVER,5ea03c73d219f50266b79ae4,24/09/1948,2020-09-12_09h30.35.749,proactive3.2,2020.1.2,Win32,60,5f5adea66120081ea0f57a61,5f5c87064848f647691ef6bf,5,,,,,,aeroplane,,,,,,,,,,,4,1,0,12,12,39,1,,,,,,,,,,,,,,,,,,,,,,,,,,,,,,,,,,,,,,,,,,,,,,,,,,,,,,,,,,,,,,,,,,,,,,
,,?,0.00096,0,,,,,,stimuli/images/PICTURE_57.png,MOMENT,5ea03c73d219f50266b79ae4,24/09/1948,2020-09-12_09h30.35.749,proactive3.2,2020.1.2,Win32,60,5f5adea66120081ea0f57a61,5f5c87064848f647691ef6bf,5,,,,,,stamp,,,,,,,,,,,4,1,0,13,13,37,1,,,,,,,,,,,,,,,,,,,,,,,,,,,,,,,,,,,,,,,,,,,,,,,,,,,,,,,,,,,,,,,,,,,,,,
