consent_key.keys,consent_key.rt,recalled,recalled_rt,recall_acc,example_recall.thisRepN,example_recall.thisTrialN,example_recall.thisN,example_recall.thisIndex,example_recall.ran,file,word,participant,please enter your date of birth (dd/mm/yyyy),date,expName,psychopyVersion,OS,frameRate,STUDY_ID,SESSION_ID,list,prac_learn_study_loop.thisRepN,prac_learn_study_loop.thisTrialN,prac_learn_study_loop.thisN,prac_learn_study_loop.thisIndex,prac_learn_study_loop.ran,image,prac_learn_test_loop.thisRepN,prac_learn_test_loop.thisTrialN,prac_learn_test_loop.thisN,prac_learn_test_loop.thisIndex,prac_learn_test_loop.ran,learn_study_loop.thisRepN,learn_study_loop.thisTrialN,learn_study_loop.thisN,learn_study_loop.thisIndex,learn_study_loop.ran,list_no,block_no,learn_test_loop.thisRepN,learn_test_loop.thisTrialN,learn_test_loop.thisN,learn_test_loop.thisIndex,learn_test_loop.ran,learn_blocks.thisRepN,learn_blocks.thisTrialN,learn_blocks.thisN,learn_blocks.thisIndex,learn_blocks.ran,block_csv,key_resp_13.keys,key_resp_13.rt,learn_blocks_loop.thisRepN,learn_blocks_loop.thisTrialN,learn_blocks_loop.thisN,learn_blocks_loop.thisIndex,learn_blocks_loop.ran,final_learn_test.thisRepN,final_learn_test.thisTrialN,final_learn_test.thisN,final_learn_test.thisIndex,final_learn_test.ran,prac_wm_test_loop.thisRepN,prac_wm_test_loop.thisTrialN,prac_wm_test_loop.thisN,prac_wm_test_loop.thisIndex,prac_wm_test_loop.ran,wm_recalled1,wm_recall_rt1,wm_probed1,wm_recall_acc1,wm_recalled2,wm_recall_rt2,wm_probed2,wm_recall_acc2,wm_recalled3,wm_recall_rt3,wm_probed3,wm_recall_acc3,wm_recalled4,wm_recall_rt4,wm_probed4,wm_recall_acc4,prac_wm_trial_loop.thisRepN,prac_wm_trial_loop.thisTrialN,prac_wm_trial_loop.thisN,prac_wm_trial_loop.thisIndex,prac_wm_trial_loop.ran,word1,image1,file1,item_type1,word2,image2,file2,item_type2,word4,image4,file4,item_type4,word3,image3,file3,item_type3,wm_test_loop.thisRepN,wm_test_loop.thisTrialN,wm_test_loop.thisN,wm_test_loop.thisIndex,wm_test_loop.ran,wm_trial_loop.thisRepN,wm_trial_loop.thisTrialN,wm_trial_loop.thisN,wm_trial_loop.thisIndex,wm_trial_loop.ran
y,24.313,TOUGH,10.61,1,0,0,0,0,1,stimuli/images/PICTURE_747.png,TOUGH,5eb921b4e43986010ef5c250,01/01/1985,2020-09-02_12h35.01.069,proactive3.2,2020.1.2,Win32,60,5f47c0b9b035471e11593a5c,5f4f81bb9062f80449143fdb,1,,,,,,,,,,,,,,,,,,,,,,,,,,,,,,,,,,,,,,,,,,,,,,,,,,,,,,,,,,,,,,,,,,,,,,,,,,,,,,,,,,,,,,,,,,,,,
,,,,,,,,,,stimuli/images/PICTURE_378.png,LOSS,5eb921b4e43986010ef5c250,01/01/1985,2020-09-02_12h35.01.069,proactive3.2,2020.1.2,Win32,60,5f47c0b9b035471e11593a5c,5f4f81bb9062f80449143fdb,1,0,0,0,2,1,lobster,,,,,,,,,,,,,,,,,,,,,,,,,,,,,,,,,,,,,,,,,,,,,,,,,,,,,,,,,,,,,,,,,,,,,,,,,,,,,,,,,,,,,,,
,,,,,,,,,,stimuli/images/PICTURE_727.png,CELL,5eb921b4e43986010ef5c250,01/01/1985,2020-09-02_12h35.01.069,proactive3.2,2020.1.2,Win32,60,5f47c0b9b035471e11593a5c,5f4f81bb9062f80449143fdb,1,0,1,1,1,1,hose,,,,,,,,,,,,,,,,,,,,,,,,,,,,,,,,,,,,,,,,,,,,,,,,,,,,,,,,,,,,,,,,,,,,,,,,,,,,,,,,,,,,,,,
,,,,,,,,,,stimuli/images/PICTURE_269.png,GENIUS,5eb921b4e43986010ef5c250,01/01/1985,2020-09-02_12h35.01.069,proactive3.2,2020.1.2,Win32,60,5f47c0b9b035471e11593a5c,5f4f81bb9062f80449143fdb,1,0,2,2,0,1,chameleon,,,,,,,,,,,,,,,,,,,,,,,,,,,,,,,,,,,,,,,,,,,,,,,,,,,,,,,,,,,,,,,,,,,,,,,,,,,,,,,,,,,,,,,
,,,,,,,,,,stimuli/images/PICTURE_697.png,KILLER,5eb921b4e43986010ef5c250,01/01/1985,2020-09-02_12h35.01.069,proactive3.2,2020.1.2,Win32,60,5f47c0b9b035471e11593a5c,5f4f81bb9062f80449143fdb,1,0,3,3,4,1,peach,,,,,,,,,,,,,,,,,,,,,,,,,,,,,,,,,,,,,,,,,,,,,,,,,,,,,,,,,,,,,,,,,,,,,,,,,,,,,,,,,,,,,,,
,,COIL,2.881,0,,,,,,stimuli/images/PICTURE_727.png,CELL,5eb921b4e43986010ef5c250,01/01/1985,2020-09-02_12h35.01.069,proactive3.2,2020.1.2,Win32,60,5f47c0b9b035471e11593a5c,5f4f81bb9062f80449143fdb,1,,,,,,hose,0,0,0,1,1,,,,,,,,,,,,,,,,,,,,,,,,,,,,,,,,,,,,,,,,,,,,,,,,,,,,,,,,,,,,,,,,,,,,,,,,,,,,,,,,,,
,,LOSS,3.916,1,,,,,,stimuli/images/PICTURE_378.png,LOSS,5eb921b4e43986010ef5c250,01/01/1985,2020-09-02_12h35.01.069,proactive3.2,2020.1.2,Win32,60,5f47c0b9b035471e11593a5c,5f4f81bb9062f80449143fdb,1,,,,,,lobster,0,1,1,2,1,,,,,,,,,,,,,,,,,,,,,,,,,,,,,,,,,,,,,,,,,,,,,,,,,,,,,,,,,,,,,,,,,,,,,,,,,,,,,,,,,,
,,GENIUS,3.666,1,,,,,,stimuli/images/PICTURE_269.png,GENIUS,5eb921b4e43986010ef5c250,01/01/1985,2020-09-02_12h35.01.069,proactive3.2,2020.1.2,Win32,60,5f47c0b9b035471e11593a5c,5f4f81bb9062f80449143fdb,1,,,,,,chameleon,0,2,2,0,1,,,,,,,,,,,,,,,,,,,,,,,,,,,,,,,,,,,,,,,,,,,,,,,,,,,,,,,,,,,,,,,,,,,,,,,,,,,,,,,,,,
,,DEVIL,2.249,1,,,,,,stimuli/images/PICTURE_658.png,DEVIL,5eb921b4e43986010ef5c250,01/01/1985,2020-09-02_12h35.01.069,proactive3.2,2020.1.2,Win32,60,5f47c0b9b035471e11593a5c,5f4f81bb9062f80449143fdb,1,,,,,,crow,0,3,3,3,1,,,,,,,,,,,,,,,,,,,,,,,,,,,,,,,,,,,,,,,,,,,,,,,,,,,,,,,,,,,,,,,,,,,,,,,,,,,,,,,,,,
,,DEATH,2.283,0,,,,,,stimuli/images/PICTURE_697.png,KILLER,5eb921b4e43986010ef5c250,01/01/1985,2020-09-02_12h35.01.069,proactive3.2,2020.1.2,Win32,60,5f47c0b9b035471e11593a5c,5f4f81bb9062f80449143fdb,1,,,,,,peach,0,4,4,4,1,,,,,,,,,,,,,,,,,,,,,,,,,,,,,,,,,,,,,,,,,,,,,,,,,,,,,,,,,,,,,,,,,,,,,,,,,,,,,,,,,,
,,,,,,,,,,stimuli/images/PICTURE_215.png,LEADER,5eb921b4e43986010ef5c250,01/01/1985,2020-09-02_12h35.01.069,proactive3.2,2020.1.2,Win32,60,5f47c0b9b035471e11593a5c,5f4f81bb9062f80449143fdb,1,,,,,,boot,,,,,,0,0,0,43,1,5,2,,,,,,,,,,,,,,,,,,,,,,,,,,,,,,,,,,,,,,,,,,,,,,,,,,,,,,,,,,,,,,,,,,,,,,,,,,,
,,,,,,,,,,stimuli/images/PICTURE_348.png,DUDE,5eb921b4e43986010ef5c250,01/01/1985,2020-09-02_12h35.01.069,proactive3.2,2020.1.2,Win32,60,5f47c0b9b035471e11593a5c,5f4f81bb9062f80449143fdb,1,,,,,,pepper,,,,,,0,1,1,59,1,6,2,,,,,,,,,,,,,,,,,,,,,,,,,,,,,,,,,,,,,,,,,,,,,,,,,,,,,,,,,,,,,,,,,,,,,,,,,,,
,,,,,,,,,,stimuli/images/PICTURE_285.png,PRINCE,5eb921b4e43986010ef5c250,01/01/1985,2020-09-02_12h35.01.069,proactive3.2,2020.1.2,Win32,60,5f47c0b9b035471e11593a5c,5f4f81bb9062f80449143fdb,1,,,,,,carrot,,,,,,0,2,2,20,1,3,2,,,,,,,,,,,,,,,,,,,,,,,,,,,,,,,,,,,,,,,,,,,,,,,,,,,,,,,,,,,,,,,,,,,,,,,,,,,
,,,,,,,,,,stimuli/images/PICTURE_403.png,FAMILY,5eb921b4e43986010ef5c250,01/01/1985,2020-09-02_12h35.01.069,proactive3.2,2020.1.2,Win32,60,5f47c0b9b035471e11593a5c,5f4f81bb9062f80449143fdb,1,,,,,,cathedral,,,,,,0,3,3,9,1,1,2,,,,,,,,,,,,,,,,,,,,,,,,,,,,,,,,,,,,,,,,,,,,,,,,,,,,,,,,,,,,,,,,,,,,,,,,,,,
,,,,,,,,,,stimuli/images/PICTURE_708.png,VALLEY,5eb921b4e43986010ef5c250,01/01/1985,2020-09-02_12h35.01.069,proactive3.2,2020.1.2,Win32,60,5f47c0b9b035471e11593a5c,5f4f81bb9062f80449143fdb,1,,,,,,monkey,,,,,,0,4,4,45,1,5,2,,,,,,,,,,,,,,,,,,,,,,,,,,,,,,,,,,,,,,,,,,,,,,,,,,,,,,,,,,,,,,,,,,,,,,,,,,,
,,,,,,,,,,stimuli/images/PICTURE_57.png,CASINO,5eb921b4e43986010ef5c250,01/01/1985,2020-09-02_12h35.01.069,proactive3.2,2020.1.2,Win32,60,5f47c0b9b035471e11593a5c,5f4f81bb9062f80449143fdb,1,,,,,,stamp,,,,,,0,5,5,12,1,2,2,,,,,,,,,,,,,,,,,,,,,,,,,,,,,,,,,,,,,,,,,,,,,,,,,,,,,,,,,,,,,,,,,,,,,,,,,,,
,,,,,,,,,,stimuli/images/PICTURE_33.png,COPS,5eb921b4e43986010ef5c250,01/01/1985,2020-09-02_12h35.01.069,proactive3.2,2020.1.2,Win32,60,5f47c0b9b035471e11593a5c,5f4f81bb9062f80449143fdb,1,,,,,,frame,,,,,,0,6,6,29,1,3,2,,,,,,,,,,,,,,,,,,,,,,,,,,,,,,,,,,,,,,,,,,,,,,,,,,,,,,,,,,,,,,,,,,,,,,,,,,,
,,,,,,,,,,stimuli/images/PICTURE_750.png,POLICY,5eb921b4e43986010ef5c250,01/01/1985,2020-09-02_12h35.01.069,proactive3.2,2020.1.2,Win32,60,5f47c0b9b035471e11593a5c,5f4f81bb9062f80449143fdb,1,,,,,,kettle,,,,,,0,7,7,44,1,5,2,,,,,,,,,,,,,,,,,,,,,,,,,,,,,,,,,,,,,,,,,,,,,,,,,,,,,,,,,,,,,,,,,,,,,,,,,,,
,,,,,,,,,,stimuli/images/PICTURE_314.png,SPEECH,5eb921b4e43986010ef5c250,01/01/1985,2020-09-02_12h35.01.069,proactive3.2,2020.1.2,Win32,60,5f47c0b9b035471e11593a5c,5f4f81bb9062f80449143fdb,1,,,,,,perfume,,,,,,0,8,8,35,1,4,2,,,,,,,,,,,,,,,,,,,,,,,,,,,,,,,,,,,,,,,,,,,,,,,,,,,,,,,,,,,,,,,,,,,,,,,,,,,
,,,,,,,,,,stimuli/images/PICTURE_491.png,SERIES,5eb921b4e43986010ef5c250,01/01/1985,2020-09-02_12h35.01.069,proactive3.2,2020.1.2,Win32,60,5f47c0b9b035471e11593a5c,5f4f81bb9062f80449143fdb,1,,,,,,rug,,,,,,0,9,9,39,1,4,2,,,,,,,,,,,,,,,,,,,,,,,,,,,,,,,,,,,,,,,,,,,,,,,,,,,,,,,,,,,,,,,,,,,,,,,,,,,
,,,,,,,,,,stimuli/images/PICTURE_688.png,CLOCK,5eb921b4e43986010ef5c250,01/01/1985,2020-09-02_12h35.01.069,proactive3.2,2020.1.2,Win32,60,5f47c0b9b035471e11593a5c,5f4f81bb9062f80449143fdb,1,,,,,,runner,,,,,,0,10,10,42,1,5,2,,,,,,,,,,,,,,,,,,,,,,,,,,,,,,,,,,,,,,,,,,,,,,,,,,,,,,,,,,,,,,,,,,,,,,,,,,,
,,,,,,,,,,stimuli/images/PICTURE_509.png,BATH,5eb921b4e43986010ef5c250,01/01/1985,2020-09-02_12h35.01.069,proactive3.2,2020.1.2,Win32,60,5f47c0b9b035471e11593a5c,5f4f81bb9062f80449143fdb,1,,,,,,telephone,,,,,,0,11,11,15,1,2,2,,,,,,,,,,,,,,,,,,,,,,,,,,,,,,,,,,,,,,,,,,,,,,,,,,,,,,,,,,,,,,,,,,,,,,,,,,,
,,,,,,,,,,stimuli/images/PICTURE_564.png,PLENTY,5eb921b4e43986010ef5c250,01/01/1985,2020-09-02_12h35.01.069,proactive3.2,2020.1.2,Win32,60,5f47c0b9b035471e11593a5c,5f4f81bb9062f80449143fdb,1,,,,,,spoon,,,,,,0,12,12,11,1,2,2,,,,,,,,,,,,,,,,,,,,,,,,,,,,,,,,,,,,,,,,,,,,,,,,,,,,,,,,,,,,,,,,,,,,,,,,,,,
,,,,,,,,,,stimuli/images/PICTURE_208.png,SPIRIT,5eb921b4e43986010ef5c250,01/01/1985,2020-09-02_12h35.01.069,proactive3.2,2020.1.2,Win32,60,5f47c0b9b035471e11593a5c,5f4f81bb9062f80449143fdb,1,,,,,,microphone,,,,,,0,13,13,28,1,3,2,,,,,,,,,,,,,,,,,,,,,,,,,,,,,,,,,,,,,,,,,,,,,,,,,,,,,,,,,,,,,,,,,,,,,,,,,,,
,,,,,,,,,,stimuli/images/PICTURE_57.png,CANDY,5eb921b4e43986010ef5c250,01/01/1985,2020-09-02_12h35.01.069,proactive3.2,2020.1.2,Win32,60,5f47c0b9b035471e11593a5c,5f4f81bb9062f80449143fdb,1,,,,,,stamp,,,,,,0,14,14,52,1,6,2,,,,,,,,,,,,,,,,,,,,,,,,,,,,,,,,,,,,,,,,,,,,,,,,,,,,,,,,,,,,,,,,,,,,,,,,,,,
,,,,,,,,,,stimuli/images/PICTURE_57.png,NATION,5eb921b4e43986010ef5c250,01/01/1985,2020-09-02_12h35.01.069,proactive3.2,2020.1.2,Win32,60,5f47c0b9b035471e11593a5c,5f4f81bb9062f80449143fdb,1,,,,,,stamp,,,,,,0,15,15,21,1,3,2,,,,,,,,,,,,,,,,,,,,,,,,,,,,,,,,,,,,,,,,,,,,,,,,,,,,,,,,,,,,,,,,,,,,,,,,,,,
,,,,,,,,,,stimuli/images/PICTURE_32.png,LETTER,5eb921b4e43986010ef5c250,01/01/1985,2020-09-02_12h35.01.069,proactive3.2,2020.1.2,Win32,60,5f47c0b9b035471e11593a5c,5f4f81bb9062f80449143fdb,1,,,,,,crown,,,,,,0,16,16,56,1,6,2,,,,,,,,,,,,,,,,,,,,,,,,,,,,,,,,,,,,,,,,,,,,,,,,,,,,,,,,,,,,,,,,,,,,,,,,,,,
,,,,,,,,,,stimuli/images/PICTURE_405.png,JUNGLE,5eb921b4e43986010ef5c250,01/01/1985,2020-09-02_12h35.01.069,proactive3.2,2020.1.2,Win32,60,5f47c0b9b035471e11593a5c,5f4f81bb9062f80449143fdb,1,,,,,,anchor,,,,,,0,17,17,13,1,2,2,,,,,,,,,,,,,,,,,,,,,,,,,,,,,,,,,,,,,,,,,,,,,,,,,,,,,,,,,,,,,,,,,,,,,,,,,,,
,,,,,,,,,,stimuli/images/PICTURE_2.png,YARD,5eb921b4e43986010ef5c250,01/01/1985,2020-09-02_12h35.01.069,proactive3.2,2020.1.2,Win32,60,5f47c0b9b035471e11593a5c,5f4f81bb9062f80449143fdb,1,,,,,,tyre,,,,,,0,18,18,55,1,6,2,,,,,,,,,,,,,,,,,,,,,,,,,,,,,,,,,,,,,,,,,,,,,,,,,,,,,,,,,,,,,,,,,,,,,,,,,,,
,,,,,,,,,,stimuli/images/PICTURE_141.png,CLIENT,5eb921b4e43986010ef5c250,01/01/1985,2020-09-02_12h35.01.069,proactive3.2,2020.1.2,Win32,60,5f47c0b9b035471e11593a5c,5f4f81bb9062f80449143fdb,1,,,,,,sunflower,,,,,,0,19,19,30,1,4,2,,,,,,,,,,,,,,,,,,,,,,,,,,,,,,,,,,,,,,,,,,,,,,,,,,,,,,,,,,,,,,,,,,,,,,,,,,,
,,,,,,,,,,stimuli/images/PICTURE_654.png,YEAR,5eb921b4e43986010ef5c250,01/01/1985,2020-09-02_12h35.01.069,proactive3.2,2020.1.2,Win32,60,5f47c0b9b035471e11593a5c,5f4f81bb9062f80449143fdb,1,,,,,,pencil,,,,,,0,20,20,41,1,5,2,,,,,,,,,,,,,,,,,,,,,,,,,,,,,,,,,,,,,,,,,,,,,,,,,,,,,,,,,,,,,,,,,,,,,,,,,,,
,,,,,,,,,,stimuli/images/PICTURE_356.png,CANDY,5eb921b4e43986010ef5c250,01/01/1985,2020-09-02_12h35.01.069,proactive3.2,2020.1.2,Win32,60,5f47c0b9b035471e11593a5c,5f4f81bb9062f80449143fdb,1,,,,,,pawn,,,,,,0,21,21,46,1,5,2,,,,,,,,,,,,,,,,,,,,,,,,,,,,,,,,,,,,,,,,,,,,,,,,,,,,,,,,,,,,,,,,,,,,,,,,,,,
,,,,,,,,,,stimuli/images/PICTURE_509.png,SHOTS,5eb921b4e43986010ef5c250,01/01/1985,2020-09-02_12h35.01.069,proactive3.2,2020.1.2,Win32,60,5f47c0b9b035471e11593a5c,5f4f81bb9062f80449143fdb,1,,,,,,telephone,,,,,,0,22,22,7,1,1,2,,,,,,,,,,,,,,,,,,,,,,,,,,,,,,,,,,,,,,,,,,,,,,,,,,,,,,,,,,,,,,,,,,,,,,,,,,,
,,,,,,,,,,stimuli/images/PICTURE_348.png,TOILET,5eb921b4e43986010ef5c250,01/01/1985,2020-09-02_12h35.01.069,proactive3.2,2020.1.2,Win32,60,5f47c0b9b035471e11593a5c,5f4f81bb9062f80449143fdb,1,,,,,,pepper,,,,,,0,23,23,4,1,1,2,,,,,,,,,,,,,,,,,,,,,,,,,,,,,,,,,,,,,,,,,,,,,,,,,,,,,,,,,,,,,,,,,,,,,,,,,,,
,,,,,,,,,,stimuli/images/PICTURE_504.png,HOUSE,5eb921b4e43986010ef5c250,01/01/1985,2020-09-02_12h35.01.069,proactive3.2,2020.1.2,Win32,60,5f47c0b9b035471e11593a5c,5f4f81bb9062f80449143fdb,1,,,,,,wheel,,,,,,0,24,24,36,1,4,2,,,,,,,,,,,,,,,,,,,,,,,,,,,,,,,,,,,,,,,,,,,,,,,,,,,,,,,,,,,,,,,,,,,,,,,,,,,
,,,,,,,,,,stimuli/images/PICTURE_311.png,FLESH,5eb921b4e43986010ef5c250,01/01/1985,2020-09-02_12h35.01.069,proactive3.2,2020.1.2,Win32,60,5f47c0b9b035471e11593a5c,5f4f81bb9062f80449143fdb,1,,,,,,razor,,,,,,0,25,25,3,1,1,2,,,,,,,,,,,,,,,,,,,,,,,,,,,,,,,,,,,,,,,,,,,,,,,,,,,,,,,,,,,,,,,,,,,,,,,,,,,
,,,,,,,,,,stimuli/images/PICTURE_123.png,SALE,5eb921b4e43986010ef5c250,01/01/1985,2020-09-02_12h35.01.069,proactive3.2,2020.1.2,Win32,60,5f47c0b9b035471e11593a5c,5f4f81bb9062f80449143fdb,1,,,,,,dart,,,,,,0,26,26,8,1,1,2,,,,,,,,,,,,,,,,,,,,,,,,,,,,,,,,,,,,,,,,,,,,,,,,,,,,,,,,,,,,,,,,,,,,,,,,,,,
,,,,,,,,,,stimuli/images/PICTURE_147.png,LEADER,5eb921b4e43986010ef5c250,01/01/1985,2020-09-02_12h35.01.069,proactive3.2,2020.1.2,Win32,60,5f47c0b9b035471e11593a5c,5f4f81bb9062f80449143fdb,1,,,,,,hanger,,,,,,0,27,27,33,1,4,2,,,,,,,,,,,,,,,,,,,,,,,,,,,,,,,,,,,,,,,,,,,,,,,,,,,,,,,,,,,,,,,,,,,,,,,,,,,
,,,,,,,,,,stimuli/images/PICTURE_215.png,FOOD,5eb921b4e43986010ef5c250,01/01/1985,2020-09-02_12h35.01.069,proactive3.2,2020.1.2,Win32,60,5f47c0b9b035471e11593a5c,5f4f81bb9062f80449143fdb,1,,,,,,boot,,,,,,0,28,28,5,1,1,2,,,,,,,,,,,,,,,,,,,,,,,,,,,,,,,,,,,,,,,,,,,,,,,,,,,,,,,,,,,,,,,,,,,,,,,,,,,
,,,,,,,,,,stimuli/images/PICTURE_470.png,MOMENT,5eb921b4e43986010ef5c250,01/01/1985,2020-09-02_12h35.01.069,proactive3.2,2020.1.2,Win32,60,5f47c0b9b035471e11593a5c,5f4f81bb9062f80449143fdb,1,,,,,,motorbike,,,,,,0,29,29,40,1,5,2,,,,,,,,,,,,,,,,,,,,,,,,,,,,,,,,,,,,,,,,,,,,,,,,,,,,,,,,,,,,,,,,,,,,,,,,,,,
,,,,,,,,,,stimuli/images/PICTURE_509.png,APPLE,5eb921b4e43986010ef5c250,01/01/1985,2020-09-02_12h35.01.069,proactive3.2,2020.1.2,Win32,60,5f47c0b9b035471e11593a5c,5f4f81bb9062f80449143fdb,1,,,,,,telephone,,,,,,0,30,30,38,1,4,2,,,,,,,,,,,,,,,,,,,,,,,,,,,,,,,,,,,,,,,,,,,,,,,,,,,,,,,,,,,,,,,,,,,,,,,,,,,
,,,,,,,,,,stimuli/images/PICTURE_68.png,KIND,5eb921b4e43986010ef5c250,01/01/1985,2020-09-02_12h35.01.069,proactive3.2,2020.1.2,Win32,60,5f47c0b9b035471e11593a5c,5f4f81bb9062f80449143fdb,1,,,,,,candle,,,,,,0,31,31,23,1,3,2,,,,,,,,,,,,,,,,,,,,,,,,,,,,,,,,,,,,,,,,,,,,,,,,,,,,,,,,,,,,,,,,,,,,,,,,,,,
,,,,,,,,,,stimuli/images/PICTURE_285.png,WRITER,5eb921b4e43986010ef5c250,01/01/1985,2020-09-02_12h35.01.069,proactive3.2,2020.1.2,Win32,60,5f47c0b9b035471e11593a5c,5f4f81bb9062f80449143fdb,1,,,,,,carrot,,,,,,0,32,32,6,1,1,2,,,,,,,,,,,,,,,,,,,,,,,,,,,,,,,,,,,,,,,,,,,,,,,,,,,,,,,,,,,,,,,,,,,,,,,,,,,
,,,,,,,,,,stimuli/images/PICTURE_95.png,NIGHT,5eb921b4e43986010ef5c250,01/01/1985,2020-09-02_12h35.01.069,proactive3.2,2020.1.2,Win32,60,5f47c0b9b035471e11593a5c,5f4f81bb9062f80449143fdb,1,,,,,,suitcase,,,,,,0,33,33,37,1,4,2,,,,,,,,,,,,,,,,,,,,,,,,,,,,,,,,,,,,,,,,,,,,,,,,,,,,,,,,,,,,,,,,,,,,,,,,,,,
,,,,,,,,,,stimuli/images/PICTURE_405.png,JUNGLE,5eb921b4e43986010ef5c250,01/01/1985,2020-09-02_12h35.01.069,proactive3.2,2020.1.2,Win32,60,5f47c0b9b035471e11593a5c,5f4f81bb9062f80449143fdb,1,,,,,,anchor,,,,,,0,34,34,58,1,6,2,,,,,,,,,,,,,,,,,,,,,,,,,,,,,,,,,,,,,,,,,,,,,,,,,,,,,,,,,,,,,,,,,,,,,,,,,,,
,,,,,,,,,,stimuli/images/PICTURE_405.png,HOUSE,5eb921b4e43986010ef5c250,01/01/1985,2020-09-02_12h35.01.069,proactive3.2,2020.1.2,Win32,60,5f47c0b9b035471e11593a5c,5f4f81bb9062f80449143fdb,1,,,,,,anchor,,,,,,0,35,35,2,1,1,2,,,,,,,,,,,,,,,,,,,,,,,,,,,,,,,,,,,,,,,,,,,,,,,,,,,,,,,,,,,,,,,,,,,,,,,,,,,
,,,,,,,,,,stimuli/images/PICTURE_655.png,SALE,5eb921b4e43986010ef5c250,01/01/1985,2020-09-02_12h35.01.069,proactive3.2,2020.1.2,Win32,60,5f47c0b9b035471e11593a5c,5f4f81bb9062f80449143fdb,1,,,,,,megaphone,,,,,,0,36,36,57,1,6,2,,,,,,,,,,,,,,,,,,,,,,,,,,,,,,,,,,,,,,,,,,,,,,,,,,,,,,,,,,,,,,,,,,,,,,,,,,,
,,,,,,,,,,stimuli/images/PICTURE_654.png,COPS,5eb921b4e43986010ef5c250,01/01/1985,2020-09-02_12h35.01.069,proactive3.2,2020.1.2,Win32,60,5f47c0b9b035471e11593a5c,5f4f81bb9062f80449143fdb,1,,,,,,pencil,,,,,,0,37,37,10,1,2,2,,,,,,,,,,,,,,,,,,,,,,,,,,,,,,,,,,,,,,,,,,,,,,,,,,,,,,,,,,,,,,,,,,,,,,,,,,,
,,,,,,,,,,stimuli/images/PICTURE_487.png,POLICY,5eb921b4e43986010ef5c250,01/01/1985,2020-09-02_12h35.01.069,proactive3.2,2020.1.2,Win32,60,5f47c0b9b035471e11593a5c,5f4f81bb9062f80449143fdb,1,,,,,,basket,,,,,,0,38,38,34,1,4,2,,,,,,,,,,,,,,,,,,,,,,,,,,,,,,,,,,,,,,,,,,,,,,,,,,,,,,,,,,,,,,,,,,,,,,,,,,,
,,,,,,,,,,stimuli/images/PICTURE_509.png,MILLER,5eb921b4e43986010ef5c250,01/01/1985,2020-09-02_12h35.01.069,proactive3.2,2020.1.2,Win32,60,5f47c0b9b035471e11593a5c,5f4f81bb9062f80449143fdb,1,,,,,,telephone,,,,,,0,39,39,49,1,5,2,,,,,,,,,,,,,,,,,,,,,,,,,,,,,,,,,,,,,,,,,,,,,,,,,,,,,,,,,,,,,,,,,,,,,,,,,,,
,,,,,,,,,,stimuli/images/PICTURE_177.png,HOUSE,5eb921b4e43986010ef5c250,01/01/1985,2020-09-02_12h35.01.069,proactive3.2,2020.1.2,Win32,60,5f47c0b9b035471e11593a5c,5f4f81bb9062f80449143fdb,1,,,,,,mushroom,,,,,,0,40,40,25,1,3,2,,,,,,,,,,,,,,,,,,,,,,,,,,,,,,,,,,,,,,,,,,,,,,,,,,,,,,,,,,,,,,,,,,,,,,,,,,,
,,,,,,,,,,stimuli/images/PICTURE_452.png,COPS,5eb921b4e43986010ef5c250,01/01/1985,2020-09-02_12h35.01.069,proactive3.2,2020.1.2,Win32,60,5f47c0b9b035471e11593a5c,5f4f81bb9062f80449143fdb,1,,,,,,watch,,,,,,0,41,41,0,1,1,2,,,,,,,,,,,,,,,,,,,,,,,,,,,,,,,,,,,,,,,,,,,,,,,,,,,,,,,,,,,,,,,,,,,,,,,,,,,
,,,,,,,,,,stimuli/images/PICTURE_2.png,AREA,5eb921b4e43986010ef5c250,01/01/1985,2020-09-02_12h35.01.069,proactive3.2,2020.1.2,Win32,60,5f47c0b9b035471e11593a5c,5f4f81bb9062f80449143fdb,1,,,,,,tyre,,,,,,0,42,42,32,1,4,2,,,,,,,,,,,,,,,,,,,,,,,,,,,,,,,,,,,,,,,,,,,,,,,,,,,,,,,,,,,,,,,,,,,,,,,,,,,
,,,,,,,,,,stimuli/images/PICTURE_677.png,FAMILY,5eb921b4e43986010ef5c250,01/01/1985,2020-09-02_12h35.01.069,proactive3.2,2020.1.2,Win32,60,5f47c0b9b035471e11593a5c,5f4f81bb9062f80449143fdb,1,,,,,,map,,,,,,0,43,43,53,1,6,2,,,,,,,,,,,,,,,,,,,,,,,,,,,,,,,,,,,,,,,,,,,,,,,,,,,,,,,,,,,,,,,,,,,,,,,,,,,
,,,,,,,,,,stimuli/images/PICTURE_667.png,GLASS,5eb921b4e43986010ef5c250,01/01/1985,2020-09-02_12h35.01.069,proactive3.2,2020.1.2,Win32,60,5f47c0b9b035471e11593a5c,5f4f81bb9062f80449143fdb,1,,,,,,daisy,,,,,,0,44,44,27,1,3,2,,,,,,,,,,,,,,,,,,,,,,,,,,,,,,,,,,,,,,,,,,,,,,,,,,,,,,,,,,,,,,,,,,,,,,,,,,,
,,,,,,,,,,stimuli/images/PICTURE_297.png,BODY,5eb921b4e43986010ef5c250,01/01/1985,2020-09-02_12h35.01.069,proactive3.2,2020.1.2,Win32,60,5f47c0b9b035471e11593a5c,5f4f81bb9062f80449143fdb,1,,,,,,aeroplane,,,,,,0,45,45,51,1,6,2,,,,,,,,,,,,,,,,,,,,,,,,,,,,,,,,,,,,,,,,,,,,,,,,,,,,,,,,,,,,,,,,,,,,,,,,,,,
,,,,,,,,,,stimuli/images/PICTURE_487.png,ROOF,5eb921b4e43986010ef5c250,01/01/1985,2020-09-02_12h35.01.069,proactive3.2,2020.1.2,Win32,60,5f47c0b9b035471e11593a5c,5f4f81bb9062f80449143fdb,1,,,,,,basket,,,,,,0,46,46,50,1,6,2,,,,,,,,,,,,,,,,,,,,,,,,,,,,,,,,,,,,,,,,,,,,,,,,,,,,,,,,,,,,,,,,,,,,,,,,,,,
,,,,,,,,,,stimuli/images/PICTURE_311.png,TOILET,5eb921b4e43986010ef5c250,01/01/1985,2020-09-02_12h35.01.069,proactive3.2,2020.1.2,Win32,60,5f47c0b9b035471e11593a5c,5f4f81bb9062f80449143fdb,1,,,,,,razor,,,,,,0,47,47,54,1,6,2,,,,,,,,,,,,,,,,,,,,,,,,,,,,,,,,,,,,,,,,,,,,,,,,,,,,,,,,,,,,,,,,,,,,,,,,,,,
,,,,,,,,,,stimuli/images/PICTURE_18.png,RIVER,5eb921b4e43986010ef5c250,01/01/1985,2020-09-02_12h35.01.069,proactive3.2,2020.1.2,Win32,60,5f47c0b9b035471e11593a5c,5f4f81bb9062f80449143fdb,1,,,,,,planet,,,,,,0,48,48,22,1,3,2,,,,,,,,,,,,,,,,,,,,,,,,,,,,,,,,,,,,,,,,,,,,,,,,,,,,,,,,,,,,,,,,,,,,,,,,,,,
,,,,,,,,,,stimuli/images/PICTURE_2.png,JUNGLE,5eb921b4e43986010ef5c250,01/01/1985,2020-09-02_12h35.01.069,proactive3.2,2020.1.2,Win32,60,5f47c0b9b035471e11593a5c,5f4f81bb9062f80449143fdb,1,,,,,,tyre,,,,,,0,49,49,1,1,1,2,,,,,,,,,,,,,,,,,,,,,,,,,,,,,,,,,,,,,,,,,,,,,,,,,,,,,,,,,,,,,,,,,,,,,,,,,,,
,,,,,,,,,,stimuli/images/PICTURE_296.png,CLOCK,5eb921b4e43986010ef5c250,01/01/1985,2020-09-02_12h35.01.069,proactive3.2,2020.1.2,Win32,60,5f47c0b9b035471e11593a5c,5f4f81bb9062f80449143fdb,1,,,,,,bolt,,,,,,0,50,50,18,1,2,2,,,,,,,,,,,,,,,,,,,,,,,,,,,,,,,,,,,,,,,,,,,,,,,,,,,,,,,,,,,,,,,,,,,,,,,,,,,
,,,,,,,,,,stimuli/images/PICTURE_327.png,LEADER,5eb921b4e43986010ef5c250,01/01/1985,2020-09-02_12h35.01.069,proactive3.2,2020.1.2,Win32,60,5f47c0b9b035471e11593a5c,5f4f81bb9062f80449143fdb,1,,,,,,helmet,,,,,,0,51,51,17,1,2,2,,,,,,,,,,,,,,,,,,,,,,,,,,,,,,,,,,,,,,,,,,,,,,,,,,,,,,,,,,,,,,,,,,,,,,,,,,,
,,,,,,,,,,stimuli/images/PICTURE_677.png,PHOTO,5eb921b4e43986010ef5c250,01/01/1985,2020-09-02_12h35.01.069,proactive3.2,2020.1.2,Win32,60,5f47c0b9b035471e11593a5c,5f4f81bb9062f80449143fdb,1,,,,,,map,,,,,,0,52,52,14,1,2,2,,,,,,,,,,,,,,,,,,,,,,,,,,,,,,,,,,,,,,,,,,,,,,,,,,,,,,,,,,,,,,,,,,,,,,,,,,,
,,,,,,,,,,stimuli/images/PICTURE_692.png,DUDE,5eb921b4e43986010ef5c250,01/01/1985,2020-09-02_12h35.01.069,proactive3.2,2020.1.2,Win32,60,5f47c0b9b035471e11593a5c,5f4f81bb9062f80449143fdb,1,,,,,,cherry,,,,,,0,53,53,47,1,5,2,,,,,,,,,,,,,,,,,,,,,,,,,,,,,,,,,,,,,,,,,,,,,,,,,,,,,,,,,,,,,,,,,,,,,,,,,,,
,,,,,,,,,,stimuli/images/PICTURE_215.png,BOYS,5eb921b4e43986010ef5c250,01/01/1985,2020-09-02_12h35.01.069,proactive3.2,2020.1.2,Win32,60,5f47c0b9b035471e11593a5c,5f4f81bb9062f80449143fdb,1,,,,,,boot,,,,,,0,54,54,24,1,3,2,,,,,,,,,,,,,,,,,,,,,,,,,,,,,,,,,,,,,,,,,,,,,,,,,,,,,,,,,,,,,,,,,,,,,,,,,,,
,,,,,,,,,,stimuli/images/PICTURE_160.png,HOTEL,5eb921b4e43986010ef5c250,01/01/1985,2020-09-02_12h35.01.069,proactive3.2,2020.1.2,Win32,60,5f47c0b9b035471e11593a5c,5f4f81bb9062f80449143fdb,1,,,,,,wheelbarrow,,,,,,0,55,55,16,1,2,2,,,,,,,,,,,,,,,,,,,,,,,,,,,,,,,,,,,,,,,,,,,,,,,,,,,,,,,,,,,,,,,,,,,,,,,,,,,
,,,,,,,,,,stimuli/images/PICTURE_453.png,FAMILY,5eb921b4e43986010ef5c250,01/01/1985,2020-09-02_12h35.01.069,proactive3.2,2020.1.2,Win32,60,5f47c0b9b035471e11593a5c,5f4f81bb9062f80449143fdb,1,,,,,,scissors,,,,,,0,56,56,48,1,5,2,,,,,,,,,,,,,,,,,,,,,,,,,,,,,,,,,,,,,,,,,,,,,,,,,,,,,,,,,,,,,,,,,,,,,,,,,,,
,,,,,,,,,,stimuli/images/PICTURE_93.png,GIRL,5eb921b4e43986010ef5c250,01/01/1985,2020-09-02_12h35.01.069,proactive3.2,2020.1.2,Win32,60,5f47c0b9b035471e11593a5c,5f4f81bb9062f80449143fdb,1,,,,,,skateboard,,,,,,0,57,57,31,1,4,2,,,,,,,,,,,,,,,,,,,,,,,,,,,,,,,,,,,,,,,,,,,,,,,,,,,,,,,,,,,,,,,,,,,,,,,,,,,
,,,,,,,,,,stimuli/images/PICTURE_255.png,PENNY,5eb921b4e43986010ef5c250,01/01/1985,2020-09-02_12h35.01.069,proactive3.2,2020.1.2,Win32,60,5f47c0b9b035471e11593a5c,5f4f81bb9062f80449143fdb,1,,,,,,shovel,,,,,,0,58,58,19,1,2,2,,,,,,,,,,,,,,,,,,,,,,,,,,,,,,,,,,,,,,,,,,,,,,,,,,,,,,,,,,,,,,,,,,,,,,,,,,,
,,?,0.001,0,,,,,,stimuli/images/PICTURE_314.png,SPEECH,5eb921b4e43986010ef5c250,01/01/1985,2020-09-02_12h35.01.069,proactive3.2,2020.1.2,Win32,60,5f47c0b9b035471e11593a5c,5f4f81bb9062f80449143fdb,1,,,,,,perfume,,,,,,,,,,,4,2,0,0,0,35,1,,,,,,,,,,,,,,,,,,,,,,,,,,,,,,,,,,,,,,,,,,,,,,,,,,,,,,,,,,,,,,,,,,,,,,
,,?,0.002,0,,,,,,stimuli/images/PICTURE_487.png,ROOF,5eb921b4e43986010ef5c250,01/01/1985,2020-09-02_12h35.01.069,proactive3.2,2020.1.2,Win32,60,5f47c0b9b035471e11593a5c,5f4f81bb9062f80449143fdb,1,,,,,,basket,,,,,,,,,,,6,2,0,1,1,50,1,,,,,,,,,,,,,,,,,,,,,,,,,,,,,,,,,,,,,,,,,,,,,,,,,,,,,,,,,,,,,,,,,,,,,,
,,?,0,0,,,,,,stimuli/images/PICTURE_215.png,BOYS,5eb921b4e43986010ef5c250,01/01/1985,2020-09-02_12h35.01.069,proactive3.2,2020.1.2,Win32,60,5f47c0b9b035471e11593a5c,5f4f81bb9062f80449143fdb,1,,,,,,boot,,,,,,,,,,,3,2,0,2,2,24,1,,,,,,,,,,,,,,,,,,,,,,,,,,,,,,,,,,,,,,,,,,,,,,,,,,,,,,,,,,,,,,,,,,,,,,
,,?,0.001,0,,,,,,stimuli/images/PICTURE_160.png,HOTEL,5eb921b4e43986010ef5c250,01/01/1985,2020-09-02_12h35.01.069,proactive3.2,2020.1.2,Win32,60,5f47c0b9b035471e11593a5c,5f4f81bb9062f80449143fdb,1,,,,,,wheelbarrow,,,,,,,,,,,2,2,0,3,3,16,1,,,,,,,,,,,,,,,,,,,,,,,,,,,,,,,,,,,,,,,,,,,,,,,,,,,,,,,,,,,,,,,,,,,,,,
,,?,0.001,0,,,,,,stimuli/images/PICTURE_453.png,FAMILY,5eb921b4e43986010ef5c250,01/01/1985,2020-09-02_12h35.01.069,proactive3.2,2020.1.2,Win32,60,5f47c0b9b035471e11593a5c,5f4f81bb9062f80449143fdb,1,,,,,,scissors,,,,,,,,,,,5,2,0,4,4,48,1,,,,,,,,,,,,,,,,,,,,,,,,,,,,,,,,,,,,,,,,,,,,,,,,,,,,,,,,,,,,,,,,,,,,,,
,,HOUSE,6.707,0,,,,,,stimuli/images/PICTURE_509.png,SHOTS,5eb921b4e43986010ef5c250,01/01/1985,2020-09-02_12h35.01.069,proactive3.2,2020.1.2,Win32,60,5f47c0b9b035471e11593a5c,5f4f81bb9062f80449143fdb,1,,,,,,telephone,,,,,,,,,,,1,2,0,5,5,7,1,,,,,,,,,,,,,,,,,,,,,,,,,,,,,,,,,,,,,,,,,,,,,,,,,,,,,,,,,,,,,,,,,,,,,,
,,?,0.001,0,,,,,,stimuli/images/PICTURE_750.png,POLICY,5eb921b4e43986010ef5c250,01/01/1985,2020-09-02_12h35.01.069,proactive3.2,2020.1.2,Win32,60,5f47c0b9b035471e11593a5c,5f4f81bb9062f80449143fdb,1,,,,,,kettle,,,,,,,,,,,5,2,0,6,6,44,1,,,,,,,,,,,,,,,,,,,,,,,,,,,,,,,,,,,,,,,,,,,,,,,,,,,,,,,,,,,,,,,,,,,,,,
,,?,0.001,0,,,,,,stimuli/images/PICTURE_470.png,BEAUTY,5eb921b4e43986010ef5c250,01/01/1985,2020-09-02_12h35.01.069,proactive3.2,2020.1.2,Win32,60,5f47c0b9b035471e11593a5c,5f4f81bb9062f80449143fdb,1,,,,,,motorbike,,,,,,,,,,,3,2,0,7,7,26,1,,,,,,,,,,,,,,,,,,,,,,,,,,,,,,,,,,,,,,,,,,,,,,,,,,,,,,,,,,,,,,,,,,,,,,
,,?,0.002,0,,,,,,stimuli/images/PICTURE_297.png,BODY,5eb921b4e43986010ef5c250,01/01/1985,2020-09-02_12h35.01.069,proactive3.2,2020.1.2,Win32,60,5f47c0b9b035471e11593a5c,5f4f81bb9062f80449143fdb,1,,,,,,aeroplane,,,,,,,,,,,6,2,0,8,8,51,1,,,,,,,,,,,,,,,,,,,,,,,,,,,,,,,,,,,,,,,,,,,,,,,,,,,,,,,,,,,,,,,,,,,,,,
,,?,3.777,0,,,,,,stimuli/images/PICTURE_2.png,JUNGLE,5eb921b4e43986010ef5c250,01/01/1985,2020-09-02_12h35.01.069,proactive3.2,2020.1.2,Win32,60,5f47c0b9b035471e11593a5c,5f4f81bb9062f80449143fdb,1,,,,,,tyre,,,,,,,,,,,1,2,0,9,9,1,1,,,,,,,,,,,,,,,,,,,,,,,,,,,,,,,,,,,,,,,,,,,,,,,,,,,,,,,,,,,,,,,,,,,,,,
,,?,0,0,,,,,,stimuli/images/PICTURE_667.png,GLASS,5eb921b4e43986010ef5c250,01/01/1985,2020-09-02_12h35.01.069,proactive3.2,2020.1.2,Win32,60,5f47c0b9b035471e11593a5c,5f4f81bb9062f80449143fdb,1,,,,,,daisy,,,,,,,,,,,3,2,0,10,10,27,1,,,,,,,,,,,,,,,,,,,,,,,,,,,,,,,,,,,,,,,,,,,,,,,,,,,,,,,,,,,,,,,,,,,,,,
,,?,0,0,,,,,,stimuli/images/PICTURE_356.png,CANDY,5eb921b4e43986010ef5c250,01/01/1985,2020-09-02_12h35.01.069,proactive3.2,2020.1.2,Win32,60,5f47c0b9b035471e11593a5c,5f4f81bb9062f80449143fdb,1,,,,,,pawn,,,,,,,,,,,5,2,0,11,11,46,1,,,,,,,,,,,,,,,,,,,,,,,,,,,,,,,,,,,,,,,,,,,,,,,,,,,,,,,,,,,,,,,,,,,,,,
,,?,0.001,0,,,,,,stimuli/images/PICTURE_677.png,PHOTO,5eb921b4e43986010ef5c250,01/01/1985,2020-09-02_12h35.01.069,proactive3.2,2020.1.2,Win32,60,5f47c0b9b035471e11593a5c,5f4f81bb9062f80449143fdb,1,,,,,,map,,,,,,,,,,,2,2,0,12,12,14,1,,,,,,,,,,,,,,,,,,,,,,,,,,,,,,,,,,,,,,,,,,,,,,,,,,,,,,,,,,,,,,,,,,,,,,
,,?,0.001,0,,,,,,stimuli/images/PICTURE_655.png,SALE,5eb921b4e43986010ef5c250,01/01/1985,2020-09-02_12h35.01.069,proactive3.2,2020.1.2,Win32,60,5f47c0b9b035471e11593a5c,5f4f81bb9062f80449143fdb,1,,,,,,megaphone,,,,,,,,,,,6,2,0,13,13,57,1,,,,,,,,,,,,,,,,,,,,,,,,,,,,,,,,,,,,,,,,,,,,,,,,,,,,,,,,,,,,,,,,,,,,,,
,,?,0.001,0,,,,,,stimuli/images/PICTURE_57.png,CANDY,5eb921b4e43986010ef5c250,01/01/1985,2020-09-02_12h35.01.069,proactive3.2,2020.1.2,Win32,60,5f47c0b9b035471e11593a5c,5f4f81bb9062f80449143fdb,1,,,,,,stamp,,,,,,,,,,,6,2,0,14,14,52,1,,,,,,,,,,,,,,,,,,,,,,,,,,,,,,,,,,,,,,,,,,,,,,,,,,,,,,,,,,,,,,,,,,,,,,
,,?,0,0,,,,,,stimuli/images/PICTURE_296.png,CLOCK,5eb921b4e43986010ef5c250,01/01/1985,2020-09-02_12h35.01.069,proactive3.2,2020.1.2,Win32,60,5f47c0b9b035471e11593a5c,5f4f81bb9062f80449143fdb,1,,,,,,bolt,,,,,,,,,,,2,2,0,15,15,18,1,,,,,,,,,,,,,,,,,,,,,,,,,,,,,,,,,,,,,,,,,,,,,,,,,,,,,,,,,,,,,,,,,,,,,,
,,?,0.001,0,,,,,,stimuli/images/PICTURE_141.png,CLIENT,5eb921b4e43986010ef5c250,01/01/1985,2020-09-02_12h35.01.069,proactive3.2,2020.1.2,Win32,60,5f47c0b9b035471e11593a5c,5f4f81bb9062f80449143fdb,1,,,,,,sunflower,,,,,,,,,,,4,2,0,16,16,30,1,,,,,,,,,,,,,,,,,,,,,,,,,,,,,,,,,,,,,,,,,,,,,,,,,,,,,,,,,,,,,,,,,,,,,,
,,?,0.001,0,,,,,,stimuli/images/PICTURE_68.png,KIND,5eb921b4e43986010ef5c250,01/01/1985,2020-09-02_12h35.01.069,proactive3.2,2020.1.2,Win32,60,5f47c0b9b035471e11593a5c,5f4f81bb9062f80449143fdb,1,,,,,,candle,,,,,,,,,,,3,2,0,17,17,23,1,,,,,,,,,,,,,,,,,,,,,,,,,,,,,,,,,,,,,,,,,,,,,,,,,,,,,,,,,,,,,,,,,,,,,,
,,?,0.001,0,,,,,,stimuli/images/PICTURE_147.png,LEADER,5eb921b4e43986010ef5c250,01/01/1985,2020-09-02_12h35.01.069,proactive3.2,2020.1.2,Win32,60,5f47c0b9b035471e11593a5c,5f4f81bb9062f80449143fdb,1,,,,,,hanger,,,,,,,,,,,4,2,0,18,18,33,1,,,,,,,,,,,,,,,,,,,,,,,,,,,,,,,,,,,,,,,,,,,,,,,,,,,,,,,,,,,,,,,,,,,,,,
,,?,0.001,0,,,,,,stimuli/images/PICTURE_95.png,NIGHT,5eb921b4e43986010ef5c250,01/01/1985,2020-09-02_12h35.01.069,proactive3.2,2020.1.2,Win32,60,5f47c0b9b035471e11593a5c,5f4f81bb9062f80449143fdb,1,,,,,,suitcase,,,,,,,,,,,4,2,0,19,19,37,1,,,,,,,,,,,,,,,,,,,,,,,,,,,,,,,,,,,,,,,,,,,,,,,,,,,,,,,,,,,,,,,,,,,,,,
,,?,0.001,0,,,,,,stimuli/images/PICTURE_708.png,VALLEY,5eb921b4e43986010ef5c250,01/01/1985,2020-09-02_12h35.01.069,proactive3.2,2020.1.2,Win32,60,5f47c0b9b035471e11593a5c,5f4f81bb9062f80449143fdb,1,,,,,,monkey,,,,,,,,,,,5,2,0,20,20,45,1,,,,,,,,,,,,,,,,,,,,,,,,,,,,,,,,,,,,,,,,,,,,,,,,,,,,,,,,,,,,,,,,,,,,,,
,,?,15.005,0,,,,,,stimuli/images/PICTURE_348.png,TOILET,5eb921b4e43986010ef5c250,01/01/1985,2020-09-02_12h35.01.069,proactive3.2,2020.1.2,Win32,60,5f47c0b9b035471e11593a5c,5f4f81bb9062f80449143fdb,1,,,,,,pepper,,,,,,,,,,,1,2,0,21,21,4,1,,,,,,,,,,,,,,,,,,,,,,,,,,,,,,,,,,,,,,,,,,,,,,,,,,,,,,,,,,,,,,,,,,,,,,
,,?,0.001,0,,,,,,stimuli/images/PICTURE_311.png,TOILET,5eb921b4e43986010ef5c250,01/01/1985,2020-09-02_12h35.01.069,proactive3.2,2020.1.2,Win32,60,5f47c0b9b035471e11593a5c,5f4f81bb9062f80449143fdb,1,,,,,,razor,,,,,,,,,,,6,2,0,22,22,54,1,,,,,,,,,,,,,,,,,,,,,,,,,,,,,,,,,,,,,,,,,,,,,,,,,,,,,,,,,,,,,,,,,,,,,,
,,?,0,0,,,,,,stimuli/images/PICTURE_405.png,JUNGLE,5eb921b4e43986010ef5c250,01/01/1985,2020-09-02_12h35.01.069,proactive3.2,2020.1.2,Win32,60,5f47c0b9b035471e11593a5c,5f4f81bb9062f80449143fdb,1,,,,,,anchor,,,,,,,,,,,2,2,0,23,23,13,1,,,,,,,,,,,,,,,,,,,,,,,,,,,,,,,,,,,,,,,,,,,,,,,,,,,,,,,,,,,,,,,,,,,,,,
,,?,0.001,0,,,,,,stimuli/images/PICTURE_33.png,COPS,5eb921b4e43986010ef5c250,01/01/1985,2020-09-02_12h35.01.069,proactive3.2,2020.1.2,Win32,60,5f47c0b9b035471e11593a5c,5f4f81bb9062f80449143fdb,1,,,,,,frame,,,,,,,,,,,3,2,0,24,24,29,1,,,,,,,,,,,,,,,,,,,,,,,,,,,,,,,,,,,,,,,,,,,,,,,,,,,,,,,,,,,,,,,,,,,,,,
,,?,0,0,,,,,,stimuli/images/PICTURE_692.png,DUDE,5eb921b4e43986010ef5c250,01/01/1985,2020-09-02_12h35.01.069,proactive3.2,2020.1.2,Win32,60,5f47c0b9b035471e11593a5c,5f4f81bb9062f80449143fdb,1,,,,,,cherry,,,,,,,,,,,5,2,0,25,25,47,1,,,,,,,,,,,,,,,,,,,,,,,,,,,,,,,,,,,,,,,,,,,,,,,,,,,,,,,,,,,,,,,,,,,,,,
,,?,0,0,,,,,,stimuli/images/PICTURE_93.png,GIRL,5eb921b4e43986010ef5c250,01/01/1985,2020-09-02_12h35.01.069,proactive3.2,2020.1.2,Win32,60,5f47c0b9b035471e11593a5c,5f4f81bb9062f80449143fdb,1,,,,,,skateboard,,,,,,,,,,,4,2,0,26,26,31,1,,,,,,,,,,,,,,,,,,,,,,,,,,,,,,,,,,,,,,,,,,,,,,,,,,,,,,,,,,,,,,,,,,,,,,
,,?,0.001,0,,,,,,stimuli/images/PICTURE_654.png,COPS,5eb921b4e43986010ef5c250,01/01/1985,2020-09-02_12h35.01.069,proactive3.2,2020.1.2,Win32,60,5f47c0b9b035471e11593a5c,5f4f81bb9062f80449143fdb,1,,,,,,pencil,,,,,,,,,,,2,2,0,27,27,10,1,,,,,,,,,,,,,,,,,,,,,,,,,,,,,,,,,,,,,,,,,,,,,,,,,,,,,,,,,,,,,,,,,,,,,,
,,?,0,0,,,,,,stimuli/images/PICTURE_564.png,PLENTY,5eb921b4e43986010ef5c250,01/01/1985,2020-09-02_12h35.01.069,proactive3.2,2020.1.2,Win32,60,5f47c0b9b035471e11593a5c,5f4f81bb9062f80449143fdb,1,,,,,,spoon,,,,,,,,,,,2,2,0,28,28,11,1,,,,,,,,,,,,,,,,,,,,,,,,,,,,,,,,,,,,,,,,,,,,,,,,,,,,,,,,,,,,,,,,,,,,,,
,,KILLER,5.942,0,,,,,,stimuli/images/PICTURE_123.png,SALE,5eb921b4e43986010ef5c250,01/01/1985,2020-09-02_12h35.01.069,proactive3.2,2020.1.2,Win32,60,5f47c0b9b035471e11593a5c,5f4f81bb9062f80449143fdb,1,,,,,,dart,,,,,,,,,,,1,2,0,29,29,8,1,,,,,,,,,,,,,,,,,,,,,,,,,,,,,,,,,,,,,,,,,,,,,,,,,,,,,,,,,,,,,,,,,,,,,,
,,?,0.001,0,,,,,,stimuli/images/PICTURE_208.png,SPIRIT,5eb921b4e43986010ef5c250,01/01/1985,2020-09-02_12h35.01.069,proactive3.2,2020.1.2,Win32,60,5f47c0b9b035471e11593a5c,5f4f81bb9062f80449143fdb,1,,,,,,microphone,,,,,,,,,,,3,2,0,30,30,28,1,,,,,,,,,,,,,,,,,,,,,,,,,,,,,,,,,,,,,,,,,,,,,,,,,,,,,,,,,,,,,,,,,,,,,,
,,?,0.001,0,,,,,,stimuli/images/PICTURE_504.png,HOUSE,5eb921b4e43986010ef5c250,01/01/1985,2020-09-02_12h35.01.069,proactive3.2,2020.1.2,Win32,60,5f47c0b9b035471e11593a5c,5f4f81bb9062f80449143fdb,1,,,,,,wheel,,,,,,,,,,,4,2,0,31,31,36,1,,,,,,,,,,,,,,,,,,,,,,,,,,,,,,,,,,,,,,,,,,,,,,,,,,,,,,,,,,,,,,,,,,,,,,
,,?,0.001,0,,,,,,stimuli/images/PICTURE_32.png,LETTER,5eb921b4e43986010ef5c250,01/01/1985,2020-09-02_12h35.01.069,proactive3.2,2020.1.2,Win32,60,5f47c0b9b035471e11593a5c,5f4f81bb9062f80449143fdb,1,,,,,,crown,,,,,,,,,,,6,2,0,32,32,56,1,,,,,,,,,,,,,,,,,,,,,,,,,,,,,,,,,,,,,,,,,,,,,,,,,,,,,,,,,,,,,,,,,,,,,,
,,COI,15.012,0,,,,,,stimuli/images/PICTURE_311.png,FLESH,5eb921b4e43986010ef5c250,01/01/1985,2020-09-02_12h35.01.069,proactive3.2,2020.1.2,Win32,60,5f47c0b9b035471e11593a5c,5f4f81bb9062f80449143fdb,1,,,,,,razor,,,,,,,,,,,1,2,0,33,33,3,1,,,,,,,,,,,,,,,,,,,,,,,,,,,,,,,,,,,,,,,,,,,,,,,,,,,,,,,,,,,,,,,,,,,,,,
,,?,0,0,,,,,,stimuli/images/PICTURE_18.png,RIVER,5eb921b4e43986010ef5c250,01/01/1985,2020-09-02_12h35.01.069,proactive3.2,2020.1.2,Win32,60,5f47c0b9b035471e11593a5c,5f4f81bb9062f80449143fdb,1,,,,,,planet,,,,,,,,,,,3,2,0,34,34,22,1,,,,,,,,,,,,,,,,,,,,,,,,,,,,,,,,,,,,,,,,,,,,,,,,,,,,,,,,,,,,,,,,,,,,,,
,,?,0,0,,,,,,stimuli/images/PICTURE_688.png,CLOCK,5eb921b4e43986010ef5c250,01/01/1985,2020-09-02_12h35.01.069,proactive3.2,2020.1.2,Win32,60,5f47c0b9b035471e11593a5c,5f4f81bb9062f80449143fdb,1,,,,,,runner,,,,,,,,,,,5,2,0,35,35,42,1,,,,,,,,,,,,,,,,,,,,,,,,,,,,,,,,,,,,,,,,,,,,,,,,,,,,,,,,,,,,,,,,,,,,,,
,,?,0.001,0,,,,,,stimuli/images/PICTURE_487.png,POLICY,5eb921b4e43986010ef5c250,01/01/1985,2020-09-02_12h35.01.069,proactive3.2,2020.1.2,Win32,60,5f47c0b9b035471e11593a5c,5f4f81bb9062f80449143fdb,1,,,,,,basket,,,,,,,,,,,4,2,0,36,36,34,1,,,,,,,,,,,,,,,,,,,,,,,,,,,,,,,,,,,,,,,,,,,,,,,,,,,,,,,,,,,,,,,,,,,,,,
,,?,0.001,0,,,,,,stimuli/images/PICTURE_255.png,PENNY,5eb921b4e43986010ef5c250,01/01/1985,2020-09-02_12h35.01.069,proactive3.2,2020.1.2,Win32,60,5f47c0b9b035471e11593a5c,5f4f81bb9062f80449143fdb,1,,,,,,shovel,,,,,,,,,,,2,2,0,37,37,19,1,,,,,,,,,,,,,,,,,,,,,,,,,,,,,,,,,,,,,,,,,,,,,,,,,,,,,,,,,,,,,,,,,,,,,,
,,?,0,0,,,,,,stimuli/images/PICTURE_509.png,MILLER,5eb921b4e43986010ef5c250,01/01/1985,2020-09-02_12h35.01.069,proactive3.2,2020.1.2,Win32,60,5f47c0b9b035471e11593a5c,5f4f81bb9062f80449143fdb,1,,,,,,telephone,,,,,,,,,,,5,2,0,38,38,49,1,,,,,,,,,,,,,,,,,,,,,,,,,,,,,,,,,,,,,,,,,,,,,,,,,,,,,,,,,,,,,,,,,,,,,,
,,?,0,0,,,,,,stimuli/images/PICTURE_405.png,JUNGLE,5eb921b4e43986010ef5c250,01/01/1985,2020-09-02_12h35.01.069,proactive3.2,2020.1.2,Win32,60,5f47c0b9b035471e11593a5c,5f4f81bb9062f80449143fdb,1,,,,,,anchor,,,,,,,,,,,6,2,0,39,39,58,1,,,,,,,,,,,,,,,,,,,,,,,,,,,,,,,,,,,,,,,,,,,,,,,,,,,,,,,,,,,,,,,,,,,,,,
,,?,0,0,,,,,,stimuli/images/PICTURE_470.png,MOMENT,5eb921b4e43986010ef5c250,01/01/1985,2020-09-02_12h35.01.069,proactive3.2,2020.1.2,Win32,60,5f47c0b9b035471e11593a5c,5f4f81bb9062f80449143fdb,1,,,,,,motorbike,,,,,,,,,,,5,2,0,40,40,40,1,,,,,,,,,,,,,,,,,,,,,,,,,,,,,,,,,,,,,,,,,,,,,,,,,,,,,,,,,,,,,,,,,,,,,,
,,?,0.001,0,,,,,,stimuli/images/PICTURE_509.png,BATH,5eb921b4e43986010ef5c250,01/01/1985,2020-09-02_12h35.01.069,proactive3.2,2020.1.2,Win32,60,5f47c0b9b035471e11593a5c,5f4f81bb9062f80449143fdb,1,,,,,,telephone,,,,,,,,,,,2,2,0,41,41,15,1,,,,,,,,,,,,,,,,,,,,,,,,,,,,,,,,,,,,,,,,,,,,,,,,,,,,,,,,,,,,,,,,,,,,,,
,,?,0,0,,,,,,stimuli/images/PICTURE_677.png,FAMILY,5eb921b4e43986010ef5c250,01/01/1985,2020-09-02_12h35.01.069,proactive3.2,2020.1.2,Win32,60,5f47c0b9b035471e11593a5c,5f4f81bb9062f80449143fdb,1,,,,,,map,,,,,,,,,,,6,2,0,42,42,53,1,,,,,,,,,,,,,,,,,,,,,,,,,,,,,,,,,,,,,,,,,,,,,,,,,,,,,,,,,,,,,,,,,,,,,,
,,?,15.007,0,,,,,,stimuli/images/PICTURE_215.png,FOOD,5eb921b4e43986010ef5c250,01/01/1985,2020-09-02_12h35.01.069,proactive3.2,2020.1.2,Win32,60,5f47c0b9b035471e11593a5c,5f4f81bb9062f80449143fdb,1,,,,,,boot,,,,,,,,,,,1,2,0,43,43,5,1,,,,,,,,,,,,,,,,,,,,,,,,,,,,,,,,,,,,,,,,,,,,,,,,,,,,,,,,,,,,,,,,,,,,,,
,,,12.367,0,,,,,,stimuli/images/PICTURE_285.png,WRITER,5eb921b4e43986010ef5c250,01/01/1985,2020-09-02_12h35.01.069,proactive3.2,2020.1.2,Win32,60,5f47c0b9b035471e11593a5c,5f4f81bb9062f80449143fdb,1,,,,,,carrot,,,,,,,,,,,1,2,0,44,44,6,1,,,,,,,,,,,,,,,,,,,,,,,,,,,,,,,,,,,,,,,,,,,,,,,,,,,,,,,,,,,,,,,,,,,,,,
,,?,0.001,0,,,,,,stimuli/images/PICTURE_285.png,PRINCE,5eb921b4e43986010ef5c250,01/01/1985,2020-09-02_12h35.01.069,proactive3.2,2020.1.2,Win32,60,5f47c0b9b035471e11593a5c,5f4f81bb9062f80449143fdb,1,,,,,,carrot,,,,,,,,,,,3,2,0,45,45,20,1,,,,,,,,,,,,,,,,,,,,,,,,,,,,,,,,,,,,,,,,,,,,,,,,,,,,,,,,,,,,,,,,,,,,,,
,,?,0.001,0,,,,,,stimuli/images/PICTURE_177.png,HOUSE,5eb921b4e43986010ef5c250,01/01/1985,2020-09-02_12h35.01.069,proactive3.2,2020.1.2,Win32,60,5f47c0b9b035471e11593a5c,5f4f81bb9062f80449143fdb,1,,,,,,mushroom,,,,,,,,,,,3,2,0,46,46,25,1,,,,,,,,,,,,,,,,,,,,,,,,,,,,,,,,,,,,,,,,,,,,,,,,,,,,,,,,,,,,,,,,,,,,,,
,,?,0.001,0,,,,,,stimuli/images/PICTURE_327.png,LEADER,5eb921b4e43986010ef5c250,01/01/1985,2020-09-02_12h35.01.069,proactive3.2,2020.1.2,Win32,60,5f47c0b9b035471e11593a5c,5f4f81bb9062f80449143fdb,1,,,,,,helmet,,,,,,,,,,,2,2,0,47,47,17,1,,,,,,,,,,,,,,,,,,,,,,,,,,,,,,,,,,,,,,,,,,,,,,,,,,,,,,,,,,,,,,,,,,,,,,
,,?,0,0,,,,,,stimuli/images/PICTURE_654.png,YEAR,5eb921b4e43986010ef5c250,01/01/1985,2020-09-02_12h35.01.069,proactive3.2,2020.1.2,Win32,60,5f47c0b9b035471e11593a5c,5f4f81bb9062f80449143fdb,1,,,,,,pencil,,,,,,,,,,,5,2,0,48,48,41,1,,,,,,,,,,,,,,,,,,,,,,,,,,,,,,,,,,,,,,,,,,,,,,,,,,,,,,,,,,,,,,,,,,,,,,
,,?,0,0,,,,,,stimuli/images/PICTURE_2.png,YARD,5eb921b4e43986010ef5c250,01/01/1985,2020-09-02_12h35.01.069,proactive3.2,2020.1.2,Win32,60,5f47c0b9b035471e11593a5c,5f4f81bb9062f80449143fdb,1,,,,,,tyre,,,,,,,,,,,6,2,0,49,49,55,1,,,,,,,,,,,,,,,,,,,,,,,,,,,,,,,,,,,,,,,,,,,,,,,,,,,,,,,,,,,,,,,,,,,,,,
,,?,0.001,0,,,,,,stimuli/images/PICTURE_2.png,AREA,5eb921b4e43986010ef5c250,01/01/1985,2020-09-02_12h35.01.069,proactive3.2,2020.1.2,Win32,60,5f47c0b9b035471e11593a5c,5f4f81bb9062f80449143fdb,1,,,,,,tyre,,,,,,,,,,,4,2,0,50,50,32,1,,,,,,,,,,,,,,,,,,,,,,,,,,,,,,,,,,,,,,,,,,,,,,,,,,,,,,,,,,,,,,,,,,,,,,
,,?,0,0,,,,,,stimuli/images/PICTURE_491.png,SERIES,5eb921b4e43986010ef5c250,01/01/1985,2020-09-02_12h35.01.069,proactive3.2,2020.1.2,Win32,60,5f47c0b9b035471e11593a5c,5f4f81bb9062f80449143fdb,1,,,,,,rug,,,,,,,,,,,4,2,0,51,51,39,1,,,,,,,,,,,,,,,,,,,,,,,,,,,,,,,,,,,,,,,,,,,,,,,,,,,,,,,,,,,,,,,,,,,,,,
,,WRIST,8.41,0,,,,,,stimuli/images/PICTURE_452.png,COPS,5eb921b4e43986010ef5c250,01/01/1985,2020-09-02_12h35.01.069,proactive3.2,2020.1.2,Win32,60,5f47c0b9b035471e11593a5c,5f4f81bb9062f80449143fdb,1,,,,,,watch,,,,,,,,,,,1,2,0,52,52,0,1,,,,,,,,,,,,,,,,,,,,,,,,,,,,,,,,,,,,,,,,,,,,,,,,,,,,,,,,,,,,,,,,,,,,,,
,,?,0.001,0,,,,,,stimuli/images/PICTURE_215.png,LEADER,5eb921b4e43986010ef5c250,01/01/1985,2020-09-02_12h35.01.069,proactive3.2,2020.1.2,Win32,60,5f47c0b9b035471e11593a5c,5f4f81bb9062f80449143fdb,1,,,,,,boot,,,,,,,,,,,5,2,0,53,53,43,1,,,,,,,,,,,,,,,,,,,,,,,,,,,,,,,,,,,,,,,,,,,,,,,,,,,,,,,,,,,,,,,,,,,,,,
,,?,0.001,0,,,,,,stimuli/images/PICTURE_57.png,CASINO,5eb921b4e43986010ef5c250,01/01/1985,2020-09-02_12h35.01.069,proactive3.2,2020.1.2,Win32,60,5f47c0b9b035471e11593a5c,5f4f81bb9062f80449143fdb,1,,,,,,stamp,,,,,,,,,,,2,2,0,54,54,12,1,,,,,,,,,,,,,,,,,,,,,,,,,,,,,,,,,,,,,,,,,,,,,,,,,,,,,,,,,,,,,,,,,,,,,,
,,?,15.012,0,,,,,,stimuli/images/PICTURE_405.png,HOUSE,5eb921b4e43986010ef5c250,01/01/1985,2020-09-02_12h35.01.069,proactive3.2,2020.1.2,Win32,60,5f47c0b9b035471e11593a5c,5f4f81bb9062f80449143fdb,1,,,,,,anchor,,,,,,,,,,,1,2,0,55,55,2,1,,,,,,,,,,,,,,,,,,,,,,,,,,,,,,,,,,,,,,,,,,,,,,,,,,,,,,,,,,,,,,,,,,,,,,
,,?,0.001,0,,,,,,stimuli/images/PICTURE_509.png,APPLE,5eb921b4e43986010ef5c250,01/01/1985,2020-09-02_12h35.01.069,proactive3.2,2020.1.2,Win32,60,5f47c0b9b035471e11593a5c,5f4f81bb9062f80449143fdb,1,,,,,,telephone,,,,,,,,,,,4,2,0,56,56,38,1,,,,,,,,,,,,,,,,,,,,,,,,,,,,,,,,,,,,,,,,,,,,,,,,,,,,,,,,,,,,,,,,,,,,,,
,,?,0,0,,,,,,stimuli/images/PICTURE_348.png,DUDE,5eb921b4e43986010ef5c250,01/01/1985,2020-09-02_12h35.01.069,proactive3.2,2020.1.2,Win32,60,5f47c0b9b035471e11593a5c,5f4f81bb9062f80449143fdb,1,,,,,,pepper,,,,,,,,,,,6,2,0,57,57,59,1,,,,,,,,,,,,,,,,,,,,,,,,,,,,,,,,,,,,,,,,,,,,,,,,,,,,,,,,,,,,,,,,,,,,,,
,,FAMILY,2.414,1,,,,,,stimuli/images/PICTURE_403.png,FAMILY,5eb921b4e43986010ef5c250,01/01/1985,2020-09-02_12h35.01.069,proactive3.2,2020.1.2,Win32,60,5f47c0b9b035471e11593a5c,5f4f81bb9062f80449143fdb,1,,,,,,cathedral,,,,,,,,,,,1,2,0,58,58,9,1,,,,,,,,,,,,,,,,,,,,,,,,,,,,,,,,,,,,,,,,,,,,,,,,,,,,,,,,,,,,,,,,,,,,,,
,,?,0.001,0,,,,,,stimuli/images/PICTURE_57.png,NATION,5eb921b4e43986010ef5c250,01/01/1985,2020-09-02_12h35.01.069,proactive3.2,2020.1.2,Win32,60,5f47c0b9b035471e11593a5c,5f4f81bb9062f80449143fdb,1,,,,,,stamp,,,,,,,,,,,3,2,0,59,59,21,1,,,,,,,,,,,,,,,,,,,,,,,,,,,,,,,,,,,,,,,,,,,,,,,,,,,,,,,,,,,,,,,,,,,,,,
,,,,,,,,,,,,5eb921b4e43986010ef5c250,01/01/1985,2020-09-02_12h35.01.069,proactive3.2,2020.1.2,Win32,60,5f47c0b9b035471e11593a5c,5f4f81bb9062f80449143fdb,1,,,,,,,,,,,,,,,,,,,,,,,,0,0,0,2,1,stimuli/learn-block3.csv,,,,,,,,,,,,,,,,,,,,,,,,,,,,,,,,,,,,,,,,,,,,,,,,,,,,,,,,,,,,,,,,
,,,,,,,,,,stimuli/images/PICTURE_708.png,YARD,5eb921b4e43986010ef5c250,01/01/1985,2020-09-02_12h35.01.069,proactive3.2,2020.1.2,Win32,60,5f47c0b9b035471e11593a5c,5f4f81bb9062f80449143fdb,1,,,,,,monkey,,,,,,0,0,0,29,1,3,0,,,,,,,,,,,,,,,,,,,,,,,,,,,,,,,,,,,,,,,,,,,,,,,,,,,,,,,,,,,,,,,,,,,,,,,,,,,
,,,,,,,,,,stimuli/images/PICTURE_675.png,WEAPON,5eb921b4e43986010ef5c250,01/01/1985,2020-09-02_12h35.01.069,proactive3.2,2020.1.2,Win32,60,5f47c0b9b035471e11593a5c,5f4f81bb9062f80449143fdb,1,,,,,,windmill,,,,,,0,1,1,32,1,4,0,,,,,,,,,,,,,,,,,,,,,,,,,,,,,,,,,,,,,,,,,,,,,,,,,,,,,,,,,,,,,,,,,,,,,,,,,,,
,,,,,,,,,,stimuli/images/PICTURE_302.png,FAMILY,5eb921b4e43986010ef5c250,01/01/1985,2020-09-02_12h35.01.069,proactive3.2,2020.1.2,Win32,60,5f47c0b9b035471e11593a5c,5f4f81bb9062f80449143fdb,1,,,,,,taxi,,,,,,0,2,2,18,1,2,0,,,,,,,,,,,,,,,,,,,,,,,,,,,,,,,,,,,,,,,,,,,,,,,,,,,,,,,,,,,,,,,,,,,,,,,,,,,
,,,,,,,,,,stimuli/images/PICTURE_677.png,MILE,5eb921b4e43986010ef5c250,01/01/1985,2020-09-02_12h35.01.069,proactive3.2,2020.1.2,Win32,60,5f47c0b9b035471e11593a5c,5f4f81bb9062f80449143fdb,1,,,,,,map,,,,,,0,3,3,30,1,4,0,,,,,,,,,,,,,,,,,,,,,,,,,,,,,,,,,,,,,,,,,,,,,,,,,,,,,,,,,,,,,,,,,,,,,,,,,,,
,,,,,,,,,,stimuli/images/PICTURE_177.png,CARS,5eb921b4e43986010ef5c250,01/01/1985,2020-09-02_12h35.01.069,proactive3.2,2020.1.2,Win32,60,5f47c0b9b035471e11593a5c,5f4f81bb9062f80449143fdb,1,,,,,,mushroom,,,,,,0,4,4,35,1,4,0,,,,,,,,,,,,,,,,,,,,,,,,,,,,,,,,,,,,,,,,,,,,,,,,,,,,,,,,,,,,,,,,,,,,,,,,,,,
,,,,,,,,,,stimuli/images/PICTURE_203.png,ARTIST,5eb921b4e43986010ef5c250,01/01/1985,2020-09-02_12h35.01.069,proactive3.2,2020.1.2,Win32,60,5f47c0b9b035471e11593a5c,5f4f81bb9062f80449143fdb,1,,,,,,cap,,,,,,0,5,5,26,1,3,0,,,,,,,,,,,,,,,,,,,,,,,,,,,,,,,,,,,,,,,,,,,,,,,,,,,,,,,,,,,,,,,,,,,,,,,,,,,
,,,,,,,,,,stimuli/images/PICTURE_688.png,CASINO,5eb921b4e43986010ef5c250,01/01/1985,2020-09-02_12h35.01.069,proactive3.2,2020.1.2,Win32,60,5f47c0b9b035471e11593a5c,5f4f81bb9062f80449143fdb,1,,,,,,runner,,,,,,0,6,6,2,1,1,0,,,,,,,,,,,,,,,,,,,,,,,,,,,,,,,,,,,,,,,,,,,,,,,,,,,,,,,,,,,,,,,,,,,,,,,,,,,
,,,,,,,,,,stimuli/images/PICTURE_311.png,BEAUTY,5eb921b4e43986010ef5c250,01/01/1985,2020-09-02_12h35.01.069,proactive3.2,2020.1.2,Win32,60,5f47c0b9b035471e11593a5c,5f4f81bb9062f80449143fdb,1,,,,,,razor,,,,,,0,7,7,13,1,2,0,,,,,,,,,,,,,,,,,,,,,,,,,,,,,,,,,,,,,,,,,,,,,,,,,,,,,,,,,,,,,,,,,,,,,,,,,,,
,,,,,,,,,,stimuli/images/PICTURE_311.png,FRIEND,5eb921b4e43986010ef5c250,01/01/1985,2020-09-02_12h35.01.069,proactive3.2,2020.1.2,Win32,60,5f47c0b9b035471e11593a5c,5f4f81bb9062f80449143fdb,1,,,,,,razor,,,,,,0,8,8,34,1,4,0,,,,,,,,,,,,,,,,,,,,,,,,,,,,,,,,,,,,,,,,,,,,,,,,,,,,,,,,,,,,,,,,,,,,,,,,,,,
,,,,,,,,,,stimuli/images/PICTURE_327.png,BEAUTY,5eb921b4e43986010ef5c250,01/01/1985,2020-09-02_12h35.01.069,proactive3.2,2020.1.2,Win32,60,5f47c0b9b035471e11593a5c,5f4f81bb9062f80449143fdb,1,,,,,,helmet,,,,,,0,9,9,48,1,5,0,,,,,,,,,,,,,,,,,,,,,,,,,,,,,,,,,,,,,,,,,,,,,,,,,,,,,,,,,,,,,,,,,,,,,,,,,,,
,,,,,,,,,,stimuli/images/PICTURE_380.png,PHOTO,5eb921b4e43986010ef5c250,01/01/1985,2020-09-02_12h35.01.069,proactive3.2,2020.1.2,Win32,60,5f47c0b9b035471e11593a5c,5f4f81bb9062f80449143fdb,1,,,,,,gorilla,,,,,,0,10,10,52,1,6,0,,,,,,,,,,,,,,,,,,,,,,,,,,,,,,,,,,,,,,,,,,,,,,,,,,,,,,,,,,,,,,,,,,,,,,,,,,,
,,,,,,,,,,stimuli/images/PICTURE_504.png,BODY,5eb921b4e43986010ef5c250,01/01/1985,2020-09-02_12h35.01.069,proactive3.2,2020.1.2,Win32,60,5f47c0b9b035471e11593a5c,5f4f81bb9062f80449143fdb,1,,,,,,wheel,,,,,,0,11,11,8,1,1,0,,,,,,,,,,,,,,,,,,,,,,,,,,,,,,,,,,,,,,,,,,,,,,,,,,,,,,,,,,,,,,,,,,,,,,,,,,,
,,,,,,,,,,stimuli/images/PICTURE_95.png,STYLE,5eb921b4e43986010ef5c250,01/01/1985,2020-09-02_12h35.01.069,proactive3.2,2020.1.2,Win32,60,5f47c0b9b035471e11593a5c,5f4f81bb9062f80449143fdb,1,,,,,,suitcase,,,,,,0,12,12,25,1,3,0,,,,,,,,,,,,,,,,,,,,,,,,,,,,,,,,,,,,,,,,,,,,,,,,,,,,,,,,,,,,,,,,,,,,,,,,,,,
,,,,,,,,,,stimuli/images/PICTURE_449.png,THING,5eb921b4e43986010ef5c250,01/01/1985,2020-09-02_12h35.01.069,proactive3.2,2020.1.2,Win32,60,5f47c0b9b035471e11593a5c,5f4f81bb9062f80449143fdb,1,,,,,,bench,,,,,,0,13,13,59,1,6,0,,,,,,,,,,,,,,,,,,,,,,,,,,,,,,,,,,,,,,,,,,,,,,,,,,,,,,,,,,,,,,,,,,,,,,,,,,,
,,,,,,,,,,stimuli/images/PICTURE_453.png,DUDE,5eb921b4e43986010ef5c250,01/01/1985,2020-09-02_12h35.01.069,proactive3.2,2020.1.2,Win32,60,5f47c0b9b035471e11593a5c,5f4f81bb9062f80449143fdb,1,,,,,,scissors,,,,,,0,14,14,27,1,3,0,,,,,,,,,,,,,,,,,,,,,,,,,,,,,,,,,,,,,,,,,,,,,,,,,,,,,,,,,,,,,,,,,,,,,,,,,,,
,,,,,,,,,,stimuli/images/PICTURE_68.png,MILE,5eb921b4e43986010ef5c250,01/01/1985,2020-09-02_12h35.01.069,proactive3.2,2020.1.2,Win32,60,5f47c0b9b035471e11593a5c,5f4f81bb9062f80449143fdb,1,,,,,,candle,,,,,,0,15,15,44,1,5,0,,,,,,,,,,,,,,,,,,,,,,,,,,,,,,,,,,,,,,,,,,,,,,,,,,,,,,,,,,,,,,,,,,,,,,,,,,,
,,,,,,,,,,stimuli/images/PICTURE_688.png,WOMEN,5eb921b4e43986010ef5c250,01/01/1985,2020-09-02_12h35.01.069,proactive3.2,2020.1.2,Win32,60,5f47c0b9b035471e11593a5c,5f4f81bb9062f80449143fdb,1,,,,,,runner,,,,,,0,16,16,14,1,2,0,,,,,,,,,,,,,,,,,,,,,,,,,,,,,,,,,,,,,,,,,,,,,,,,,,,,,,,,,,,,,,,,,,,,,,,,,,,
,,,,,,,,,,stimuli/images/PICTURE_667.png,BATH,5eb921b4e43986010ef5c250,01/01/1985,2020-09-02_12h35.01.069,proactive3.2,2020.1.2,Win32,60,5f47c0b9b035471e11593a5c,5f4f81bb9062f80449143fdb,1,,,,,,daisy,,,,,,0,17,17,4,1,1,0,,,,,,,,,,,,,,,,,,,,,,,,,,,,,,,,,,,,,,,,,,,,,,,,,,,,,,,,,,,,,,,,,,,,,,,,,,,
,,,,,,,,,,stimuli/images/PICTURE_314.png,GODS,5eb921b4e43986010ef5c250,01/01/1985,2020-09-02_12h35.01.069,proactive3.2,2020.1.2,Win32,60,5f47c0b9b035471e11593a5c,5f4f81bb9062f80449143fdb,1,,,,,,perfume,,,,,,0,18,18,11,1,2,0,,,,,,,,,,,,,,,,,,,,,,,,,,,,,,,,,,,,,,,,,,,,,,,,,,,,,,,,,,,,,,,,,,,,,,,,,,,
,,,,,,,,,,stimuli/images/PICTURE_208.png,MONTH,5eb921b4e43986010ef5c250,01/01/1985,2020-09-02_12h35.01.069,proactive3.2,2020.1.2,Win32,60,5f47c0b9b035471e11593a5c,5f4f81bb9062f80449143fdb,1,,,,,,microphone,,,,,,0,19,19,53,1,6,0,,,,,,,,,,,,,,,,,,,,,,,,,,,,,,,,,,,,,,,,,,,,,,,,,,,,,,,,,,,,,,,,,,,,,,,,,,,
,,,,,,,,,,stimuli/images/PICTURE_151.png,GIRL,5eb921b4e43986010ef5c250,01/01/1985,2020-09-02_12h35.01.069,proactive3.2,2020.1.2,Win32,60,5f47c0b9b035471e11593a5c,5f4f81bb9062f80449143fdb,1,,,,,,tray,,,,,,0,20,20,19,1,2,0,,,,,,,,,,,,,,,,,,,,,,,,,,,,,,,,,,,,,,,,,,,,,,,,,,,,,,,,,,,,,,,,,,,,,,,,,,,
,,,,,,,,,,stimuli/images/PICTURE_123.png,ADVICE,5eb921b4e43986010ef5c250,01/01/1985,2020-09-02_12h35.01.069,proactive3.2,2020.1.2,Win32,60,5f47c0b9b035471e11593a5c,5f4f81bb9062f80449143fdb,1,,,,,,dart,,,,,,0,21,21,50,1,6,0,,,,,,,,,,,,,,,,,,,,,,,,,,,,,,,,,,,,,,,,,,,,,,,,,,,,,,,,,,,,,,,,,,,,,,,,,,,
,,,,,,,,,,stimuli/images/PICTURE_208.png,THING,5eb921b4e43986010ef5c250,01/01/1985,2020-09-02_12h35.01.069,proactive3.2,2020.1.2,Win32,60,5f47c0b9b035471e11593a5c,5f4f81bb9062f80449143fdb,1,,,,,,microphone,,,,,,0,22,22,47,1,5,0,,,,,,,,,,,,,,,,,,,,,,,,,,,,,,,,,,,,,,,,,,,,,,,,,,,,,,,,,,,,,,,,,,,,,,,,,,,
,,,,,,,,,,stimuli/images/PICTURE_233.png,IDEAS,5eb921b4e43986010ef5c250,01/01/1985,2020-09-02_12h35.01.069,proactive3.2,2020.1.2,Win32,60,5f47c0b9b035471e11593a5c,5f4f81bb9062f80449143fdb,1,,,,,,salt,,,,,,0,23,23,28,1,3,0,,,,,,,,,,,,,,,,,,,,,,,,,,,,,,,,,,,,,,,,,,,,,,,,,,,,,,,,,,,,,,,,,,,,,,,,,,,
,,,,,,,,,,stimuli/images/PICTURE_509.png,PHOTO,5eb921b4e43986010ef5c250,01/01/1985,2020-09-02_12h35.01.069,proactive3.2,2020.1.2,Win32,60,5f47c0b9b035471e11593a5c,5f4f81bb9062f80449143fdb,1,,,,,,telephone,,,,,,0,24,24,21,1,3,0,,,,,,,,,,,,,,,,,,,,,,,,,,,,,,,,,,,,,,,,,,,,,,,,,,,,,,,,,,,,,,,,,,,,,,,,,,,
,,,,,,,,,,stimuli/images/PICTURE_708.png,CLIENT,5eb921b4e43986010ef5c250,01/01/1985,2020-09-02_12h35.01.069,proactive3.2,2020.1.2,Win32,60,5f47c0b9b035471e11593a5c,5f4f81bb9062f80449143fdb,1,,,,,,monkey,,,,,,0,25,25,5,1,1,0,,,,,,,,,,,,,,,,,,,,,,,,,,,,,,,,,,,,,,,,,,,,,,,,,,,,,,,,,,,,,,,,,,,,,,,,,,,
,,,,,,,,,,stimuli/images/PICTURE_308.png,KIND,5eb921b4e43986010ef5c250,01/01/1985,2020-09-02_12h35.01.069,proactive3.2,2020.1.2,Win32,60,5f47c0b9b035471e11593a5c,5f4f81bb9062f80449143fdb,1,,,,,,dice,,,,,,0,26,26,54,1,6,0,,,,,,,,,,,,,,,,,,,,,,,,,,,,,,,,,,,,,,,,,,,,,,,,,,,,,,,,,,,,,,,,,,,,,,,,,,,
,,,,,,,,,,stimuli/images/PICTURE_208.png,LOTS,5eb921b4e43986010ef5c250,01/01/1985,2020-09-02_12h35.01.069,proactive3.2,2020.1.2,Win32,60,5f47c0b9b035471e11593a5c,5f4f81bb9062f80449143fdb,1,,,,,,microphone,,,,,,0,27,27,10,1,2,0,,,,,,,,,,,,,,,,,,,,,,,,,,,,,,,,,,,,,,,,,,,,,,,,,,,,,,,,,,,,,,,,,,,,,,,,,,,
,,,,,,,,,,stimuli/images/PICTURE_255.png,AREA,5eb921b4e43986010ef5c250,01/01/1985,2020-09-02_12h35.01.069,proactive3.2,2020.1.2,Win32,60,5f47c0b9b035471e11593a5c,5f4f81bb9062f80449143fdb,1,,,,,,shovel,,,,,,0,28,28,22,1,3,0,,,,,,,,,,,,,,,,,,,,,,,,,,,,,,,,,,,,,,,,,,,,,,,,,,,,,,,,,,,,,,,,,,,,,,,,,,,
,,,,,,,,,,stimuli/images/PICTURE_160.png,LEADER,5eb921b4e43986010ef5c250,01/01/1985,2020-09-02_12h35.01.069,proactive3.2,2020.1.2,Win32,60,5f47c0b9b035471e11593a5c,5f4f81bb9062f80449143fdb,1,,,,,,wheelbarrow,,,,,,0,29,29,3,1,1,0,,,,,,,,,,,,,,,,,,,,,,,,,,,,,,,,,,,,,,,,,,,,,,,,,,,,,,,,,,,,,,,,,,,,,,,,,,,
,,,,,,,,,,stimuli/images/PICTURE_692.png,MONTH,5eb921b4e43986010ef5c250,01/01/1985,2020-09-02_12h35.01.069,proactive3.2,2020.1.2,Win32,60,5f47c0b9b035471e11593a5c,5f4f81bb9062f80449143fdb,1,,,,,,cherry,,,,,,0,30,30,16,1,2,0,,,,,,,,,,,,,,,,,,,,,,,,,,,,,,,,,,,,,,,,,,,,,,,,,,,,,,,,,,,,,,,,,,,,,,,,,,,
,,,,,,,,,,stimuli/images/PICTURE_453.png,PLENTY,5eb921b4e43986010ef5c250,01/01/1985,2020-09-02_12h35.01.069,proactive3.2,2020.1.2,Win32,60,5f47c0b9b035471e11593a5c,5f4f81bb9062f80449143fdb,1,,,,,,scissors,,,,,,0,31,31,56,1,6,0,,,,,,,,,,,,,,,,,,,,,,,,,,,,,,,,,,,,,,,,,,,,,,,,,,,,,,,,,,,,,,,,,,,,,,,,,,,
,,,,,,,,,,stimuli/images/PICTURE_667.png,PLENTY,5eb921b4e43986010ef5c250,01/01/1985,2020-09-02_12h35.01.069,proactive3.2,2020.1.2,Win32,60,5f47c0b9b035471e11593a5c,5f4f81bb9062f80449143fdb,1,,,,,,daisy,,,,,,0,32,32,41,1,5,0,,,,,,,,,,,,,,,,,,,,,,,,,,,,,,,,,,,,,,,,,,,,,,,,,,,,,,,,,,,,,,,,,,,,,,,,,,,
,,,,,,,,,,stimuli/images/PICTURE_487.png,FLIGHT,5eb921b4e43986010ef5c250,01/01/1985,2020-09-02_12h35.01.069,proactive3.2,2020.1.2,Win32,60,5f47c0b9b035471e11593a5c,5f4f81bb9062f80449143fdb,1,,,,,,basket,,,,,,0,33,33,9,1,1,0,,,,,,,,,,,,,,,,,,,,,,,,,,,,,,,,,,,,,,,,,,,,,,,,,,,,,,,,,,,,,,,,,,,,,,,,,,,
,,,,,,,,,,stimuli/images/PICTURE_491.png,WRITER,5eb921b4e43986010ef5c250,01/01/1985,2020-09-02_12h35.01.069,proactive3.2,2020.1.2,Win32,60,5f47c0b9b035471e11593a5c,5f4f81bb9062f80449143fdb,1,,,,,,rug,,,,,,0,34,34,57,1,6,0,,,,,,,,,,,,,,,,,,,,,,,,,,,,,,,,,,,,,,,,,,,,,,,,,,,,,,,,,,,,,,,,,,,,,,,,,,,
,,,,,,,,,,stimuli/images/PICTURE_339.png,PLENTY,5eb921b4e43986010ef5c250,01/01/1985,2020-09-02_12h35.01.069,proactive3.2,2020.1.2,Win32,60,5f47c0b9b035471e11593a5c,5f4f81bb9062f80449143fdb,1,,,,,,backpack,,,,,,0,35,35,0,1,1,0,,,,,,,,,,,,,,,,,,,,,,,,,,,,,,,,,,,,,,,,,,,,,,,,,,,,,,,,,,,,,,,,,,,,,,,,,,,
,,,,,,,,,,stimuli/images/PICTURE_708.png,PENNY,5eb921b4e43986010ef5c250,01/01/1985,2020-09-02_12h35.01.069,proactive3.2,2020.1.2,Win32,60,5f47c0b9b035471e11593a5c,5f4f81bb9062f80449143fdb,1,,,,,,monkey,,,,,,0,36,36,31,1,4,0,,,,,,,,,,,,,,,,,,,,,,,,,,,,,,,,,,,,,,,,,,,,,,,,,,,,,,,,,,,,,,,,,,,,,,,,,,,
,,,,,,,,,,stimuli/images/PICTURE_215.png,PLENTY,5eb921b4e43986010ef5c250,01/01/1985,2020-09-02_12h35.01.069,proactive3.2,2020.1.2,Win32,60,5f47c0b9b035471e11593a5c,5f4f81bb9062f80449143fdb,1,,,,,,boot,,,,,,0,37,37,37,1,4,0,,,,,,,,,,,,,,,,,,,,,,,,,,,,,,,,,,,,,,,,,,,,,,,,,,,,,,,,,,,,,,,,,,,,,,,,,,,
,,,,,,,,,,stimuli/images/PICTURE_470.png,CASINO,5eb921b4e43986010ef5c250,01/01/1985,2020-09-02_12h35.01.069,proactive3.2,2020.1.2,Win32,60,5f47c0b9b035471e11593a5c,5f4f81bb9062f80449143fdb,1,,,,,,motorbike,,,,,,0,38,38,36,1,4,0,,,,,,,,,,,,,,,,,,,,,,,,,,,,,,,,,,,,,,,,,,,,,,,,,,,,,,,,,,,,,,,,,,,,,,,,,,,
,,,,,,,,,,stimuli/images/PICTURE_744.png,SAKE,5eb921b4e43986010ef5c250,01/01/1985,2020-09-02_12h35.01.069,proactive3.2,2020.1.2,Win32,60,5f47c0b9b035471e11593a5c,5f4f81bb9062f80449143fdb,1,,,,,,ring,,,,,,0,39,39,17,1,2,0,,,,,,,,,,,,,,,,,,,,,,,,,,,,,,,,,,,,,,,,,,,,,,,,,,,,,,,,,,,,,,,,,,,,,,,,,,,
,,,,,,,,,,stimuli/images/PICTURE_348.png,SPEECH,5eb921b4e43986010ef5c250,01/01/1985,2020-09-02_12h35.01.069,proactive3.2,2020.1.2,Win32,60,5f47c0b9b035471e11593a5c,5f4f81bb9062f80449143fdb,1,,,,,,pepper,,,,,,0,40,40,20,1,3,0,,,,,,,,,,,,,,,,,,,,,,,,,,,,,,,,,,,,,,,,,,,,,,,,,,,,,,,,,,,,,,,,,,,,,,,,,,,
,,,,,,,,,,stimuli/images/PICTURE_308.png,ESTATE,5eb921b4e43986010ef5c250,01/01/1985,2020-09-02_12h35.01.069,proactive3.2,2020.1.2,Win32,60,5f47c0b9b035471e11593a5c,5f4f81bb9062f80449143fdb,1,,,,,,dice,,,,,,0,41,41,46,1,5,0,,,,,,,,,,,,,,,,,,,,,,,,,,,,,,,,,,,,,,,,,,,,,,,,,,,,,,,,,,,,,,,,,,,,,,,,,,,
,,,,,,,,,,stimuli/images/PICTURE_654.png,VALLEY,5eb921b4e43986010ef5c250,01/01/1985,2020-09-02_12h35.01.069,proactive3.2,2020.1.2,Win32,60,5f47c0b9b035471e11593a5c,5f4f81bb9062f80449143fdb,1,,,,,,pencil,,,,,,0,42,42,1,1,1,0,,,,,,,,,,,,,,,,,,,,,,,,,,,,,,,,,,,,,,,,,,,,,,,,,,,,,,,,,,,,,,,,,,,,,,,,,,,
,,,,,,,,,,stimuli/images/PICTURE_467.png,DEMON,5eb921b4e43986010ef5c250,01/01/1985,2020-09-02_12h35.01.069,proactive3.2,2020.1.2,Win32,60,5f47c0b9b035471e11593a5c,5f4f81bb9062f80449143fdb,1,,,,,,peg,,,,,,0,43,43,23,1,3,0,,,,,,,,,,,,,,,,,,,,,,,,,,,,,,,,,,,,,,,,,,,,,,,,,,,,,,,,,,,,,,,,,,,,,,,,,,,
,,,,,,,,,,stimuli/images/PICTURE_491.png,ROOF,5eb921b4e43986010ef5c250,01/01/1985,2020-09-02_12h35.01.069,proactive3.2,2020.1.2,Win32,60,5f47c0b9b035471e11593a5c,5f4f81bb9062f80449143fdb,1,,,,,,rug,,,,,,0,44,44,24,1,3,0,,,,,,,,,,,,,,,,,,,,,,,,,,,,,,,,,,,,,,,,,,,,,,,,,,,,,,,,,,,,,,,,,,,,,,,,,,,
,,,,,,,,,,stimuli/images/PICTURE_248.png,DOZEN,5eb921b4e43986010ef5c250,01/01/1985,2020-09-02_12h35.01.069,proactive3.2,2020.1.2,Win32,60,5f47c0b9b035471e11593a5c,5f4f81bb9062f80449143fdb,1,,,,,,cart,,,,,,0,45,45,39,1,4,0,,,,,,,,,,,,,,,,,,,,,,,,,,,,,,,,,,,,,,,,,,,,,,,,,,,,,,,,,,,,,,,,,,,,,,,,,,,
,,,,,,,,,,stimuli/images/PICTURE_469.png,LETTER,5eb921b4e43986010ef5c250,01/01/1985,2020-09-02_12h35.01.069,proactive3.2,2020.1.2,Win32,60,5f47c0b9b035471e11593a5c,5f4f81bb9062f80449143fdb,1,,,,,,stool,,,,,,0,46,46,42,1,5,0,,,,,,,,,,,,,,,,,,,,,,,,,,,,,,,,,,,,,,,,,,,,,,,,,,,,,,,,,,,,,,,,,,,,,,,,,,,
,,,,,,,,,,stimuli/images/PICTURE_123.png,ADVICE,5eb921b4e43986010ef5c250,01/01/1985,2020-09-02_12h35.01.069,proactive3.2,2020.1.2,Win32,60,5f47c0b9b035471e11593a5c,5f4f81bb9062f80449143fdb,1,,,,,,dart,,,,,,0,47,47,40,1,5,0,,,,,,,,,,,,,,,,,,,,,,,,,,,,,,,,,,,,,,,,,,,,,,,,,,,,,,,,,,,,,,,,,,,,,,,,,,,
,,,,,,,,,,stimuli/images/PICTURE_147.png,MOMENT,5eb921b4e43986010ef5c250,01/01/1985,2020-09-02_12h35.01.069,proactive3.2,2020.1.2,Win32,60,5f47c0b9b035471e11593a5c,5f4f81bb9062f80449143fdb,1,,,,,,hanger,,,,,,0,48,48,51,1,6,0,,,,,,,,,,,,,,,,,,,,,,,,,,,,,,,,,,,,,,,,,,,,,,,,,,,,,,,,,,,,,,,,,,,,,,,,,,,
,,,,,,,,,,stimuli/images/PICTURE_160.png,FEET,5eb921b4e43986010ef5c250,01/01/1985,2020-09-02_12h35.01.069,proactive3.2,2020.1.2,Win32,60,5f47c0b9b035471e11593a5c,5f4f81bb9062f80449143fdb,1,,,,,,wheelbarrow,,,,,,0,49,49,58,1,6,0,,,,,,,,,,,,,,,,,,,,,,,,,,,,,,,,,,,,,,,,,,,,,,,,,,,,,,,,,,,,,,,,,,,,,,,,,,,
,,,,,,,,,,stimuli/images/PICTURE_380.png,DEATH,5eb921b4e43986010ef5c250,01/01/1985,2020-09-02_12h35.01.069,proactive3.2,2020.1.2,Win32,60,5f47c0b9b035471e11593a5c,5f4f81bb9062f80449143fdb,1,,,,,,gorilla,,,,,,0,50,50,49,1,5,0,,,,,,,,,,,,,,,,,,,,,,,,,,,,,,,,,,,,,,,,,,,,,,,,,,,,,,,,,,,,,,,,,,,,,,,,,,,
,,,,,,,,,,stimuli/images/PICTURE_85.png,THING,5eb921b4e43986010ef5c250,01/01/1985,2020-09-02_12h35.01.069,proactive3.2,2020.1.2,Win32,60,5f47c0b9b035471e11593a5c,5f4f81bb9062f80449143fdb,1,,,,,,diamond,,,,,,0,51,51,15,1,2,0,,,,,,,,,,,,,,,,,,,,,,,,,,,,,,,,,,,,,,,,,,,,,,,,,,,,,,,,,,,,,,,,,,,,,,,,,,,
,,,,,,,,,,stimuli/images/PICTURE_285.png,ADVICE,5eb921b4e43986010ef5c250,01/01/1985,2020-09-02_12h35.01.069,proactive3.2,2020.1.2,Win32,60,5f47c0b9b035471e11593a5c,5f4f81bb9062f80449143fdb,1,,,,,,carrot,,,,,,0,52,52,12,1,2,0,,,,,,,,,,,,,,,,,,,,,,,,,,,,,,,,,,,,,,,,,,,,,,,,,,,,,,,,,,,,,,,,,,,,,,,,,,,
,,,,,,,,,,stimuli/images/PICTURE_744.png,SYSTEM,5eb921b4e43986010ef5c250,01/01/1985,2020-09-02_12h35.01.069,proactive3.2,2020.1.2,Win32,60,5f47c0b9b035471e11593a5c,5f4f81bb9062f80449143fdb,1,,,,,,ring,,,,,,0,53,53,43,1,5,0,,,,,,,,,,,,,,,,,,,,,,,,,,,,,,,,,,,,,,,,,,,,,,,,,,,,,,,,,,,,,,,,,,,,,,,,,,,
,,,,,,,,,,stimuli/images/PICTURE_469.png,ARTIST,5eb921b4e43986010ef5c250,01/01/1985,2020-09-02_12h35.01.069,proactive3.2,2020.1.2,Win32,60,5f47c0b9b035471e11593a5c,5f4f81bb9062f80449143fdb,1,,,,,,stool,,,,,,0,54,54,6,1,1,0,,,,,,,,,,,,,,,,,,,,,,,,,,,,,,,,,,,,,,,,,,,,,,,,,,,,,,,,,,,,,,,,,,,,,,,,,,,
,,,,,,,,,,stimuli/images/PICTURE_32.png,JUNGLE,5eb921b4e43986010ef5c250,01/01/1985,2020-09-02_12h35.01.069,proactive3.2,2020.1.2,Win32,60,5f47c0b9b035471e11593a5c,5f4f81bb9062f80449143fdb,1,,,,,,crown,,,,,,0,55,55,45,1,5,0,,,,,,,,,,,,,,,,,,,,,,,,,,,,,,,,,,,,,,,,,,,,,,,,,,,,,,,,,,,,,,,,,,,,,,,,,,,
,,,,,,,,,,stimuli/images/PICTURE_488.png,STYLE,5eb921b4e43986010ef5c250,01/01/1985,2020-09-02_12h35.01.069,proactive3.2,2020.1.2,Win32,60,5f47c0b9b035471e11593a5c,5f4f81bb9062f80449143fdb,1,,,,,,sun,,,,,,0,56,56,33,1,4,0,,,,,,,,,,,,,,,,,,,,,,,,,,,,,,,,,,,,,,,,,,,,,,,,,,,,,,,,,,,,,,,,,,,,,,,,,,,
,,,,,,,,,,stimuli/images/PICTURE_356.png,DANGER,5eb921b4e43986010ef5c250,01/01/1985,2020-09-02_12h35.01.069,proactive3.2,2020.1.2,Win32,60,5f47c0b9b035471e11593a5c,5f4f81bb9062f80449143fdb,1,,,,,,pawn,,,,,,0,57,57,55,1,6,0,,,,,,,,,,,,,,,,,,,,,,,,,,,,,,,,,,,,,,,,,,,,,,,,,,,,,,,,,,,,,,,,,,,,,,,,,,,
,,,,,,,,,,stimuli/images/PICTURE_233.png,WOMEN,5eb921b4e43986010ef5c250,01/01/1985,2020-09-02_12h35.01.069,proactive3.2,2020.1.2,Win32,60,5f47c0b9b035471e11593a5c,5f4f81bb9062f80449143fdb,1,,,,,,salt,,,,,,0,58,58,38,1,4,0,,,,,,,,,,,,,,,,,,,,,,,,,,,,,,,,,,,,,,,,,,,,,,,,,,,,,,,,,,,,,,,,,,,,,,,,,,,
,,?,0.001,0,,,,,,stimuli/images/PICTURE_453.png,PLENTY,5eb921b4e43986010ef5c250,01/01/1985,2020-09-02_12h35.01.069,proactive3.2,2020.1.2,Win32,60,5f47c0b9b035471e11593a5c,5f4f81bb9062f80449143fdb,1,,,,,,scissors,,,,,,,,,,,6,0,0,0,0,56,1,,,,,,,,,,,,,,,,,,,,,,,,,,,,,,,,,,,,,,,,,,,,,,,,,,,,,,,,,,,,,,,,,,,,,,
,,?,0,0,,,,,,stimuli/images/PICTURE_744.png,SAKE,5eb921b4e43986010ef5c250,01/01/1985,2020-09-02_12h35.01.069,proactive3.2,2020.1.2,Win32,60,5f47c0b9b035471e11593a5c,5f4f81bb9062f80449143fdb,1,,,,,,ring,,,,,,,,,,,2,0,0,1,1,17,1,,,,,,,,,,,,,,,,,,,,,,,,,,,,,,,,,,,,,,,,,,,,,,,,,,,,,,,,,,,,,,,,,,,,,,
,,?,0,0,,,,,,stimuli/images/PICTURE_233.png,WOMEN,5eb921b4e43986010ef5c250,01/01/1985,2020-09-02_12h35.01.069,proactive3.2,2020.1.2,Win32,60,5f47c0b9b035471e11593a5c,5f4f81bb9062f80449143fdb,1,,,,,,salt,,,,,,,,,,,4,0,0,2,2,38,1,,,,,,,,,,,,,,,,,,,,,,,,,,,,,,,,,,,,,,,,,,,,,,,,,,,,,,,,,,,,,,,,,,,,,,
,,?,0.001,0,,,,,,stimuli/images/PICTURE_233.png,IDEAS,5eb921b4e43986010ef5c250,01/01/1985,2020-09-02_12h35.01.069,proactive3.2,2020.1.2,Win32,60,5f47c0b9b035471e11593a5c,5f4f81bb9062f80449143fdb,1,,,,,,salt,,,,,,,,,,,3,0,0,3,3,28,1,,,,,,,,,,,,,,,,,,,,,,,,,,,,,,,,,,,,,,,,,,,,,,,,,,,,,,,,,,,,,,,,,,,,,,
,,?,0,0,,,,,,stimuli/images/PICTURE_311.png,FRIEND,5eb921b4e43986010ef5c250,01/01/1985,2020-09-02_12h35.01.069,proactive3.2,2020.1.2,Win32,60,5f47c0b9b035471e11593a5c,5f4f81bb9062f80449143fdb,1,,,,,,razor,,,,,,,,,,,4,0,0,4,4,34,1,,,,,,,,,,,,,,,,,,,,,,,,,,,,,,,,,,,,,,,,,,,,,,,,,,,,,,,,,,,,,,,,,,,,,,
,,?,15.008,0,,,,,,stimuli/images/PICTURE_504.png,BODY,5eb921b4e43986010ef5c250,01/01/1985,2020-09-02_12h35.01.069,proactive3.2,2020.1.2,Win32,60,5f47c0b9b035471e11593a5c,5f4f81bb9062f80449143fdb,1,,,,,,wheel,,,,,,,,,,,1,0,0,5,5,8,1,,,,,,,,,,,,,,,,,,,,,,,,,,,,,,,,,,,,,,,,,,,,,,,,,,,,,,,,,,,,,,,,,,,,,,
,,?,15.017,0,,,,,,stimuli/images/PICTURE_339.png,PLENTY,5eb921b4e43986010ef5c250,01/01/1985,2020-09-02_12h35.01.069,proactive3.2,2020.1.2,Win32,60,5f47c0b9b035471e11593a5c,5f4f81bb9062f80449143fdb,1,,,,,,backpack,,,,,,,,,,,1,0,0,6,6,0,1,,,,,,,,,,,,,,,,,,,,,,,,,,,,,,,,,,,,,,,,,,,,,,,,,,,,,,,,,,,,,,,,,,,,,,
,,?,0.001,0,,,,,,stimuli/images/PICTURE_311.png,BEAUTY,5eb921b4e43986010ef5c250,01/01/1985,2020-09-02_12h35.01.069,proactive3.2,2020.1.2,Win32,60,5f47c0b9b035471e11593a5c,5f4f81bb9062f80449143fdb,1,,,,,,razor,,,,,,,,,,,2,0,0,7,7,13,1,,,,,,,,,,,,,,,,,,,,,,,,,,,,,,,,,,,,,,,,,,,,,,,,,,,,,,,,,,,,,,,,,,,,,,
,,?,0.002,0,,,,,,stimuli/images/PICTURE_248.png,DOZEN,5eb921b4e43986010ef5c250,01/01/1985,2020-09-02_12h35.01.069,proactive3.2,2020.1.2,Win32,60,5f47c0b9b035471e11593a5c,5f4f81bb9062f80449143fdb,1,,,,,,cart,,,,,,,,,,,4,0,0,8,8,39,1,,,,,,,,,,,,,,,,,,,,,,,,,,,,,,,,,,,,,,,,,,,,,,,,,,,,,,,,,,,,,,,,,,,,,,
,,?,0,0,,,,,,stimuli/images/PICTURE_147.png,MOMENT,5eb921b4e43986010ef5c250,01/01/1985,2020-09-02_12h35.01.069,proactive3.2,2020.1.2,Win32,60,5f47c0b9b035471e11593a5c,5f4f81bb9062f80449143fdb,1,,,,,,hanger,,,,,,,,,,,6,0,0,9,9,51,1,,,,,,,,,,,,,,,,,,,,,,,,,,,,,,,,,,,,,,,,,,,,,,,,,,,,,,,,,,,,,,,,,,,,,,
,,?,0.001,0,,,,,,stimuli/images/PICTURE_32.png,JUNGLE,5eb921b4e43986010ef5c250,01/01/1985,2020-09-02_12h35.01.069,proactive3.2,2020.1.2,Win32,60,5f47c0b9b035471e11593a5c,5f4f81bb9062f80449143fdb,1,,,,,,crown,,,,,,,,,,,5,0,0,10,10,45,1,,,,,,,,,,,,,,,,,,,,,,,,,,,,,,,,,,,,,,,,,,,,,,,,,,,,,,,,,,,,,,,,,,,,,,
,,?,0.001,0,,,,,,stimuli/images/PICTURE_327.png,BEAUTY,5eb921b4e43986010ef5c250,01/01/1985,2020-09-02_12h35.01.069,proactive3.2,2020.1.2,Win32,60,5f47c0b9b035471e11593a5c,5f4f81bb9062f80449143fdb,1,,,,,,helmet,,,,,,,,,,,5,0,0,11,11,48,1,,,,,,,,,,,,,,,,,,,,,,,,,,,,,,,,,,,,,,,,,,,,,,,,,,,,,,,,,,,,,,,,,,,,,,
,,?,0,0,,,,,,stimuli/images/PICTURE_453.png,DUDE,5eb921b4e43986010ef5c250,01/01/1985,2020-09-02_12h35.01.069,proactive3.2,2020.1.2,Win32,60,5f47c0b9b035471e11593a5c,5f4f81bb9062f80449143fdb,1,,,,,,scissors,,,,,,,,,,,3,0,0,12,12,27,1,,,,,,,,,,,,,,,,,,,,,,,,,,,,,,,,,,,,,,,,,,,,,,,,,,,,,,,,,,,,,,,,,,,,,,
,,?,0.001,0,,,,,,stimuli/images/PICTURE_123.png,ADVICE,5eb921b4e43986010ef5c250,01/01/1985,2020-09-02_12h35.01.069,proactive3.2,2020.1.2,Win32,60,5f47c0b9b035471e11593a5c,5f4f81bb9062f80449143fdb,1,,,,,,dart,,,,,,,,,,,6,0,0,13,13,50,1,,,,,,,,,,,,,,,,,,,,,,,,,,,,,,,,,,,,,,,,,,,,,,,,,,,,,,,,,,,,,,,,,,,,,,
,,?,0,0,,,,,,stimuli/images/PICTURE_68.png,MILE,5eb921b4e43986010ef5c250,01/01/1985,2020-09-02_12h35.01.069,proactive3.2,2020.1.2,Win32,60,5f47c0b9b035471e11593a5c,5f4f81bb9062f80449143fdb,1,,,,,,candle,,,,,,,,,,,5,0,0,14,14,44,1,,,,,,,,,,,,,,,,,,,,,,,,,,,,,,,,,,,,,,,,,,,,,,,,,,,,,,,,,,,,,,,,,,,,,,
,,?,0,0,,,,,,stimuli/images/PICTURE_356.png,DANGER,5eb921b4e43986010ef5c250,01/01/1985,2020-09-02_12h35.01.069,proactive3.2,2020.1.2,Win32,60,5f47c0b9b035471e11593a5c,5f4f81bb9062f80449143fdb,1,,,,,,pawn,,,,,,,,,,,6,0,0,15,15,55,1,,,,,,,,,,,,,,,,,,,,,,,,,,,,,,,,,,,,,,,,,,,,,,,,,,,,,,,,,,,,,,,,,,,,,,
,,?,15.007,0,,,,,,stimuli/images/PICTURE_487.png,FLIGHT,5eb921b4e43986010ef5c250,01/01/1985,2020-09-02_12h35.01.069,proactive3.2,2020.1.2,Win32,60,5f47c0b9b035471e11593a5c,5f4f81bb9062f80449143fdb,1,,,,,,basket,,,,,,,,,,,1,0,0,16,16,9,1,,,,,,,,,,,,,,,,,,,,,,,,,,,,,,,,,,,,,,,,,,,,,,,,,,,,,,,,,,,,,,,,,,,,,,
,,?,0.001,0,,,,,,stimuli/images/PICTURE_380.png,DEATH,5eb921b4e43986010ef5c250,01/01/1985,2020-09-02_12h35.01.069,proactive3.2,2020.1.2,Win32,60,5f47c0b9b035471e11593a5c,5f4f81bb9062f80449143fdb,1,,,,,,gorilla,,,,,,,,,,,5,0,0,17,17,49,1,,,,,,,,,,,,,,,,,,,,,,,,,,,,,,,,,,,,,,,,,,,,,,,,,,,,,,,,,,,,,,,,,,,,,,
,,?,0,0,,,,,,stimuli/images/PICTURE_744.png,SYSTEM,5eb921b4e43986010ef5c250,01/01/1985,2020-09-02_12h35.01.069,proactive3.2,2020.1.2,Win32,60,5f47c0b9b035471e11593a5c,5f4f81bb9062f80449143fdb,1,,,,,,ring,,,,,,,,,,,5,0,0,18,18,43,1,,,,,,,,,,,,,,,,,,,,,,,,,,,,,,,,,,,,,,,,,,,,,,,,,,,,,,,,,,,,,,,,,,,,,,
,,?,0.001,0,,,,,,stimuli/images/PICTURE_151.png,GIRL,5eb921b4e43986010ef5c250,01/01/1985,2020-09-02_12h35.01.069,proactive3.2,2020.1.2,Win32,60,5f47c0b9b035471e11593a5c,5f4f81bb9062f80449143fdb,1,,,,,,tray,,,,,,,,,,,2,0,0,19,19,19,1,,,,,,,,,,,,,,,,,,,,,,,,,,,,,,,,,,,,,,,,,,,,,,,,,,,,,,,,,,,,,,,,,,,,,,
,,?,0,0,,,,,,stimuli/images/PICTURE_708.png,YARD,5eb921b4e43986010ef5c250,01/01/1985,2020-09-02_12h35.01.069,proactive3.2,2020.1.2,Win32,60,5f47c0b9b035471e11593a5c,5f4f81bb9062f80449143fdb,1,,,,,,monkey,,,,,,,,,,,3,0,0,20,20,29,1,,,,,,,,,,,,,,,,,,,,,,,,,,,,,,,,,,,,,,,,,,,,,,,,,,,,,,,,,,,,,,,,,,,,,,
,,?,0,0,,,,,,stimuli/images/PICTURE_308.png,KIND,5eb921b4e43986010ef5c250,01/01/1985,2020-09-02_12h35.01.069,proactive3.2,2020.1.2,Win32,60,5f47c0b9b035471e11593a5c,5f4f81bb9062f80449143fdb,1,,,,,,dice,,,,,,,,,,,6,0,0,21,21,54,1,,,,,,,,,,,,,,,,,,,,,,,,,,,,,,,,,,,,,,,,,,,,,,,,,,,,,,,,,,,,,,,,,,,,,,
,,?,0,0,,,,,,stimuli/images/PICTURE_509.png,PHOTO,5eb921b4e43986010ef5c250,01/01/1985,2020-09-02_12h35.01.069,proactive3.2,2020.1.2,Win32,60,5f47c0b9b035471e11593a5c,5f4f81bb9062f80449143fdb,1,,,,,,telephone,,,,,,,,,,,3,0,0,22,22,21,1,,,,,,,,,,,,,,,,,,,,,,,,,,,,,,,,,,,,,,,,,,,,,,,,,,,,,,,,,,,,,,,,,,,,,,
,,SAKE,2.06,1,,,,,,stimuli/images/PICTURE_314.png,SAKE,5eb921b4e43986010ef5c250,01/01/1985,2020-09-02_12h35.01.069,proactive3.2,2020.1.2,Win32,60,5f47c0b9b035471e11593a5c,5f4f81bb9062f80449143fdb,1,,,,,,perfume,,,,,,,,,,,1,0,0,23,23,7,1,,,,,,,,,,,,,,,,,,,,,,,,,,,,,,,,,,,,,,,,,,,,,,,,,,,,,,,,,,,,,,,,,,,,,,
,,?,0.001,0,,,,,,stimuli/images/PICTURE_491.png,ROOF,5eb921b4e43986010ef5c250,01/01/1985,2020-09-02_12h35.01.069,proactive3.2,2020.1.2,Win32,60,5f47c0b9b035471e11593a5c,5f4f81bb9062f80449143fdb,1,,,,,,rug,,,,,,,,,,,3,0,0,24,24,24,1,,,,,,,,,,,,,,,,,,,,,,,,,,,,,,,,,,,,,,,,,,,,,,,,,,,,,,,,,,,,,,,,,,,,,,
,,?,15.015,0,,,,,,stimuli/images/PICTURE_667.png,BATH,5eb921b4e43986010ef5c250,01/01/1985,2020-09-02_12h35.01.069,proactive3.2,2020.1.2,Win32,60,5f47c0b9b035471e11593a5c,5f4f81bb9062f80449143fdb,1,,,,,,daisy,,,,,,,,,,,1,0,0,25,25,4,1,,,,,,,,,,,,,,,,,,,,,,,,,,,,,,,,,,,,,,,,,,,,,,,,,,,,,,,,,,,,,,,,,,,,,,
,,?,0,0,,,,,,stimuli/images/PICTURE_308.png,ESTATE,5eb921b4e43986010ef5c250,01/01/1985,2020-09-02_12h35.01.069,proactive3.2,2020.1.2,Win32,60,5f47c0b9b035471e11593a5c,5f4f81bb9062f80449143fdb,1,,,,,,dice,,,,,,,,,,,5,0,0,26,26,46,1,,,,,,,,,,,,,,,,,,,,,,,,,,,,,,,,,,,,,,,,,,,,,,,,,,,,,,,,,,,,,,,,,,,,,,
,,?,0,0,,,,,,stimuli/images/PICTURE_667.png,PLENTY,5eb921b4e43986010ef5c250,01/01/1985,2020-09-02_12h35.01.069,proactive3.2,2020.1.2,Win32,60,5f47c0b9b035471e11593a5c,5f4f81bb9062f80449143fdb,1,,,,,,daisy,,,,,,,,,,,5,0,0,27,27,41,1,,,,,,,,,,,,,,,,,,,,,,,,,,,,,,,,,,,,,,,,,,,,,,,,,,,,,,,,,,,,,,,,,,,,,,
,,?,0,0,,,,,,stimuli/images/PICTURE_708.png,PENNY,5eb921b4e43986010ef5c250,01/01/1985,2020-09-02_12h35.01.069,proactive3.2,2020.1.2,Win32,60,5f47c0b9b035471e11593a5c,5f4f81bb9062f80449143fdb,1,,,,,,monkey,,,,,,,,,,,4,0,0,28,28,31,1,,,,,,,,,,,,,,,,,,,,,,,,,,,,,,,,,,,,,,,,,,,,,,,,,,,,,,,,,,,,,,,,,,,,,,
,,?,0,0,,,,,,stimuli/images/PICTURE_208.png,LOTS,5eb921b4e43986010ef5c250,01/01/1985,2020-09-02_12h35.01.069,proactive3.2,2020.1.2,Win32,60,5f47c0b9b035471e11593a5c,5f4f81bb9062f80449143fdb,1,,,,,,microphone,,,,,,,,,,,2,0,0,29,29,10,1,,,,,,,,,,,,,,,,,,,,,,,,,,,,,,,,,,,,,,,,,,,,,,,,,,,,,,,,,,,,,,,,,,,,,,
,,?,0,0,,,,,,stimuli/images/PICTURE_302.png,FAMILY,5eb921b4e43986010ef5c250,01/01/1985,2020-09-02_12h35.01.069,proactive3.2,2020.1.2,Win32,60,5f47c0b9b035471e11593a5c,5f4f81bb9062f80449143fdb,1,,,,,,taxi,,,,,,,,,,,2,0,0,30,30,18,1,,,,,,,,,,,,,,,,,,,,,,,,,,,,,,,,,,,,,,,,,,,,,,,,,,,,,,,,,,,,,,,,,,,,,,
,,?,0,0,,,,,,stimuli/images/PICTURE_215.png,PLENTY,5eb921b4e43986010ef5c250,01/01/1985,2020-09-02_12h35.01.069,proactive3.2,2020.1.2,Win32,60,5f47c0b9b035471e11593a5c,5f4f81bb9062f80449143fdb,1,,,,,,boot,,,,,,,,,,,4,0,0,31,31,37,1,,,,,,,,,,,,,,,,,,,,,,,,,,,,,,,,,,,,,,,,,,,,,,,,,,,,,,,,,,,,,,,,,,,,,,
,,?,0,0,,,,,,stimuli/images/PICTURE_488.png,STYLE,5eb921b4e43986010ef5c250,01/01/1985,2020-09-02_12h35.01.069,proactive3.2,2020.1.2,Win32,60,5f47c0b9b035471e11593a5c,5f4f81bb9062f80449143fdb,1,,,,,,sun,,,,,,,,,,,4,0,0,32,32,33,1,,,,,,,,,,,,,,,,,,,,,,,,,,,,,,,,,,,,,,,,,,,,,,,,,,,,,,,,,,,,,,,,,,,,,,
,,?,0.001,0,,,,,,stimuli/images/PICTURE_208.png,THING,5eb921b4e43986010ef5c250,01/01/1985,2020-09-02_12h35.01.069,proactive3.2,2020.1.2,Win32,60,5f47c0b9b035471e11593a5c,5f4f81bb9062f80449143fdb,1,,,,,,microphone,,,,,,,,,,,5,0,0,33,33,47,1,,,,,,,,,,,,,,,,,,,,,,,,,,,,,,,,,,,,,,,,,,,,,,,,,,,,,,,,,,,,,,,,,,,,,,
,,?,0.001,0,,,,,,stimuli/images/PICTURE_467.png,DEMON,5eb921b4e43986010ef5c250,01/01/1985,2020-09-02_12h35.01.069,proactive3.2,2020.1.2,Win32,60,5f47c0b9b035471e11593a5c,5f4f81bb9062f80449143fdb,1,,,,,,peg,,,,,,,,,,,3,0,0,34,34,23,1,,,,,,,,,,,,,,,,,,,,,,,,,,,,,,,,,,,,,,,,,,,,,,,,,,,,,,,,,,,,,,,,,,,,,,
,,?,0,0,,,,,,stimuli/images/PICTURE_208.png,MONTH,5eb921b4e43986010ef5c250,01/01/1985,2020-09-02_12h35.01.069,proactive3.2,2020.1.2,Win32,60,5f47c0b9b035471e11593a5c,5f4f81bb9062f80449143fdb,1,,,,,,microphone,,,,,,,,,,,6,0,0,35,35,53,1,,,,,,,,,,,,,,,,,,,,,,,,,,,,,,,,,,,,,,,,,,,,,,,,,,,,,,,,,,,,,,,,,,,,,,
,,?,0,0,,,,,,stimuli/images/PICTURE_692.png,MONTH,5eb921b4e43986010ef5c250,01/01/1985,2020-09-02_12h35.01.069,proactive3.2,2020.1.2,Win32,60,5f47c0b9b035471e11593a5c,5f4f81bb9062f80449143fdb,1,,,,,,cherry,,,,,,,,,,,2,0,0,36,36,16,1,,,,,,,,,,,,,,,,,,,,,,,,,,,,,,,,,,,,,,,,,,,,,,,,,,,,,,,,,,,,,,,,,,,,,,
,,?,0,0,,,,,,stimuli/images/PICTURE_285.png,ADVICE,5eb921b4e43986010ef5c250,01/01/1985,2020-09-02_12h35.01.069,proactive3.2,2020.1.2,Win32,60,5f47c0b9b035471e11593a5c,5f4f81bb9062f80449143fdb,1,,,,,,carrot,,,,,,,,,,,2,0,0,37,37,12,1,,,,,,,,,,,,,,,,,,,,,,,,,,,,,,,,,,,,,,,,,,,,,,,,,,,,,,,,,,,,,,,,,,,,,,
,,?,0,0,,,,,,stimuli/images/PICTURE_675.png,WEAPON,5eb921b4e43986010ef5c250,01/01/1985,2020-09-02_12h35.01.069,proactive3.2,2020.1.2,Win32,60,5f47c0b9b035471e11593a5c,5f4f81bb9062f80449143fdb,1,,,,,,windmill,,,,,,,,,,,4,0,0,38,38,32,1,,,,,,,,,,,,,,,,,,,,,,,,,,,,,,,,,,,,,,,,,,,,,,,,,,,,,,,,,,,,,,,,,,,,,,
,,?,0.001,0,,,,,,stimuli/images/PICTURE_491.png,WRITER,5eb921b4e43986010ef5c250,01/01/1985,2020-09-02_12h35.01.069,proactive3.2,2020.1.2,Win32,60,5f47c0b9b035471e11593a5c,5f4f81bb9062f80449143fdb,1,,,,,,rug,,,,,,,,,,,6,0,0,39,39,57,1,,,,,,,,,,,,,,,,,,,,,,,,,,,,,,,,,,,,,,,,,,,,,,,,,,,,,,,,,,,,,,,,,,,,,,
,,?,0.001,0,,,,,,stimuli/images/PICTURE_348.png,SPEECH,5eb921b4e43986010ef5c250,01/01/1985,2020-09-02_12h35.01.069,proactive3.2,2020.1.2,Win32,60,5f47c0b9b035471e11593a5c,5f4f81bb9062f80449143fdb,1,,,,,,pepper,,,,,,,,,,,3,0,0,40,40,20,1,,,,,,,,,,,,,,,,,,,,,,,,,,,,,,,,,,,,,,,,,,,,,,,,,,,,,,,,,,,,,,,,,,,,,,
,,?,0.001,0,,,,,,stimuli/images/PICTURE_255.png,AREA,5eb921b4e43986010ef5c250,01/01/1985,2020-09-02_12h35.01.069,proactive3.2,2020.1.2,Win32,60,5f47c0b9b035471e11593a5c,5f4f81bb9062f80449143fdb,1,,,,,,shovel,,,,,,,,,,,3,0,0,41,41,22,1,,,,,,,,,,,,,,,,,,,,,,,,,,,,,,,,,,,,,,,,,,,,,,,,,,,,,,,,,,,,,,,,,,,,,,
,,LEADER,3.178,1,,,,,,stimuli/images/PICTURE_160.png,LEADER,5eb921b4e43986010ef5c250,01/01/1985,2020-09-02_12h35.01.069,proactive3.2,2020.1.2,Win32,60,5f47c0b9b035471e11593a5c,5f4f81bb9062f80449143fdb,1,,,,,,wheelbarrow,,,,,,,,,,,1,0,0,42,42,3,1,,,,,,,,,,,,,,,,,,,,,,,,,,,,,,,,,,,,,,,,,,,,,,,,,,,,,,,,,,,,,,,,,,,,,,
,,?,0,0,,,,,,stimuli/images/PICTURE_677.png,MILE,5eb921b4e43986010ef5c250,01/01/1985,2020-09-02_12h35.01.069,proactive3.2,2020.1.2,Win32,60,5f47c0b9b035471e11593a5c,5f4f81bb9062f80449143fdb,1,,,,,,map,,,,,,,,,,,4,0,0,43,43,30,1,,,,,,,,,,,,,,,,,,,,,,,,,,,,,,,,,,,,,,,,,,,,,,,,,,,,,,,,,,,,,,,,,,,,,,
,,?,0,0,,,,,,stimuli/images/PICTURE_449.png,THING,5eb921b4e43986010ef5c250,01/01/1985,2020-09-02_12h35.01.069,proactive3.2,2020.1.2,Win32,60,5f47c0b9b035471e11593a5c,5f4f81bb9062f80449143fdb,1,,,,,,bench,,,,,,,,,,,6,0,0,44,44,59,1,,,,,,,,,,,,,,,,,,,,,,,,,,,,,,,,,,,,,,,,,,,,,,,,,,,,,,,,,,,,,,,,,,,,,,
,,CLIENT,2.28,1,,,,,,stimuli/images/PICTURE_708.png,CLIENT,5eb921b4e43986010ef5c250,01/01/1985,2020-09-02_12h35.01.069,proactive3.2,2020.1.2,Win32,60,5f47c0b9b035471e11593a5c,5f4f81bb9062f80449143fdb,1,,,,,,monkey,,,,,,,,,,,1,0,0,45,45,5,1,,,,,,,,,,,,,,,,,,,,,,,,,,,,,,,,,,,,,,,,,,,,,,,,,,,,,,,,,,,,,,,,,,,,,,
,,?,0,0,,,,,,stimuli/images/PICTURE_380.png,PHOTO,5eb921b4e43986010ef5c250,01/01/1985,2020-09-02_12h35.01.069,proactive3.2,2020.1.2,Win32,60,5f47c0b9b035471e11593a5c,5f4f81bb9062f80449143fdb,1,,,,,,gorilla,,,,,,,,,,,6,0,0,46,46,52,1,,,,,,,,,,,,,,,,,,,,,,,,,,,,,,,,,,,,,,,,,,,,,,,,,,,,,,,,,,,,,,,,,,,,,,
,,?,0.001,0,,,,,,stimuli/images/PICTURE_85.png,THING,5eb921b4e43986010ef5c250,01/01/1985,2020-09-02_12h35.01.069,proactive3.2,2020.1.2,Win32,60,5f47c0b9b035471e11593a5c,5f4f81bb9062f80449143fdb,1,,,,,,diamond,,,,,,,,,,,2,0,0,47,47,15,1,,,,,,,,,,,,,,,,,,,,,,,,,,,,,,,,,,,,,,,,,,,,,,,,,,,,,,,,,,,,,,,,,,,,,,
,,?,0,0,,,,,,stimuli/images/PICTURE_177.png,CARS,5eb921b4e43986010ef5c250,01/01/1985,2020-09-02_12h35.01.069,proactive3.2,2020.1.2,Win32,60,5f47c0b9b035471e11593a5c,5f4f81bb9062f80449143fdb,1,,,,,,mushroom,,,,,,,,,,,4,0,0,48,48,35,1,,,,,,,,,,,,,,,,,,,,,,,,,,,,,,,,,,,,,,,,,,,,,,,,,,,,,,,,,,,,,,,,,,,,,,
,,?,0.001,0,,,,,,stimuli/images/PICTURE_95.png,STYLE,5eb921b4e43986010ef5c250,01/01/1985,2020-09-02_12h35.01.069,proactive3.2,2020.1.2,Win32,60,5f47c0b9b035471e11593a5c,5f4f81bb9062f80449143fdb,1,,,,,,suitcase,,,,,,,,,,,3,0,0,49,49,25,1,,,,,,,,,,,,,,,,,,,,,,,,,,,,,,,,,,,,,,,,,,,,,,,,,,,,,,,,,,,,,,,,,,,,,,
,,?,0.001,0,,,,,,stimuli/images/PICTURE_123.png,ADVICE,5eb921b4e43986010ef5c250,01/01/1985,2020-09-02_12h35.01.069,proactive3.2,2020.1.2,Win32,60,5f47c0b9b035471e11593a5c,5f4f81bb9062f80449143fdb,1,,,,,,dart,,,,,,,,,,,5,0,0,50,50,40,1,,,,,,,,,,,,,,,,,,,,,,,,,,,,,,,,,,,,,,,,,,,,,,,,,,,,,,,,,,,,,,,,,,,,,,
,,CASION,3.044,0,,,,,,stimuli/images/PICTURE_688.png,CASINO,5eb921b4e43986010ef5c250,01/01/1985,2020-09-02_12h35.01.069,proactive3.2,2020.1.2,Win32,60,5f47c0b9b035471e11593a5c,5f4f81bb9062f80449143fdb,1,,,,,,runner,,,,,,,,,,,1,0,0,51,51,2,1,,,,,,,,,,,,,,,,,,,,,,,,,,,,,,,,,,,,,,,,,,,,,,,,,,,,,,,,,,,,,,,,,,,,,,
,,?,0.001,0,,,,,,stimuli/images/PICTURE_470.png,CASINO,5eb921b4e43986010ef5c250,01/01/1985,2020-09-02_12h35.01.069,proactive3.2,2020.1.2,Win32,60,5f47c0b9b035471e11593a5c,5f4f81bb9062f80449143fdb,1,,,,,,motorbike,,,,,,,,,,,4,0,0,52,52,36,1,,,,,,,,,,,,,,,,,,,,,,,,,,,,,,,,,,,,,,,,,,,,,,,,,,,,,,,,,,,,,,,,,,,,,,
,,?,0.001,0,,,,,,stimuli/images/PICTURE_688.png,WOMEN,5eb921b4e43986010ef5c250,01/01/1985,2020-09-02_12h35.01.069,proactive3.2,2020.1.2,Win32,60,5f47c0b9b035471e11593a5c,5f4f81bb9062f80449143fdb,1,,,,,,runner,,,,,,,,,,,2,0,0,53,53,14,1,,,,,,,,,,,,,,,,,,,,,,,,,,,,,,,,,,,,,,,,,,,,,,,,,,,,,,,,,,,,,,,,,,,,,,
,,WRITER,4.313,0,,,,,,stimuli/images/PICTURE_654.png,VALLEY,5eb921b4e43986010ef5c250,01/01/1985,2020-09-02_12h35.01.069,proactive3.2,2020.1.2,Win32,60,5f47c0b9b035471e11593a5c,5f4f81bb9062f80449143fdb,1,,,,,,pencil,,,,,,,,,,,1,0,0,54,54,1,1,,,,,,,,,,,,,,,,,,,,,,,,,,,,,,,,,,,,,,,,,,,,,,,,,,,,,,,,,,,,,,,,,,,,,,
,,?,0.001,0,,,,,,stimuli/images/PICTURE_160.png,FEET,5eb921b4e43986010ef5c250,01/01/1985,2020-09-02_12h35.01.069,proactive3.2,2020.1.2,Win32,60,5f47c0b9b035471e11593a5c,5f4f81bb9062f80449143fdb,1,,,,,,wheelbarrow,,,,,,,,,,,6,0,0,55,55,58,1,,,,,,,,,,,,,,,,,,,,,,,,,,,,,,,,,,,,,,,,,,,,,,,,,,,,,,,,,,,,,,,,,,,,,,
,,?,0,0,,,,,,stimuli/images/PICTURE_314.png,GODS,5eb921b4e43986010ef5c250,01/01/1985,2020-09-02_12h35.01.069,proactive3.2,2020.1.2,Win32,60,5f47c0b9b035471e11593a5c,5f4f81bb9062f80449143fdb,1,,,,,,perfume,,,,,,,,,,,2,0,0,56,56,11,1,,,,,,,,,,,,,,,,,,,,,,,,,,,,,,,,,,,,,,,,,,,,,,,,,,,,,,,,,,,,,,,,,,,,,,
,,?,0,0,,,,,,stimuli/images/PICTURE_469.png,LETTER,5eb921b4e43986010ef5c250,01/01/1985,2020-09-02_12h35.01.069,proactive3.2,2020.1.2,Win32,60,5f47c0b9b035471e11593a5c,5f4f81bb9062f80449143fdb,1,,,,,,stool,,,,,,,,,,,5,0,0,57,57,42,1,,,,,,,,,,,,,,,,,,,,,,,,,,,,,,,,,,,,,,,,,,,,,,,,,,,,,,,,,,,,,,,,,,,,,,
,,?,15.012,0,,,,,,stimuli/images/PICTURE_469.png,ARTIST,5eb921b4e43986010ef5c250,01/01/1985,2020-09-02_12h35.01.069,proactive3.2,2020.1.2,Win32,60,5f47c0b9b035471e11593a5c,5f4f81bb9062f80449143fdb,1,,,,,,stool,,,,,,,,,,,1,0,0,58,58,6,1,,,,,,,,,,,,,,,,,,,,,,,,,,,,,,,,,,,,,,,,,,,,,,,,,,,,,,,,,,,,,,,,,,,,,,
,,?,0.002,0,,,,,,stimuli/images/PICTURE_203.png,ARTIST,5eb921b4e43986010ef5c250,01/01/1985,2020-09-02_12h35.01.069,proactive3.2,2020.1.2,Win32,60,5f47c0b9b035471e11593a5c,5f4f81bb9062f80449143fdb,1,,,,,,cap,,,,,,,,,,,3,0,0,59,59,26,1,,,,,,,,,,,,,,,,,,,,,,,,,,,,,,,,,,,,,,,,,,,,,,,,,,,,,,,,,,,,,,,,,,,,,,
,,,,,,,,,,,,5eb921b4e43986010ef5c250,01/01/1985,2020-09-02_12h35.01.069,proactive3.2,2020.1.2,Win32,60,5f47c0b9b035471e11593a5c,5f4f81bb9062f80449143fdb,1,,,,,,,,,,,,,,,,,,,,,,,,0,1,1,0,1,stimuli/learn-block1.csv,,,,,,,,,,,,,,,,,,,,,,,,,,,,,,,,,,,,,,,,,,,,,,,,,,,,,,,,,,,,,,,,
,,,,,,,,,,stimuli/images/PICTURE_403.png,RIVER,5eb921b4e43986010ef5c250,01/01/1985,2020-09-02_12h35.01.069,proactive3.2,2020.1.2,Win32,60,5f47c0b9b035471e11593a5c,5f4f81bb9062f80449143fdb,1,,,,,,cathedral,,,,,,0,0,0,40,1,5,1,,,,,,,,,,,,,,,,,,,,,,,,,,,,,,,,,,,,,,,,,,,,,,,,,,,,,,,,,,,,,,,,,,,,,,,,,,,
,,,,,,,,,,stimuli/images/PICTURE_327.png,SERIES,5eb921b4e43986010ef5c250,01/01/1985,2020-09-02_12h35.01.069,proactive3.2,2020.1.2,Win32,60,5f47c0b9b035471e11593a5c,5f4f81bb9062f80449143fdb,1,,,,,,helmet,,,,,,0,1,1,3,1,1,1,,,,,,,,,,,,,,,,,,,,,,,,,,,,,,,,,,,,,,,,,,,,,,,,,,,,,,,,,,,,,,,,,,,,,,,,,,,
,,,,,,,,,,stimuli/images/PICTURE_85.png,TOILET,5eb921b4e43986010ef5c250,01/01/1985,2020-09-02_12h35.01.069,proactive3.2,2020.1.2,Win32,60,5f47c0b9b035471e11593a5c,5f4f81bb9062f80449143fdb,1,,,,,,diamond,,,,,,0,2,2,48,1,5,1,,,,,,,,,,,,,,,,,,,,,,,,,,,,,,,,,,,,,,,,,,,,,,,,,,,,,,,,,,,,,,,,,,,,,,,,,,,
,,,,,,,,,,stimuli/images/PICTURE_308.png,FAMILY,5eb921b4e43986010ef5c250,01/01/1985,2020-09-02_12h35.01.069,proactive3.2,2020.1.2,Win32,60,5f47c0b9b035471e11593a5c,5f4f81bb9062f80449143fdb,1,,,,,,dice,,,,,,0,3,3,36,1,4,1,,,,,,,,,,,,,,,,,,,,,,,,,,,,,,,,,,,,,,,,,,,,,,,,,,,,,,,,,,,,,,,,,,,,,,,,,,,
,,,,,,,,,,stimuli/images/PICTURE_208.png,SYSTEM,5eb921b4e43986010ef5c250,01/01/1985,2020-09-02_12h35.01.069,proactive3.2,2020.1.2,Win32,60,5f47c0b9b035471e11593a5c,5f4f81bb9062f80449143fdb,1,,,,,,microphone,,,,,,0,4,4,32,1,4,1,,,,,,,,,,,,,,,,,,,,,,,,,,,,,,,,,,,,,,,,,,,,,,,,,,,,,,,,,,,,,,,,,,,,,,,,,,,
,,,,,,,,,,stimuli/images/PICTURE_108.png,POLICY,5eb921b4e43986010ef5c250,01/01/1985,2020-09-02_12h35.01.069,proactive3.2,2020.1.2,Win32,60,5f47c0b9b035471e11593a5c,5f4f81bb9062f80449143fdb,1,,,,,,calendar,,,,,,0,5,5,22,1,3,1,,,,,,,,,,,,,,,,,,,,,,,,,,,,,,,,,,,,,,,,,,,,,,,,,,,,,,,,,,,,,,,,,,,,,,,,,,,
,,,,,,,,,,stimuli/images/PICTURE_297.png,RIVER,5eb921b4e43986010ef5c250,01/01/1985,2020-09-02_12h35.01.069,proactive3.2,2020.1.2,Win32,60,5f47c0b9b035471e11593a5c,5f4f81bb9062f80449143fdb,1,,,,,,aeroplane,,,,,,0,6,6,39,1,4,1,,,,,,,,,,,,,,,,,,,,,,,,,,,,,,,,,,,,,,,,,,,,,,,,,,,,,,,,,,,,,,,,,,,,,,,,,,,
,,,,,,,,,,stimuli/images/PICTURE_655.png,TOILET,5eb921b4e43986010ef5c250,01/01/1985,2020-09-02_12h35.01.069,proactive3.2,2020.1.2,Win32,60,5f47c0b9b035471e11593a5c,5f4f81bb9062f80449143fdb,1,,,,,,megaphone,,,,,,0,7,7,12,1,2,1,,,,,,,,,,,,,,,,,,,,,,,,,,,,,,,,,,,,,,,,,,,,,,,,,,,,,,,,,,,,,,,,,,,,,,,,,,,
,,,,,,,,,,stimuli/images/PICTURE_340.png,VALLEY,5eb921b4e43986010ef5c250,01/01/1985,2020-09-02_12h35.01.069,proactive3.2,2020.1.2,Win32,60,5f47c0b9b035471e11593a5c,5f4f81bb9062f80449143fdb,1,,,,,,mirror,,,,,,0,8,8,54,1,6,1,,,,,,,,,,,,,,,,,,,,,,,,,,,,,,,,,,,,,,,,,,,,,,,,,,,,,,,,,,,,,,,,,,,,,,,,,,,
,,,,,,,,,,stimuli/images/PICTURE_68.png,MILE,5eb921b4e43986010ef5c250,01/01/1985,2020-09-02_12h35.01.069,proactive3.2,2020.1.2,Win32,60,5f47c0b9b035471e11593a5c,5f4f81bb9062f80449143fdb,1,,,,,,candle,,,,,,0,9,9,51,1,6,1,,,,,,,,,,,,,,,,,,,,,,,,,,,,,,,,,,,,,,,,,,,,,,,,,,,,,,,,,,,,,,,,,,,,,,,,,,,
,,,,,,,,,,stimuli/images/PICTURE_32.png,PILLS,5eb921b4e43986010ef5c250,01/01/1985,2020-09-02_12h35.01.069,proactive3.2,2020.1.2,Win32,60,5f47c0b9b035471e11593a5c,5f4f81bb9062f80449143fdb,1,,,,,,crown,,,,,,0,10,10,18,1,2,1,,,,,,,,,,,,,,,,,,,,,,,,,,,,,,,,,,,,,,,,,,,,,,,,,,,,,,,,,,,,,,,,,,,,,,,,,,,
,,,,,,,,,,stimuli/images/PICTURE_467.png,POLICY,5eb921b4e43986010ef5c250,01/01/1985,2020-09-02_12h35.01.069,proactive3.2,2020.1.2,Win32,60,5f47c0b9b035471e11593a5c,5f4f81bb9062f80449143fdb,1,,,,,,peg,,,,,,0,11,11,53,1,6,1,,,,,,,,,,,,,,,,,,,,,,,,,,,,,,,,,,,,,,,,,,,,,,,,,,,,,,,,,,,,,,,,,,,,,,,,,,,
,,,,,,,,,,stimuli/images/PICTURE_340.png,LETTER,5eb921b4e43986010ef5c250,01/01/1985,2020-09-02_12h35.01.069,proactive3.2,2020.1.2,Win32,60,5f47c0b9b035471e11593a5c,5f4f81bb9062f80449143fdb,1,,,,,,mirror,,,,,,0,12,12,24,1,3,1,,,,,,,,,,,,,,,,,,,,,,,,,,,,,,,,,,,,,,,,,,,,,,,,,,,,,,,,,,,,,,,,,,,,,,,,,,,
,,,,,,,,,,stimuli/images/PICTURE_233.png,LOTS,5eb921b4e43986010ef5c250,01/01/1985,2020-09-02_12h35.01.069,proactive3.2,2020.1.2,Win32,60,5f47c0b9b035471e11593a5c,5f4f81bb9062f80449143fdb,1,,,,,,salt,,,,,,0,13,13,42,1,5,1,,,,,,,,,,,,,,,,,,,,,,,,,,,,,,,,,,,,,,,,,,,,,,,,,,,,,,,,,,,,,,,,,,,,,,,,,,,
,,,,,,,,,,stimuli/images/PICTURE_708.png,RECORD,5eb921b4e43986010ef5c250,01/01/1985,2020-09-02_12h35.01.069,proactive3.2,2020.1.2,Win32,60,5f47c0b9b035471e11593a5c,5f4f81bb9062f80449143fdb,1,,,,,,monkey,,,,,,0,14,14,58,1,6,1,,,,,,,,,,,,,,,,,,,,,,,,,,,,,,,,,,,,,,,,,,,,,,,,,,,,,,,,,,,,,,,,,,,,,,,,,,,
,,,,,,,,,,stimuli/images/PICTURE_68.png,ROOF,5eb921b4e43986010ef5c250,01/01/1985,2020-09-02_12h35.01.069,proactive3.2,2020.1.2,Win32,60,5f47c0b9b035471e11593a5c,5f4f81bb9062f80449143fdb,1,,,,,,candle,,,,,,0,15,15,38,1,4,1,,,,,,,,,,,,,,,,,,,,,,,,,,,,,,,,,,,,,,,,,,,,,,,,,,,,,,,,,,,,,,,,,,,,,,,,,,,
,,,,,,,,,,stimuli/images/PICTURE_504.png,ARTIST,5eb921b4e43986010ef5c250,01/01/1985,2020-09-02_12h35.01.069,proactive3.2,2020.1.2,Win32,60,5f47c0b9b035471e11593a5c,5f4f81bb9062f80449143fdb,1,,,,,,wheel,,,,,,0,16,16,49,1,5,1,,,,,,,,,,,,,,,,,,,,,,,,,,,,,,,,,,,,,,,,,,,,,,,,,,,,,,,,,,,,,,,,,,,,,,,,,,,
,,,,,,,,,,stimuli/images/PICTURE_32.png,KIND,5eb921b4e43986010ef5c250,01/01/1985,2020-09-02_12h35.01.069,proactive3.2,2020.1.2,Win32,60,5f47c0b9b035471e11593a5c,5f4f81bb9062f80449143fdb,1,,,,,,crown,,,,,,0,17,17,35,1,4,1,,,,,,,,,,,,,,,,,,,,,,,,,,,,,,,,,,,,,,,,,,,,,,,,,,,,,,,,,,,,,,,,,,,,,,,,,,,
,,,,,,,,,,stimuli/images/PICTURE_95.png,HONEY,5eb921b4e43986010ef5c250,01/01/1985,2020-09-02_12h35.01.069,proactive3.2,2020.1.2,Win32,60,5f47c0b9b035471e11593a5c,5f4f81bb9062f80449143fdb,1,,,,,,suitcase,,,,,,0,18,18,44,1,5,1,,,,,,,,,,,,,,,,,,,,,,,,,,,,,,,,,,,,,,,,,,,,,,,,,,,,,,,,,,,,,,,,,,,,,,,,,,,
,,,,,,,,,,stimuli/images/PICTURE_42.png,BOYS,5eb921b4e43986010ef5c250,01/01/1985,2020-09-02_12h35.01.069,proactive3.2,2020.1.2,Win32,60,5f47c0b9b035471e11593a5c,5f4f81bb9062f80449143fdb,1,,,,,,pear,,,,,,0,19,19,55,1,6,1,,,,,,,,,,,,,,,,,,,,,,,,,,,,,,,,,,,,,,,,,,,,,,,,,,,,,,,,,,,,,,,,,,,,,,,,,,,
,,,,,,,,,,stimuli/images/PICTURE_750.png,HOTEL,5eb921b4e43986010ef5c250,01/01/1985,2020-09-02_12h35.01.069,proactive3.2,2020.1.2,Win32,60,5f47c0b9b035471e11593a5c,5f4f81bb9062f80449143fdb,1,,,,,,kettle,,,,,,0,20,20,27,1,3,1,,,,,,,,,,,,,,,,,,,,,,,,,,,,,,,,,,,,,,,,,,,,,,,,,,,,,,,,,,,,,,,,,,,,,,,,,,,
,,,,,,,,,,stimuli/images/PICTURE_380.png,HONEY,5eb921b4e43986010ef5c250,01/01/1985,2020-09-02_12h35.01.069,proactive3.2,2020.1.2,Win32,60,5f47c0b9b035471e11593a5c,5f4f81bb9062f80449143fdb,1,,,,,,gorilla,,,,,,0,21,21,19,1,2,1,,,,,,,,,,,,,,,,,,,,,,,,,,,,,,,,,,,,,,,,,,,,,,,,,,,,,,,,,,,,,,,,,,,,,,,,,,,
,,,,,,,,,,stimuli/images/PICTURE_449.png,DUDE,5eb921b4e43986010ef5c250,01/01/1985,2020-09-02_12h35.01.069,proactive3.2,2020.1.2,Win32,60,5f47c0b9b035471e11593a5c,5f4f81bb9062f80449143fdb,1,,,,,,bench,,,,,,0,22,22,17,1,2,1,,,,,,,,,,,,,,,,,,,,,,,,,,,,,,,,,,,,,,,,,,,,,,,,,,,,,,,,,,,,,,,,,,,,,,,,,,,
,,,,,,,,,,stimuli/images/PICTURE_203.png,GODS,5eb921b4e43986010ef5c250,01/01/1985,2020-09-02_12h35.01.069,proactive3.2,2020.1.2,Win32,60,5f47c0b9b035471e11593a5c,5f4f81bb9062f80449143fdb,1,,,,,,cap,,,,,,0,23,23,30,1,4,1,,,,,,,,,,,,,,,,,,,,,,,,,,,,,,,,,,,,,,,,,,,,,,,,,,,,,,,,,,,,,,,,,,,,,,,,,,,
,,,,,,,,,,stimuli/images/PICTURE_147.png,WOMEN,5eb921b4e43986010ef5c250,01/01/1985,2020-09-02_12h35.01.069,proactive3.2,2020.1.2,Win32,60,5f47c0b9b035471e11593a5c,5f4f81bb9062f80449143fdb,1,,,,,,hanger,,,,,,0,24,24,7,1,1,1,,,,,,,,,,,,,,,,,,,,,,,,,,,,,,,,,,,,,,,,,,,,,,,,,,,,,,,,,,,,,,,,,,,,,,,,,,,
,,,,,,,,,,stimuli/images/PICTURE_491.png,GLASS,5eb921b4e43986010ef5c250,01/01/1985,2020-09-02_12h35.01.069,proactive3.2,2020.1.2,Win32,60,5f47c0b9b035471e11593a5c,5f4f81bb9062f80449143fdb,1,,,,,,rug,,,,,,0,25,25,14,1,2,1,,,,,,,,,,,,,,,,,,,,,,,,,,,,,,,,,,,,,,,,,,,,,,,,,,,,,,,,,,,,,,,,,,,,,,,,,,,
,,,,,,,,,,stimuli/images/PICTURE_469.png,AGENT,5eb921b4e43986010ef5c250,01/01/1985,2020-09-02_12h35.01.069,proactive3.2,2020.1.2,Win32,60,5f47c0b9b035471e11593a5c,5f4f81bb9062f80449143fdb,1,,,,,,stool,,,,,,0,26,26,16,1,2,1,,,,,,,,,,,,,,,,,,,,,,,,,,,,,,,,,,,,,,,,,,,,,,,,,,,,,,,,,,,,,,,,,,,,,,,,,,,
,,,,,,,,,,stimuli/images/PICTURE_491.png,RIVER,5eb921b4e43986010ef5c250,01/01/1985,2020-09-02_12h35.01.069,proactive3.2,2020.1.2,Win32,60,5f47c0b9b035471e11593a5c,5f4f81bb9062f80449143fdb,1,,,,,,rug,,,,,,0,27,27,6,1,1,1,,,,,,,,,,,,,,,,,,,,,,,,,,,,,,,,,,,,,,,,,,,,,,,,,,,,,,,,,,,,,,,,,,,,,,,,,,,
,,,,,,,,,,stimuli/images/PICTURE_504.png,YEAR,5eb921b4e43986010ef5c250,01/01/1985,2020-09-02_12h35.01.069,proactive3.2,2020.1.2,Win32,60,5f47c0b9b035471e11593a5c,5f4f81bb9062f80449143fdb,1,,,,,,wheel,,,,,,0,28,28,13,1,2,1,,,,,,,,,,,,,,,,,,,,,,,,,,,,,,,,,,,,,,,,,,,,,,,,,,,,,,,,,,,,,,,,,,,,,,,,,,,
,,,,,,,,,,stimuli/images/PICTURE_327.png,CASINO,5eb921b4e43986010ef5c250,01/01/1985,2020-09-02_12h35.01.069,proactive3.2,2020.1.2,Win32,60,5f47c0b9b035471e11593a5c,5f4f81bb9062f80449143fdb,1,,,,,,helmet,,,,,,0,29,29,20,1,3,1,,,,,,,,,,,,,,,,,,,,,,,,,,,,,,,,,,,,,,,,,,,,,,,,,,,,,,,,,,,,,,,,,,,,,,,,,,,
,,,,,,,,,,stimuli/images/PICTURE_296.png,LIFE,5eb921b4e43986010ef5c250,01/01/1985,2020-09-02_12h35.01.069,proactive3.2,2020.1.2,Win32,60,5f47c0b9b035471e11593a5c,5f4f81bb9062f80449143fdb,1,,,,,,bolt,,,,,,0,30,30,57,1,6,1,,,,,,,,,,,,,,,,,,,,,,,,,,,,,,,,,,,,,,,,,,,,,,,,,,,,,,,,,,,,,,,,,,,,,,,,,,,
,,,,,,,,,,stimuli/images/PICTURE_33.png,FRIEND,5eb921b4e43986010ef5c250,01/01/1985,2020-09-02_12h35.01.069,proactive3.2,2020.1.2,Win32,60,5f47c0b9b035471e11593a5c,5f4f81bb9062f80449143fdb,1,,,,,,frame,,,,,,0,31,31,8,1,1,1,,,,,,,,,,,,,,,,,,,,,,,,,,,,,,,,,,,,,,,,,,,,,,,,,,,,,,,,,,,,,,,,,,,,,,,,,,,
,,,,,,,,,,stimuli/images/PICTURE_564.png,BATH,5eb921b4e43986010ef5c250,01/01/1985,2020-09-02_12h35.01.069,proactive3.2,2020.1.2,Win32,60,5f47c0b9b035471e11593a5c,5f4f81bb9062f80449143fdb,1,,,,,,spoon,,,,,,0,32,32,26,1,3,1,,,,,,,,,,,,,,,,,,,,,,,,,,,,,,,,,,,,,,,,,,,,,,,,,,,,,,,,,,,,,,,,,,,,,,,,,,,
,,,,,,,,,,stimuli/images/PICTURE_667.png,RIVER,5eb921b4e43986010ef5c250,01/01/1985,2020-09-02_12h35.01.069,proactive3.2,2020.1.2,Win32,60,5f47c0b9b035471e11593a5c,5f4f81bb9062f80449143fdb,1,,,,,,daisy,,,,,,0,33,33,10,1,2,1,,,,,,,,,,,,,,,,,,,,,,,,,,,,,,,,,,,,,,,,,,,,,,,,,,,,,,,,,,,,,,,,,,,,,,,,,,,
,,,,,,,,,,stimuli/images/PICTURE_339.png,CLIENT,5eb921b4e43986010ef5c250,01/01/1985,2020-09-02_12h35.01.069,proactive3.2,2020.1.2,Win32,60,5f47c0b9b035471e11593a5c,5f4f81bb9062f80449143fdb,1,,,,,,backpack,,,,,,0,34,34,11,1,2,1,,,,,,,,,,,,,,,,,,,,,,,,,,,,,,,,,,,,,,,,,,,,,,,,,,,,,,,,,,,,,,,,,,,,,,,,,,,
,,,,,,,,,,stimuli/images/PICTURE_403.png,TOILET,5eb921b4e43986010ef5c250,01/01/1985,2020-09-02_12h35.01.069,proactive3.2,2020.1.2,Win32,60,5f47c0b9b035471e11593a5c,5f4f81bb9062f80449143fdb,1,,,,,,cathedral,,,,,,0,35,35,25,1,3,1,,,,,,,,,,,,,,,,,,,,,,,,,,,,,,,,,,,,,,,,,,,,,,,,,,,,,,,,,,,,,,,,,,,,,,,,,,,
,,,,,,,,,,stimuli/images/PICTURE_685.png,PENNY,5eb921b4e43986010ef5c250,01/01/1985,2020-09-02_12h35.01.069,proactive3.2,2020.1.2,Win32,60,5f47c0b9b035471e11593a5c,5f4f81bb9062f80449143fdb,1,,,,,,goose,,,,,,0,36,36,4,1,1,1,,,,,,,,,,,,,,,,,,,,,,,,,,,,,,,,,,,,,,,,,,,,,,,,,,,,,,,,,,,,,,,,,,,,,,,,,,,
,,,,,,,,,,stimuli/images/PICTURE_108.png,FLIGHT,5eb921b4e43986010ef5c250,01/01/1985,2020-09-02_12h35.01.069,proactive3.2,2020.1.2,Win32,60,5f47c0b9b035471e11593a5c,5f4f81bb9062f80449143fdb,1,,,,,,calendar,,,,,,0,37,37,59,1,6,1,,,,,,,,,,,,,,,,,,,,,,,,,,,,,,,,,,,,,,,,,,,,,,,,,,,,,,,,,,,,,,,,,,,,,,,,,,,
,,,,,,,,,,stimuli/images/PICTURE_383.png,WRITER,5eb921b4e43986010ef5c250,01/01/1985,2020-09-02_12h35.01.069,proactive3.2,2020.1.2,Win32,60,5f47c0b9b035471e11593a5c,5f4f81bb9062f80449143fdb,1,,,,,,coin,,,,,,0,38,38,28,1,3,1,,,,,,,,,,,,,,,,,,,,,,,,,,,,,,,,,,,,,,,,,,,,,,,,,,,,,,,,,,,,,,,,,,,,,,,,,,,
,,,,,,,,,,stimuli/images/PICTURE_487.png,GIRL,5eb921b4e43986010ef5c250,01/01/1985,2020-09-02_12h35.01.069,proactive3.2,2020.1.2,Win32,60,5f47c0b9b035471e11593a5c,5f4f81bb9062f80449143fdb,1,,,,,,basket,,,,,,0,39,39,45,1,5,1,,,,,,,,,,,,,,,,,,,,,,,,,,,,,,,,,,,,,,,,,,,,,,,,,,,,,,,,,,,,,,,,,,,,,,,,,,,
,,,,,,,,,,stimuli/images/PICTURE_95.png,BOYS,5eb921b4e43986010ef5c250,01/01/1985,2020-09-02_12h35.01.069,proactive3.2,2020.1.2,Win32,60,5f47c0b9b035471e11593a5c,5f4f81bb9062f80449143fdb,1,,,,,,suitcase,,,,,,0,40,40,1,1,1,1,,,,,,,,,,,,,,,,,,,,,,,,,,,,,,,,,,,,,,,,,,,,,,,,,,,,,,,,,,,,,,,,,,,,,,,,,,,
,,,,,,,,,,stimuli/images/PICTURE_405.png,PLENTY,5eb921b4e43986010ef5c250,01/01/1985,2020-09-02_12h35.01.069,proactive3.2,2020.1.2,Win32,60,5f47c0b9b035471e11593a5c,5f4f81bb9062f80449143fdb,1,,,,,,anchor,,,,,,0,41,41,23,1,3,1,,,,,,,,,,,,,,,,,,,,,,,,,,,,,,,,,,,,,,,,,,,,,,,,,,,,,,,,,,,,,,,,,,,,,,,,,,,
,,,,,,,,,,stimuli/images/PICTURE_380.png,CANDY,5eb921b4e43986010ef5c250,01/01/1985,2020-09-02_12h35.01.069,proactive3.2,2020.1.2,Win32,60,5f47c0b9b035471e11593a5c,5f4f81bb9062f80449143fdb,1,,,,,,gorilla,,,,,,0,42,42,0,1,1,1,,,,,,,,,,,,,,,,,,,,,,,,,,,,,,,,,,,,,,,,,,,,,,,,,,,,,,,,,,,,,,,,,,,,,,,,,,,
,,,,,,,,,,stimuli/images/PICTURE_744.png,WEAPON,5eb921b4e43986010ef5c250,01/01/1985,2020-09-02_12h35.01.069,proactive3.2,2020.1.2,Win32,60,5f47c0b9b035471e11593a5c,5f4f81bb9062f80449143fdb,1,,,,,,ring,,,,,,0,43,43,50,1,6,1,,,,,,,,,,,,,,,,,,,,,,,,,,,,,,,,,,,,,,,,,,,,,,,,,,,,,,,,,,,,,,,,,,,,,,,,,,,
,,,,,,,,,,stimuli/images/PICTURE_296.png,LOTS,5eb921b4e43986010ef5c250,01/01/1985,2020-09-02_12h35.01.069,proactive3.2,2020.1.2,Win32,60,5f47c0b9b035471e11593a5c,5f4f81bb9062f80449143fdb,1,,,,,,bolt,,,,,,0,44,44,9,1,1,1,,,,,,,,,,,,,,,,,,,,,,,,,,,,,,,,,,,,,,,,,,,,,,,,,,,,,,,,,,,,,,,,,,,,,,,,,,,
,,,,,,,,,,stimuli/images/PICTURE_2.png,FLIGHT,5eb921b4e43986010ef5c250,01/01/1985,2020-09-02_12h35.01.069,proactive3.2,2020.1.2,Win32,60,5f47c0b9b035471e11593a5c,5f4f81bb9062f80449143fdb,1,,,,,,tyre,,,,,,0,45,45,15,1,2,1,,,,,,,,,,,,,,,,,,,,,,,,,,,,,,,,,,,,,,,,,,,,,,,,,,,,,,,,,,,,,,,,,,,,,,,,,,,
,,,,,,,,,,stimuli/images/PICTURE_504.png,COPS,5eb921b4e43986010ef5c250,01/01/1985,2020-09-02_12h35.01.069,proactive3.2,2020.1.2,Win32,60,5f47c0b9b035471e11593a5c,5f4f81bb9062f80449143fdb,1,,,,,,wheel,,,,,,0,46,46,52,1,6,1,,,,,,,,,,,,,,,,,,,,,,,,,,,,,,,,,,,,,,,,,,,,,,,,,,,,,,,,,,,,,,,,,,,,,,,,,,,
,,,,,,,,,,stimuli/images/PICTURE_383.png,SERIES,5eb921b4e43986010ef5c250,01/01/1985,2020-09-02_12h35.01.069,proactive3.2,2020.1.2,Win32,60,5f47c0b9b035471e11593a5c,5f4f81bb9062f80449143fdb,1,,,,,,coin,,,,,,0,47,47,46,1,5,1,,,,,,,,,,,,,,,,,,,,,,,,,,,,,,,,,,,,,,,,,,,,,,,,,,,,,,,,,,,,,,,,,,,,,,,,,,,
,,,,,,,,,,stimuli/images/PICTURE_85.png,NATION,5eb921b4e43986010ef5c250,01/01/1985,2020-09-02_12h35.01.069,proactive3.2,2020.1.2,Win32,60,5f47c0b9b035471e11593a5c,5f4f81bb9062f80449143fdb,1,,,,,,diamond,,,,,,0,48,48,5,1,1,1,,,,,,,,,,,,,,,,,,,,,,,,,,,,,,,,,,,,,,,,,,,,,,,,,,,,,,,,,,,,,,,,,,,,,,,,,,,
,,,,,,,,,,stimuli/images/PICTURE_57.png,MOMENT,5eb921b4e43986010ef5c250,01/01/1985,2020-09-02_12h35.01.069,proactive3.2,2020.1.2,Win32,60,5f47c0b9b035471e11593a5c,5f4f81bb9062f80449143fdb,1,,,,,,stamp,,,,,,0,49,49,37,1,4,1,,,,,,,,,,,,,,,,,,,,,,,,,,,,,,,,,,,,,,,,,,,,,,,,,,,,,,,,,,,,,,,,,,,,,,,,,,,
,,,,,,,,,,stimuli/images/PICTURE_405.png,YEAR,5eb921b4e43986010ef5c250,01/01/1985,2020-09-02_12h35.01.069,proactive3.2,2020.1.2,Win32,60,5f47c0b9b035471e11593a5c,5f4f81bb9062f80449143fdb,1,,,,,,anchor,,,,,,0,50,50,34,1,4,1,,,,,,,,,,,,,,,,,,,,,,,,,,,,,,,,,,,,,,,,,,,,,,,,,,,,,,,,,,,,,,,,,,,,,,,,,,,
,,,,,,,,,,stimuli/images/PICTURE_654.png,MONTH,5eb921b4e43986010ef5c250,01/01/1985,2020-09-02_12h35.01.069,proactive3.2,2020.1.2,Win32,60,5f47c0b9b035471e11593a5c,5f4f81bb9062f80449143fdb,1,,,,,,pencil,,,,,,0,51,51,29,1,3,1,,,,,,,,,,,,,,,,,,,,,,,,,,,,,,,,,,,,,,,,,,,,,,,,,,,,,,,,,,,,,,,,,,,,,,,,,,,
,,,,,,,,,,stimuli/images/PICTURE_177.png,WRITER,5eb921b4e43986010ef5c250,01/01/1985,2020-09-02_12h35.01.069,proactive3.2,2020.1.2,Win32,60,5f47c0b9b035471e11593a5c,5f4f81bb9062f80449143fdb,1,,,,,,mushroom,,,,,,0,52,52,41,1,5,1,,,,,,,,,,,,,,,,,,,,,,,,,,,,,,,,,,,,,,,,,,,,,,,,,,,,,,,,,,,,,,,,,,,,,,,,,,,
,,,,,,,,,,stimuli/images/PICTURE_95.png,MILLER,5eb921b4e43986010ef5c250,01/01/1985,2020-09-02_12h35.01.069,proactive3.2,2020.1.2,Win32,60,5f47c0b9b035471e11593a5c,5f4f81bb9062f80449143fdb,1,,,,,,suitcase,,,,,,0,53,53,56,1,6,1,,,,,,,,,,,,,,,,,,,,,,,,,,,,,,,,,,,,,,,,,,,,,,,,,,,,,,,,,,,,,,,,,,,,,,,,,,,
,,,,,,,,,,stimuli/images/PICTURE_675.png,SALE,5eb921b4e43986010ef5c250,01/01/1985,2020-09-02_12h35.01.069,proactive3.2,2020.1.2,Win32,60,5f47c0b9b035471e11593a5c,5f4f81bb9062f80449143fdb,1,,,,,,windmill,,,,,,0,54,54,47,1,5,1,,,,,,,,,,,,,,,,,,,,,,,,,,,,,,,,,,,,,,,,,,,,,,,,,,,,,,,,,,,,,,,,,,,,,,,,,,,
,,,,,,,,,,stimuli/images/PICTURE_147.png,YEAR,5eb921b4e43986010ef5c250,01/01/1985,2020-09-02_12h35.01.069,proactive3.2,2020.1.2,Win32,60,5f47c0b9b035471e11593a5c,5f4f81bb9062f80449143fdb,1,,,,,,hanger,,,,,,0,55,55,21,1,3,1,,,,,,,,,,,,,,,,,,,,,,,,,,,,,,,,,,,,,,,,,,,,,,,,,,,,,,,,,,,,,,,,,,,,,,,,,,,
,,,,,,,,,,stimuli/images/PICTURE_285.png,LIFE,5eb921b4e43986010ef5c250,01/01/1985,2020-09-02_12h35.01.069,proactive3.2,2020.1.2,Win32,60,5f47c0b9b035471e11593a5c,5f4f81bb9062f80449143fdb,1,,,,,,carrot,,,,,,0,56,56,33,1,4,1,,,,,,,,,,,,,,,,,,,,,,,,,,,,,,,,,,,,,,,,,,,,,,,,,,,,,,,,,,,,,,,,,,,,,,,,,,,
,,,,,,,,,,stimuli/images/PICTURE_677.png,APPLE,5eb921b4e43986010ef5c250,01/01/1985,2020-09-02_12h35.01.069,proactive3.2,2020.1.2,Win32,60,5f47c0b9b035471e11593a5c,5f4f81bb9062f80449143fdb,1,,,,,,map,,,,,,0,57,57,43,1,5,1,,,,,,,,,,,,,,,,,,,,,,,,,,,,,,,,,,,,,,,,,,,,,,,,,,,,,,,,,,,,,,,,,,,,,,,,,,,
,,,,,,,,,,stimuli/images/PICTURE_403.png,WRITER,5eb921b4e43986010ef5c250,01/01/1985,2020-09-02_12h35.01.069,proactive3.2,2020.1.2,Win32,60,5f47c0b9b035471e11593a5c,5f4f81bb9062f80449143fdb,1,,,,,,cathedral,,,,,,0,58,58,31,1,4,1,,,,,,,,,,,,,,,,,,,,,,,,,,,,,,,,,,,,,,,,,,,,,,,,,,,,,,,,,,,,,,,,,,,,,,,,,,,
,,?,0.001,0,,,,,,stimuli/images/PICTURE_491.png,GLASS,5eb921b4e43986010ef5c250,01/01/1985,2020-09-02_12h35.01.069,proactive3.2,2020.1.2,Win32,60,5f47c0b9b035471e11593a5c,5f4f81bb9062f80449143fdb,1,,,,,,rug,,,,,,,,,,,2,1,0,0,0,14,1,,,,,,,,,,,,,,,,,,,,,,,,,,,,,,,,,,,,,,,,,,,,,,,,,,,,,,,,,,,,,,,,,,,,,,
,,?,0,0,,,,,,stimuli/images/PICTURE_85.png,TOILET,5eb921b4e43986010ef5c250,01/01/1985,2020-09-02_12h35.01.069,proactive3.2,2020.1.2,Win32,60,5f47c0b9b035471e11593a5c,5f4f81bb9062f80449143fdb,1,,,,,,diamond,,,,,,,,,,,5,1,0,1,1,48,1,,,,,,,,,,,,,,,,,,,,,,,,,,,,,,,,,,,,,,,,,,,,,,,,,,,,,,,,,,,,,,,,,,,,,,
,,?,0,0,,,,,,stimuli/images/PICTURE_504.png,ARTIST,5eb921b4e43986010ef5c250,01/01/1985,2020-09-02_12h35.01.069,proactive3.2,2020.1.2,Win32,60,5f47c0b9b035471e11593a5c,5f4f81bb9062f80449143fdb,1,,,,,,wheel,,,,,,,,,,,5,1,0,2,2,49,1,,,,,,,,,,,,,,,,,,,,,,,,,,,,,,,,,,,,,,,,,,,,,,,,,,,,,,,,,,,,,,,,,,,,,,
,,FREIND,3.26,0,,,,,,stimuli/images/PICTURE_33.png,FRIEND,5eb921b4e43986010ef5c250,01/01/1985,2020-09-02_12h35.01.069,proactive3.2,2020.1.2,Win32,60,5f47c0b9b035471e11593a5c,5f4f81bb9062f80449143fdb,1,,,,,,frame,,,,,,,,,,,1,1,0,3,3,8,1,,,,,,,,,,,,,,,,,,,,,,,,,,,,,,,,,,,,,,,,,,,,,,,,,,,,,,,,,,,,,,,,,,,,,,
,,?,0,0,,,,,,stimuli/images/PICTURE_675.png,SALE,5eb921b4e43986010ef5c250,01/01/1985,2020-09-02_12h35.01.069,proactive3.2,2020.1.2,Win32,60,5f47c0b9b035471e11593a5c,5f4f81bb9062f80449143fdb,1,,,,,,windmill,,,,,,,,,,,5,1,0,4,4,47,1,,,,,,,,,,,,,,,,,,,,,,,,,,,,,,,,,,,,,,,,,,,,,,,,,,,,,,,,,,,,,,,,,,,,,,
,,?,0,0,,,,,,stimuli/images/PICTURE_467.png,POLICY,5eb921b4e43986010ef5c250,01/01/1985,2020-09-02_12h35.01.069,proactive3.2,2020.1.2,Win32,60,5f47c0b9b035471e11593a5c,5f4f81bb9062f80449143fdb,1,,,,,,peg,,,,,,,,,,,6,1,0,5,5,53,1,,,,,,,,,,,,,,,,,,,,,,,,,,,,,,,,,,,,,,,,,,,,,,,,,,,,,,,,,,,,,,,,,,,,,,
,,?,0.001,0,,,,,,stimuli/images/PICTURE_667.png,RIVER,5eb921b4e43986010ef5c250,01/01/1985,2020-09-02_12h35.01.069,proactive3.2,2020.1.2,Win32,60,5f47c0b9b035471e11593a5c,5f4f81bb9062f80449143fdb,1,,,,,,daisy,,,,,,,,,,,2,1,0,6,6,10,1,,,,,,,,,,,,,,,,,,,,,,,,,,,,,,,,,,,,,,,,,,,,,,,,,,,,,,,,,,,,,,,,,,,,,,
,,LOTS,2.03,1,,,,,,stimuli/images/PICTURE_296.png,LOTS,5eb921b4e43986010ef5c250,01/01/1985,2020-09-02_12h35.01.069,proactive3.2,2020.1.2,Win32,60,5f47c0b9b035471e11593a5c,5f4f81bb9062f80449143fdb,1,,,,,,bolt,,,,,,,,,,,1,1,0,7,7,9,1,,,,,,,,,,,,,,,,,,,,,,,,,,,,,,,,,,,,,,,,,,,,,,,,,,,,,,,,,,,,,,,,,,,,,,
,,?,0.001,0,,,,,,stimuli/images/PICTURE_504.png,COPS,5eb921b4e43986010ef5c250,01/01/1985,2020-09-02_12h35.01.069,proactive3.2,2020.1.2,Win32,60,5f47c0b9b035471e11593a5c,5f4f81bb9062f80449143fdb,1,,,,,,wheel,,,,,,,,,,,6,1,0,8,8,52,1,,,,,,,,,,,,,,,,,,,,,,,,,,,,,,,,,,,,,,,,,,,,,,,,,,,,,,,,,,,,,,,,,,,,,,
,,?,7.514,0,,,,,,stimuli/images/PICTURE_203.png,NIGHT,5eb921b4e43986010ef5c250,01/01/1985,2020-09-02_12h35.01.069,proactive3.2,2020.1.2,Win32,60,5f47c0b9b035471e11593a5c,5f4f81bb9062f80449143fdb,1,,,,,,cap,,,,,,,,,,,1,1,0,9,9,2,1,,,,,,,,,,,,,,,,,,,,,,,,,,,,,,,,,,,,,,,,,,,,,,,,,,,,,,,,,,,,,,,,,,,,,,
,,?,0.001,0,,,,,,stimuli/images/PICTURE_42.png,BOYS,5eb921b4e43986010ef5c250,01/01/1985,2020-09-02_12h35.01.069,proactive3.2,2020.1.2,Win32,60,5f47c0b9b035471e11593a5c,5f4f81bb9062f80449143fdb,1,,,,,,pear,,,,,,,,,,,6,1,0,10,10,55,1,,,,,,,,,,,,,,,,,,,,,,,,,,,,,,,,,,,,,,,,,,,,,,,,,,,,,,,,,,,,,,,,,,,,,,
,,WOMEN,2.331,1,,,,,,stimuli/images/PICTURE_147.png,WOMEN,5eb921b4e43986010ef5c250,01/01/1985,2020-09-02_12h35.01.069,proactive3.2,2020.1.2,Win32,60,5f47c0b9b035471e11593a5c,5f4f81bb9062f80449143fdb,1,,,,,,hanger,,,,,,,,,,,1,1,0,11,11,7,1,,,,,,,,,,,,,,,,,,,,,,,,,,,,,,,,,,,,,,,,,,,,,,,,,,,,,,,,,,,,,,,,,,,,,,
,,?,0,0,,,,,,stimuli/images/PICTURE_405.png,PLENTY,5eb921b4e43986010ef5c250,01/01/1985,2020-09-02_12h35.01.069,proactive3.2,2020.1.2,Win32,60,5f47c0b9b035471e11593a5c,5f4f81bb9062f80449143fdb,1,,,,,,anchor,,,,,,,,,,,3,1,0,12,12,23,1,,,,,,,,,,,,,,,,,,,,,,,,,,,,,,,,,,,,,,,,,,,,,,,,,,,,,,,,,,,,,,,,,,,,,,
,,?,0,0,,,,,,stimuli/images/PICTURE_380.png,HONEY,5eb921b4e43986010ef5c250,01/01/1985,2020-09-02_12h35.01.069,proactive3.2,2020.1.2,Win32,60,5f47c0b9b035471e11593a5c,5f4f81bb9062f80449143fdb,1,,,,,,gorilla,,,,,,,,,,,2,1,0,13,13,19,1,,,,,,,,,,,,,,,,,,,,,,,,,,,,,,,,,,,,,,,,,,,,,,,,,,,,,,,,,,,,,,,,,,,,,,
,,?,0,0,,,,,,stimuli/images/PICTURE_32.png,PILLS,5eb921b4e43986010ef5c250,01/01/1985,2020-09-02_12h35.01.069,proactive3.2,2020.1.2,Win32,60,5f47c0b9b035471e11593a5c,5f4f81bb9062f80449143fdb,1,,,,,,crown,,,,,,,,,,,2,1,0,14,14,18,1,,,,,,,,,,,,,,,,,,,,,,,,,,,,,,,,,,,,,,,,,,,,,,,,,,,,,,,,,,,,,,,,,,,,,,
,,?,0,0,,,,,,stimuli/images/PICTURE_296.png,LIFE,5eb921b4e43986010ef5c250,01/01/1985,2020-09-02_12h35.01.069,proactive3.2,2020.1.2,Win32,60,5f47c0b9b035471e11593a5c,5f4f81bb9062f80449143fdb,1,,,,,,bolt,,,,,,,,,,,6,1,0,15,15,57,1,,,,,,,,,,,,,,,,,,,,,,,,,,,,,,,,,,,,,,,,,,,,,,,,,,,,,,,,,,,,,,,,,,,,,,
