consent_key.keys,consent_key.rt,recalled,recalled_rt,recall_acc,example_recall.thisRepN,example_recall.thisTrialN,example_recall.thisN,example_recall.thisIndex,example_recall.ran,file,word,participant,please enter your date of birth (dd/mm/yyyy),date,expName,psychopyVersion,OS,frameRate,STUDY_ID,SESSION_ID,list,prac_learn_study_loop.thisRepN,prac_learn_study_loop.thisTrialN,prac_learn_study_loop.thisN,prac_learn_study_loop.thisIndex,prac_learn_study_loop.ran,image,prac_learn_test_loop.thisRepN,prac_learn_test_loop.thisTrialN,prac_learn_test_loop.thisN,prac_learn_test_loop.thisIndex,prac_learn_test_loop.ran,learn_study_loop.thisRepN,learn_study_loop.thisTrialN,learn_study_loop.thisN,learn_study_loop.thisIndex,learn_study_loop.ran,list_no,block_no,learn_test_loop.thisRepN,learn_test_loop.thisTrialN,learn_test_loop.thisN,learn_test_loop.thisIndex,learn_test_loop.ran,learn_blocks.thisRepN,learn_blocks.thisTrialN,learn_blocks.thisN,learn_blocks.thisIndex,learn_blocks.ran,block_csv,key_resp_13.keys,key_resp_13.rt,learn_blocks_loop.thisRepN,learn_blocks_loop.thisTrialN,learn_blocks_loop.thisN,learn_blocks_loop.thisIndex,learn_blocks_loop.ran,final_learn_test.thisRepN,final_learn_test.thisTrialN,final_learn_test.thisN,final_learn_test.thisIndex,final_learn_test.ran,prac_wm_test_loop.thisRepN,prac_wm_test_loop.thisTrialN,prac_wm_test_loop.thisN,prac_wm_test_loop.thisIndex,prac_wm_test_loop.ran,wm_recalled1,wm_recall_rt1,wm_probed1,wm_recall_acc1,wm_recalled2,wm_recall_rt2,wm_probed2,wm_recall_acc2,wm_recalled3,wm_recall_rt3,wm_probed3,wm_recall_acc3,wm_recalled4,wm_recall_rt4,wm_probed4,wm_recall_acc4,prac_wm_trial_loop.thisRepN,prac_wm_trial_loop.thisTrialN,prac_wm_trial_loop.thisN,prac_wm_trial_loop.thisIndex,prac_wm_trial_loop.ran,word1,image1,file1,item_type1,word2,image2,file2,item_type2,word4,image4,file4,item_type4,word3,image3,file3,item_type3,wm_test_loop.thisRepN,wm_test_loop.thisTrialN,wm_test_loop.thisN,wm_test_loop.thisIndex,wm_test_loop.ran,wm_trial_loop.thisRepN,wm_trial_loop.thisTrialN,wm_trial_loop.thisN,wm_trial_loop.thisIndex,wm_trial_loop.ran
y,532.935,TOUGH,8.139,1,0,0,0,0,1,stimuli/images/PICTURE_747.png,TOUGH,5ed27c0a35a14107c491ffc0,31/12/1951,2020-09-12_08h02.51.999,proactive3.2,2020.1.2,MacIntel,60,5f5adea66120081ea0f57a61,5f5c727a3817c045ea29856c,4,,,,,,,,,,,,,,,,,,,,,,,,,,,,,,,,,,,,,,,,,,,,,,,,,,,,,,,,,,,,,,,,,,,,,,,,,,,,,,,,,,,,,,,,,,,,,
,,,,,,,,,,stimuli/images/PICTURE_697.png,KILLER,5ed27c0a35a14107c491ffc0,31/12/1951,2020-09-12_08h02.51.999,proactive3.2,2020.1.2,MacIntel,60,5f5adea66120081ea0f57a61,5f5c727a3817c045ea29856c,4,0,0,0,4,1,peach,,,,,,,,,,,,,,,,,,,,,,,,,,,,,,,,,,,,,,,,,,,,,,,,,,,,,,,,,,,,,,,,,,,,,,,,,,,,,,,,,,,,,,,
,,,,,,,,,,stimuli/images/PICTURE_378.png,LOSS,5ed27c0a35a14107c491ffc0,31/12/1951,2020-09-12_08h02.51.999,proactive3.2,2020.1.2,MacIntel,60,5f5adea66120081ea0f57a61,5f5c727a3817c045ea29856c,4,0,1,1,2,1,lobster,,,,,,,,,,,,,,,,,,,,,,,,,,,,,,,,,,,,,,,,,,,,,,,,,,,,,,,,,,,,,,,,,,,,,,,,,,,,,,,,,,,,,,,
,,,,,,,,,,stimuli/images/PICTURE_727.png,CELL,5ed27c0a35a14107c491ffc0,31/12/1951,2020-09-12_08h02.51.999,proactive3.2,2020.1.2,MacIntel,60,5f5adea66120081ea0f57a61,5f5c727a3817c045ea29856c,4,0,2,2,1,1,hose,,,,,,,,,,,,,,,,,,,,,,,,,,,,,,,,,,,,,,,,,,,,,,,,,,,,,,,,,,,,,,,,,,,,,,,,,,,,,,,,,,,,,,,
,,,,,,,,,,stimuli/images/PICTURE_658.png,DEVIL,5ed27c0a35a14107c491ffc0,31/12/1951,2020-09-12_08h02.51.999,proactive3.2,2020.1.2,MacIntel,60,5f5adea66120081ea0f57a61,5f5c727a3817c045ea29856c,4,0,3,3,3,1,crow,,,,,,,,,,,,,,,,,,,,,,,,,,,,,,,,,,,,,,,,,,,,,,,,,,,,,,,,,,,,,,,,,,,,,,,,,,,,,,,,,,,,,,,
,,LOSS,13.003,0,,,,,,stimuli/images/PICTURE_727.png,CELL,5ed27c0a35a14107c491ffc0,31/12/1951,2020-09-12_08h02.51.999,proactive3.2,2020.1.2,MacIntel,60,5f5adea66120081ea0f57a61,5f5c727a3817c045ea29856c,4,,,,,,hose,0,0,0,1,1,,,,,,,,,,,,,,,,,,,,,,,,,,,,,,,,,,,,,,,,,,,,,,,,,,,,,,,,,,,,,,,,,,,,,,,,,,,,,,,,,,
,,LOSS,8.381,0,,,,,,stimuli/images/PICTURE_697.png,KILLER,5ed27c0a35a14107c491ffc0,31/12/1951,2020-09-12_08h02.51.999,proactive3.2,2020.1.2,MacIntel,60,5f5adea66120081ea0f57a61,5f5c727a3817c045ea29856c,4,,,,,,peach,0,1,1,4,1,,,,,,,,,,,,,,,,,,,,,,,,,,,,,,,,,,,,,,,,,,,,,,,,,,,,,,,,,,,,,,,,,,,,,,,,,,,,,,,,,,
,,DEVIL,4.511,1,,,,,,stimuli/images/PICTURE_658.png,DEVIL,5ed27c0a35a14107c491ffc0,31/12/1951,2020-09-12_08h02.51.999,proactive3.2,2020.1.2,MacIntel,60,5f5adea66120081ea0f57a61,5f5c727a3817c045ea29856c,4,,,,,,crow,0,2,2,3,1,,,,,,,,,,,,,,,,,,,,,,,,,,,,,,,,,,,,,,,,,,,,,,,,,,,,,,,,,,,,,,,,,,,,,,,,,,,,,,,,,,
,,CELL,6.784,0,,,,,,stimuli/images/PICTURE_378.png,LOSS,5ed27c0a35a14107c491ffc0,31/12/1951,2020-09-12_08h02.51.999,proactive3.2,2020.1.2,MacIntel,60,5f5adea66120081ea0f57a61,5f5c727a3817c045ea29856c,4,,,,,,lobster,0,3,3,2,1,,,,,,,,,,,,,,,,,,,,,,,,,,,,,,,,,,,,,,,,,,,,,,,,,,,,,,,,,,,,,,,,,,,,,,,,,,,,,,,,,,
,,M,8.149,0,,,,,,stimuli/images/PICTURE_269.png,GENIUS,5ed27c0a35a14107c491ffc0,31/12/1951,2020-09-12_08h02.51.999,proactive3.2,2020.1.2,MacIntel,60,5f5adea66120081ea0f57a61,5f5c727a3817c045ea29856c,4,,,,,,chameleon,0,4,4,0,1,,,,,,,,,,,,,,,,,,,,,,,,,,,,,,,,,,,,,,,,,,,,,,,,,,,,,,,,,,,,,,,,,,,,,,,,,,,,,,,,,,
,,,,,,,,,,stimuli/images/PICTURE_57.png,NATION,5ed27c0a35a14107c491ffc0,31/12/1951,2020-09-12_08h02.51.999,proactive3.2,2020.1.2,MacIntel,60,5f5adea66120081ea0f57a61,5f5c727a3817c045ea29856c,4,,,,,,stamp,,,,,,0,0,0,21,1,3,2,,,,,,,,,,,,,,,,,,,,,,,,,,,,,,,,,,,,,,,,,,,,,,,,,,,,,,,,,,,,,,,,,,,,,,,,,,,
,,,,,,,,,,stimuli/images/PICTURE_147.png,LEADER,5ed27c0a35a14107c491ffc0,31/12/1951,2020-09-12_08h02.51.999,proactive3.2,2020.1.2,MacIntel,60,5f5adea66120081ea0f57a61,5f5c727a3817c045ea29856c,4,,,,,,hanger,,,,,,0,1,1,33,1,4,2,,,,,,,,,,,,,,,,,,,,,,,,,,,,,,,,,,,,,,,,,,,,,,,,,,,,,,,,,,,,,,,,,,,,,,,,,,,
,,,,,,,,,,stimuli/images/PICTURE_677.png,PHOTO,5ed27c0a35a14107c491ffc0,31/12/1951,2020-09-12_08h02.51.999,proactive3.2,2020.1.2,MacIntel,60,5f5adea66120081ea0f57a61,5f5c727a3817c045ea29856c,4,,,,,,map,,,,,,0,2,2,14,1,2,2,,,,,,,,,,,,,,,,,,,,,,,,,,,,,,,,,,,,,,,,,,,,,,,,,,,,,,,,,,,,,,,,,,,,,,,,,,,
,,,,,,,,,,stimuli/images/PICTURE_750.png,POLICY,5ed27c0a35a14107c491ffc0,31/12/1951,2020-09-12_08h02.51.999,proactive3.2,2020.1.2,MacIntel,60,5f5adea66120081ea0f57a61,5f5c727a3817c045ea29856c,4,,,,,,kettle,,,,,,0,3,3,44,1,5,2,,,,,,,,,,,,,,,,,,,,,,,,,,,,,,,,,,,,,,,,,,,,,,,,,,,,,,,,,,,,,,,,,,,,,,,,,,,
,,,,,,,,,,stimuli/images/PICTURE_311.png,TOILET,5ed27c0a35a14107c491ffc0,31/12/1951,2020-09-12_08h02.51.999,proactive3.2,2020.1.2,MacIntel,60,5f5adea66120081ea0f57a61,5f5c727a3817c045ea29856c,4,,,,,,razor,,,,,,0,4,4,54,1,6,2,,,,,,,,,,,,,,,,,,,,,,,,,,,,,,,,,,,,,,,,,,,,,,,,,,,,,,,,,,,,,,,,,,,,,,,,,,,
,,,,,,,,,,stimuli/images/PICTURE_123.png,SALE,5ed27c0a35a14107c491ffc0,31/12/1951,2020-09-12_08h02.51.999,proactive3.2,2020.1.2,MacIntel,60,5f5adea66120081ea0f57a61,5f5c727a3817c045ea29856c,4,,,,,,dart,,,,,,0,5,5,8,1,1,2,,,,,,,,,,,,,,,,,,,,,,,,,,,,,,,,,,,,,,,,,,,,,,,,,,,,,,,,,,,,,,,,,,,,,,,,,,,
,,,,,,,,,,stimuli/images/PICTURE_491.png,SERIES,5ed27c0a35a14107c491ffc0,31/12/1951,2020-09-12_08h02.51.999,proactive3.2,2020.1.2,MacIntel,60,5f5adea66120081ea0f57a61,5f5c727a3817c045ea29856c,4,,,,,,rug,,,,,,0,6,6,39,1,4,2,,,,,,,,,,,,,,,,,,,,,,,,,,,,,,,,,,,,,,,,,,,,,,,,,,,,,,,,,,,,,,,,,,,,,,,,,,,
,,,,,,,,,,stimuli/images/PICTURE_692.png,DUDE,5ed27c0a35a14107c491ffc0,31/12/1951,2020-09-12_08h02.51.999,proactive3.2,2020.1.2,MacIntel,60,5f5adea66120081ea0f57a61,5f5c727a3817c045ea29856c,4,,,,,,cherry,,,,,,0,7,7,47,1,5,2,,,,,,,,,,,,,,,,,,,,,,,,,,,,,,,,,,,,,,,,,,,,,,,,,,,,,,,,,,,,,,,,,,,,,,,,,,,
,,,,,,,,,,stimuli/images/PICTURE_285.png,PRINCE,5ed27c0a35a14107c491ffc0,31/12/1951,2020-09-12_08h02.51.999,proactive3.2,2020.1.2,MacIntel,60,5f5adea66120081ea0f57a61,5f5c727a3817c045ea29856c,4,,,,,,carrot,,,,,,0,8,8,20,1,3,2,,,,,,,,,,,,,,,,,,,,,,,,,,,,,,,,,,,,,,,,,,,,,,,,,,,,,,,,,,,,,,,,,,,,,,,,,,,
,,,,,,,,,,stimuli/images/PICTURE_68.png,KIND,5ed27c0a35a14107c491ffc0,31/12/1951,2020-09-12_08h02.51.999,proactive3.2,2020.1.2,MacIntel,60,5f5adea66120081ea0f57a61,5f5c727a3817c045ea29856c,4,,,,,,candle,,,,,,0,9,9,23,1,3,2,,,,,,,,,,,,,,,,,,,,,,,,,,,,,,,,,,,,,,,,,,,,,,,,,,,,,,,,,,,,,,,,,,,,,,,,,,,
,,,,,,,,,,stimuli/images/PICTURE_177.png,HOUSE,5ed27c0a35a14107c491ffc0,31/12/1951,2020-09-12_08h02.51.999,proactive3.2,2020.1.2,MacIntel,60,5f5adea66120081ea0f57a61,5f5c727a3817c045ea29856c,4,,,,,,mushroom,,,,,,0,10,10,25,1,3,2,,,,,,,,,,,,,,,,,,,,,,,,,,,,,,,,,,,,,,,,,,,,,,,,,,,,,,,,,,,,,,,,,,,,,,,,,,,
,,,,,,,,,,stimuli/images/PICTURE_654.png,YEAR,5ed27c0a35a14107c491ffc0,31/12/1951,2020-09-12_08h02.51.999,proactive3.2,2020.1.2,MacIntel,60,5f5adea66120081ea0f57a61,5f5c727a3817c045ea29856c,4,,,,,,pencil,,,,,,0,11,11,41,1,5,2,,,,,,,,,,,,,,,,,,,,,,,,,,,,,,,,,,,,,,,,,,,,,,,,,,,,,,,,,,,,,,,,,,,,,,,,,,,
,,,,,,,,,,stimuli/images/PICTURE_297.png,BODY,5ed27c0a35a14107c491ffc0,31/12/1951,2020-09-12_08h02.51.999,proactive3.2,2020.1.2,MacIntel,60,5f5adea66120081ea0f57a61,5f5c727a3817c045ea29856c,4,,,,,,aeroplane,,,,,,0,12,12,51,1,6,2,,,,,,,,,,,,,,,,,,,,,,,,,,,,,,,,,,,,,,,,,,,,,,,,,,,,,,,,,,,,,,,,,,,,,,,,,,,
,,,,,,,,,,stimuli/images/PICTURE_487.png,POLICY,5ed27c0a35a14107c491ffc0,31/12/1951,2020-09-12_08h02.51.999,proactive3.2,2020.1.2,MacIntel,60,5f5adea66120081ea0f57a61,5f5c727a3817c045ea29856c,4,,,,,,basket,,,,,,0,13,13,34,1,4,2,,,,,,,,,,,,,,,,,,,,,,,,,,,,,,,,,,,,,,,,,,,,,,,,,,,,,,,,,,,,,,,,,,,,,,,,,,,
,,,,,,,,,,stimuli/images/PICTURE_2.png,AREA,5ed27c0a35a14107c491ffc0,31/12/1951,2020-09-12_08h02.51.999,proactive3.2,2020.1.2,MacIntel,60,5f5adea66120081ea0f57a61,5f5c727a3817c045ea29856c,4,,,,,,tyre,,,,,,0,14,14,32,1,4,2,,,,,,,,,,,,,,,,,,,,,,,,,,,,,,,,,,,,,,,,,,,,,,,,,,,,,,,,,,,,,,,,,,,,,,,,,,,
,,,,,,,,,,stimuli/images/PICTURE_285.png,WRITER,5ed27c0a35a14107c491ffc0,31/12/1951,2020-09-12_08h02.51.999,proactive3.2,2020.1.2,MacIntel,60,5f5adea66120081ea0f57a61,5f5c727a3817c045ea29856c,4,,,,,,carrot,,,,,,0,15,15,6,1,1,2,,,,,,,,,,,,,,,,,,,,,,,,,,,,,,,,,,,,,,,,,,,,,,,,,,,,,,,,,,,,,,,,,,,,,,,,,,,
,,,,,,,,,,stimuli/images/PICTURE_509.png,MILLER,5ed27c0a35a14107c491ffc0,31/12/1951,2020-09-12_08h02.51.999,proactive3.2,2020.1.2,MacIntel,60,5f5adea66120081ea0f57a61,5f5c727a3817c045ea29856c,4,,,,,,telephone,,,,,,0,16,16,49,1,5,2,,,,,,,,,,,,,,,,,,,,,,,,,,,,,,,,,,,,,,,,,,,,,,,,,,,,,,,,,,,,,,,,,,,,,,,,,,,
,,,,,,,,,,stimuli/images/PICTURE_311.png,FLESH,5ed27c0a35a14107c491ffc0,31/12/1951,2020-09-12_08h02.51.999,proactive3.2,2020.1.2,MacIntel,60,5f5adea66120081ea0f57a61,5f5c727a3817c045ea29856c,4,,,,,,razor,,,,,,0,17,17,3,1,1,2,,,,,,,,,,,,,,,,,,,,,,,,,,,,,,,,,,,,,,,,,,,,,,,,,,,,,,,,,,,,,,,,,,,,,,,,,,,
,,,,,,,,,,stimuli/images/PICTURE_93.png,GIRL,5ed27c0a35a14107c491ffc0,31/12/1951,2020-09-12_08h02.51.999,proactive3.2,2020.1.2,MacIntel,60,5f5adea66120081ea0f57a61,5f5c727a3817c045ea29856c,4,,,,,,skateboard,,,,,,0,18,18,31,1,4,2,,,,,,,,,,,,,,,,,,,,,,,,,,,,,,,,,,,,,,,,,,,,,,,,,,,,,,,,,,,,,,,,,,,,,,,,,,,
,,,,,,,,,,stimuli/images/PICTURE_688.png,CLOCK,5ed27c0a35a14107c491ffc0,31/12/1951,2020-09-12_08h02.51.999,proactive3.2,2020.1.2,MacIntel,60,5f5adea66120081ea0f57a61,5f5c727a3817c045ea29856c,4,,,,,,runner,,,,,,0,19,19,42,1,5,2,,,,,,,,,,,,,,,,,,,,,,,,,,,,,,,,,,,,,,,,,,,,,,,,,,,,,,,,,,,,,,,,,,,,,,,,,,,
,,,,,,,,,,stimuli/images/PICTURE_655.png,SALE,5ed27c0a35a14107c491ffc0,31/12/1951,2020-09-12_08h02.51.999,proactive3.2,2020.1.2,MacIntel,60,5f5adea66120081ea0f57a61,5f5c727a3817c045ea29856c,4,,,,,,megaphone,,,,,,0,20,20,57,1,6,2,,,,,,,,,,,,,,,,,,,,,,,,,,,,,,,,,,,,,,,,,,,,,,,,,,,,,,,,,,,,,,,,,,,,,,,,,,,
,,,,,,,,,,stimuli/images/PICTURE_215.png,LEADER,5ed27c0a35a14107c491ffc0,31/12/1951,2020-09-12_08h02.51.999,proactive3.2,2020.1.2,MacIntel,60,5f5adea66120081ea0f57a61,5f5c727a3817c045ea29856c,4,,,,,,boot,,,,,,0,21,21,43,1,5,2,,,,,,,,,,,,,,,,,,,,,,,,,,,,,,,,,,,,,,,,,,,,,,,,,,,,,,,,,,,,,,,,,,,,,,,,,,,
,,,,,,,,,,stimuli/images/PICTURE_57.png,CANDY,5ed27c0a35a14107c491ffc0,31/12/1951,2020-09-12_08h02.51.999,proactive3.2,2020.1.2,MacIntel,60,5f5adea66120081ea0f57a61,5f5c727a3817c045ea29856c,4,,,,,,stamp,,,,,,0,22,22,52,1,6,2,,,,,,,,,,,,,,,,,,,,,,,,,,,,,,,,,,,,,,,,,,,,,,,,,,,,,,,,,,,,,,,,,,,,,,,,,,,
,,,,,,,,,,stimuli/images/PICTURE_405.png,JUNGLE,5ed27c0a35a14107c491ffc0,31/12/1951,2020-09-12_08h02.51.999,proactive3.2,2020.1.2,MacIntel,60,5f5adea66120081ea0f57a61,5f5c727a3817c045ea29856c,4,,,,,,anchor,,,,,,0,23,23,13,1,2,2,,,,,,,,,,,,,,,,,,,,,,,,,,,,,,,,,,,,,,,,,,,,,,,,,,,,,,,,,,,,,,,,,,,,,,,,,,,
,,,,,,,,,,stimuli/images/PICTURE_667.png,GLASS,5ed27c0a35a14107c491ffc0,31/12/1951,2020-09-12_08h02.51.999,proactive3.2,2020.1.2,MacIntel,60,5f5adea66120081ea0f57a61,5f5c727a3817c045ea29856c,4,,,,,,daisy,,,,,,0,24,24,27,1,3,2,,,,,,,,,,,,,,,,,,,,,,,,,,,,,,,,,,,,,,,,,,,,,,,,,,,,,,,,,,,,,,,,,,,,,,,,,,,
,,,,,,,,,,stimuli/images/PICTURE_208.png,SPIRIT,5ed27c0a35a14107c491ffc0,31/12/1951,2020-09-12_08h02.51.999,proactive3.2,2020.1.2,MacIntel,60,5f5adea66120081ea0f57a61,5f5c727a3817c045ea29856c,4,,,,,,microphone,,,,,,0,25,25,28,1,3,2,,,,,,,,,,,,,,,,,,,,,,,,,,,,,,,,,,,,,,,,,,,,,,,,,,,,,,,,,,,,,,,,,,,,,,,,,,,
,,,,,,,,,,stimuli/images/PICTURE_677.png,FAMILY,5ed27c0a35a14107c491ffc0,31/12/1951,2020-09-12_08h02.51.999,proactive3.2,2020.1.2,MacIntel,60,5f5adea66120081ea0f57a61,5f5c727a3817c045ea29856c,4,,,,,,map,,,,,,0,26,26,53,1,6,2,,,,,,,,,,,,,,,,,,,,,,,,,,,,,,,,,,,,,,,,,,,,,,,,,,,,,,,,,,,,,,,,,,,,,,,,,,,
,,,,,,,,,,stimuli/images/PICTURE_453.png,FAMILY,5ed27c0a35a14107c491ffc0,31/12/1951,2020-09-12_08h02.51.999,proactive3.2,2020.1.2,MacIntel,60,5f5adea66120081ea0f57a61,5f5c727a3817c045ea29856c,4,,,,,,scissors,,,,,,0,27,27,48,1,5,2,,,,,,,,,,,,,,,,,,,,,,,,,,,,,,,,,,,,,,,,,,,,,,,,,,,,,,,,,,,,,,,,,,,,,,,,,,,
,,,,,,,,,,stimuli/images/PICTURE_32.png,LETTER,5ed27c0a35a14107c491ffc0,31/12/1951,2020-09-12_08h02.51.999,proactive3.2,2020.1.2,MacIntel,60,5f5adea66120081ea0f57a61,5f5c727a3817c045ea29856c,4,,,,,,crown,,,,,,0,28,28,56,1,6,2,,,,,,,,,,,,,,,,,,,,,,,,,,,,,,,,,,,,,,,,,,,,,,,,,,,,,,,,,,,,,,,,,,,,,,,,,,,
,,,,,,,,,,stimuli/images/PICTURE_296.png,CLOCK,5ed27c0a35a14107c491ffc0,31/12/1951,2020-09-12_08h02.51.999,proactive3.2,2020.1.2,MacIntel,60,5f5adea66120081ea0f57a61,5f5c727a3817c045ea29856c,4,,,,,,bolt,,,,,,0,29,29,18,1,2,2,,,,,,,,,,,,,,,,,,,,,,,,,,,,,,,,,,,,,,,,,,,,,,,,,,,,,,,,,,,,,,,,,,,,,,,,,,,
,,,,,,,,,,stimuli/images/PICTURE_215.png,BOYS,5ed27c0a35a14107c491ffc0,31/12/1951,2020-09-12_08h02.51.999,proactive3.2,2020.1.2,MacIntel,60,5f5adea66120081ea0f57a61,5f5c727a3817c045ea29856c,4,,,,,,boot,,,,,,0,30,30,24,1,3,2,,,,,,,,,,,,,,,,,,,,,,,,,,,,,,,,,,,,,,,,,,,,,,,,,,,,,,,,,,,,,,,,,,,,,,,,,,,
,,,,,,,,,,stimuli/images/PICTURE_2.png,JUNGLE,5ed27c0a35a14107c491ffc0,31/12/1951,2020-09-12_08h02.51.999,proactive3.2,2020.1.2,MacIntel,60,5f5adea66120081ea0f57a61,5f5c727a3817c045ea29856c,4,,,,,,tyre,,,,,,0,31,31,1,1,1,2,,,,,,,,,,,,,,,,,,,,,,,,,,,,,,,,,,,,,,,,,,,,,,,,,,,,,,,,,,,,,,,,,,,,,,,,,,,
,,,,,,,,,,stimuli/images/PICTURE_405.png,JUNGLE,5ed27c0a35a14107c491ffc0,31/12/1951,2020-09-12_08h02.51.999,proactive3.2,2020.1.2,MacIntel,60,5f5adea66120081ea0f57a61,5f5c727a3817c045ea29856c,4,,,,,,anchor,,,,,,0,32,32,58,1,6,2,,,,,,,,,,,,,,,,,,,,,,,,,,,,,,,,,,,,,,,,,,,,,,,,,,,,,,,,,,,,,,,,,,,,,,,,,,,
,,,,,,,,,,stimuli/images/PICTURE_708.png,VALLEY,5ed27c0a35a14107c491ffc0,31/12/1951,2020-09-12_08h02.51.999,proactive3.2,2020.1.2,MacIntel,60,5f5adea66120081ea0f57a61,5f5c727a3817c045ea29856c,4,,,,,,monkey,,,,,,0,33,33,45,1,5,2,,,,,,,,,,,,,,,,,,,,,,,,,,,,,,,,,,,,,,,,,,,,,,,,,,,,,,,,,,,,,,,,,,,,,,,,,,,
,,,,,,,,,,stimuli/images/PICTURE_255.png,PENNY,5ed27c0a35a14107c491ffc0,31/12/1951,2020-09-12_08h02.51.999,proactive3.2,2020.1.2,MacIntel,60,5f5adea66120081ea0f57a61,5f5c727a3817c045ea29856c,4,,,,,,shovel,,,,,,0,34,34,19,1,2,2,,,,,,,,,,,,,,,,,,,,,,,,,,,,,,,,,,,,,,,,,,,,,,,,,,,,,,,,,,,,,,,,,,,,,,,,,,,
,,,,,,,,,,stimuli/images/PICTURE_314.png,SPEECH,5ed27c0a35a14107c491ffc0,31/12/1951,2020-09-12_08h02.51.999,proactive3.2,2020.1.2,MacIntel,60,5f5adea66120081ea0f57a61,5f5c727a3817c045ea29856c,4,,,,,,perfume,,,,,,0,35,35,35,1,4,2,,,,,,,,,,,,,,,,,,,,,,,,,,,,,,,,,,,,,,,,,,,,,,,,,,,,,,,,,,,,,,,,,,,,,,,,,,,
,,,,,,,,,,stimuli/images/PICTURE_405.png,HOUSE,5ed27c0a35a14107c491ffc0,31/12/1951,2020-09-12_08h02.51.999,proactive3.2,2020.1.2,MacIntel,60,5f5adea66120081ea0f57a61,5f5c727a3817c045ea29856c,4,,,,,,anchor,,,,,,0,36,36,2,1,1,2,,,,,,,,,,,,,,,,,,,,,,,,,,,,,,,,,,,,,,,,,,,,,,,,,,,,,,,,,,,,,,,,,,,,,,,,,,,
,,,,,,,,,,stimuli/images/PICTURE_509.png,SHOTS,5ed27c0a35a14107c491ffc0,31/12/1951,2020-09-12_08h02.51.999,proactive3.2,2020.1.2,MacIntel,60,5f5adea66120081ea0f57a61,5f5c727a3817c045ea29856c,4,,,,,,telephone,,,,,,0,37,37,7,1,1,2,,,,,,,,,,,,,,,,,,,,,,,,,,,,,,,,,,,,,,,,,,,,,,,,,,,,,,,,,,,,,,,,,,,,,,,,,,,
,,,,,,,,,,stimuli/images/PICTURE_327.png,LEADER,5ed27c0a35a14107c491ffc0,31/12/1951,2020-09-12_08h02.51.999,proactive3.2,2020.1.2,MacIntel,60,5f5adea66120081ea0f57a61,5f5c727a3817c045ea29856c,4,,,,,,helmet,,,,,,0,38,38,17,1,2,2,,,,,,,,,,,,,,,,,,,,,,,,,,,,,,,,,,,,,,,,,,,,,,,,,,,,,,,,,,,,,,,,,,,,,,,,,,,
,,,,,,,,,,stimuli/images/PICTURE_348.png,TOILET,5ed27c0a35a14107c491ffc0,31/12/1951,2020-09-12_08h02.51.999,proactive3.2,2020.1.2,MacIntel,60,5f5adea66120081ea0f57a61,5f5c727a3817c045ea29856c,4,,,,,,pepper,,,,,,0,39,39,4,1,1,2,,,,,,,,,,,,,,,,,,,,,,,,,,,,,,,,,,,,,,,,,,,,,,,,,,,,,,,,,,,,,,,,,,,,,,,,,,,
,,,,,,,,,,stimuli/images/PICTURE_160.png,HOTEL,5ed27c0a35a14107c491ffc0,31/12/1951,2020-09-12_08h02.51.999,proactive3.2,2020.1.2,MacIntel,60,5f5adea66120081ea0f57a61,5f5c727a3817c045ea29856c,4,,,,,,wheelbarrow,,,,,,0,40,40,16,1,2,2,,,,,,,,,,,,,,,,,,,,,,,,,,,,,,,,,,,,,,,,,,,,,,,,,,,,,,,,,,,,,,,,,,,,,,,,,,,
,,,,,,,,,,stimuli/images/PICTURE_57.png,CASINO,5ed27c0a35a14107c491ffc0,31/12/1951,2020-09-12_08h02.51.999,proactive3.2,2020.1.2,MacIntel,60,5f5adea66120081ea0f57a61,5f5c727a3817c045ea29856c,4,,,,,,stamp,,,,,,0,41,41,12,1,2,2,,,,,,,,,,,,,,,,,,,,,,,,,,,,,,,,,,,,,,,,,,,,,,,,,,,,,,,,,,,,,,,,,,,,,,,,,,,
,,,,,,,,,,stimuli/images/PICTURE_403.png,FAMILY,5ed27c0a35a14107c491ffc0,31/12/1951,2020-09-12_08h02.51.999,proactive3.2,2020.1.2,MacIntel,60,5f5adea66120081ea0f57a61,5f5c727a3817c045ea29856c,4,,,,,,cathedral,,,,,,0,42,42,9,1,1,2,,,,,,,,,,,,,,,,,,,,,,,,,,,,,,,,,,,,,,,,,,,,,,,,,,,,,,,,,,,,,,,,,,,,,,,,,,,
,,,,,,,,,,stimuli/images/PICTURE_509.png,BATH,5ed27c0a35a14107c491ffc0,31/12/1951,2020-09-12_08h02.51.999,proactive3.2,2020.1.2,MacIntel,60,5f5adea66120081ea0f57a61,5f5c727a3817c045ea29856c,4,,,,,,telephone,,,,,,0,43,43,15,1,2,2,,,,,,,,,,,,,,,,,,,,,,,,,,,,,,,,,,,,,,,,,,,,,,,,,,,,,,,,,,,,,,,,,,,,,,,,,,,
,,,,,,,,,,stimuli/images/PICTURE_356.png,CANDY,5ed27c0a35a14107c491ffc0,31/12/1951,2020-09-12_08h02.51.999,proactive3.2,2020.1.2,MacIntel,60,5f5adea66120081ea0f57a61,5f5c727a3817c045ea29856c,4,,,,,,pawn,,,,,,0,44,44,46,1,5,2,,,,,,,,,,,,,,,,,,,,,,,,,,,,,,,,,,,,,,,,,,,,,,,,,,,,,,,,,,,,,,,,,,,,,,,,,,,
,,,,,,,,,,stimuli/images/PICTURE_654.png,COPS,5ed27c0a35a14107c491ffc0,31/12/1951,2020-09-12_08h02.51.999,proactive3.2,2020.1.2,MacIntel,60,5f5adea66120081ea0f57a61,5f5c727a3817c045ea29856c,4,,,,,,pencil,,,,,,0,45,45,10,1,2,2,,,,,,,,,,,,,,,,,,,,,,,,,,,,,,,,,,,,,,,,,,,,,,,,,,,,,,,,,,,,,,,,,,,,,,,,,,,
,,,,,,,,,,stimuli/images/PICTURE_470.png,BEAUTY,5ed27c0a35a14107c491ffc0,31/12/1951,2020-09-12_08h02.51.999,proactive3.2,2020.1.2,MacIntel,60,5f5adea66120081ea0f57a61,5f5c727a3817c045ea29856c,4,,,,,,motorbike,,,,,,0,46,46,26,1,3,2,,,,,,,,,,,,,,,,,,,,,,,,,,,,,,,,,,,,,,,,,,,,,,,,,,,,,,,,,,,,,,,,,,,,,,,,,,,
,,,,,,,,,,stimuli/images/PICTURE_470.png,MOMENT,5ed27c0a35a14107c491ffc0,31/12/1951,2020-09-12_08h02.51.999,proactive3.2,2020.1.2,MacIntel,60,5f5adea66120081ea0f57a61,5f5c727a3817c045ea29856c,4,,,,,,motorbike,,,,,,0,47,47,40,1,5,2,,,,,,,,,,,,,,,,,,,,,,,,,,,,,,,,,,,,,,,,,,,,,,,,,,,,,,,,,,,,,,,,,,,,,,,,,,,
,,,,,,,,,,stimuli/images/PICTURE_348.png,DUDE,5ed27c0a35a14107c491ffc0,31/12/1951,2020-09-12_08h02.51.999,proactive3.2,2020.1.2,MacIntel,60,5f5adea66120081ea0f57a61,5f5c727a3817c045ea29856c,4,,,,,,pepper,,,,,,0,48,48,59,1,6,2,,,,,,,,,,,,,,,,,,,,,,,,,,,,,,,,,,,,,,,,,,,,,,,,,,,,,,,,,,,,,,,,,,,,,,,,,,,
,,,,,,,,,,stimuli/images/PICTURE_509.png,APPLE,5ed27c0a35a14107c491ffc0,31/12/1951,2020-09-12_08h02.51.999,proactive3.2,2020.1.2,MacIntel,60,5f5adea66120081ea0f57a61,5f5c727a3817c045ea29856c,4,,,,,,telephone,,,,,,0,49,49,38,1,4,2,,,,,,,,,,,,,,,,,,,,,,,,,,,,,,,,,,,,,,,,,,,,,,,,,,,,,,,,,,,,,,,,,,,,,,,,,,,
,,,,,,,,,,stimuli/images/PICTURE_487.png,ROOF,5ed27c0a35a14107c491ffc0,31/12/1951,2020-09-12_08h02.51.999,proactive3.2,2020.1.2,MacIntel,60,5f5adea66120081ea0f57a61,5f5c727a3817c045ea29856c,4,,,,,,basket,,,,,,0,50,50,50,1,6,2,,,,,,,,,,,,,,,,,,,,,,,,,,,,,,,,,,,,,,,,,,,,,,,,,,,,,,,,,,,,,,,,,,,,,,,,,,,
,,,,,,,,,,stimuli/images/PICTURE_564.png,PLENTY,5ed27c0a35a14107c491ffc0,31/12/1951,2020-09-12_08h02.51.999,proactive3.2,2020.1.2,MacIntel,60,5f5adea66120081ea0f57a61,5f5c727a3817c045ea29856c,4,,,,,,spoon,,,,,,0,51,51,11,1,2,2,,,,,,,,,,,,,,,,,,,,,,,,,,,,,,,,,,,,,,,,,,,,,,,,,,,,,,,,,,,,,,,,,,,,,,,,,,,
,,,,,,,,,,stimuli/images/PICTURE_2.png,YARD,5ed27c0a35a14107c491ffc0,31/12/1951,2020-09-12_08h02.51.999,proactive3.2,2020.1.2,MacIntel,60,5f5adea66120081ea0f57a61,5f5c727a3817c045ea29856c,4,,,,,,tyre,,,,,,0,52,52,55,1,6,2,,,,,,,,,,,,,,,,,,,,,,,,,,,,,,,,,,,,,,,,,,,,,,,,,,,,,,,,,,,,,,,,,,,,,,,,,,,
,,,,,,,,,,stimuli/images/PICTURE_504.png,HOUSE,5ed27c0a35a14107c491ffc0,31/12/1951,2020-09-12_08h02.51.999,proactive3.2,2020.1.2,MacIntel,60,5f5adea66120081ea0f57a61,5f5c727a3817c045ea29856c,4,,,,,,wheel,,,,,,0,53,53,36,1,4,2,,,,,,,,,,,,,,,,,,,,,,,,,,,,,,,,,,,,,,,,,,,,,,,,,,,,,,,,,,,,,,,,,,,,,,,,,,,
,,,,,,,,,,stimuli/images/PICTURE_18.png,RIVER,5ed27c0a35a14107c491ffc0,31/12/1951,2020-09-12_08h02.51.999,proactive3.2,2020.1.2,MacIntel,60,5f5adea66120081ea0f57a61,5f5c727a3817c045ea29856c,4,,,,,,planet,,,,,,0,54,54,22,1,3,2,,,,,,,,,,,,,,,,,,,,,,,,,,,,,,,,,,,,,,,,,,,,,,,,,,,,,,,,,,,,,,,,,,,,,,,,,,,
,,,,,,,,,,stimuli/images/PICTURE_33.png,COPS,5ed27c0a35a14107c491ffc0,31/12/1951,2020-09-12_08h02.51.999,proactive3.2,2020.1.2,MacIntel,60,5f5adea66120081ea0f57a61,5f5c727a3817c045ea29856c,4,,,,,,frame,,,,,,0,55,55,29,1,3,2,,,,,,,,,,,,,,,,,,,,,,,,,,,,,,,,,,,,,,,,,,,,,,,,,,,,,,,,,,,,,,,,,,,,,,,,,,,
,,,,,,,,,,stimuli/images/PICTURE_215.png,FOOD,5ed27c0a35a14107c491ffc0,31/12/1951,2020-09-12_08h02.51.999,proactive3.2,2020.1.2,MacIntel,60,5f5adea66120081ea0f57a61,5f5c727a3817c045ea29856c,4,,,,,,boot,,,,,,0,56,56,5,1,1,2,,,,,,,,,,,,,,,,,,,,,,,,,,,,,,,,,,,,,,,,,,,,,,,,,,,,,,,,,,,,,,,,,,,,,,,,,,,
,,,,,,,,,,stimuli/images/PICTURE_452.png,COPS,5ed27c0a35a14107c491ffc0,31/12/1951,2020-09-12_08h02.51.999,proactive3.2,2020.1.2,MacIntel,60,5f5adea66120081ea0f57a61,5f5c727a3817c045ea29856c,4,,,,,,watch,,,,,,0,57,57,0,1,1,2,,,,,,,,,,,,,,,,,,,,,,,,,,,,,,,,,,,,,,,,,,,,,,,,,,,,,,,,,,,,,,,,,,,,,,,,,,,
,,,,,,,,,,stimuli/images/PICTURE_141.png,CLIENT,5ed27c0a35a14107c491ffc0,31/12/1951,2020-09-12_08h02.51.999,proactive3.2,2020.1.2,MacIntel,60,5f5adea66120081ea0f57a61,5f5c727a3817c045ea29856c,4,,,,,,sunflower,,,,,,0,58,58,30,1,4,2,,,,,,,,,,,,,,,,,,,,,,,,,,,,,,,,,,,,,,,,,,,,,,,,,,,,,,,,,,,,,,,,,,,,,,,,,,,
,,L,4.274,0,,,,,,stimuli/images/PICTURE_141.png,CLIENT,5ed27c0a35a14107c491ffc0,31/12/1951,2020-09-12_08h02.51.999,proactive3.2,2020.1.2,MacIntel,60,5f5adea66120081ea0f57a61,5f5c727a3817c045ea29856c,4,,,,,,sunflower,,,,,,,,,,,4,2,0,0,0,30,1,,,,,,,,,,,,,,,,,,,,,,,,,,,,,,,,,,,,,,,,,,,,,,,,,,,,,,,,,,,,,,,,,,,,,,
,,?,0.008,0,,,,,,stimuli/images/PICTURE_487.png,ROOF,5ed27c0a35a14107c491ffc0,31/12/1951,2020-09-12_08h02.51.999,proactive3.2,2020.1.2,MacIntel,60,5f5adea66120081ea0f57a61,5f5c727a3817c045ea29856c,4,,,,,,basket,,,,,,,,,,,6,2,0,1,1,50,1,,,,,,,,,,,,,,,,,,,,,,,,,,,,,,,,,,,,,,,,,,,,,,,,,,,,,,,,,,,,,,,,,,,,,,
,,?,0.002,0,,,,,,stimuli/images/PICTURE_654.png,YEAR,5ed27c0a35a14107c491ffc0,31/12/1951,2020-09-12_08h02.51.999,proactive3.2,2020.1.2,MacIntel,60,5f5adea66120081ea0f57a61,5f5c727a3817c045ea29856c,4,,,,,,pencil,,,,,,,,,,,5,2,0,2,2,41,1,,,,,,,,,,,,,,,,,,,,,,,,,,,,,,,,,,,,,,,,,,,,,,,,,,,,,,,,,,,,,,,,,,,,,,
,,?,0.002,0,,,,,,stimuli/images/PICTURE_311.png,TOILET,5ed27c0a35a14107c491ffc0,31/12/1951,2020-09-12_08h02.51.999,proactive3.2,2020.1.2,MacIntel,60,5f5adea66120081ea0f57a61,5f5c727a3817c045ea29856c,4,,,,,,razor,,,,,,,,,,,6,2,0,3,3,54,1,,,,,,,,,,,,,,,,,,,,,,,,,,,,,,,,,,,,,,,,,,,,,,,,,,,,,,,,,,,,,,,,,,,,,,
,,?,0.002,0,,,,,,stimuli/images/PICTURE_654.png,COPS,5ed27c0a35a14107c491ffc0,31/12/1951,2020-09-12_08h02.51.999,proactive3.2,2020.1.2,MacIntel,60,5f5adea66120081ea0f57a61,5f5c727a3817c045ea29856c,4,,,,,,pencil,,,,,,,,,,,2,2,0,4,4,10,1,,,,,,,,,,,,,,,,,,,,,,,,,,,,,,,,,,,,,,,,,,,,,,,,,,,,,,,,,,,,,,,,,,,,,,
,,?,0.002,0,,,,,,stimuli/images/PICTURE_255.png,PENNY,5ed27c0a35a14107c491ffc0,31/12/1951,2020-09-12_08h02.51.999,proactive3.2,2020.1.2,MacIntel,60,5f5adea66120081ea0f57a61,5f5c727a3817c045ea29856c,4,,,,,,shovel,,,,,,,,,,,2,2,0,5,5,19,1,,,,,,,,,,,,,,,,,,,,,,,,,,,,,,,,,,,,,,,,,,,,,,,,,,,,,,,,,,,,,,,,,,,,,,
,,?,0.001,0,,,,,,stimuli/images/PICTURE_57.png,NATION,5ed27c0a35a14107c491ffc0,31/12/1951,2020-09-12_08h02.51.999,proactive3.2,2020.1.2,MacIntel,60,5f5adea66120081ea0f57a61,5f5c727a3817c045ea29856c,4,,,,,,stamp,,,,,,,,,,,3,2,0,6,6,21,1,,,,,,,,,,,,,,,,,,,,,,,,,,,,,,,,,,,,,,,,,,,,,,,,,,,,,,,,,,,,,,,,,,,,,,
,,GIRL,7.379,0,,,,,,stimuli/images/PICTURE_491.png,SERIES,5ed27c0a35a14107c491ffc0,31/12/1951,2020-09-12_08h02.51.999,proactive3.2,2020.1.2,MacIntel,60,5f5adea66120081ea0f57a61,5f5c727a3817c045ea29856c,4,,,,,,rug,,,,,,,,,,,4,2,0,7,7,39,1,,,,,,,,,,,,,,,,,,,,,,,,,,,,,,,,,,,,,,,,,,,,,,,,,,,,,,,,,,,,,,,,,,,,,,
,,?,0.004,0,,,,,,stimuli/images/PICTURE_405.png,HOUSE,5ed27c0a35a14107c491ffc0,31/12/1951,2020-09-12_08h02.51.999,proactive3.2,2020.1.2,MacIntel,60,5f5adea66120081ea0f57a61,5f5c727a3817c045ea29856c,4,,,,,,anchor,,,,,,,,,,,1,2,0,8,8,2,1,,,,,,,,,,,,,,,,,,,,,,,,,,,,,,,,,,,,,,,,,,,,,,,,,,,,,,,,,,,,,,,,,,,,,,
,,?,0.003,0,,,,,,stimuli/images/PICTURE_285.png,PRINCE,5ed27c0a35a14107c491ffc0,31/12/1951,2020-09-12_08h02.51.999,proactive3.2,2020.1.2,MacIntel,60,5f5adea66120081ea0f57a61,5f5c727a3817c045ea29856c,4,,,,,,carrot,,,,,,,,,,,3,2,0,9,9,20,1,,,,,,,,,,,,,,,,,,,,,,,,,,,,,,,,,,,,,,,,,,,,,,,,,,,,,,,,,,,,,,,,,,,,,,
,,?,0.002,0,,,,,,stimuli/images/PICTURE_57.png,CANDY,5ed27c0a35a14107c491ffc0,31/12/1951,2020-09-12_08h02.51.999,proactive3.2,2020.1.2,MacIntel,60,5f5adea66120081ea0f57a61,5f5c727a3817c045ea29856c,4,,,,,,stamp,,,,,,,,,,,6,2,0,10,10,52,1,,,,,,,,,,,,,,,,,,,,,,,,,,,,,,,,,,,,,,,,,,,,,,,,,,,,,,,,,,,,,,,,,,,,,,
,,?,0.003,0,,,,,,stimuli/images/PICTURE_564.png,PLENTY,5ed27c0a35a14107c491ffc0,31/12/1951,2020-09-12_08h02.51.999,proactive3.2,2020.1.2,MacIntel,60,5f5adea66120081ea0f57a61,5f5c727a3817c045ea29856c,4,,,,,,spoon,,,,,,,,,,,2,2,0,11,11,11,1,,,,,,,,,,,,,,,,,,,,,,,,,,,,,,,,,,,,,,,,,,,,,,,,,,,,,,,,,,,,,,,,,,,,,,
,,?,0.002,0,,,,,,stimuli/images/PICTURE_750.png,POLICY,5ed27c0a35a14107c491ffc0,31/12/1951,2020-09-12_08h02.51.999,proactive3.2,2020.1.2,MacIntel,60,5f5adea66120081ea0f57a61,5f5c727a3817c045ea29856c,4,,,,,,kettle,,,,,,,,,,,5,2,0,12,12,44,1,,,,,,,,,,,,,,,,,,,,,,,,,,,,,,,,,,,,,,,,,,,,,,,,,,,,,,,,,,,,,,,,,,,,,,
,,?,0.002,0,,,,,,stimuli/images/PICTURE_452.png,COPS,5ed27c0a35a14107c491ffc0,31/12/1951,2020-09-12_08h02.51.999,proactive3.2,2020.1.2,MacIntel,60,5f5adea66120081ea0f57a61,5f5c727a3817c045ea29856c,4,,,,,,watch,,,,,,,,,,,1,2,0,13,13,0,1,,,,,,,,,,,,,,,,,,,,,,,,,,,,,,,,,,,,,,,,,,,,,,,,,,,,,,,,,,,,,,,,,,,,,,
,,GIRL,6.534,0,,,,,,stimuli/images/PICTURE_95.png,NIGHT,5ed27c0a35a14107c491ffc0,31/12/1951,2020-09-12_08h02.51.999,proactive3.2,2020.1.2,MacIntel,60,5f5adea66120081ea0f57a61,5f5c727a3817c045ea29856c,4,,,,,,suitcase,,,,,,,,,,,4,2,0,14,14,37,1,,,,,,,,,,,,,,,,,,,,,,,,,,,,,,,,,,,,,,,,,,,,,,,,,,,,,,,,,,,,,,,,,,,,,,
,,?,0.003,0,,,,,,stimuli/images/PICTURE_655.png,SALE,5ed27c0a35a14107c491ffc0,31/12/1951,2020-09-12_08h02.51.999,proactive3.2,2020.1.2,MacIntel,60,5f5adea66120081ea0f57a61,5f5c727a3817c045ea29856c,4,,,,,,megaphone,,,,,,,,,,,6,2,0,15,15,57,1,,,,,,,,,,,,,,,,,,,,,,,,,,,,,,,,,,,,,,,,,,,,,,,,,,,,,,,,,,,,,,,,,,,,,,
,,?,0.003,0,,,,,,stimuli/images/PICTURE_692.png,DUDE,5ed27c0a35a14107c491ffc0,31/12/1951,2020-09-12_08h02.51.999,proactive3.2,2020.1.2,MacIntel,60,5f5adea66120081ea0f57a61,5f5c727a3817c045ea29856c,4,,,,,,cherry,,,,,,,,,,,5,2,0,16,16,47,1,,,,,,,,,,,,,,,,,,,,,,,,,,,,,,,,,,,,,,,,,,,,,,,,,,,,,,,,,,,,,,,,,,,,,,
,,?,0.002,0,,,,,,stimuli/images/PICTURE_677.png,FAMILY,5ed27c0a35a14107c491ffc0,31/12/1951,2020-09-12_08h02.51.999,proactive3.2,2020.1.2,MacIntel,60,5f5adea66120081ea0f57a61,5f5c727a3817c045ea29856c,4,,,,,,map,,,,,,,,,,,6,2,0,17,17,53,1,,,,,,,,,,,,,,,,,,,,,,,,,,,,,,,,,,,,,,,,,,,,,,,,,,,,,,,,,,,,,,,,,,,,,,
,,?,0.002,0,,,,,,stimuli/images/PICTURE_509.png,SHOTS,5ed27c0a35a14107c491ffc0,31/12/1951,2020-09-12_08h02.51.999,proactive3.2,2020.1.2,MacIntel,60,5f5adea66120081ea0f57a61,5f5c727a3817c045ea29856c,4,,,,,,telephone,,,,,,,,,,,1,2,0,18,18,7,1,,,,,,,,,,,,,,,,,,,,,,,,,,,,,,,,,,,,,,,,,,,,,,,,,,,,,,,,,,,,,,,,,,,,,,
,,?,0.002,0,,,,,,stimuli/images/PICTURE_470.png,BEAUTY,5ed27c0a35a14107c491ffc0,31/12/1951,2020-09-12_08h02.51.999,proactive3.2,2020.1.2,MacIntel,60,5f5adea66120081ea0f57a61,5f5c727a3817c045ea29856c,4,,,,,,motorbike,,,,,,,,,,,3,2,0,19,19,26,1,,,,,,,,,,,,,,,,,,,,,,,,,,,,,,,,,,,,,,,,,,,,,,,,,,,,,,,,,,,,,,,,,,,,,,
,,?,0.002,0,,,,,,stimuli/images/PICTURE_285.png,WRITER,5ed27c0a35a14107c491ffc0,31/12/1951,2020-09-12_08h02.51.999,proactive3.2,2020.1.2,MacIntel,60,5f5adea66120081ea0f57a61,5f5c727a3817c045ea29856c,4,,,,,,carrot,,,,,,,,,,,1,2,0,20,20,6,1,,,,,,,,,,,,,,,,,,,,,,,,,,,,,,,,,,,,,,,,,,,,,,,,,,,,,,,,,,,,,,,,,,,,,,
,,?,0.002,0,,,,,,stimuli/images/PICTURE_123.png,SALE,5ed27c0a35a14107c491ffc0,31/12/1951,2020-09-12_08h02.51.999,proactive3.2,2020.1.2,MacIntel,60,5f5adea66120081ea0f57a61,5f5c727a3817c045ea29856c,4,,,,,,dart,,,,,,,,,,,1,2,0,21,21,8,1,,,,,,,,,,,,,,,,,,,,,,,,,,,,,,,,,,,,,,,,,,,,,,,,,,,,,,,,,,,,,,,,,,,,,,
,,?,0.002,0,,,,,,stimuli/images/PICTURE_215.png,BOYS,5ed27c0a35a14107c491ffc0,31/12/1951,2020-09-12_08h02.51.999,proactive3.2,2020.1.2,MacIntel,60,5f5adea66120081ea0f57a61,5f5c727a3817c045ea29856c,4,,,,,,boot,,,,,,,,,,,3,2,0,22,22,24,1,,,,,,,,,,,,,,,,,,,,,,,,,,,,,,,,,,,,,,,,,,,,,,,,,,,,,,,,,,,,,,,,,,,,,,
,,LEADER,6.749,1,,,,,,stimuli/images/PICTURE_147.png,LEADER,5ed27c0a35a14107c491ffc0,31/12/1951,2020-09-12_08h02.51.999,proactive3.2,2020.1.2,MacIntel,60,5f5adea66120081ea0f57a61,5f5c727a3817c045ea29856c,4,,,,,,hanger,,,,,,,,,,,4,2,0,23,23,33,1,,,,,,,,,,,,,,,,,,,,,,,,,,,,,,,,,,,,,,,,,,,,,,,,,,,,,,,,,,,,,,,,,,,,,,
,,?,0.004,0,,,,,,stimuli/images/PICTURE_57.png,CASINO,5ed27c0a35a14107c491ffc0,31/12/1951,2020-09-12_08h02.51.999,proactive3.2,2020.1.2,MacIntel,60,5f5adea66120081ea0f57a61,5f5c727a3817c045ea29856c,4,,,,,,stamp,,,,,,,,,,,2,2,0,24,24,12,1,,,,,,,,,,,,,,,,,,,,,,,,,,,,,,,,,,,,,,,,,,,,,,,,,,,,,,,,,,,,,,,,,,,,,,
,,?,0.003,0,,,,,,stimuli/images/PICTURE_708.png,VALLEY,5ed27c0a35a14107c491ffc0,31/12/1951,2020-09-12_08h02.51.999,proactive3.2,2020.1.2,MacIntel,60,5f5adea66120081ea0f57a61,5f5c727a3817c045ea29856c,4,,,,,,monkey,,,,,,,,,,,5,2,0,25,25,45,1,,,,,,,,,,,,,,,,,,,,,,,,,,,,,,,,,,,,,,,,,,,,,,,,,,,,,,,,,,,,,,,,,,,,,,
,,GHHGHHHHHHH,5.344,0,,,,,,stimuli/images/PICTURE_2.png,AREA,5ed27c0a35a14107c491ffc0,31/12/1951,2020-09-12_08h02.51.999,proactive3.2,2020.1.2,MacIntel,60,5f5adea66120081ea0f57a61,5f5c727a3817c045ea29856c,4,,,,,,tyre,,,,,,,,,,,4,2,0,26,26,32,1,,,,,,,,,,,,,,,,,,,,,,,,,,,,,,,,,,,,,,,,,,,,,,,,,,,,,,,,,,,,,,,,,,,,,,
,,?,0.003,0,,,,,,stimuli/images/PICTURE_356.png,CANDY,5ed27c0a35a14107c491ffc0,31/12/1951,2020-09-12_08h02.51.999,proactive3.2,2020.1.2,MacIntel,60,5f5adea66120081ea0f57a61,5f5c727a3817c045ea29856c,4,,,,,,pawn,,,,,,,,,,,5,2,0,27,27,46,1,,,,,,,,,,,,,,,,,,,,,,,,,,,,,,,,,,,,,,,,,,,,,,,,,,,,,,,,,,,,,,,,,,,,,,
,,?,0.003,0,,,,,,stimuli/images/PICTURE_405.png,JUNGLE,5ed27c0a35a14107c491ffc0,31/12/1951,2020-09-12_08h02.51.999,proactive3.2,2020.1.2,MacIntel,60,5f5adea66120081ea0f57a61,5f5c727a3817c045ea29856c,4,,,,,,anchor,,,,,,,,,,,2,2,0,28,28,13,1,,,,,,,,,,,,,,,,,,,,,,,,,,,,,,,,,,,,,,,,,,,,,,,,,,,,,,,,,,,,,,,,,,,,,,
,,?,0.003,0,,,,,,stimuli/images/PICTURE_348.png,TOILET,5ed27c0a35a14107c491ffc0,31/12/1951,2020-09-12_08h02.51.999,proactive3.2,2020.1.2,MacIntel,60,5f5adea66120081ea0f57a61,5f5c727a3817c045ea29856c,4,,,,,,pepper,,,,,,,,,,,1,2,0,29,29,4,1,,,,,,,,,,,,,,,,,,,,,,,,,,,,,,,,,,,,,,,,,,,,,,,,,,,,,,,,,,,,,,,,,,,,,,
,,?,0.002,0,,,,,,stimuli/images/PICTURE_509.png,MILLER,5ed27c0a35a14107c491ffc0,31/12/1951,2020-09-12_08h02.51.999,proactive3.2,2020.1.2,MacIntel,60,5f5adea66120081ea0f57a61,5f5c727a3817c045ea29856c,4,,,,,,telephone,,,,,,,,,,,5,2,0,30,30,49,1,,,,,,,,,,,,,,,,,,,,,,,,,,,,,,,,,,,,,,,,,,,,,,,,,,,,,,,,,,,,,,,,,,,,,,
,,?,0.001,0,,,,,,stimuli/images/PICTURE_297.png,BODY,5ed27c0a35a14107c491ffc0,31/12/1951,2020-09-12_08h02.51.999,proactive3.2,2020.1.2,MacIntel,60,5f5adea66120081ea0f57a61,5f5c727a3817c045ea29856c,4,,,,,,aeroplane,,,,,,,,,,,6,2,0,31,31,51,1,,,,,,,,,,,,,,,,,,,,,,,,,,,,,,,,,,,,,,,,,,,,,,,,,,,,,,,,,,,,,,,,,,,,,,
,,?,0.001,0,,,,,,stimuli/images/PICTURE_348.png,DUDE,5ed27c0a35a14107c491ffc0,31/12/1951,2020-09-12_08h02.51.999,proactive3.2,2020.1.2,MacIntel,60,5f5adea66120081ea0f57a61,5f5c727a3817c045ea29856c,4,,,,,,pepper,,,,,,,,,,,6,2,0,32,32,59,1,,,,,,,,,,,,,,,,,,,,,,,,,,,,,,,,,,,,,,,,,,,,,,,,,,,,,,,,,,,,,,,,,,,,,,
,,GIRL,9.219,0,,,,,,stimuli/images/PICTURE_487.png,POLICY,5ed27c0a35a14107c491ffc0,31/12/1951,2020-09-12_08h02.51.999,proactive3.2,2020.1.2,MacIntel,60,5f5adea66120081ea0f57a61,5f5c727a3817c045ea29856c,4,,,,,,basket,,,,,,,,,,,4,2,0,33,33,34,1,,,,,,,,,,,,,,,,,,,,,,,,,,,,,,,,,,,,,,,,,,,,,,,,,,,,,,,,,,,,,,,,,,,,,,
,,?,2.074,0,,,,,,stimuli/images/PICTURE_93.png,GIRL,5ed27c0a35a14107c491ffc0,31/12/1951,2020-09-12_08h02.51.999,proactive3.2,2020.1.2,MacIntel,60,5f5adea66120081ea0f57a61,5f5c727a3817c045ea29856c,4,,,,,,skateboard,,,,,,,,,,,4,2,0,34,34,31,1,,,,,,,,,,,,,,,,,,,,,,,,,,,,,,,,,,,,,,,,,,,,,,,,,,,,,,,,,,,,,,,,,,,,,,
,,?,0.004,0,,,,,,stimuli/images/PICTURE_453.png,FAMILY,5ed27c0a35a14107c491ffc0,31/12/1951,2020-09-12_08h02.51.999,proactive3.2,2020.1.2,MacIntel,60,5f5adea66120081ea0f57a61,5f5c727a3817c045ea29856c,4,,,,,,scissors,,,,,,,,,,,5,2,0,35,35,48,1,,,,,,,,,,,,,,,,,,,,,,,,,,,,,,,,,,,,,,,,,,,,,,,,,,,,,,,,,,,,,,,,,,,,,,
,,?,0.002,0,,,,,,stimuli/images/PICTURE_2.png,YARD,5ed27c0a35a14107c491ffc0,31/12/1951,2020-09-12_08h02.51.999,proactive3.2,2020.1.2,MacIntel,60,5f5adea66120081ea0f57a61,5f5c727a3817c045ea29856c,4,,,,,,tyre,,,,,,,,,,,6,2,0,36,36,55,1,,,,,,,,,,,,,,,,,,,,,,,,,,,,,,,,,,,,,,,,,,,,,,,,,,,,,,,,,,,,,,,,,,,,,,
,,?,0.002,0,,,,,,stimuli/images/PICTURE_296.png,CLOCK,5ed27c0a35a14107c491ffc0,31/12/1951,2020-09-12_08h02.51.999,proactive3.2,2020.1.2,MacIntel,60,5f5adea66120081ea0f57a61,5f5c727a3817c045ea29856c,4,,,,,,bolt,,,,,,,,,,,2,2,0,37,37,18,1,,,,,,,,,,,,,,,,,,,,,,,,,,,,,,,,,,,,,,,,,,,,,,,,,,,,,,,,,,,,,,,,,,,,,,
,,?,0.535,0,,,,,,stimuli/images/PICTURE_504.png,HOUSE,5ed27c0a35a14107c491ffc0,31/12/1951,2020-09-12_08h02.51.999,proactive3.2,2020.1.2,MacIntel,60,5f5adea66120081ea0f57a61,5f5c727a3817c045ea29856c,4,,,,,,wheel,,,,,,,,,,,4,2,0,38,38,36,1,,,,,,,,,,,,,,,,,,,,,,,,,,,,,,,,,,,,,,,,,,,,,,,,,,,,,,,,,,,,,,,,,,,,,,
,,?,0.005,0,,,,,,stimuli/images/PICTURE_32.png,LETTER,5ed27c0a35a14107c491ffc0,31/12/1951,2020-09-12_08h02.51.999,proactive3.2,2020.1.2,MacIntel,60,5f5adea66120081ea0f57a61,5f5c727a3817c045ea29856c,4,,,,,,crown,,,,,,,,,,,6,2,0,39,39,56,1,,,,,,,,,,,,,,,,,,,,,,,,,,,,,,,,,,,,,,,,,,,,,,,,,,,,,,,,,,,,,,,,,,,,,,
,,?,0.003,0,,,,,,stimuli/images/PICTURE_215.png,FOOD,5ed27c0a35a14107c491ffc0,31/12/1951,2020-09-12_08h02.51.999,proactive3.2,2020.1.2,MacIntel,60,5f5adea66120081ea0f57a61,5f5c727a3817c045ea29856c,4,,,,,,boot,,,,,,,,,,,1,2,0,40,40,5,1,,,,,,,,,,,,,,,,,,,,,,,,,,,,,,,,,,,,,,,,,,,,,,,,,,,,,,,,,,,,,,,,,,,,,,
,,?,0.002,0,,,,,,stimuli/images/PICTURE_177.png,HOUSE,5ed27c0a35a14107c491ffc0,31/12/1951,2020-09-12_08h02.51.999,proactive3.2,2020.1.2,MacIntel,60,5f5adea66120081ea0f57a61,5f5c727a3817c045ea29856c,4,,,,,,mushroom,,,,,,,,,,,3,2,0,41,41,25,1,,,,,,,,,,,,,,,,,,,,,,,,,,,,,,,,,,,,,,,,,,,,,,,,,,,,,,,,,,,,,,,,,,,,,,
,,?,0.002,0,,,,,,stimuli/images/PICTURE_667.png,GLASS,5ed27c0a35a14107c491ffc0,31/12/1951,2020-09-12_08h02.51.999,proactive3.2,2020.1.2,MacIntel,60,5f5adea66120081ea0f57a61,5f5c727a3817c045ea29856c,4,,,,,,daisy,,,,,,,,,,,3,2,0,42,42,27,1,,,,,,,,,,,,,,,,,,,,,,,,,,,,,,,,,,,,,,,,,,,,,,,,,,,,,,,,,,,,,,,,,,,,,,
,,?,0.001,0,,,,,,stimuli/images/PICTURE_470.png,MOMENT,5ed27c0a35a14107c491ffc0,31/12/1951,2020-09-12_08h02.51.999,proactive3.2,2020.1.2,MacIntel,60,5f5adea66120081ea0f57a61,5f5c727a3817c045ea29856c,4,,,,,,motorbike,,,,,,,,,,,5,2,0,43,43,40,1,,,,,,,,,,,,,,,,,,,,,,,,,,,,,,,,,,,,,,,,,,,,,,,,,,,,,,,,,,,,,,,,,,,,,,
,,?,0.002,0,,,,,,stimuli/images/PICTURE_405.png,JUNGLE,5ed27c0a35a14107c491ffc0,31/12/1951,2020-09-12_08h02.51.999,proactive3.2,2020.1.2,MacIntel,60,5f5adea66120081ea0f57a61,5f5c727a3817c045ea29856c,4,,,,,,anchor,,,,,,,,,,,6,2,0,44,44,58,1,,,,,,,,,,,,,,,,,,,,,,,,,,,,,,,,,,,,,,,,,,,,,,,,,,,,,,,,,,,,,,,,,,,,,,
,,?,0.002,0,,,,,,stimuli/images/PICTURE_403.png,FAMILY,5ed27c0a35a14107c491ffc0,31/12/1951,2020-09-12_08h02.51.999,proactive3.2,2020.1.2,MacIntel,60,5f5adea66120081ea0f57a61,5f5c727a3817c045ea29856c,4,,,,,,cathedral,,,,,,,,,,,1,2,0,45,45,9,1,,,,,,,,,,,,,,,,,,,,,,,,,,,,,,,,,,,,,,,,,,,,,,,,,,,,,,,,,,,,,,,,,,,,,,
,,?,0,0,,,,,,stimuli/images/PICTURE_208.png,SPIRIT,5ed27c0a35a14107c491ffc0,31/12/1951,2020-09-12_08h02.51.999,proactive3.2,2020.1.2,MacIntel,60,5f5adea66120081ea0f57a61,5f5c727a3817c045ea29856c,4,,,,,,microphone,,,,,,,,,,,3,2,0,46,46,28,1,,,,,,,,,,,,,,,,,,,,,,,,,,,,,,,,,,,,,,,,,,,,,,,,,,,,,,,,,,,,,,,,,,,,,,
,,?,0,0,,,,,,stimuli/images/PICTURE_327.png,LEADER,5ed27c0a35a14107c491ffc0,31/12/1951,2020-09-12_08h02.51.999,proactive3.2,2020.1.2,MacIntel,60,5f5adea66120081ea0f57a61,5f5c727a3817c045ea29856c,4,,,,,,helmet,,,,,,,,,,,2,2,0,47,47,17,1,,,,,,,,,,,,,,,,,,,,,,,,,,,,,,,,,,,,,,,,,,,,,,,,,,,,,,,,,,,,,,,,,,,,,,
,,?,0,0,,,,,,stimuli/images/PICTURE_33.png,COPS,5ed27c0a35a14107c491ffc0,31/12/1951,2020-09-12_08h02.51.999,proactive3.2,2020.1.2,MacIntel,60,5f5adea66120081ea0f57a61,5f5c727a3817c045ea29856c,4,,,,,,frame,,,,,,,,,,,3,2,0,48,48,29,1,,,,,,,,,,,,,,,,,,,,,,,,,,,,,,,,,,,,,,,,,,,,,,,,,,,,,,,,,,,,,,,,,,,,,,
,,?,0.001,0,,,,,,stimuli/images/PICTURE_2.png,JUNGLE,5ed27c0a35a14107c491ffc0,31/12/1951,2020-09-12_08h02.51.999,proactive3.2,2020.1.2,MacIntel,60,5f5adea66120081ea0f57a61,5f5c727a3817c045ea29856c,4,,,,,,tyre,,,,,,,,,,,1,2,0,49,49,1,1,,,,,,,,,,,,,,,,,,,,,,,,,,,,,,,,,,,,,,,,,,,,,,,,,,,,,,,,,,,,,,,,,,,,,,
,,?,0.001,0,,,,,,stimuli/images/PICTURE_18.png,RIVER,5ed27c0a35a14107c491ffc0,31/12/1951,2020-09-12_08h02.51.999,proactive3.2,2020.1.2,MacIntel,60,5f5adea66120081ea0f57a61,5f5c727a3817c045ea29856c,4,,,,,,planet,,,,,,,,,,,3,2,0,50,50,22,1,,,,,,,,,,,,,,,,,,,,,,,,,,,,,,,,,,,,,,,,,,,,,,,,,,,,,,,,,,,,,,,,,,,,,,
,,?,0.001,0,,,,,,stimuli/images/PICTURE_688.png,CLOCK,5ed27c0a35a14107c491ffc0,31/12/1951,2020-09-12_08h02.51.999,proactive3.2,2020.1.2,MacIntel,60,5f5adea66120081ea0f57a61,5f5c727a3817c045ea29856c,4,,,,,,runner,,,,,,,,,,,5,2,0,51,51,42,1,,,,,,,,,,,,,,,,,,,,,,,,,,,,,,,,,,,,,,,,,,,,,,,,,,,,,,,,,,,,,,,,,,,,,,
,,?,0.538,0,,,,,,stimuli/images/PICTURE_314.png,SPEECH,5ed27c0a35a14107c491ffc0,31/12/1951,2020-09-12_08h02.51.999,proactive3.2,2020.1.2,MacIntel,60,5f5adea66120081ea0f57a61,5f5c727a3817c045ea29856c,4,,,,,,perfume,,,,,,,,,,,4,2,0,52,52,35,1,,,,,,,,,,,,,,,,,,,,,,,,,,,,,,,,,,,,,,,,,,,,,,,,,,,,,,,,,,,,,,,,,,,,,,
,,?,0.5,0,,,,,,stimuli/images/PICTURE_509.png,APPLE,5ed27c0a35a14107c491ffc0,31/12/1951,2020-09-12_08h02.51.999,proactive3.2,2020.1.2,MacIntel,60,5f5adea66120081ea0f57a61,5f5c727a3817c045ea29856c,4,,,,,,telephone,,,,,,,,,,,4,2,0,53,53,38,1,,,,,,,,,,,,,,,,,,,,,,,,,,,,,,,,,,,,,,,,,,,,,,,,,,,,,,,,,,,,,,,,,,,,,,
,,?,0.003,0,,,,,,stimuli/images/PICTURE_509.png,BATH,5ed27c0a35a14107c491ffc0,31/12/1951,2020-09-12_08h02.51.999,proactive3.2,2020.1.2,MacIntel,60,5f5adea66120081ea0f57a61,5f5c727a3817c045ea29856c,4,,,,,,telephone,,,,,,,,,,,2,2,0,54,54,15,1,,,,,,,,,,,,,,,,,,,,,,,,,,,,,,,,,,,,,,,,,,,,,,,,,,,,,,,,,,,,,,,,,,,,,,
,,?,0.002,0,,,,,,stimuli/images/PICTURE_68.png,KIND,5ed27c0a35a14107c491ffc0,31/12/1951,2020-09-12_08h02.51.999,proactive3.2,2020.1.2,MacIntel,60,5f5adea66120081ea0f57a61,5f5c727a3817c045ea29856c,4,,,,,,candle,,,,,,,,,,,3,2,0,55,55,23,1,,,,,,,,,,,,,,,,,,,,,,,,,,,,,,,,,,,,,,,,,,,,,,,,,,,,,,,,,,,,,,,,,,,,,,
,,?,0.003,0,,,,,,stimuli/images/PICTURE_311.png,FLESH,5ed27c0a35a14107c491ffc0,31/12/1951,2020-09-12_08h02.51.999,proactive3.2,2020.1.2,MacIntel,60,5f5adea66120081ea0f57a61,5f5c727a3817c045ea29856c,4,,,,,,razor,,,,,,,,,,,1,2,0,56,56,3,1,,,,,,,,,,,,,,,,,,,,,,,,,,,,,,,,,,,,,,,,,,,,,,,,,,,,,,,,,,,,,,,,,,,,,,
,,?,0.003,0,,,,,,stimuli/images/PICTURE_677.png,PHOTO,5ed27c0a35a14107c491ffc0,31/12/1951,2020-09-12_08h02.51.999,proactive3.2,2020.1.2,MacIntel,60,5f5adea66120081ea0f57a61,5f5c727a3817c045ea29856c,4,,,,,,map,,,,,,,,,,,2,2,0,57,57,14,1,,,,,,,,,,,,,,,,,,,,,,,,,,,,,,,,,,,,,,,,,,,,,,,,,,,,,,,,,,,,,,,,,,,,,,
,,?,0.003,0,,,,,,stimuli/images/PICTURE_215.png,LEADER,5ed27c0a35a14107c491ffc0,31/12/1951,2020-09-12_08h02.51.999,proactive3.2,2020.1.2,MacIntel,60,5f5adea66120081ea0f57a61,5f5c727a3817c045ea29856c,4,,,,,,boot,,,,,,,,,,,5,2,0,58,58,43,1,,,,,,,,,,,,,,,,,,,,,,,,,,,,,,,,,,,,,,,,,,,,,,,,,,,,,,,,,,,,,,,,,,,,,,
,,?,0.002,0,,,,,,stimuli/images/PICTURE_160.png,HOTEL,5ed27c0a35a14107c491ffc0,31/12/1951,2020-09-12_08h02.51.999,proactive3.2,2020.1.2,MacIntel,60,5f5adea66120081ea0f57a61,5f5c727a3817c045ea29856c,4,,,,,,wheelbarrow,,,,,,,,,,,2,2,0,59,59,16,1,,,,,,,,,,,,,,,,,,,,,,,,,,,,,,,,,,,,,,,,,,,,,,,,,,,,,,,,,,,,,,,,,,,,,,
,,,,,,,,,,,,5ed27c0a35a14107c491ffc0,31/12/1951,2020-09-12_08h02.51.999,proactive3.2,2020.1.2,MacIntel,60,5f5adea66120081ea0f57a61,5f5c727a3817c045ea29856c,4,,,,,,,,,,,,,,,,,,,,,,,,0,0,0,2,1,stimuli/learn-block3.csv,,,,,,,,,,,,,,,,,,,,,,,,,,,,,,,,,,,,,,,,,,,,,,,,,,,,,,,,,,,,,,,,
,,,,,,,,,,stimuli/images/PICTURE_491.png,RIVER,5ed27c0a35a14107c491ffc0,31/12/1951,2020-09-12_08h02.51.999,proactive3.2,2020.1.2,MacIntel,60,5f5adea66120081ea0f57a61,5f5c727a3817c045ea29856c,4,,,,,,rug,,,,,,0,0,0,6,1,1,1,,,,,,,,,,,,,,,,,,,,,,,,,,,,,,,,,,,,,,,,,,,,,,,,,,,,,,,,,,,,,,,,,,,,,,,,,,,
,,,,,,,,,,stimuli/images/PICTURE_403.png,RIVER,5ed27c0a35a14107c491ffc0,31/12/1951,2020-09-12_08h02.51.999,proactive3.2,2020.1.2,MacIntel,60,5f5adea66120081ea0f57a61,5f5c727a3817c045ea29856c,4,,,,,,cathedral,,,,,,0,1,1,40,1,5,1,,,,,,,,,,,,,,,,,,,,,,,,,,,,,,,,,,,,,,,,,,,,,,,,,,,,,,,,,,,,,,,,,,,,,,,,,,,
,,,,,,,,,,stimuli/images/PICTURE_467.png,POLICY,5ed27c0a35a14107c491ffc0,31/12/1951,2020-09-12_08h02.51.999,proactive3.2,2020.1.2,MacIntel,60,5f5adea66120081ea0f57a61,5f5c727a3817c045ea29856c,4,,,,,,peg,,,,,,0,2,2,53,1,6,1,,,,,,,,,,,,,,,,,,,,,,,,,,,,,,,,,,,,,,,,,,,,,,,,,,,,,,,,,,,,,,,,,,,,,,,,,,,
,,,,,,,,,,stimuli/images/PICTURE_750.png,HOTEL,5ed27c0a35a14107c491ffc0,31/12/1951,2020-09-12_08h02.51.999,proactive3.2,2020.1.2,MacIntel,60,5f5adea66120081ea0f57a61,5f5c727a3817c045ea29856c,4,,,,,,kettle,,,,,,0,3,3,27,1,3,1,,,,,,,,,,,,,,,,,,,,,,,,,,,,,,,,,,,,,,,,,,,,,,,,,,,,,,,,,,,,,,,,,,,,,,,,,,,
,,,,,,,,,,stimuli/images/PICTURE_57.png,MOMENT,5ed27c0a35a14107c491ffc0,31/12/1951,2020-09-12_08h02.51.999,proactive3.2,2020.1.2,MacIntel,60,5f5adea66120081ea0f57a61,5f5c727a3817c045ea29856c,4,,,,,,stamp,,,,,,0,4,4,37,1,4,1,,,,,,,,,,,,,,,,,,,,,,,,,,,,,,,,,,,,,,,,,,,,,,,,,,,,,,,,,,,,,,,,,,,,,,,,,,,
,,,,,,,,,,stimuli/images/PICTURE_85.png,NATION,5ed27c0a35a14107c491ffc0,31/12/1951,2020-09-12_08h02.51.999,proactive3.2,2020.1.2,MacIntel,60,5f5adea66120081ea0f57a61,5f5c727a3817c045ea29856c,4,,,,,,diamond,,,,,,0,5,5,5,1,1,1,,,,,,,,,,,,,,,,,,,,,,,,,,,,,,,,,,,,,,,,,,,,,,,,,,,,,,,,,,,,,,,,,,,,,,,,,,,
,,,,,,,,,,stimuli/images/PICTURE_208.png,SYSTEM,5ed27c0a35a14107c491ffc0,31/12/1951,2020-09-12_08h02.51.999,proactive3.2,2020.1.2,MacIntel,60,5f5adea66120081ea0f57a61,5f5c727a3817c045ea29856c,4,,,,,,microphone,,,,,,0,6,6,32,1,4,1,,,,,,,,,,,,,,,,,,,,,,,,,,,,,,,,,,,,,,,,,,,,,,,,,,,,,,,,,,,,,,,,,,,,,,,,,,,
,,,,,,,,,,stimuli/images/PICTURE_403.png,TOILET,5ed27c0a35a14107c491ffc0,31/12/1951,2020-09-12_08h02.51.999,proactive3.2,2020.1.2,MacIntel,60,5f5adea66120081ea0f57a61,5f5c727a3817c045ea29856c,4,,,,,,cathedral,,,,,,0,7,7,25,1,3,1,,,,,,,,,,,,,,,,,,,,,,,,,,,,,,,,,,,,,,,,,,,,,,,,,,,,,,,,,,,,,,,,,,,,,,,,,,,
,,,,,,,,,,stimuli/images/PICTURE_504.png,YEAR,5ed27c0a35a14107c491ffc0,31/12/1951,2020-09-12_08h02.51.999,proactive3.2,2020.1.2,MacIntel,60,5f5adea66120081ea0f57a61,5f5c727a3817c045ea29856c,4,,,,,,wheel,,,,,,0,8,8,13,1,2,1,,,,,,,,,,,,,,,,,,,,,,,,,,,,,,,,,,,,,,,,,,,,,,,,,,,,,,,,,,,,,,,,,,,,,,,,,,,
,,,,,,,,,,stimuli/images/PICTURE_68.png,ROOF,5ed27c0a35a14107c491ffc0,31/12/1951,2020-09-12_08h02.51.999,proactive3.2,2020.1.2,MacIntel,60,5f5adea66120081ea0f57a61,5f5c727a3817c045ea29856c,4,,,,,,candle,,,,,,0,9,9,38,1,4,1,,,,,,,,,,,,,,,,,,,,,,,,,,,,,,,,,,,,,,,,,,,,,,,,,,,,,,,,,,,,,,,,,,,,,,,,,,,
,,,,,,,,,,stimuli/images/PICTURE_177.png,WRITER,5ed27c0a35a14107c491ffc0,31/12/1951,2020-09-12_08h02.51.999,proactive3.2,2020.1.2,MacIntel,60,5f5adea66120081ea0f57a61,5f5c727a3817c045ea29856c,4,,,,,,mushroom,,,,,,0,10,10,41,1,5,1,,,,,,,,,,,,,,,,,,,,,,,,,,,,,,,,,,,,,,,,,,,,,,,,,,,,,,,,,,,,,,,,,,,,,,,,,,,
,,,,,,,,,,stimuli/images/PICTURE_32.png,PILLS,5ed27c0a35a14107c491ffc0,31/12/1951,2020-09-12_08h02.51.999,proactive3.2,2020.1.2,MacIntel,60,5f5adea66120081ea0f57a61,5f5c727a3817c045ea29856c,4,,,,,,crown,,,,,,0,11,11,18,1,2,1,,,,,,,,,,,,,,,,,,,,,,,,,,,,,,,,,,,,,,,,,,,,,,,,,,,,,,,,,,,,,,,,,,,,,,,,,,,
,,,,,,,,,,stimuli/images/PICTURE_685.png,PENNY,5ed27c0a35a14107c491ffc0,31/12/1951,2020-09-12_08h02.51.999,proactive3.2,2020.1.2,MacIntel,60,5f5adea66120081ea0f57a61,5f5c727a3817c045ea29856c,4,,,,,,goose,,,,,,0,12,12,4,1,1,1,,,,,,,,,,,,,,,,,,,,,,,,,,,,,,,,,,,,,,,,,,,,,,,,,,,,,,,,,,,,,,,,,,,,,,,,,,,
,,,,,,,,,,stimuli/images/PICTURE_675.png,SALE,5ed27c0a35a14107c491ffc0,31/12/1951,2020-09-12_08h02.51.999,proactive3.2,2020.1.2,MacIntel,60,5f5adea66120081ea0f57a61,5f5c727a3817c045ea29856c,4,,,,,,windmill,,,,,,0,13,13,47,1,5,1,,,,,,,,,,,,,,,,,,,,,,,,,,,,,,,,,,,,,,,,,,,,,,,,,,,,,,,,,,,,,,,,,,,,,,,,,,,
,,,,,,,,,,stimuli/images/PICTURE_285.png,LIFE,5ed27c0a35a14107c491ffc0,31/12/1951,2020-09-12_08h02.51.999,proactive3.2,2020.1.2,MacIntel,60,5f5adea66120081ea0f57a61,5f5c727a3817c045ea29856c,4,,,,,,carrot,,,,,,0,14,14,33,1,4,1,,,,,,,,,,,,,,,,,,,,,,,,,,,,,,,,,,,,,,,,,,,,,,,,,,,,,,,,,,,,,,,,,,,,,,,,,,,
,,,,,,,,,,stimuli/images/PICTURE_203.png,NIGHT,5ed27c0a35a14107c491ffc0,31/12/1951,2020-09-12_08h02.51.999,proactive3.2,2020.1.2,MacIntel,60,5f5adea66120081ea0f57a61,5f5c727a3817c045ea29856c,4,,,,,,cap,,,,,,0,15,15,2,1,1,1,,,,,,,,,,,,,,,,,,,,,,,,,,,,,,,,,,,,,,,,,,,,,,,,,,,,,,,,,,,,,,,,,,,,,,,,,,,
,,,,,,,,,,stimuli/images/PICTURE_147.png,WOMEN,5ed27c0a35a14107c491ffc0,31/12/1951,2020-09-12_08h02.51.999,proactive3.2,2020.1.2,MacIntel,60,5f5adea66120081ea0f57a61,5f5c727a3817c045ea29856c,4,,,,,,hanger,,,,,,0,16,16,7,1,1,1,,,,,,,,,,,,,,,,,,,,,,,,,,,,,,,,,,,,,,,,,,,,,,,,,,,,,,,,,,,,,,,,,,,,,,,,,,,
,,,,,,,,,,stimuli/images/PICTURE_95.png,HONEY,5ed27c0a35a14107c491ffc0,31/12/1951,2020-09-12_08h02.51.999,proactive3.2,2020.1.2,MacIntel,60,5f5adea66120081ea0f57a61,5f5c727a3817c045ea29856c,4,,,,,,suitcase,,,,,,0,17,17,44,1,5,1,,,,,,,,,,,,,,,,,,,,,,,,,,,,,,,,,,,,,,,,,,,,,,,,,,,,,,,,,,,,,,,,,,,,,,,,,,,
,,,,,,,,,,stimuli/images/PICTURE_469.png,AGENT,5ed27c0a35a14107c491ffc0,31/12/1951,2020-09-12_08h02.51.999,proactive3.2,2020.1.2,MacIntel,60,5f5adea66120081ea0f57a61,5f5c727a3817c045ea29856c,4,,,,,,stool,,,,,,0,18,18,16,1,2,1,,,,,,,,,,,,,,,,,,,,,,,,,,,,,,,,,,,,,,,,,,,,,,,,,,,,,,,,,,,,,,,,,,,,,,,,,,,
,,,,,,,,,,stimuli/images/PICTURE_108.png,POLICY,5ed27c0a35a14107c491ffc0,31/12/1951,2020-09-12_08h02.51.999,proactive3.2,2020.1.2,MacIntel,60,5f5adea66120081ea0f57a61,5f5c727a3817c045ea29856c,4,,,,,,calendar,,,,,,0,19,19,22,1,3,1,,,,,,,,,,,,,,,,,,,,,,,,,,,,,,,,,,,,,,,,,,,,,,,,,,,,,,,,,,,,,,,,,,,,,,,,,,,
,,,,,,,,,,stimuli/images/PICTURE_2.png,FLIGHT,5ed27c0a35a14107c491ffc0,31/12/1951,2020-09-12_08h02.51.999,proactive3.2,2020.1.2,MacIntel,60,5f5adea66120081ea0f57a61,5f5c727a3817c045ea29856c,4,,,,,,tyre,,,,,,0,20,20,15,1,2,1,,,,,,,,,,,,,,,,,,,,,,,,,,,,,,,,,,,,,,,,,,,,,,,,,,,,,,,,,,,,,,,,,,,,,,,,,,,
,,,,,,,,,,stimuli/images/PICTURE_654.png,MONTH,5ed27c0a35a14107c491ffc0,31/12/1951,2020-09-12_08h02.51.999,proactive3.2,2020.1.2,MacIntel,60,5f5adea66120081ea0f57a61,5f5c727a3817c045ea29856c,4,,,,,,pencil,,,,,,0,21,21,29,1,3,1,,,,,,,,,,,,,,,,,,,,,,,,,,,,,,,,,,,,,,,,,,,,,,,,,,,,,,,,,,,,,,,,,,,,,,,,,,,
,,,,,,,,,,stimuli/images/PICTURE_95.png,BOYS,5ed27c0a35a14107c491ffc0,31/12/1951,2020-09-12_08h02.51.999,proactive3.2,2020.1.2,MacIntel,60,5f5adea66120081ea0f57a61,5f5c727a3817c045ea29856c,4,,,,,,suitcase,,,,,,0,22,22,1,1,1,1,,,,,,,,,,,,,,,,,,,,,,,,,,,,,,,,,,,,,,,,,,,,,,,,,,,,,,,,,,,,,,,,,,,,,,,,,,,
,,,,,,,,,,stimuli/images/PICTURE_744.png,WEAPON,5ed27c0a35a14107c491ffc0,31/12/1951,2020-09-12_08h02.51.999,proactive3.2,2020.1.2,MacIntel,60,5f5adea66120081ea0f57a61,5f5c727a3817c045ea29856c,4,,,,,,ring,,,,,,0,23,23,50,1,6,1,,,,,,,,,,,,,,,,,,,,,,,,,,,,,,,,,,,,,,,,,,,,,,,,,,,,,,,,,,,,,,,,,,,,,,,,,,,
,,,,,,,,,,stimuli/images/PICTURE_487.png,GIRL,5ed27c0a35a14107c491ffc0,31/12/1951,2020-09-12_08h02.51.999,proactive3.2,2020.1.2,MacIntel,60,5f5adea66120081ea0f57a61,5f5c727a3817c045ea29856c,4,,,,,,basket,,,,,,0,24,24,45,1,5,1,,,,,,,,,,,,,,,,,,,,,,,,,,,,,,,,,,,,,,,,,,,,,,,,,,,,,,,,,,,,,,,,,,,,,,,,,,,
,,,,,,,,,,stimuli/images/PICTURE_68.png,MILE,5ed27c0a35a14107c491ffc0,31/12/1951,2020-09-12_08h02.51.999,proactive3.2,2020.1.2,MacIntel,60,5f5adea66120081ea0f57a61,5f5c727a3817c045ea29856c,4,,,,,,candle,,,,,,0,25,25,51,1,6,1,,,,,,,,,,,,,,,,,,,,,,,,,,,,,,,,,,,,,,,,,,,,,,,,,,,,,,,,,,,,,,,,,,,,,,,,,,,
,,,,,,,,,,stimuli/images/PICTURE_339.png,CLIENT,5ed27c0a35a14107c491ffc0,31/12/1951,2020-09-12_08h02.51.999,proactive3.2,2020.1.2,MacIntel,60,5f5adea66120081ea0f57a61,5f5c727a3817c045ea29856c,4,,,,,,backpack,,,,,,0,26,26,11,1,2,1,,,,,,,,,,,,,,,,,,,,,,,,,,,,,,,,,,,,,,,,,,,,,,,,,,,,,,,,,,,,,,,,,,,,,,,,,,,
,,,,,,,,,,stimuli/images/PICTURE_296.png,LIFE,5ed27c0a35a14107c491ffc0,31/12/1951,2020-09-12_08h02.51.999,proactive3.2,2020.1.2,MacIntel,60,5f5adea66120081ea0f57a61,5f5c727a3817c045ea29856c,4,,,,,,bolt,,,,,,0,27,27,57,1,6,1,,,,,,,,,,,,,,,,,,,,,,,,,,,,,,,,,,,,,,,,,,,,,,,,,,,,,,,,,,,,,,,,,,,,,,,,,,,
,,,,,,,,,,stimuli/images/PICTURE_405.png,PLENTY,5ed27c0a35a14107c491ffc0,31/12/1951,2020-09-12_08h02.51.999,proactive3.2,2020.1.2,MacIntel,60,5f5adea66120081ea0f57a61,5f5c727a3817c045ea29856c,4,,,,,,anchor,,,,,,0,28,28,23,1,3,1,,,,,,,,,,,,,,,,,,,,,,,,,,,,,,,,,,,,,,,,,,,,,,,,,,,,,,,,,,,,,,,,,,,,,,,,,,,
,,,,,,,,,,stimuli/images/PICTURE_340.png,VALLEY,5ed27c0a35a14107c491ffc0,31/12/1951,2020-09-12_08h02.51.999,proactive3.2,2020.1.2,MacIntel,60,5f5adea66120081ea0f57a61,5f5c727a3817c045ea29856c,4,,,,,,mirror,,,,,,0,29,29,54,1,6,1,,,,,,,,,,,,,,,,,,,,,,,,,,,,,,,,,,,,,,,,,,,,,,,,,,,,,,,,,,,,,,,,,,,,,,,,,,,
,,,,,,,,,,stimuli/images/PICTURE_655.png,TOILET,5ed27c0a35a14107c491ffc0,31/12/1951,2020-09-12_08h02.51.999,proactive3.2,2020.1.2,MacIntel,60,5f5adea66120081ea0f57a61,5f5c727a3817c045ea29856c,4,,,,,,megaphone,,,,,,0,30,30,12,1,2,1,,,,,,,,,,,,,,,,,,,,,,,,,,,,,,,,,,,,,,,,,,,,,,,,,,,,,,,,,,,,,,,,,,,,,,,,,,,
,,,,,,,,,,stimuli/images/PICTURE_147.png,YEAR,5ed27c0a35a14107c491ffc0,31/12/1951,2020-09-12_08h02.51.999,proactive3.2,2020.1.2,MacIntel,60,5f5adea66120081ea0f57a61,5f5c727a3817c045ea29856c,4,,,,,,hanger,,,,,,0,31,31,21,1,3,1,,,,,,,,,,,,,,,,,,,,,,,,,,,,,,,,,,,,,,,,,,,,,,,,,,,,,,,,,,,,,,,,,,,,,,,,,,,
,,,,,,,,,,stimuli/images/PICTURE_383.png,SERIES,5ed27c0a35a14107c491ffc0,31/12/1951,2020-09-12_08h02.51.999,proactive3.2,2020.1.2,MacIntel,60,5f5adea66120081ea0f57a61,5f5c727a3817c045ea29856c,4,,,,,,coin,,,,,,0,32,32,46,1,5,1,,,,,,,,,,,,,,,,,,,,,,,,,,,,,,,,,,,,,,,,,,,,,,,,,,,,,,,,,,,,,,,,,,,,,,,,,,,
,,,,,,,,,,stimuli/images/PICTURE_504.png,ARTIST,5ed27c0a35a14107c491ffc0,31/12/1951,2020-09-12_08h02.51.999,proactive3.2,2020.1.2,MacIntel,60,5f5adea66120081ea0f57a61,5f5c727a3817c045ea29856c,4,,,,,,wheel,,,,,,0,33,33,49,1,5,1,,,,,,,,,,,,,,,,,,,,,,,,,,,,,,,,,,,,,,,,,,,,,,,,,,,,,,,,,,,,,,,,,,,,,,,,,,,
,,,,,,,,,,stimuli/images/PICTURE_297.png,RIVER,5ed27c0a35a14107c491ffc0,31/12/1951,2020-09-12_08h02.51.999,proactive3.2,2020.1.2,MacIntel,60,5f5adea66120081ea0f57a61,5f5c727a3817c045ea29856c,4,,,,,,aeroplane,,,,,,0,34,34,39,1,4,1,,,,,,,,,,,,,,,,,,,,,,,,,,,,,,,,,,,,,,,,,,,,,,,,,,,,,,,,,,,,,,,,,,,,,,,,,,,
,,,,,,,,,,stimuli/images/PICTURE_564.png,BATH,5ed27c0a35a14107c491ffc0,31/12/1951,2020-09-12_08h02.51.999,proactive3.2,2020.1.2,MacIntel,60,5f5adea66120081ea0f57a61,5f5c727a3817c045ea29856c,4,,,,,,spoon,,,,,,0,35,35,26,1,3,1,,,,,,,,,,,,,,,,,,,,,,,,,,,,,,,,,,,,,,,,,,,,,,,,,,,,,,,,,,,,,,,,,,,,,,,,,,,
,,,,,,,,,,stimuli/images/PICTURE_667.png,RIVER,5ed27c0a35a14107c491ffc0,31/12/1951,2020-09-12_08h02.51.999,proactive3.2,2020.1.2,MacIntel,60,5f5adea66120081ea0f57a61,5f5c727a3817c045ea29856c,4,,,,,,daisy,,,,,,0,36,36,10,1,2,1,,,,,,,,,,,,,,,,,,,,,,,,,,,,,,,,,,,,,,,,,,,,,,,,,,,,,,,,,,,,,,,,,,,,,,,,,,,
,,,,,,,,,,stimuli/images/PICTURE_403.png,WRITER,5ed27c0a35a14107c491ffc0,31/12/1951,2020-09-12_08h02.51.999,proactive3.2,2020.1.2,MacIntel,60,5f5adea66120081ea0f57a61,5f5c727a3817c045ea29856c,4,,,,,,cathedral,,,,,,0,37,37,31,1,4,1,,,,,,,,,,,,,,,,,,,,,,,,,,,,,,,,,,,,,,,,,,,,,,,,,,,,,,,,,,,,,,,,,,,,,,,,,,,
,,,,,,,,,,stimuli/images/PICTURE_95.png,MILLER,5ed27c0a35a14107c491ffc0,31/12/1951,2020-09-12_08h02.51.999,proactive3.2,2020.1.2,MacIntel,60,5f5adea66120081ea0f57a61,5f5c727a3817c045ea29856c,4,,,,,,suitcase,,,,,,0,38,38,56,1,6,1,,,,,,,,,,,,,,,,,,,,,,,,,,,,,,,,,,,,,,,,,,,,,,,,,,,,,,,,,,,,,,,,,,,,,,,,,,,
,,,,,,,,,,stimuli/images/PICTURE_504.png,COPS,5ed27c0a35a14107c491ffc0,31/12/1951,2020-09-12_08h02.51.999,proactive3.2,2020.1.2,MacIntel,60,5f5adea66120081ea0f57a61,5f5c727a3817c045ea29856c,4,,,,,,wheel,,,,,,0,39,39,52,1,6,1,,,,,,,,,,,,,,,,,,,,,,,,,,,,,,,,,,,,,,,,,,,,,,,,,,,,,,,,,,,,,,,,,,,,,,,,,,,
,,,,,,,,,,stimuli/images/PICTURE_327.png,SERIES,5ed27c0a35a14107c491ffc0,31/12/1951,2020-09-12_08h02.51.999,proactive3.2,2020.1.2,MacIntel,60,5f5adea66120081ea0f57a61,5f5c727a3817c045ea29856c,4,,,,,,helmet,,,,,,0,40,40,3,1,1,1,,,,,,,,,,,,,,,,,,,,,,,,,,,,,,,,,,,,,,,,,,,,,,,,,,,,,,,,,,,,,,,,,,,,,,,,,,,
,,,,,,,,,,stimuli/images/PICTURE_677.png,APPLE,5ed27c0a35a14107c491ffc0,31/12/1951,2020-09-12_08h02.51.999,proactive3.2,2020.1.2,MacIntel,60,5f5adea66120081ea0f57a61,5f5c727a3817c045ea29856c,4,,,,,,map,,,,,,0,41,41,43,1,5,1,,,,,,,,,,,,,,,,,,,,,,,,,,,,,,,,,,,,,,,,,,,,,,,,,,,,,,,,,,,,,,,,,,,,,,,,,,,
,,,,,,,,,,stimuli/images/PICTURE_380.png,HONEY,5ed27c0a35a14107c491ffc0,31/12/1951,2020-09-12_08h02.51.999,proactive3.2,2020.1.2,MacIntel,60,5f5adea66120081ea0f57a61,5f5c727a3817c045ea29856c,4,,,,,,gorilla,,,,,,0,42,42,19,1,2,1,,,,,,,,,,,,,,,,,,,,,,,,,,,,,,,,,,,,,,,,,,,,,,,,,,,,,,,,,,,,,,,,,,,,,,,,,,,
,,,,,,,,,,stimuli/images/PICTURE_203.png,GODS,5ed27c0a35a14107c491ffc0,31/12/1951,2020-09-12_08h02.51.999,proactive3.2,2020.1.2,MacIntel,60,5f5adea66120081ea0f57a61,5f5c727a3817c045ea29856c,4,,,,,,cap,,,,,,0,43,43,30,1,4,1,,,,,,,,,,,,,,,,,,,,,,,,,,,,,,,,,,,,,,,,,,,,,,,,,,,,,,,,,,,,,,,,,,,,,,,,,,,
,,,,,,,,,,stimuli/images/PICTURE_108.png,FLIGHT,5ed27c0a35a14107c491ffc0,31/12/1951,2020-09-12_08h02.51.999,proactive3.2,2020.1.2,MacIntel,60,5f5adea66120081ea0f57a61,5f5c727a3817c045ea29856c,4,,,,,,calendar,,,,,,0,44,44,59,1,6,1,,,,,,,,,,,,,,,,,,,,,,,,,,,,,,,,,,,,,,,,,,,,,,,,,,,,,,,,,,,,,,,,,,,,,,,,,,,
,,,,,,,,,,stimuli/images/PICTURE_327.png,CASINO,5ed27c0a35a14107c491ffc0,31/12/1951,2020-09-12_08h02.51.999,proactive3.2,2020.1.2,MacIntel,60,5f5adea66120081ea0f57a61,5f5c727a3817c045ea29856c,4,,,,,,helmet,,,,,,0,45,45,20,1,3,1,,,,,,,,,,,,,,,,,,,,,,,,,,,,,,,,,,,,,,,,,,,,,,,,,,,,,,,,,,,,,,,,,,,,,,,,,,,
,,,,,,,,,,stimuli/images/PICTURE_33.png,FRIEND,5ed27c0a35a14107c491ffc0,31/12/1951,2020-09-12_08h02.51.999,proactive3.2,2020.1.2,MacIntel,60,5f5adea66120081ea0f57a61,5f5c727a3817c045ea29856c,4,,,,,,frame,,,,,,0,46,46,8,1,1,1,,,,,,,,,,,,,,,,,,,,,,,,,,,,,,,,,,,,,,,,,,,,,,,,,,,,,,,,,,,,,,,,,,,,,,,,,,,
,,,,,,,,,,stimuli/images/PICTURE_491.png,GLASS,5ed27c0a35a14107c491ffc0,31/12/1951,2020-09-12_08h02.51.999,proactive3.2,2020.1.2,MacIntel,60,5f5adea66120081ea0f57a61,5f5c727a3817c045ea29856c,4,,,,,,rug,,,,,,0,47,47,14,1,2,1,,,,,,,,,,,,,,,,,,,,,,,,,,,,,,,,,,,,,,,,,,,,,,,,,,,,,,,,,,,,,,,,,,,,,,,,,,,
,,,,,,,,,,stimuli/images/PICTURE_32.png,KIND,5ed27c0a35a14107c491ffc0,31/12/1951,2020-09-12_08h02.51.999,proactive3.2,2020.1.2,MacIntel,60,5f5adea66120081ea0f57a61,5f5c727a3817c045ea29856c,4,,,,,,crown,,,,,,0,48,48,35,1,4,1,,,,,,,,,,,,,,,,,,,,,,,,,,,,,,,,,,,,,,,,,,,,,,,,,,,,,,,,,,,,,,,,,,,,,,,,,,,
,,,,,,,,,,stimuli/images/PICTURE_383.png,WRITER,5ed27c0a35a14107c491ffc0,31/12/1951,2020-09-12_08h02.51.999,proactive3.2,2020.1.2,MacIntel,60,5f5adea66120081ea0f57a61,5f5c727a3817c045ea29856c,4,,,,,,coin,,,,,,0,49,49,28,1,3,1,,,,,,,,,,,,,,,,,,,,,,,,,,,,,,,,,,,,,,,,,,,,,,,,,,,,,,,,,,,,,,,,,,,,,,,,,,,
,,,,,,,,,,stimuli/images/PICTURE_708.png,RECORD,5ed27c0a35a14107c491ffc0,31/12/1951,2020-09-12_08h02.51.999,proactive3.2,2020.1.2,MacIntel,60,5f5adea66120081ea0f57a61,5f5c727a3817c045ea29856c,4,,,,,,monkey,,,,,,0,50,50,58,1,6,1,,,,,,,,,,,,,,,,,,,,,,,,,,,,,,,,,,,,,,,,,,,,,,,,,,,,,,,,,,,,,,,,,,,,,,,,,,,
,,,,,,,,,,stimuli/images/PICTURE_296.png,LOTS,5ed27c0a35a14107c491ffc0,31/12/1951,2020-09-12_08h02.51.999,proactive3.2,2020.1.2,MacIntel,60,5f5adea66120081ea0f57a61,5f5c727a3817c045ea29856c,4,,,,,,bolt,,,,,,0,51,51,9,1,1,1,,,,,,,,,,,,,,,,,,,,,,,,,,,,,,,,,,,,,,,,,,,,,,,,,,,,,,,,,,,,,,,,,,,,,,,,,,,
,,,,,,,,,,stimuli/images/PICTURE_380.png,CANDY,5ed27c0a35a14107c491ffc0,31/12/1951,2020-09-12_08h02.51.999,proactive3.2,2020.1.2,MacIntel,60,5f5adea66120081ea0f57a61,5f5c727a3817c045ea29856c,4,,,,,,gorilla,,,,,,0,52,52,0,1,1,1,,,,,,,,,,,,,,,,,,,,,,,,,,,,,,,,,,,,,,,,,,,,,,,,,,,,,,,,,,,,,,,,,,,,,,,,,,,
,,,,,,,,,,stimuli/images/PICTURE_449.png,DUDE,5ed27c0a35a14107c491ffc0,31/12/1951,2020-09-12_08h02.51.999,proactive3.2,2020.1.2,MacIntel,60,5f5adea66120081ea0f57a61,5f5c727a3817c045ea29856c,4,,,,,,bench,,,,,,0,53,53,17,1,2,1,,,,,,,,,,,,,,,,,,,,,,,,,,,,,,,,,,,,,,,,,,,,,,,,,,,,,,,,,,,,,,,,,,,,,,,,,,,
,,,,,,,,,,stimuli/images/PICTURE_308.png,FAMILY,5ed27c0a35a14107c491ffc0,31/12/1951,2020-09-12_08h02.51.999,proactive3.2,2020.1.2,MacIntel,60,5f5adea66120081ea0f57a61,5f5c727a3817c045ea29856c,4,,,,,,dice,,,,,,0,54,54,36,1,4,1,,,,,,,,,,,,,,,,,,,,,,,,,,,,,,,,,,,,,,,,,,,,,,,,,,,,,,,,,,,,,,,,,,,,,,,,,,,
,,,,,,,,,,stimuli/images/PICTURE_233.png,LOTS,5ed27c0a35a14107c491ffc0,31/12/1951,2020-09-12_08h02.51.999,proactive3.2,2020.1.2,MacIntel,60,5f5adea66120081ea0f57a61,5f5c727a3817c045ea29856c,4,,,,,,salt,,,,,,0,55,55,42,1,5,1,,,,,,,,,,,,,,,,,,,,,,,,,,,,,,,,,,,,,,,,,,,,,,,,,,,,,,,,,,,,,,,,,,,,,,,,,,,
,,,,,,,,,,stimuli/images/PICTURE_85.png,TOILET,5ed27c0a35a14107c491ffc0,31/12/1951,2020-09-12_08h02.51.999,proactive3.2,2020.1.2,MacIntel,60,5f5adea66120081ea0f57a61,5f5c727a3817c045ea29856c,4,,,,,,diamond,,,,,,0,56,56,48,1,5,1,,,,,,,,,,,,,,,,,,,,,,,,,,,,,,,,,,,,,,,,,,,,,,,,,,,,,,,,,,,,,,,,,,,,,,,,,,,
,,,,,,,,,,stimuli/images/PICTURE_405.png,YEAR,5ed27c0a35a14107c491ffc0,31/12/1951,2020-09-12_08h02.51.999,proactive3.2,2020.1.2,MacIntel,60,5f5adea66120081ea0f57a61,5f5c727a3817c045ea29856c,4,,,,,,anchor,,,,,,0,57,57,34,1,4,1,,,,,,,,,,,,,,,,,,,,,,,,,,,,,,,,,,,,,,,,,,,,,,,,,,,,,,,,,,,,,,,,,,,,,,,,,,,
,,,,,,,,,,stimuli/images/PICTURE_340.png,LETTER,5ed27c0a35a14107c491ffc0,31/12/1951,2020-09-12_08h02.51.999,proactive3.2,2020.1.2,MacIntel,60,5f5adea66120081ea0f57a61,5f5c727a3817c045ea29856c,4,,,,,,mirror,,,,,,0,58,58,24,1,3,1,,,,,,,,,,,,,,,,,,,,,,,,,,,,,,,,,,,,,,,,,,,,,,,,,,,,,,,,,,,,,,,,,,,,,,,,,,,
,,?,0.004,0,,,,,,stimuli/images/PICTURE_677.png,APPLE,5ed27c0a35a14107c491ffc0,31/12/1951,2020-09-12_08h02.51.999,proactive3.2,2020.1.2,MacIntel,60,5f5adea66120081ea0f57a61,5f5c727a3817c045ea29856c,4,,,,,,map,,,,,,,,,,,5,1,0,0,0,43,1,,,,,,,,,,,,,,,,,,,,,,,,,,,,,,,,,,,,,,,,,,,,,,,,,,,,,,,,,,,,,,,,,,,,,,
,,?,0.002,0,,,,,,stimuli/images/PICTURE_504.png,YEAR,5ed27c0a35a14107c491ffc0,31/12/1951,2020-09-12_08h02.51.999,proactive3.2,2020.1.2,MacIntel,60,5f5adea66120081ea0f57a61,5f5c727a3817c045ea29856c,4,,,,,,wheel,,,,,,,,,,,2,1,0,1,1,13,1,,,,,,,,,,,,,,,,,,,,,,,,,,,,,,,,,,,,,,,,,,,,,,,,,,,,,,,,,,,,,,,,,,,,,,
,,RIVER,5.699,1,,,,,,stimuli/images/PICTURE_297.png,RIVER,5ed27c0a35a14107c491ffc0,31/12/1951,2020-09-12_08h02.51.999,proactive3.2,2020.1.2,MacIntel,60,5f5adea66120081ea0f57a61,5f5c727a3817c045ea29856c,4,,,,,,aeroplane,,,,,,,,,,,4,1,0,2,2,39,1,,,,,,,,,,,,,,,,,,,,,,,,,,,,,,,,,,,,,,,,,,,,,,,,,,,,,,,,,,,,,,,,,,,,,,
,,?,0.003,0,,,,,,stimuli/images/PICTURE_85.png,NATION,5ed27c0a35a14107c491ffc0,31/12/1951,2020-09-12_08h02.51.999,proactive3.2,2020.1.2,MacIntel,60,5f5adea66120081ea0f57a61,5f5c727a3817c045ea29856c,4,,,,,,diamond,,,,,,,,,,,1,1,0,3,3,5,1,,,,,,,,,,,,,,,,,,,,,,,,,,,,,,,,,,,,,,,,,,,,,,,,,,,,,,,,,,,,,,,,,,,,,,
,,?,0.003,0,,,,,,stimuli/images/PICTURE_655.png,TOILET,5ed27c0a35a14107c491ffc0,31/12/1951,2020-09-12_08h02.51.999,proactive3.2,2020.1.2,MacIntel,60,5f5adea66120081ea0f57a61,5f5c727a3817c045ea29856c,4,,,,,,megaphone,,,,,,,,,,,2,1,0,4,4,12,1,,,,,,,,,,,,,,,,,,,,,,,,,,,,,,,,,,,,,,,,,,,,,,,,,,,,,,,,,,,,,,,,,,,,,,
,,?,0.003,0,,,,,,stimuli/images/PICTURE_108.png,POLICY,5ed27c0a35a14107c491ffc0,31/12/1951,2020-09-12_08h02.51.999,proactive3.2,2020.1.2,MacIntel,60,5f5adea66120081ea0f57a61,5f5c727a3817c045ea29856c,4,,,,,,calendar,,,,,,,,,,,3,1,0,5,5,22,1,,,,,,,,,,,,,,,,,,,,,,,,,,,,,,,,,,,,,,,,,,,,,,,,,,,,,,,,,,,,,,,,,,,,,,
,,?,0.002,0,,,,,,stimuli/images/PICTURE_85.png,TOILET,5ed27c0a35a14107c491ffc0,31/12/1951,2020-09-12_08h02.51.999,proactive3.2,2020.1.2,MacIntel,60,5f5adea66120081ea0f57a61,5f5c727a3817c045ea29856c,4,,,,,,diamond,,,,,,,,,,,5,1,0,6,6,48,1,,,,,,,,,,,,,,,,,,,,,,,,,,,,,,,,,,,,,,,,,,,,,,,,,,,,,,,,,,,,,,,,,,,,,,
,,?,0.002,0,,,,,,stimuli/images/PICTURE_340.png,VALLEY,5ed27c0a35a14107c491ffc0,31/12/1951,2020-09-12_08h02.51.999,proactive3.2,2020.1.2,MacIntel,60,5f5adea66120081ea0f57a61,5f5c727a3817c045ea29856c,4,,,,,,mirror,,,,,,,,,,,6,1,0,7,7,54,1,,,,,,,,,,,,,,,,,,,,,,,,,,,,,,,,,,,,,,,,,,,,,,,,,,,,,,,,,,,,,,,,,,,,,,
,,?,0.002,0,,,,,,stimuli/images/PICTURE_744.png,WEAPON,5ed27c0a35a14107c491ffc0,31/12/1951,2020-09-12_08h02.51.999,proactive3.2,2020.1.2,MacIntel,60,5f5adea66120081ea0f57a61,5f5c727a3817c045ea29856c,4,,,,,,ring,,,,,,,,,,,6,1,0,8,8,50,1,,,,,,,,,,,,,,,,,,,,,,,,,,,,,,,,,,,,,,,,,,,,,,,,,,,,,,,,,,,,,,,,,,,,,,
,,?,0.001,0,,,,,,stimuli/images/PICTURE_504.png,ARTIST,5ed27c0a35a14107c491ffc0,31/12/1951,2020-09-12_08h02.51.999,proactive3.2,2020.1.2,MacIntel,60,5f5adea66120081ea0f57a61,5f5c727a3817c045ea29856c,4,,,,,,wheel,,,,,,,,,,,5,1,0,9,9,49,1,,,,,,,,,,,,,,,,,,,,,,,,,,,,,,,,,,,,,,,,,,,,,,,,,,,,,,,,,,,,,,,,,,,,,,
,,?,0,0,,,,,,stimuli/images/PICTURE_2.png,FLIGHT,5ed27c0a35a14107c491ffc0,31/12/1951,2020-09-12_08h02.51.999,proactive3.2,2020.1.2,MacIntel,60,5f5adea66120081ea0f57a61,5f5c727a3817c045ea29856c,4,,,,,,tyre,,,,,,,,,,,2,1,0,10,10,15,1,,,,,,,,,,,,,,,,,,,,,,,,,,,,,,,,,,,,,,,,,,,,,,,,,,,,,,,,,,,,,,,,,,,,,,
,,?,0.001,0,,,,,,stimuli/images/PICTURE_449.png,DUDE,5ed27c0a35a14107c491ffc0,31/12/1951,2020-09-12_08h02.51.999,proactive3.2,2020.1.2,MacIntel,60,5f5adea66120081ea0f57a61,5f5c727a3817c045ea29856c,4,,,,,,bench,,,,,,,,,,,2,1,0,11,11,17,1,,,,,,,,,,,,,,,,,,,,,,,,,,,,,,,,,,,,,,,,,,,,,,,,,,,,,,,,,,,,,,,,,,,,,,
,,?,0.001,0,,,,,,stimuli/images/PICTURE_68.png,MILE,5ed27c0a35a14107c491ffc0,31/12/1951,2020-09-12_08h02.51.999,proactive3.2,2020.1.2,MacIntel,60,5f5adea66120081ea0f57a61,5f5c727a3817c045ea29856c,4,,,,,,candle,,,,,,,,,,,6,1,0,12,12,51,1,,,,,,,,,,,,,,,,,,,,,,,,,,,,,,,,,,,,,,,,,,,,,,,,,,,,,,,,,,,,,,,,,,,,,,
,,?,3.464,0,,,,,,stimuli/images/PICTURE_57.png,MOMENT,5ed27c0a35a14107c491ffc0,31/12/1951,2020-09-12_08h02.51.999,proactive3.2,2020.1.2,MacIntel,60,5f5adea66120081ea0f57a61,5f5c727a3817c045ea29856c,4,,,,,,stamp,,,,,,,,,,,4,1,0,13,13,37,1,,,,,,,,,,,,,,,,,,,,,,,,,,,,,,,,,,,,,,,,,,,,,,,,,,,,,,,,,,,,,,,,,,,,,,
,,?,0.003,0,,,,,,stimuli/images/PICTURE_95.png,BOYS,5ed27c0a35a14107c491ffc0,31/12/1951,2020-09-12_08h02.51.999,proactive3.2,2020.1.2,MacIntel,60,5f5adea66120081ea0f57a61,5f5c727a3817c045ea29856c,4,,,,,,suitcase,,,,,,,,,,,1,1,0,14,14,1,1,,,,,,,,,,,,,,,,,,,,,,,,,,,,,,,,,,,,,,,,,,,,,,,,,,,,,,,,,,,,,,,,,,,,,,
,,?,0.004,0,,,,,,stimuli/images/PICTURE_469.png,AGENT,5ed27c0a35a14107c491ffc0,31/12/1951,2020-09-12_08h02.51.999,proactive3.2,2020.1.2,MacIntel,60,5f5adea66120081ea0f57a61,5f5c727a3817c045ea29856c,4,,,,,,stool,,,,,,,,,,,2,1,0,15,15,16,1,,,,,,,,,,,,,,,,,,,,,,,,,,,,,,,,,,,,,,,,,,,,,,,,,,,,,,,,,,,,,,,,,,,,,,
,,?,0.004,0,,,,,,stimuli/images/PICTURE_32.png,PILLS,5ed27c0a35a14107c491ffc0,31/12/1951,2020-09-12_08h02.51.999,proactive3.2,2020.1.2,MacIntel,60,5f5adea66120081ea0f57a61,5f5c727a3817c045ea29856c,4,,,,,,crown,,,,,,,,,,,2,1,0,16,16,18,1,,,,,,,,,,,,,,,,,,,,,,,,,,,,,,,,,,,,,,,,,,,,,,,,,,,,,,,,,,,,,,,,,,,,,,
,,?,1.985,0,,,,,,stimuli/images/PICTURE_285.png,LIFE,5ed27c0a35a14107c491ffc0,31/12/1951,2020-09-12_08h02.51.999,proactive3.2,2020.1.2,MacIntel,60,5f5adea66120081ea0f57a61,5f5c727a3817c045ea29856c,4,,,,,,carrot,,,,,,,,,,,4,1,0,17,17,33,1,,,,,,,,,,,,,,,,,,,,,,,,,,,,,,,,,,,,,,,,,,,,,,,,,,,,,,,,,,,,,,,,,,,,,,
,,?,0.003,0,,,,,,stimuli/images/PICTURE_491.png,GLASS,5ed27c0a35a14107c491ffc0,31/12/1951,2020-09-12_08h02.51.999,proactive3.2,2020.1.2,MacIntel,60,5f5adea66120081ea0f57a61,5f5c727a3817c045ea29856c,4,,,,,,rug,,,,,,,,,,,2,1,0,18,18,14,1,,,,,,,,,,,,,,,,,,,,,,,,,,,,,,,,,,,,,,,,,,,,,,,,,,,,,,,,,,,,,,,,,,,,,,
,,?,0.002,0,,,,,,stimuli/images/PICTURE_340.png,LETTER,5ed27c0a35a14107c491ffc0,31/12/1951,2020-09-12_08h02.51.999,proactive3.2,2020.1.2,MacIntel,60,5f5adea66120081ea0f57a61,5f5c727a3817c045ea29856c,4,,,,,,mirror,,,,,,,,,,,3,1,0,19,19,24,1,,,,,,,,,,,,,,,,,,,,,,,,,,,,,,,,,,,,,,,,,,,,,,,,,,,,,,,,,,,,,,,,,,,,,,
,,?,0.002,0,,,,,,stimuli/images/PICTURE_147.png,WOMEN,5ed27c0a35a14107c491ffc0,31/12/1951,2020-09-12_08h02.51.999,proactive3.2,2020.1.2,MacIntel,60,5f5adea66120081ea0f57a61,5f5c727a3817c045ea29856c,4,,,,,,hanger,,,,,,,,,,,1,1,0,20,20,7,1,,,,,,,,,,,,,,,,,,,,,,,,,,,,,,,,,,,,,,,,,,,,,,,,,,,,,,,,,,,,,,,,,,,,,,
,,?,0.002,0,,,,,,stimuli/images/PICTURE_654.png,MONTH,5ed27c0a35a14107c491ffc0,31/12/1951,2020-09-12_08h02.51.999,proactive3.2,2020.1.2,MacIntel,60,5f5adea66120081ea0f57a61,5f5c727a3817c045ea29856c,4,,,,,,pencil,,,,,,,,,,,3,1,0,21,21,29,1,,,,,,,,,,,,,,,,,,,,,,,,,,,,,,,,,,,,,,,,,,,,,,,,,,,,,,,,,,,,,,,,,,,,,,
,,?,0.002,0,,,,,,stimuli/images/PICTURE_383.png,SERIES,5ed27c0a35a14107c491ffc0,31/12/1951,2020-09-12_08h02.51.999,proactive3.2,2020.1.2,MacIntel,60,5f5adea66120081ea0f57a61,5f5c727a3817c045ea29856c,4,,,,,,coin,,,,,,,,,,,5,1,0,22,22,46,1,,,,,,,,,,,,,,,,,,,,,,,,,,,,,,,,,,,,,,,,,,,,,,,,,,,,,,,,,,,,,,,,,,,,,,
,,?,0.003,0,,,,,,stimuli/images/PICTURE_405.png,PLENTY,5ed27c0a35a14107c491ffc0,31/12/1951,2020-09-12_08h02.51.999,proactive3.2,2020.1.2,MacIntel,60,5f5adea66120081ea0f57a61,5f5c727a3817c045ea29856c,4,,,,,,anchor,,,,,,,,,,,3,1,0,23,23,23,1,,,,,,,,,,,,,,,,,,,,,,,,,,,,,,,,,,,,,,,,,,,,,,,,,,,,,,,,,,,,,,,,,,,,,,
,,?,1.498,0,,,,,,stimuli/images/PICTURE_405.png,YEAR,5ed27c0a35a14107c491ffc0,31/12/1951,2020-09-12_08h02.51.999,proactive3.2,2020.1.2,MacIntel,60,5f5adea66120081ea0f57a61,5f5c727a3817c045ea29856c,4,,,,,,anchor,,,,,,,,,,,4,1,0,24,24,34,1,,,,,,,,,,,,,,,,,,,,,,,,,,,,,,,,,,,,,,,,,,,,,,,,,,,,,,,,,,,,,,,,,,,,,,
,,?,0.003,0,,,,,,stimuli/images/PICTURE_403.png,TOILET,5ed27c0a35a14107c491ffc0,31/12/1951,2020-09-12_08h02.51.999,proactive3.2,2020.1.2,MacIntel,60,5f5adea66120081ea0f57a61,5f5c727a3817c045ea29856c,4,,,,,,cathedral,,,,,,,,,,,3,1,0,25,25,25,1,,,,,,,,,,,,,,,,,,,,,,,,,,,,,,,,,,,,,,,,,,,,,,,,,,,,,,,,,,,,,,,,,,,,,,
,,?,0.002,0,,,,,,stimuli/images/PICTURE_403.png,RIVER,5ed27c0a35a14107c491ffc0,31/12/1951,2020-09-12_08h02.51.999,proactive3.2,2020.1.2,MacIntel,60,5f5adea66120081ea0f57a61,5f5c727a3817c045ea29856c,4,,,,,,cathedral,,,,,,,,,,,5,1,0,26,26,40,1,,,,,,,,,,,,,,,,,,,,,,,,,,,,,,,,,,,,,,,,,,,,,,,,,,,,,,,,,,,,,,,,,,,,,,
,,WRITER,5.859,1,,,,,,stimuli/images/PICTURE_403.png,WRITER,5ed27c0a35a14107c491ffc0,31/12/1951,2020-09-12_08h02.51.999,proactive3.2,2020.1.2,MacIntel,60,5f5adea66120081ea0f57a61,5f5c727a3817c045ea29856c,4,,,,,,cathedral,,,,,,,,,,,4,1,0,27,27,31,1,,,,,,,,,,,,,,,,,,,,,,,,,,,,,,,,,,,,,,,,,,,,,,,,,,,,,,,,,,,,,,,,,,,,,,
,,?,0.002,0,,,,,,stimuli/images/PICTURE_95.png,HONEY,5ed27c0a35a14107c491ffc0,31/12/1951,2020-09-12_08h02.51.999,proactive3.2,2020.1.2,MacIntel,60,5f5adea66120081ea0f57a61,5f5c727a3817c045ea29856c,4,,,,,,suitcase,,,,,,,,,,,5,1,0,28,28,44,1,,,,,,,,,,,,,,,,,,,,,,,,,,,,,,,,,,,,,,,,,,,,,,,,,,,,,,,,,,,,,,,,,,,,,,
,,?,0.002,0,,,,,,stimuli/images/PICTURE_203.png,NIGHT,5ed27c0a35a14107c491ffc0,31/12/1951,2020-09-12_08h02.51.999,proactive3.2,2020.1.2,MacIntel,60,5f5adea66120081ea0f57a61,5f5c727a3817c045ea29856c,4,,,,,,cap,,,,,,,,,,,1,1,0,29,29,2,1,,,,,,,,,,,,,,,,,,,,,,,,,,,,,,,,,,,,,,,,,,,,,,,,,,,,,,,,,,,,,,,,,,,,,,
,,?,1.64,0,,,,,,stimuli/images/PICTURE_68.png,ROOF,5ed27c0a35a14107c491ffc0,31/12/1951,2020-09-12_08h02.51.999,proactive3.2,2020.1.2,MacIntel,60,5f5adea66120081ea0f57a61,5f5c727a3817c045ea29856c,4,,,,,,candle,,,,,,,,,,,4,1,0,30,30,38,1,,,,,,,,,,,,,,,,,,,,,,,,,,,,,,,,,,,,,,,,,,,,,,,,,,,,,,,,,,,,,,,,,,,,,,
,,?,0.004,0,,,,,,stimuli/images/PICTURE_327.png,CASINO,5ed27c0a35a14107c491ffc0,31/12/1951,2020-09-12_08h02.51.999,proactive3.2,2020.1.2,MacIntel,60,5f5adea66120081ea0f57a61,5f5c727a3817c045ea29856c,4,,,,,,helmet,,,,,,,,,,,3,1,0,31,31,20,1,,,,,,,,,,,,,,,,,,,,,,,,,,,,,,,,,,,,,,,,,,,,,,,,,,,,,,,,,,,,,,,,,,,,,,
,,?,0.003,0,,,,,,stimuli/images/PICTURE_685.png,PENNY,5ed27c0a35a14107c491ffc0,31/12/1951,2020-09-12_08h02.51.999,proactive3.2,2020.1.2,MacIntel,60,5f5adea66120081ea0f57a61,5f5c727a3817c045ea29856c,4,,,,,,goose,,,,,,,,,,,1,1,0,32,32,4,1,,,,,,,,,,,,,,,,,,,,,,,,,,,,,,,,,,,,,,,,,,,,,,,,,,,,,,,,,,,,,,,,,,,,,,
,,?,0.002,0,,,,,,stimuli/images/PICTURE_504.png,COPS,5ed27c0a35a14107c491ffc0,31/12/1951,2020-09-12_08h02.51.999,proactive3.2,2020.1.2,MacIntel,60,5f5adea66120081ea0f57a61,5f5c727a3817c045ea29856c,4,,,,,,wheel,,,,,,,,,,,6,1,0,33,33,52,1,,,,,,,,,,,,,,,,,,,,,,,,,,,,,,,,,,,,,,,,,,,,,,,,,,,,,,,,,,,,,,,,,,,,,,
,,?,0.002,0,,,,,,stimuli/images/PICTURE_380.png,HONEY,5ed27c0a35a14107c491ffc0,31/12/1951,2020-09-12_08h02.51.999,proactive3.2,2020.1.2,MacIntel,60,5f5adea66120081ea0f57a61,5f5c727a3817c045ea29856c,4,,,,,,gorilla,,,,,,,,,,,2,1,0,34,34,19,1,,,,,,,,,,,,,,,,,,,,,,,,,,,,,,,,,,,,,,,,,,,,,,,,,,,,,,,,,,,,,,,,,,,,,,
,,?,0.002,0,,,,,,stimuli/images/PICTURE_327.png,SERIES,5ed27c0a35a14107c491ffc0,31/12/1951,2020-09-12_08h02.51.999,proactive3.2,2020.1.2,MacIntel,60,5f5adea66120081ea0f57a61,5f5c727a3817c045ea29856c,4,,,,,,helmet,,,,,,,,,,,1,1,0,35,35,3,1,,,,,,,,,,,,,,,,,,,,,,,,,,,,,,,,,,,,,,,,,,,,,,,,,,,,,,,,,,,,,,,,,,,,,,
,,?,0.002,0,,,,,,stimuli/images/PICTURE_564.png,BATH,5ed27c0a35a14107c491ffc0,31/12/1951,2020-09-12_08h02.51.999,proactive3.2,2020.1.2,MacIntel,60,5f5adea66120081ea0f57a61,5f5c727a3817c045ea29856c,4,,,,,,spoon,,,,,,,,,,,3,1,0,36,36,26,1,,,,,,,,,,,,,,,,,,,,,,,,,,,,,,,,,,,,,,,,,,,,,,,,,,,,,,,,,,,,,,,,,,,,,,
,,?,0.616,0,,,,,,stimuli/images/PICTURE_203.png,GODS,5ed27c0a35a14107c491ffc0,31/12/1951,2020-09-12_08h02.51.999,proactive3.2,2020.1.2,MacIntel,60,5f5adea66120081ea0f57a61,5f5c727a3817c045ea29856c,4,,,,,,cap,,,,,,,,,,,4,1,0,37,37,30,1,,,,,,,,,,,,,,,,,,,,,,,,,,,,,,,,,,,,,,,,,,,,,,,,,,,,,,,,,,,,,,,,,,,,,,
,,?,0.004,0,,,,,,stimuli/images/PICTURE_380.png,CANDY,5ed27c0a35a14107c491ffc0,31/12/1951,2020-09-12_08h02.51.999,proactive3.2,2020.1.2,MacIntel,60,5f5adea66120081ea0f57a61,5f5c727a3817c045ea29856c,4,,,,,,gorilla,,,,,,,,,,,1,1,0,38,38,0,1,,,,,,,,,,,,,,,,,,,,,,,,,,,,,,,,,,,,,,,,,,,,,,,,,,,,,,,,,,,,,,,,,,,,,,
,,?,0.003,0,,,,,,stimuli/images/PICTURE_296.png,LIFE,5ed27c0a35a14107c491ffc0,31/12/1951,2020-09-12_08h02.51.999,proactive3.2,2020.1.2,MacIntel,60,5f5adea66120081ea0f57a61,5f5c727a3817c045ea29856c,4,,,,,,bolt,,,,,,,,,,,6,1,0,39,39,57,1,,,,,,,,,,,,,,,,,,,,,,,,,,,,,,,,,,,,,,,,,,,,,,,,,,,,,,,,,,,,,,,,,,,,,,
,,?,0.002,0,,,,,,stimuli/images/PICTURE_108.png,FLIGHT,5ed27c0a35a14107c491ffc0,31/12/1951,2020-09-12_08h02.51.999,proactive3.2,2020.1.2,MacIntel,60,5f5adea66120081ea0f57a61,5f5c727a3817c045ea29856c,4,,,,,,calendar,,,,,,,,,,,6,1,0,40,40,59,1,,,,,,,,,,,,,,,,,,,,,,,,,,,,,,,,,,,,,,,,,,,,,,,,,,,,,,,,,,,,,,,,,,,,,,
,,?,0.003,0,,,,,,stimuli/images/PICTURE_708.png,RECORD,5ed27c0a35a14107c491ffc0,31/12/1951,2020-09-12_08h02.51.999,proactive3.2,2020.1.2,MacIntel,60,5f5adea66120081ea0f57a61,5f5c727a3817c045ea29856c,4,,,,,,monkey,,,,,,,,,,,6,1,0,41,41,58,1,,,,,,,,,,,,,,,,,,,,,,,,,,,,,,,,,,,,,,,,,,,,,,,,,,,,,,,,,,,,,,,,,,,,,,
,,?,0.004,0,,,,,,stimuli/images/PICTURE_95.png,MILLER,5ed27c0a35a14107c491ffc0,31/12/1951,2020-09-12_08h02.51.999,proactive3.2,2020.1.2,MacIntel,60,5f5adea66120081ea0f57a61,5f5c727a3817c045ea29856c,4,,,,,,suitcase,,,,,,,,,,,6,1,0,42,42,56,1,,,,,,,,,,,,,,,,,,,,,,,,,,,,,,,,,,,,,,,,,,,,,,,,,,,,,,,,,,,,,,,,,,,,,,
,,?,0.002,0,,,,,,stimuli/images/PICTURE_233.png,LOTS,5ed27c0a35a14107c491ffc0,31/12/1951,2020-09-12_08h02.51.999,proactive3.2,2020.1.2,MacIntel,60,5f5adea66120081ea0f57a61,5f5c727a3817c045ea29856c,4,,,,,,salt,,,,,,,,,,,5,1,0,43,43,42,1,,,,,,,,,,,,,,,,,,,,,,,,,,,,,,,,,,,,,,,,,,,,,,,,,,,,,,,,,,,,,,,,,,,,,,
,,?,0.001,0,,,,,,stimuli/images/PICTURE_42.png,BOYS,5ed27c0a35a14107c491ffc0,31/12/1951,2020-09-12_08h02.51.999,proactive3.2,2020.1.2,MacIntel,60,5f5adea66120081ea0f57a61,5f5c727a3817c045ea29856c,4,,,,,,pear,,,,,,,,,,,6,1,0,44,44,55,1,,,,,,,,,,,,,,,,,,,,,,,,,,,,,,,,,,,,,,,,,,,,,,,,,,,,,,,,,,,,,,,,,,,,,,
,,?,0.001,0,,,,,,stimuli/images/PICTURE_147.png,YEAR,5ed27c0a35a14107c491ffc0,31/12/1951,2020-09-12_08h02.51.999,proactive3.2,2020.1.2,MacIntel,60,5f5adea66120081ea0f57a61,5f5c727a3817c045ea29856c,4,,,,,,hanger,,,,,,,,,,,3,1,0,45,45,21,1,,,,,,,,,,,,,,,,,,,,,,,,,,,,,,,,,,,,,,,,,,,,,,,,,,,,,,,,,,,,,,,,,,,,,,
,,?,0.527,0,,,,,,stimuli/images/PICTURE_208.png,SYSTEM,5ed27c0a35a14107c491ffc0,31/12/1951,2020-09-12_08h02.51.999,proactive3.2,2020.1.2,MacIntel,60,5f5adea66120081ea0f57a61,5f5c727a3817c045ea29856c,4,,,,,,microphone,,,,,,,,,,,4,1,0,46,46,32,1,,,,,,,,,,,,,,,,,,,,,,,,,,,,,,,,,,,,,,,,,,,,,,,,,,,,,,,,,,,,,,,,,,,,,,
,,?,0.002,0,,,,,,stimuli/images/PICTURE_296.png,LOTS,5ed27c0a35a14107c491ffc0,31/12/1951,2020-09-12_08h02.51.999,proactive3.2,2020.1.2,MacIntel,60,5f5adea66120081ea0f57a61,5f5c727a3817c045ea29856c,4,,,,,,bolt,,,,,,,,,,,1,1,0,47,47,9,1,,,,,,,,,,,,,,,,,,,,,,,,,,,,,,,,,,,,,,,,,,,,,,,,,,,,,,,,,,,,,,,,,,,,,,
,,?,0.002,0,,,,,,stimuli/images/PICTURE_487.png,GIRL,5ed27c0a35a14107c491ffc0,31/12/1951,2020-09-12_08h02.51.999,proactive3.2,2020.1.2,MacIntel,60,5f5adea66120081ea0f57a61,5f5c727a3817c045ea29856c,4,,,,,,basket,,,,,,,,,,,5,1,0,48,48,45,1,,,,,,,,,,,,,,,,,,,,,,,,,,,,,,,,,,,,,,,,,,,,,,,,,,,,,,,,,,,,,,,,,,,,,,
,,?,0.002,0,,,,,,stimuli/images/PICTURE_675.png,SALE,5ed27c0a35a14107c491ffc0,31/12/1951,2020-09-12_08h02.51.999,proactive3.2,2020.1.2,MacIntel,60,5f5adea66120081ea0f57a61,5f5c727a3817c045ea29856c,4,,,,,,windmill,,,,,,,,,,,5,1,0,49,49,47,1,,,,,,,,,,,,,,,,,,,,,,,,,,,,,,,,,,,,,,,,,,,,,,,,,,,,,,,,,,,,,,,,,,,,,,
,,?,0.002,0,,,,,,stimuli/images/PICTURE_33.png,FRIEND,5ed27c0a35a14107c491ffc0,31/12/1951,2020-09-12_08h02.51.999,proactive3.2,2020.1.2,MacIntel,60,5f5adea66120081ea0f57a61,5f5c727a3817c045ea29856c,4,,,,,,frame,,,,,,,,,,,1,1,0,50,50,8,1,,,,,,,,,,,,,,,,,,,,,,,,,,,,,,,,,,,,,,,,,,,,,,,,,,,,,,,,,,,,,,,,,,,,,,
,,?,0.002,0,,,,,,stimuli/images/PICTURE_177.png,WRITER,5ed27c0a35a14107c491ffc0,31/12/1951,2020-09-12_08h02.51.999,proactive3.2,2020.1.2,MacIntel,60,5f5adea66120081ea0f57a61,5f5c727a3817c045ea29856c,4,,,,,,mushroom,,,,,,,,,,,5,1,0,51,51,41,1,,,,,,,,,,,,,,,,,,,,,,,,,,,,,,,,,,,,,,,,,,,,,,,,,,,,,,,,,,,,,,,,,,,,,,
,,?,0.002,0,,,,,,stimuli/images/PICTURE_491.png,RIVER,5ed27c0a35a14107c491ffc0,31/12/1951,2020-09-12_08h02.51.999,proactive3.2,2020.1.2,MacIntel,60,5f5adea66120081ea0f57a61,5f5c727a3817c045ea29856c,4,,,,,,rug,,,,,,,,,,,1,1,0,52,52,6,1,,,,,,,,,,,,,,,,,,,,,,,,,,,,,,,,,,,,,,,,,,,,,,,,,,,,,,,,,,,,,,,,,,,,,,
,,?,0.002,0,,,,,,stimuli/images/PICTURE_467.png,POLICY,5ed27c0a35a14107c491ffc0,31/12/1951,2020-09-12_08h02.51.999,proactive3.2,2020.1.2,MacIntel,60,5f5adea66120081ea0f57a61,5f5c727a3817c045ea29856c,4,,,,,,peg,,,,,,,,,,,6,1,0,53,53,53,1,,,,,,,,,,,,,,,,,,,,,,,,,,,,,,,,,,,,,,,,,,,,,,,,,,,,,,,,,,,,,,,,,,,,,,
,,?,0.002,0,,,,,,stimuli/images/PICTURE_667.png,RIVER,5ed27c0a35a14107c491ffc0,31/12/1951,2020-09-12_08h02.51.999,proactive3.2,2020.1.2,MacIntel,60,5f5adea66120081ea0f57a61,5f5c727a3817c045ea29856c,4,,,,,,daisy,,,,,,,,,,,2,1,0,54,54,10,1,,,,,,,,,,,,,,,,,,,,,,,,,,,,,,,,,,,,,,,,,,,,,,,,,,,,,,,,,,,,,,,,,,,,,,
,,?,0.002,0,,,,,,stimuli/images/PICTURE_339.png,CLIENT,5ed27c0a35a14107c491ffc0,31/12/1951,2020-09-12_08h02.51.999,proactive3.2,2020.1.2,MacIntel,60,5f5adea66120081ea0f57a61,5f5c727a3817c045ea29856c,4,,,,,,backpack,,,,,,,,,,,2,1,0,55,55,11,1,,,,,,,,,,,,,,,,,,,,,,,,,,,,,,,,,,,,,,,,,,,,,,,,,,,,,,,,,,,,,,,,,,,,,,
,,?,0.002,0,,,,,,stimuli/images/PICTURE_750.png,HOTEL,5ed27c0a35a14107c491ffc0,31/12/1951,2020-09-12_08h02.51.999,proactive3.2,2020.1.2,MacIntel,60,5f5adea66120081ea0f57a61,5f5c727a3817c045ea29856c,4,,,,,,kettle,,,,,,,,,,,3,1,0,56,56,27,1,,,,,,,,,,,,,,,,,,,,,,,,,,,,,,,,,,,,,,,,,,,,,,,,,,,,,,,,,,,,,,,,,,,,,,
,,?,0.495,0,,,,,,stimuli/images/PICTURE_32.png,KIND,5ed27c0a35a14107c491ffc0,31/12/1951,2020-09-12_08h02.51.999,proactive3.2,2020.1.2,MacIntel,60,5f5adea66120081ea0f57a61,5f5c727a3817c045ea29856c,4,,,,,,crown,,,,,,,,,,,4,1,0,57,57,35,1,,,,,,,,,,,,,,,,,,,,,,,,,,,,,,,,,,,,,,,,,,,,,,,,,,,,,,,,,,,,,,,,,,,,,,
,,?,0.549,0,,,,,,stimuli/images/PICTURE_308.png,FAMILY,5ed27c0a35a14107c491ffc0,31/12/1951,2020-09-12_08h02.51.999,proactive3.2,2020.1.2,MacIntel,60,5f5adea66120081ea0f57a61,5f5c727a3817c045ea29856c,4,,,,,,dice,,,,,,,,,,,4,1,0,58,58,36,1,,,,,,,,,,,,,,,,,,,,,,,,,,,,,,,,,,,,,,,,,,,,,,,,,,,,,,,,,,,,,,,,,,,,,,
,,?,0.002,0,,,,,,stimuli/images/PICTURE_383.png,WRITER,5ed27c0a35a14107c491ffc0,31/12/1951,2020-09-12_08h02.51.999,proactive3.2,2020.1.2,MacIntel,60,5f5adea66120081ea0f57a61,5f5c727a3817c045ea29856c,4,,,,,,coin,,,,,,,,,,,3,1,0,59,59,28,1,,,,,,,,,,,,,,,,,,,,,,,,,,,,,,,,,,,,,,,,,,,,,,,,,,,,,,,,,,,,,,,,,,,,,,
,,,,,,,,,,,,5ed27c0a35a14107c491ffc0,31/12/1951,2020-09-12_08h02.51.999,proactive3.2,2020.1.2,MacIntel,60,5f5adea66120081ea0f57a61,5f5c727a3817c045ea29856c,4,,,,,,,,,,,,,,,,,,,,,,,,0,1,1,1,1,stimuli/learn-block2.csv,,,,,,,,,,,,,,,,,,,,,,,,,,,,,,,,,,,,,,,,,,,,,,,,,,,,,,,,,,,,,,,,
,,,,,,,,,,stimuli/images/PICTURE_667.png,PLENTY,5ed27c0a35a14107c491ffc0,31/12/1951,2020-09-12_08h02.51.999,proactive3.2,2020.1.2,MacIntel,60,5f5adea66120081ea0f57a61,5f5c727a3817c045ea29856c,4,,,,,,daisy,,,,,,0,0,0,41,1,5,0,,,,,,,,,,,,,,,,,,,,,,,,,,,,,,,,,,,,,,,,,,,,,,,,,,,,,,,,,,,,,,,,,,,,,,,,,,,
,,,,,,,,,,stimuli/images/PICTURE_675.png,WEAPON,5ed27c0a35a14107c491ffc0,31/12/1951,2020-09-12_08h02.51.999,proactive3.2,2020.1.2,MacIntel,60,5f5adea66120081ea0f57a61,5f5c727a3817c045ea29856c,4,,,,,,windmill,,,,,,0,1,1,32,1,4,0,,,,,,,,,,,,,,,,,,,,,,,,,,,,,,,,,,,,,,,,,,,,,,,,,,,,,,,,,,,,,,,,,,,,,,,,,,,
,,,,,,,,,,stimuli/images/PICTURE_470.png,CASINO,5ed27c0a35a14107c491ffc0,31/12/1951,2020-09-12_08h02.51.999,proactive3.2,2020.1.2,MacIntel,60,5f5adea66120081ea0f57a61,5f5c727a3817c045ea29856c,4,,,,,,motorbike,,,,,,0,2,2,36,1,4,0,,,,,,,,,,,,,,,,,,,,,,,,,,,,,,,,,,,,,,,,,,,,,,,,,,,,,,,,,,,,,,,,,,,,,,,,,,,
,,,,,,,,,,stimuli/images/PICTURE_255.png,AREA,5ed27c0a35a14107c491ffc0,31/12/1951,2020-09-12_08h02.51.999,proactive3.2,2020.1.2,MacIntel,60,5f5adea66120081ea0f57a61,5f5c727a3817c045ea29856c,4,,,,,,shovel,,,,,,0,3,3,22,1,3,0,,,,,,,,,,,,,,,,,,,,,,,,,,,,,,,,,,,,,,,,,,,,,,,,,,,,,,,,,,,,,,,,,,,,,,,,,,,
,,,,,,,,,,stimuli/images/PICTURE_160.png,FEET,5ed27c0a35a14107c491ffc0,31/12/1951,2020-09-12_08h02.51.999,proactive3.2,2020.1.2,MacIntel,60,5f5adea66120081ea0f57a61,5f5c727a3817c045ea29856c,4,,,,,,wheelbarrow,,,,,,0,4,4,58,1,6,0,,,,,,,,,,,,,,,,,,,,,,,,,,,,,,,,,,,,,,,,,,,,,,,,,,,,,,,,,,,,,,,,,,,,,,,,,,,
,,,,,,,,,,stimuli/images/PICTURE_215.png,PLENTY,5ed27c0a35a14107c491ffc0,31/12/1951,2020-09-12_08h02.51.999,proactive3.2,2020.1.2,MacIntel,60,5f5adea66120081ea0f57a61,5f5c727a3817c045ea29856c,4,,,,,,boot,,,,,,0,5,5,37,1,4,0,,,,,,,,,,,,,,,,,,,,,,,,,,,,,,,,,,,,,,,,,,,,,,,,,,,,,,,,,,,,,,,,,,,,,,,,,,,
,,,,,,,,,,stimuli/images/PICTURE_85.png,THING,5ed27c0a35a14107c491ffc0,31/12/1951,2020-09-12_08h02.51.999,proactive3.2,2020.1.2,MacIntel,60,5f5adea66120081ea0f57a61,5f5c727a3817c045ea29856c,4,,,,,,diamond,,,,,,0,6,6,15,1,2,0,,,,,,,,,,,,,,,,,,,,,,,,,,,,,,,,,,,,,,,,,,,,,,,,,,,,,,,,,,,,,,,,,,,,,,,,,,,
,,,,,,,,,,stimuli/images/PICTURE_95.png,STYLE,5ed27c0a35a14107c491ffc0,31/12/1951,2020-09-12_08h02.51.999,proactive3.2,2020.1.2,MacIntel,60,5f5adea66120081ea0f57a61,5f5c727a3817c045ea29856c,4,,,,,,suitcase,,,,,,0,7,7,25,1,3,0,,,,,,,,,,,,,,,,,,,,,,,,,,,,,,,,,,,,,,,,,,,,,,,,,,,,,,,,,,,,,,,,,,,,,,,,,,,
,,,,,,,,,,stimuli/images/PICTURE_453.png,PLENTY,5ed27c0a35a14107c491ffc0,31/12/1951,2020-09-12_08h02.51.999,proactive3.2,2020.1.2,MacIntel,60,5f5adea66120081ea0f57a61,5f5c727a3817c045ea29856c,4,,,,,,scissors,,,,,,0,8,8,56,1,6,0,,,,,,,,,,,,,,,,,,,,,,,,,,,,,,,,,,,,,,,,,,,,,,,,,,,,,,,,,,,,,,,,,,,,,,,,,,,
,,,,,,,,,,stimuli/images/PICTURE_491.png,WRITER,5ed27c0a35a14107c491ffc0,31/12/1951,2020-09-12_08h02.51.999,proactive3.2,2020.1.2,MacIntel,60,5f5adea66120081ea0f57a61,5f5c727a3817c045ea29856c,4,,,,,,rug,,,,,,0,9,9,57,1,6,0,,,,,,,,,,,,,,,,,,,,,,,,,,,,,,,,,,,,,,,,,,,,,,,,,,,,,,,,,,,,,,,,,,,,,,,,,,,
,,,,,,,,,,stimuli/images/PICTURE_380.png,DEATH,5ed27c0a35a14107c491ffc0,31/12/1951,2020-09-12_08h02.51.999,proactive3.2,2020.1.2,MacIntel,60,5f5adea66120081ea0f57a61,5f5c727a3817c045ea29856c,4,,,,,,gorilla,,,,,,0,10,10,49,1,5,0,,,,,,,,,,,,,,,,,,,,,,,,,,,,,,,,,,,,,,,,,,,,,,,,,,,,,,,,,,,,,,,,,,,,,,,,,,,
,,,,,,,,,,stimuli/images/PICTURE_708.png,CLIENT,5ed27c0a35a14107c491ffc0,31/12/1951,2020-09-12_08h02.51.999,proactive3.2,2020.1.2,MacIntel,60,5f5adea66120081ea0f57a61,5f5c727a3817c045ea29856c,4,,,,,,monkey,,,,,,0,11,11,5,1,1,0,,,,,,,,,,,,,,,,,,,,,,,,,,,,,,,,,,,,,,,,,,,,,,,,,,,,,,,,,,,,,,,,,,,,,,,,,,,
,,,,,,,,,,stimuli/images/PICTURE_151.png,GIRL,5ed27c0a35a14107c491ffc0,31/12/1951,2020-09-12_08h02.51.999,proactive3.2,2020.1.2,MacIntel,60,5f5adea66120081ea0f57a61,5f5c727a3817c045ea29856c,4,,,,,,tray,,,,,,0,12,12,19,1,2,0,,,,,,,,,,,,,,,,,,,,,,,,,,,,,,,,,,,,,,,,,,,,,,,,,,,,,,,,,,,,,,,,,,,,,,,,,,,
,,,,,,,,,,stimuli/images/PICTURE_285.png,ADVICE,5ed27c0a35a14107c491ffc0,31/12/1951,2020-09-12_08h02.51.999,proactive3.2,2020.1.2,MacIntel,60,5f5adea66120081ea0f57a61,5f5c727a3817c045ea29856c,4,,,,,,carrot,,,,,,0,13,13,12,1,2,0,,,,,,,,,,,,,,,,,,,,,,,,,,,,,,,,,,,,,,,,,,,,,,,,,,,,,,,,,,,,,,,,,,,,,,,,,,,
,,,,,,,,,,stimuli/images/PICTURE_654.png,VALLEY,5ed27c0a35a14107c491ffc0,31/12/1951,2020-09-12_08h02.51.999,proactive3.2,2020.1.2,MacIntel,60,5f5adea66120081ea0f57a61,5f5c727a3817c045ea29856c,4,,,,,,pencil,,,,,,0,14,14,1,1,1,0,,,,,,,,,,,,,,,,,,,,,,,,,,,,,,,,,,,,,,,,,,,,,,,,,,,,,,,,,,,,,,,,,,,,,,,,,,,
,,,,,,,,,,stimuli/images/PICTURE_311.png,FRIEND,5ed27c0a35a14107c491ffc0,31/12/1951,2020-09-12_08h02.51.999,proactive3.2,2020.1.2,MacIntel,60,5f5adea66120081ea0f57a61,5f5c727a3817c045ea29856c,4,,,,,,razor,,,,,,0,15,15,34,1,4,0,,,,,,,,,,,,,,,,,,,,,,,,,,,,,,,,,,,,,,,,,,,,,,,,,,,,,,,,,,,,,,,,,,,,,,,,,,,
,,,,,,,,,,stimuli/images/PICTURE_380.png,PHOTO,5ed27c0a35a14107c491ffc0,31/12/1951,2020-09-12_08h02.51.999,proactive3.2,2020.1.2,MacIntel,60,5f5adea66120081ea0f57a61,5f5c727a3817c045ea29856c,4,,,,,,gorilla,,,,,,0,16,16,52,1,6,0,,,,,,,,,,,,,,,,,,,,,,,,,,,,,,,,,,,,,,,,,,,,,,,,,,,,,,,,,,,,,,,,,,,,,,,,,,,
,,,,,,,,,,stimuli/images/PICTURE_32.png,JUNGLE,5ed27c0a35a14107c491ffc0,31/12/1951,2020-09-12_08h02.51.999,proactive3.2,2020.1.2,MacIntel,60,5f5adea66120081ea0f57a61,5f5c727a3817c045ea29856c,4,,,,,,crown,,,,,,0,17,17,45,1,5,0,,,,,,,,,,,,,,,,,,,,,,,,,,,,,,,,,,,,,,,,,,,,,,,,,,,,,,,,,,,,,,,,,,,,,,,,,,,
,,,,,,,,,,stimuli/images/PICTURE_248.png,DOZEN,5ed27c0a35a14107c491ffc0,31/12/1951,2020-09-12_08h02.51.999,proactive3.2,2020.1.2,MacIntel,60,5f5adea66120081ea0f57a61,5f5c727a3817c045ea29856c,4,,,,,,cart,,,,,,0,18,18,39,1,4,0,,,,,,,,,,,,,,,,,,,,,,,,,,,,,,,,,,,,,,,,,,,,,,,,,,,,,,,,,,,,,,,,,,,,,,,,,,,
,,,,,,,,,,stimuli/images/PICTURE_708.png,YARD,5ed27c0a35a14107c491ffc0,31/12/1951,2020-09-12_08h02.51.999,proactive3.2,2020.1.2,MacIntel,60,5f5adea66120081ea0f57a61,5f5c727a3817c045ea29856c,4,,,,,,monkey,,,,,,0,19,19,29,1,3,0,,,,,,,,,,,,,,,,,,,,,,,,,,,,,,,,,,,,,,,,,,,,,,,,,,,,,,,,,,,,,,,,,,,,,,,,,,,
,,,,,,,,,,stimuli/images/PICTURE_469.png,ARTIST,5ed27c0a35a14107c491ffc0,31/12/1951,2020-09-12_08h02.51.999,proactive3.2,2020.1.2,MacIntel,60,5f5adea66120081ea0f57a61,5f5c727a3817c045ea29856c,4,,,,,,stool,,,,,,0,20,20,6,1,1,0,,,,,,,,,,,,,,,,,,,,,,,,,,,,,,,,,,,,,,,,,,,,,,,,,,,,,,,,,,,,,,,,,,,,,,,,,,,
,,,,,,,,,,stimuli/images/PICTURE_744.png,SYSTEM,5ed27c0a35a14107c491ffc0,31/12/1951,2020-09-12_08h02.51.999,proactive3.2,2020.1.2,MacIntel,60,5f5adea66120081ea0f57a61,5f5c727a3817c045ea29856c,4,,,,,,ring,,,,,,0,21,21,43,1,5,0,,,,,,,,,,,,,,,,,,,,,,,,,,,,,,,,,,,,,,,,,,,,,,,,,,,,,,,,,,,,,,,,,,,,,,,,,,,
,,,,,,,,,,stimuli/images/PICTURE_123.png,ADVICE,5ed27c0a35a14107c491ffc0,31/12/1951,2020-09-12_08h02.51.999,proactive3.2,2020.1.2,MacIntel,60,5f5adea66120081ea0f57a61,5f5c727a3817c045ea29856c,4,,,,,,dart,,,,,,0,22,22,40,1,5,0,,,,,,,,,,,,,,,,,,,,,,,,,,,,,,,,,,,,,,,,,,,,,,,,,,,,,,,,,,,,,,,,,,,,,,,,,,,
,,,,,,,,,,stimuli/images/PICTURE_491.png,ROOF,5ed27c0a35a14107c491ffc0,31/12/1951,2020-09-12_08h02.51.999,proactive3.2,2020.1.2,MacIntel,60,5f5adea66120081ea0f57a61,5f5c727a3817c045ea29856c,4,,,,,,rug,,,,,,0,23,23,24,1,3,0,,,,,,,,,,,,,,,,,,,,,,,,,,,,,,,,,,,,,,,,,,,,,,,,,,,,,,,,,,,,,,,,,,,,,,,,,,,
,,,,,,,,,,stimuli/images/PICTURE_208.png,MONTH,5ed27c0a35a14107c491ffc0,31/12/1951,2020-09-12_08h02.51.999,proactive3.2,2020.1.2,MacIntel,60,5f5adea66120081ea0f57a61,5f5c727a3817c045ea29856c,4,,,,,,microphone,,,,,,0,24,24,53,1,6,0,,,,,,,,,,,,,,,,,,,,,,,,,,,,,,,,,,,,,,,,,,,,,,,,,,,,,,,,,,,,,,,,,,,,,,,,,,,
,,,,,,,,,,stimuli/images/PICTURE_177.png,CARS,5ed27c0a35a14107c491ffc0,31/12/1951,2020-09-12_08h02.51.999,proactive3.2,2020.1.2,MacIntel,60,5f5adea66120081ea0f57a61,5f5c727a3817c045ea29856c,4,,,,,,mushroom,,,,,,0,25,25,35,1,4,0,,,,,,,,,,,,,,,,,,,,,,,,,,,,,,,,,,,,,,,,,,,,,,,,,,,,,,,,,,,,,,,,,,,,,,,,,,,
,,,,,,,,,,stimuli/images/PICTURE_348.png,SPEECH,5ed27c0a35a14107c491ffc0,31/12/1951,2020-09-12_08h02.51.999,proactive3.2,2020.1.2,MacIntel,60,5f5adea66120081ea0f57a61,5f5c727a3817c045ea29856c,4,,,,,,pepper,,,,,,0,26,26,20,1,3,0,,,,,,,,,,,,,,,,,,,,,,,,,,,,,,,,,,,,,,,,,,,,,,,,,,,,,,,,,,,,,,,,,,,,,,,,,,,
,,,,,,,,,,stimuli/images/PICTURE_68.png,MILE,5ed27c0a35a14107c491ffc0,31/12/1951,2020-09-12_08h02.51.999,proactive3.2,2020.1.2,MacIntel,60,5f5adea66120081ea0f57a61,5f5c727a3817c045ea29856c,4,,,,,,candle,,,,,,0,27,27,44,1,5,0,,,,,,,,,,,,,,,,,,,,,,,,,,,,,,,,,,,,,,,,,,,,,,,,,,,,,,,,,,,,,,,,,,,,,,,,,,,
,,,,,,,,,,stimuli/images/PICTURE_302.png,FAMILY,5ed27c0a35a14107c491ffc0,31/12/1951,2020-09-12_08h02.51.999,proactive3.2,2020.1.2,MacIntel,60,5f5adea66120081ea0f57a61,5f5c727a3817c045ea29856c,4,,,,,,taxi,,,,,,0,28,28,18,1,2,0,,,,,,,,,,,,,,,,,,,,,,,,,,,,,,,,,,,,,,,,,,,,,,,,,,,,,,,,,,,,,,,,,,,,,,,,,,,
,,,,,,,,,,stimuli/images/PICTURE_487.png,FLIGHT,5ed27c0a35a14107c491ffc0,31/12/1951,2020-09-12_08h02.51.999,proactive3.2,2020.1.2,MacIntel,60,5f5adea66120081ea0f57a61,5f5c727a3817c045ea29856c,4,,,,,,basket,,,,,,0,29,29,9,1,1,0,,,,,,,,,,,,,,,,,,,,,,,,,,,,,,,,,,,,,,,,,,,,,,,,,,,,,,,,,,,,,,,,,,,,,,,,,,,
,,,,,,,,,,stimuli/images/PICTURE_208.png,THING,5ed27c0a35a14107c491ffc0,31/12/1951,2020-09-12_08h02.51.999,proactive3.2,2020.1.2,MacIntel,60,5f5adea66120081ea0f57a61,5f5c727a3817c045ea29856c,4,,,,,,microphone,,,,,,0,30,30,47,1,5,0,,,,,,,,,,,,,,,,,,,,,,,,,,,,,,,,,,,,,,,,,,,,,,,,,,,,,,,,,,,,,,,,,,,,,,,,,,,
,,,,,,,,,,stimuli/images/PICTURE_208.png,LOTS,5ed27c0a35a14107c491ffc0,31/12/1951,2020-09-12_08h02.51.999,proactive3.2,2020.1.2,MacIntel,60,5f5adea66120081ea0f57a61,5f5c727a3817c045ea29856c,4,,,,,,microphone,,,,,,0,31,31,10,1,2,0,,,,,,,,,,,,,,,,,,,,,,,,,,,,,,,,,,,,,,,,,,,,,,,,,,,,,,,,,,,,,,,,,,,,,,,,,,,
,,,,,,,,,,stimuli/images/PICTURE_744.png,SAKE,5ed27c0a35a14107c491ffc0,31/12/1951,2020-09-12_08h02.51.999,proactive3.2,2020.1.2,MacIntel,60,5f5adea66120081ea0f57a61,5f5c727a3817c045ea29856c,4,,,,,,ring,,,,,,0,32,32,17,1,2,0,,,,,,,,,,,,,,,,,,,,,,,,,,,,,,,,,,,,,,,,,,,,,,,,,,,,,,,,,,,,,,,,,,,,,,,,,,,
,,,,,,,,,,stimuli/images/PICTURE_308.png,ESTATE,5ed27c0a35a14107c491ffc0,31/12/1951,2020-09-12_08h02.51.999,proactive3.2,2020.1.2,MacIntel,60,5f5adea66120081ea0f57a61,5f5c727a3817c045ea29856c,4,,,,,,dice,,,,,,0,33,33,46,1,5,0,,,,,,,,,,,,,,,,,,,,,,,,,,,,,,,,,,,,,,,,,,,,,,,,,,,,,,,,,,,,,,,,,,,,,,,,,,,
,,,,,,,,,,stimuli/images/PICTURE_233.png,IDEAS,5ed27c0a35a14107c491ffc0,31/12/1951,2020-09-12_08h02.51.999,proactive3.2,2020.1.2,MacIntel,60,5f5adea66120081ea0f57a61,5f5c727a3817c045ea29856c,4,,,,,,salt,,,,,,0,34,34,28,1,3,0,,,,,,,,,,,,,,,,,,,,,,,,,,,,,,,,,,,,,,,,,,,,,,,,,,,,,,,,,,,,,,,,,,,,,,,,,,,
,,,,,,,,,,stimuli/images/PICTURE_123.png,ADVICE,5ed27c0a35a14107c491ffc0,31/12/1951,2020-09-12_08h02.51.999,proactive3.2,2020.1.2,MacIntel,60,5f5adea66120081ea0f57a61,5f5c727a3817c045ea29856c,4,,,,,,dart,,,,,,0,35,35,50,1,6,0,,,,,,,,,,,,,,,,,,,,,,,,,,,,,,,,,,,,,,,,,,,,,,,,,,,,,,,,,,,,,,,,,,,,,,,,,,,
,,,,,,,,,,stimuli/images/PICTURE_677.png,MILE,5ed27c0a35a14107c491ffc0,31/12/1951,2020-09-12_08h02.51.999,proactive3.2,2020.1.2,MacIntel,60,5f5adea66120081ea0f57a61,5f5c727a3817c045ea29856c,4,,,,,,map,,,,,,0,36,36,30,1,4,0,,,,,,,,,,,,,,,,,,,,,,,,,,,,,,,,,,,,,,,,,,,,,,,,,,,,,,,,,,,,,,,,,,,,,,,,,,,
,,,,,,,,,,stimuli/images/PICTURE_688.png,CASINO,5ed27c0a35a14107c491ffc0,31/12/1951,2020-09-12_08h02.51.999,proactive3.2,2020.1.2,MacIntel,60,5f5adea66120081ea0f57a61,5f5c727a3817c045ea29856c,4,,,,,,runner,,,,,,0,37,37,2,1,1,0,,,,,,,,,,,,,,,,,,,,,,,,,,,,,,,,,,,,,,,,,,,,,,,,,,,,,,,,,,,,,,,,,,,,,,,,,,,
,,,,,,,,,,stimuli/images/PICTURE_339.png,PLENTY,5ed27c0a35a14107c491ffc0,31/12/1951,2020-09-12_08h02.51.999,proactive3.2,2020.1.2,MacIntel,60,5f5adea66120081ea0f57a61,5f5c727a3817c045ea29856c,4,,,,,,backpack,,,,,,0,38,38,0,1,1,0,,,,,,,,,,,,,,,,,,,,,,,,,,,,,,,,,,,,,,,,,,,,,,,,,,,,,,,,,,,,,,,,,,,,,,,,,,,
,,,,,,,,,,stimuli/images/PICTURE_203.png,ARTIST,5ed27c0a35a14107c491ffc0,31/12/1951,2020-09-12_08h02.51.999,proactive3.2,2020.1.2,MacIntel,60,5f5adea66120081ea0f57a61,5f5c727a3817c045ea29856c,4,,,,,,cap,,,,,,0,39,39,26,1,3,0,,,,,,,,,,,,,,,,,,,,,,,,,,,,,,,,,,,,,,,,,,,,,,,,,,,,,,,,,,,,,,,,,,,,,,,,,,,
,,,,,,,,,,stimuli/images/PICTURE_692.png,MONTH,5ed27c0a35a14107c491ffc0,31/12/1951,2020-09-12_08h02.51.999,proactive3.2,2020.1.2,MacIntel,60,5f5adea66120081ea0f57a61,5f5c727a3817c045ea29856c,4,,,,,,cherry,,,,,,0,40,40,16,1,2,0,,,,,,,,,,,,,,,,,,,,,,,,,,,,,,,,,,,,,,,,,,,,,,,,,,,,,,,,,,,,,,,,,,,,,,,,,,,
,,,,,,,,,,stimuli/images/PICTURE_708.png,PENNY,5ed27c0a35a14107c491ffc0,31/12/1951,2020-09-12_08h02.51.999,proactive3.2,2020.1.2,MacIntel,60,5f5adea66120081ea0f57a61,5f5c727a3817c045ea29856c,4,,,,,,monkey,,,,,,0,41,41,31,1,4,0,,,,,,,,,,,,,,,,,,,,,,,,,,,,,,,,,,,,,,,,,,,,,,,,,,,,,,,,,,,,,,,,,,,,,,,,,,,
,,,,,,,,,,stimuli/images/PICTURE_327.png,BEAUTY,5ed27c0a35a14107c491ffc0,31/12/1951,2020-09-12_08h02.51.999,proactive3.2,2020.1.2,MacIntel,60,5f5adea66120081ea0f57a61,5f5c727a3817c045ea29856c,4,,,,,,helmet,,,,,,0,42,42,48,1,5,0,,,,,,,,,,,,,,,,,,,,,,,,,,,,,,,,,,,,,,,,,,,,,,,,,,,,,,,,,,,,,,,,,,,,,,,,,,,
,,,,,,,,,,stimuli/images/PICTURE_147.png,MOMENT,5ed27c0a35a14107c491ffc0,31/12/1951,2020-09-12_08h02.51.999,proactive3.2,2020.1.2,MacIntel,60,5f5adea66120081ea0f57a61,5f5c727a3817c045ea29856c,4,,,,,,hanger,,,,,,0,43,43,51,1,6,0,,,,,,,,,,,,,,,,,,,,,,,,,,,,,,,,,,,,,,,,,,,,,,,,,,,,,,,,,,,,,,,,,,,,,,,,,,,
,,,,,,,,,,stimuli/images/PICTURE_308.png,KIND,5ed27c0a35a14107c491ffc0,31/12/1951,2020-09-12_08h02.51.999,proactive3.2,2020.1.2,MacIntel,60,5f5adea66120081ea0f57a61,5f5c727a3817c045ea29856c,4,,,,,,dice,,,,,,0,44,44,54,1,6,0,,,,,,,,,,,,,,,,,,,,,,,,,,,,,,,,,,,,,,,,,,,,,,,,,,,,,,,,,,,,,,,,,,,,,,,,,,,
,,,,,,,,,,stimuli/images/PICTURE_667.png,BATH,5ed27c0a35a14107c491ffc0,31/12/1951,2020-09-12_08h02.51.999,proactive3.2,2020.1.2,MacIntel,60,5f5adea66120081ea0f57a61,5f5c727a3817c045ea29856c,4,,,,,,daisy,,,,,,0,45,45,4,1,1,0,,,,,,,,,,,,,,,,,,,,,,,,,,,,,,,,,,,,,,,,,,,,,,,,,,,,,,,,,,,,,,,,,,,,,,,,,,,
,,,,,,,,,,stimuli/images/PICTURE_314.png,GODS,5ed27c0a35a14107c491ffc0,31/12/1951,2020-09-12_08h02.51.999,proactive3.2,2020.1.2,MacIntel,60,5f5adea66120081ea0f57a61,5f5c727a3817c045ea29856c,4,,,,,,perfume,,,,,,0,46,46,11,1,2,0,,,,,,,,,,,,,,,,,,,,,,,,,,,,,,,,,,,,,,,,,,,,,,,,,,,,,,,,,,,,,,,,,,,,,,,,,,,
,,,,,,,,,,stimuli/images/PICTURE_509.png,PHOTO,5ed27c0a35a14107c491ffc0,31/12/1951,2020-09-12_08h02.51.999,proactive3.2,2020.1.2,MacIntel,60,5f5adea66120081ea0f57a61,5f5c727a3817c045ea29856c,4,,,,,,telephone,,,,,,0,47,47,21,1,3,0,,,,,,,,,,,,,,,,,,,,,,,,,,,,,,,,,,,,,,,,,,,,,,,,,,,,,,,,,,,,,,,,,,,,,,,,,,,
,,,,,,,,,,stimuli/images/PICTURE_467.png,DEMON,5ed27c0a35a14107c491ffc0,31/12/1951,2020-09-12_08h02.51.999,proactive3.2,2020.1.2,MacIntel,60,5f5adea66120081ea0f57a61,5f5c727a3817c045ea29856c,4,,,,,,peg,,,,,,0,48,48,23,1,3,0,,,,,,,,,,,,,,,,,,,,,,,,,,,,,,,,,,,,,,,,,,,,,,,,,,,,,,,,,,,,,,,,,,,,,,,,,,,
,,,,,,,,,,stimuli/images/PICTURE_504.png,BODY,5ed27c0a35a14107c491ffc0,31/12/1951,2020-09-12_08h02.51.999,proactive3.2,2020.1.2,MacIntel,60,5f5adea66120081ea0f57a61,5f5c727a3817c045ea29856c,4,,,,,,wheel,,,,,,0,49,49,8,1,1,0,,,,,,,,,,,,,,,,,,,,,,,,,,,,,,,,,,,,,,,,,,,,,,,,,,,,,,,,,,,,,,,,,,,,,,,,,,,
,,,,,,,,,,stimuli/images/PICTURE_160.png,LEADER,5ed27c0a35a14107c491ffc0,31/12/1951,2020-09-12_08h02.51.999,proactive3.2,2020.1.2,MacIntel,60,5f5adea66120081ea0f57a61,5f5c727a3817c045ea29856c,4,,,,,,wheelbarrow,,,,,,0,50,50,3,1,1,0,,,,,,,,,,,,,,,,,,,,,,,,,,,,,,,,,,,,,,,,,,,,,,,,,,,,,,,,,,,,,,,,,,,,,,,,,,,
,,,,,,,,,,stimuli/images/PICTURE_453.png,DUDE,5ed27c0a35a14107c491ffc0,31/12/1951,2020-09-12_08h02.51.999,proactive3.2,2020.1.2,MacIntel,60,5f5adea66120081ea0f57a61,5f5c727a3817c045ea29856c,4,,,,,,scissors,,,,,,0,51,51,27,1,3,0,,,,,,,,,,,,,,,,,,,,,,,,,,,,,,,,,,,,,,,,,,,,,,,,,,,,,,,,,,,,,,,,,,,,,,,,,,,
,,,,,,,,,,stimuli/images/PICTURE_233.png,WOMEN,5ed27c0a35a14107c491ffc0,31/12/1951,2020-09-12_08h02.51.999,proactive3.2,2020.1.2,MacIntel,60,5f5adea66120081ea0f57a61,5f5c727a3817c045ea29856c,4,,,,,,salt,,,,,,0,52,52,38,1,4,0,,,,,,,,,,,,,,,,,,,,,,,,,,,,,,,,,,,,,,,,,,,,,,,,,,,,,,,,,,,,,,,,,,,,,,,,,,,
,,,,,,,,,,stimuli/images/PICTURE_311.png,BEAUTY,5ed27c0a35a14107c491ffc0,31/12/1951,2020-09-12_08h02.51.999,proactive3.2,2020.1.2,MacIntel,60,5f5adea66120081ea0f57a61,5f5c727a3817c045ea29856c,4,,,,,,razor,,,,,,0,53,53,13,1,2,0,,,,,,,,,,,,,,,,,,,,,,,,,,,,,,,,,,,,,,,,,,,,,,,,,,,,,,,,,,,,,,,,,,,,,,,,,,,
,,,,,,,,,,stimuli/images/PICTURE_488.png,STYLE,5ed27c0a35a14107c491ffc0,31/12/1951,2020-09-12_08h02.51.999,proactive3.2,2020.1.2,MacIntel,60,5f5adea66120081ea0f57a61,5f5c727a3817c045ea29856c,4,,,,,,sun,,,,,,0,54,54,33,1,4,0,,,,,,,,,,,,,,,,,,,,,,,,,,,,,,,,,,,,,,,,,,,,,,,,,,,,,,,,,,,,,,,,,,,,,,,,,,,
,,,,,,,,,,stimuli/images/PICTURE_449.png,THING,5ed27c0a35a14107c491ffc0,31/12/1951,2020-09-12_08h02.51.999,proactive3.2,2020.1.2,MacIntel,60,5f5adea66120081ea0f57a61,5f5c727a3817c045ea29856c,4,,,,,,bench,,,,,,0,55,55,59,1,6,0,,,,,,,,,,,,,,,,,,,,,,,,,,,,,,,,,,,,,,,,,,,,,,,,,,,,,,,,,,,,,,,,,,,,,,,,,,,
,,,,,,,,,,stimuli/images/PICTURE_314.png,SAKE,5ed27c0a35a14107c491ffc0,31/12/1951,2020-09-12_08h02.51.999,proactive3.2,2020.1.2,MacIntel,60,5f5adea66120081ea0f57a61,5f5c727a3817c045ea29856c,4,,,,,,perfume,,,,,,0,56,56,7,1,1,0,,,,,,,,,,,,,,,,,,,,,,,,,,,,,,,,,,,,,,,,,,,,,,,,,,,,,,,,,,,,,,,,,,,,,,,,,,,
,,,,,,,,,,stimuli/images/PICTURE_469.png,LETTER,5ed27c0a35a14107c491ffc0,31/12/1951,2020-09-12_08h02.51.999,proactive3.2,2020.1.2,MacIntel,60,5f5adea66120081ea0f57a61,5f5c727a3817c045ea29856c,4,,,,,,stool,,,,,,0,57,57,42,1,5,0,,,,,,,,,,,,,,,,,,,,,,,,,,,,,,,,,,,,,,,,,,,,,,,,,,,,,,,,,,,,,,,,,,,,,,,,,,,
,,,,,,,,,,stimuli/images/PICTURE_688.png,WOMEN,5ed27c0a35a14107c491ffc0,31/12/1951,2020-09-12_08h02.51.999,proactive3.2,2020.1.2,MacIntel,60,5f5adea66120081ea0f57a61,5f5c727a3817c045ea29856c,4,,,,,,runner,,,,,,0,58,58,14,1,2,0,,,,,,,,,,,,,,,,,,,,,,,,,,,,,,,,,,,,,,,,,,,,,,,,,,,,,,,,,,,,,,,,,,,,,,,,,,,
,,?,0.002,0,,,,,,stimuli/images/PICTURE_203.png,ARTIST,5ed27c0a35a14107c491ffc0,31/12/1951,2020-09-12_08h02.51.999,proactive3.2,2020.1.2,MacIntel,60,5f5adea66120081ea0f57a61,5f5c727a3817c045ea29856c,4,,,,,,cap,,,,,,,,,,,3,0,0,0,0,26,1,,,,,,,,,,,,,,,,,,,,,,,,,,,,,,,,,,,,,,,,,,,,,,,,,,,,,,,,,,,,,,,,,,,,,,
,,?,0.001,0,,,,,,stimuli/images/PICTURE_308.png,KIND,5ed27c0a35a14107c491ffc0,31/12/1951,2020-09-12_08h02.51.999,proactive3.2,2020.1.2,MacIntel,60,5f5adea66120081ea0f57a61,5f5c727a3817c045ea29856c,4,,,,,,dice,,,,,,,,,,,6,0,0,1,1,54,1,,,,,,,,,,,,,,,,,,,,,,,,,,,,,,,,,,,,,,,,,,,,,,,,,,,,,,,,,,,,,,,,,,,,,,
,,?,1.819,0,,,,,,stimuli/images/PICTURE_311.png,FRIEND,5ed27c0a35a14107c491ffc0,31/12/1951,2020-09-12_08h02.51.999,proactive3.2,2020.1.2,MacIntel,60,5f5adea66120081ea0f57a61,5f5c727a3817c045ea29856c,4,,,,,,razor,,,,,,,,,,,4,0,0,2,2,34,1,,,,,,,,,,,,,,,,,,,,,,,,,,,,,,,,,,,,,,,,,,,,,,,,,,,,,,,,,,,,,,,,,,,,,,
,,?,0.002,0,,,,,,stimuli/images/PICTURE_688.png,CASINO,5ed27c0a35a14107c491ffc0,31/12/1951,2020-09-12_08h02.51.999,proactive3.2,2020.1.2,MacIntel,60,5f5adea66120081ea0f57a61,5f5c727a3817c045ea29856c,4,,,,,,runner,,,,,,,,,,,1,0,0,3,3,2,1,,,,,,,,,,,,,,,,,,,,,,,,,,,,,,,,,,,,,,,,,,,,,,,,,,,,,,,,,,,,,,,,,,,,,,
,,?,0.001,0,,,,,,stimuli/images/PICTURE_123.png,ADVICE,5ed27c0a35a14107c491ffc0,31/12/1951,2020-09-12_08h02.51.999,proactive3.2,2020.1.2,MacIntel,60,5f5adea66120081ea0f57a61,5f5c727a3817c045ea29856c,4,,,,,,dart,,,,,,,,,,,6,0,0,4,4,50,1,,,,,,,,,,,,,,,,,,,,,,,,,,,,,,,,,,,,,,,,,,,,,,,,,,,,,,,,,,,,,,,,,,,,,,
,,?,0.002,0,,,,,,stimuli/images/PICTURE_469.png,LETTER,5ed27c0a35a14107c491ffc0,31/12/1951,2020-09-12_08h02.51.999,proactive3.2,2020.1.2,MacIntel,60,5f5adea66120081ea0f57a61,5f5c727a3817c045ea29856c,4,,,,,,stool,,,,,,,,,,,5,0,0,5,5,42,1,,,,,,,,,,,,,,,,,,,,,,,,,,,,,,,,,,,,,,,,,,,,,,,,,,,,,,,,,,,,,,,,,,,,,,
,,?,0.001,0,,,,,,stimuli/images/PICTURE_339.png,PLENTY,5ed27c0a35a14107c491ffc0,31/12/1951,2020-09-12_08h02.51.999,proactive3.2,2020.1.2,MacIntel,60,5f5adea66120081ea0f57a61,5f5c727a3817c045ea29856c,4,,,,,,backpack,,,,,,,,,,,1,0,0,6,6,0,1,,,,,,,,,,,,,,,,,,,,,,,,,,,,,,,,,,,,,,,,,,,,,,,,,,,,,,,,,,,,,,,,,,,,,,
,,?,0.001,0,,,,,,stimuli/images/PICTURE_123.png,ADVICE,5ed27c0a35a14107c491ffc0,31/12/1951,2020-09-12_08h02.51.999,proactive3.2,2020.1.2,MacIntel,60,5f5adea66120081ea0f57a61,5f5c727a3817c045ea29856c,4,,,,,,dart,,,,,,,,,,,5,0,0,7,7,40,1,,,,,,,,,,,,,,,,,,,,,,,,,,,,,,,,,,,,,,,,,,,,,,,,,,,,,,,,,,,,,,,,,,,,,,
,,?,0.001,0,,,,,,stimuli/images/PICTURE_160.png,FEET,5ed27c0a35a14107c491ffc0,31/12/1951,2020-09-12_08h02.51.999,proactive3.2,2020.1.2,MacIntel,60,5f5adea66120081ea0f57a61,5f5c727a3817c045ea29856c,4,,,,,,wheelbarrow,,,,,,,,,,,6,0,0,8,8,58,1,,,,,,,,,,,,,,,,,,,,,,,,,,,,,,,,,,,,,,,,,,,,,,,,,,,,,,,,,,,,,,,,,,,,,,
,,?,0.001,0,,,,,,stimuli/images/PICTURE_491.png,WRITER,5ed27c0a35a14107c491ffc0,31/12/1951,2020-09-12_08h02.51.999,proactive3.2,2020.1.2,MacIntel,60,5f5adea66120081ea0f57a61,5f5c727a3817c045ea29856c,4,,,,,,rug,,,,,,,,,,,6,0,0,9,9,57,1,,,,,,,,,,,,,,,,,,,,,,,,,,,,,,,,,,,,,,,,,,,,,,,,,,,,,,,,,,,,,,,,,,,,,,
,,?,0.001,0,,,,,,stimuli/images/PICTURE_667.png,PLENTY,5ed27c0a35a14107c491ffc0,31/12/1951,2020-09-12_08h02.51.999,proactive3.2,2020.1.2,MacIntel,60,5f5adea66120081ea0f57a61,5f5c727a3817c045ea29856c,4,,,,,,daisy,,,,,,,,,,,5,0,0,10,10,41,1,,,,,,,,,,,,,,,,,,,,,,,,,,,,,,,,,,,,,,,,,,,,,,,,,,,,,,,,,,,,,,,,,,,,,,
,,?,0.001,0,,,,,,stimuli/images/PICTURE_453.png,PLENTY,5ed27c0a35a14107c491ffc0,31/12/1951,2020-09-12_08h02.51.999,proactive3.2,2020.1.2,MacIntel,60,5f5adea66120081ea0f57a61,5f5c727a3817c045ea29856c,4,,,,,,scissors,,,,,,,,,,,6,0,0,11,11,56,1,,,,,,,,,,,,,,,,,,,,,,,,,,,,,,,,,,,,,,,,,,,,,,,,,,,,,,,,,,,,,,,,,,,,,,
