consent_key.keys,consent_key.rt,recalled,recalled_rt,recall_acc,example_recall.thisRepN,example_recall.thisTrialN,example_recall.thisN,example_recall.thisIndex,example_recall.ran,file,word,participant,please enter your date of birth (dd/mm/yyyy),date,expName,psychopyVersion,OS,frameRate,STUDY_ID,SESSION_ID,list,prac_learn_study_loop.thisRepN,prac_learn_study_loop.thisTrialN,prac_learn_study_loop.thisN,prac_learn_study_loop.thisIndex,prac_learn_study_loop.ran,image,prac_learn_test_loop.thisRepN,prac_learn_test_loop.thisTrialN,prac_learn_test_loop.thisN,prac_learn_test_loop.thisIndex,prac_learn_test_loop.ran,learn_study_loop.thisRepN,learn_study_loop.thisTrialN,learn_study_loop.thisN,learn_study_loop.thisIndex,learn_study_loop.ran,list_no,block_no,learn_test_loop.thisRepN,learn_test_loop.thisTrialN,learn_test_loop.thisN,learn_test_loop.thisIndex,learn_test_loop.ran,learn_blocks.thisRepN,learn_blocks.thisTrialN,learn_blocks.thisN,learn_blocks.thisIndex,learn_blocks.ran,block_csv,key_resp_13.keys,key_resp_13.rt,learn_blocks_loop.thisRepN,learn_blocks_loop.thisTrialN,learn_blocks_loop.thisN,learn_blocks_loop.thisIndex,learn_blocks_loop.ran,final_learn_test.thisRepN,final_learn_test.thisTrialN,final_learn_test.thisN,final_learn_test.thisIndex,final_learn_test.ran,prac_wm_test_loop.thisRepN,prac_wm_test_loop.thisTrialN,prac_wm_test_loop.thisN,prac_wm_test_loop.thisIndex,prac_wm_test_loop.ran,wm_recalled1,wm_recall_rt1,wm_probed1,wm_recall_acc1,wm_recalled2,wm_recall_rt2,wm_probed2,wm_recall_acc2,wm_recalled3,wm_recall_rt3,wm_probed3,wm_recall_acc3,wm_recalled4,wm_recall_rt4,wm_probed4,wm_recall_acc4,prac_wm_trial_loop.thisRepN,prac_wm_trial_loop.thisTrialN,prac_wm_trial_loop.thisN,prac_wm_trial_loop.thisIndex,prac_wm_trial_loop.ran,word1,image1,file1,item_type1,word2,image2,file2,item_type2,word4,image4,file4,item_type4,word3,image3,file3,item_type3,wm_test_loop.thisRepN,wm_test_loop.thisTrialN,wm_test_loop.thisN,wm_test_loop.thisIndex,wm_test_loop.ran,wm_trial_loop.thisRepN,wm_trial_loop.thisTrialN,wm_trial_loop.thisN,wm_trial_loop.thisIndex,wm_trial_loop.ran
y,16.93101,TOUGH,2.805735,1,0,0,0,0,1,stimuli/images/PICTURE_747.png,TOUGH,5ed358aab6ee6f2e2885eddf,28/02/94,2020-09-02_13h20.27.591,proactive3.2,2020.1.2,Linux x86_64,60,5f47c0b9b035471e11593a5c,5f4f819717b4c203961f3947,5,,,,,,,,,,,,,,,,,,,,,,,,,,,,,,,,,,,,,,,,,,,,,,,,,,,,,,,,,,,,,,,,,,,,,,,,,,,,,,,,,,,,,,,,,,,,,
,,,,,,,,,,stimuli/images/PICTURE_727.png,CELL,5ed358aab6ee6f2e2885eddf,28/02/94,2020-09-02_13h20.27.591,proactive3.2,2020.1.2,Linux x86_64,60,5f47c0b9b035471e11593a5c,5f4f819717b4c203961f3947,5,0,0,0,1,1,hose,,,,,,,,,,,,,,,,,,,,,,,,,,,,,,,,,,,,,,,,,,,,,,,,,,,,,,,,,,,,,,,,,,,,,,,,,,,,,,,,,,,,,,,
,,,,,,,,,,stimuli/images/PICTURE_697.png,KILLER,5ed358aab6ee6f2e2885eddf,28/02/94,2020-09-02_13h20.27.591,proactive3.2,2020.1.2,Linux x86_64,60,5f47c0b9b035471e11593a5c,5f4f819717b4c203961f3947,5,0,1,1,4,1,peach,,,,,,,,,,,,,,,,,,,,,,,,,,,,,,,,,,,,,,,,,,,,,,,,,,,,,,,,,,,,,,,,,,,,,,,,,,,,,,,,,,,,,,,
,,,,,,,,,,stimuli/images/PICTURE_658.png,DEVIL,5ed358aab6ee6f2e2885eddf,28/02/94,2020-09-02_13h20.27.591,proactive3.2,2020.1.2,Linux x86_64,60,5f47c0b9b035471e11593a5c,5f4f819717b4c203961f3947,5,0,2,2,3,1,crow,,,,,,,,,,,,,,,,,,,,,,,,,,,,,,,,,,,,,,,,,,,,,,,,,,,,,,,,,,,,,,,,,,,,,,,,,,,,,,,,,,,,,,,
,,,,,,,,,,stimuli/images/PICTURE_269.png,GENIUS,5ed358aab6ee6f2e2885eddf,28/02/94,2020-09-02_13h20.27.591,proactive3.2,2020.1.2,Linux x86_64,60,5f47c0b9b035471e11593a5c,5f4f819717b4c203961f3947,5,0,3,3,0,1,chameleon,,,,,,,,,,,,,,,,,,,,,,,,,,,,,,,,,,,,,,,,,,,,,,,,,,,,,,,,,,,,,,,,,,,,,,,,,,,,,,,,,,,,,,,
,,DEVIL,2.67052,1,,,,,,stimuli/images/PICTURE_658.png,DEVIL,5ed358aab6ee6f2e2885eddf,28/02/94,2020-09-02_13h20.27.591,proactive3.2,2020.1.2,Linux x86_64,60,5f47c0b9b035471e11593a5c,5f4f819717b4c203961f3947,5,,,,,,crow,0,0,0,3,1,,,,,,,,,,,,,,,,,,,,,,,,,,,,,,,,,,,,,,,,,,,,,,,,,,,,,,,,,,,,,,,,,,,,,,,,,,,,,,,,,,
,,LOSS,1.88895,1,,,,,,stimuli/images/PICTURE_378.png,LOSS,5ed358aab6ee6f2e2885eddf,28/02/94,2020-09-02_13h20.27.591,proactive3.2,2020.1.2,Linux x86_64,60,5f47c0b9b035471e11593a5c,5f4f819717b4c203961f3947,5,,,,,,lobster,0,1,1,2,1,,,,,,,,,,,,,,,,,,,,,,,,,,,,,,,,,,,,,,,,,,,,,,,,,,,,,,,,,,,,,,,,,,,,,,,,,,,,,,,,,,
,,KILL,2.69591,0,,,,,,stimuli/images/PICTURE_697.png,KILLER,5ed358aab6ee6f2e2885eddf,28/02/94,2020-09-02_13h20.27.591,proactive3.2,2020.1.2,Linux x86_64,60,5f47c0b9b035471e11593a5c,5f4f819717b4c203961f3947,5,,,,,,peach,0,2,2,4,1,,,,,,,,,,,,,,,,,,,,,,,,,,,,,,,,,,,,,,,,,,,,,,,,,,,,,,,,,,,,,,,,,,,,,,,,,,,,,,,,,,
,,CELL,2.628345,1,,,,,,stimuli/images/PICTURE_727.png,CELL,5ed358aab6ee6f2e2885eddf,28/02/94,2020-09-02_13h20.27.591,proactive3.2,2020.1.2,Linux x86_64,60,5f47c0b9b035471e11593a5c,5f4f819717b4c203961f3947,5,,,,,,hose,0,3,3,1,1,,,,,,,,,,,,,,,,,,,,,,,,,,,,,,,,,,,,,,,,,,,,,,,,,,,,,,,,,,,,,,,,,,,,,,,,,,,,,,,,,,
,,LOSS,2.96267,0,,,,,,stimuli/images/PICTURE_269.png,GENIUS,5ed358aab6ee6f2e2885eddf,28/02/94,2020-09-02_13h20.27.591,proactive3.2,2020.1.2,Linux x86_64,60,5f47c0b9b035471e11593a5c,5f4f819717b4c203961f3947,5,,,,,,chameleon,0,4,4,0,1,,,,,,,,,,,,,,,,,,,,,,,,,,,,,,,,,,,,,,,,,,,,,,,,,,,,,,,,,,,,,,,,,,,,,,,,,,,,,,,,,,
,,,,,,,,,,stimuli/images/PICTURE_667.png,BATH,5ed358aab6ee6f2e2885eddf,28/02/94,2020-09-02_13h20.27.591,proactive3.2,2020.1.2,Linux x86_64,60,5f47c0b9b035471e11593a5c,5f4f819717b4c203961f3947,5,,,,,,daisy,,,,,,0,0,0,4,1,1,0,,,,,,,,,,,,,,,,,,,,,,,,,,,,,,,,,,,,,,,,,,,,,,,,,,,,,,,,,,,,,,,,,,,,,,,,,,,
,,,,,,,,,,stimuli/images/PICTURE_453.png,DUDE,5ed358aab6ee6f2e2885eddf,28/02/94,2020-09-02_13h20.27.591,proactive3.2,2020.1.2,Linux x86_64,60,5f47c0b9b035471e11593a5c,5f4f819717b4c203961f3947,5,,,,,,scissors,,,,,,0,1,1,27,1,3,0,,,,,,,,,,,,,,,,,,,,,,,,,,,,,,,,,,,,,,,,,,,,,,,,,,,,,,,,,,,,,,,,,,,,,,,,,,,
,,,,,,,,,,stimuli/images/PICTURE_708.png,CLIENT,5ed358aab6ee6f2e2885eddf,28/02/94,2020-09-02_13h20.27.591,proactive3.2,2020.1.2,Linux x86_64,60,5f47c0b9b035471e11593a5c,5f4f819717b4c203961f3947,5,,,,,,monkey,,,,,,0,2,2,5,1,1,0,,,,,,,,,,,,,,,,,,,,,,,,,,,,,,,,,,,,,,,,,,,,,,,,,,,,,,,,,,,,,,,,,,,,,,,,,,,
,,,,,,,,,,stimuli/images/PICTURE_327.png,BEAUTY,5ed358aab6ee6f2e2885eddf,28/02/94,2020-09-02_13h20.27.591,proactive3.2,2020.1.2,Linux x86_64,60,5f47c0b9b035471e11593a5c,5f4f819717b4c203961f3947,5,,,,,,helmet,,,,,,0,3,3,48,1,5,0,,,,,,,,,,,,,,,,,,,,,,,,,,,,,,,,,,,,,,,,,,,,,,,,,,,,,,,,,,,,,,,,,,,,,,,,,,,
,,,,,,,,,,stimuli/images/PICTURE_469.png,LETTER,5ed358aab6ee6f2e2885eddf,28/02/94,2020-09-02_13h20.27.591,proactive3.2,2020.1.2,Linux x86_64,60,5f47c0b9b035471e11593a5c,5f4f819717b4c203961f3947,5,,,,,,stool,,,,,,0,4,4,42,1,5,0,,,,,,,,,,,,,,,,,,,,,,,,,,,,,,,,,,,,,,,,,,,,,,,,,,,,,,,,,,,,,,,,,,,,,,,,,,,
,,,,,,,,,,stimuli/images/PICTURE_675.png,WEAPON,5ed358aab6ee6f2e2885eddf,28/02/94,2020-09-02_13h20.27.591,proactive3.2,2020.1.2,Linux x86_64,60,5f47c0b9b035471e11593a5c,5f4f819717b4c203961f3947,5,,,,,,windmill,,,,,,0,5,5,32,1,4,0,,,,,,,,,,,,,,,,,,,,,,,,,,,,,,,,,,,,,,,,,,,,,,,,,,,,,,,,,,,,,,,,,,,,,,,,,,,
,,,,,,,,,,stimuli/images/PICTURE_314.png,GODS,5ed358aab6ee6f2e2885eddf,28/02/94,2020-09-02_13h20.27.591,proactive3.2,2020.1.2,Linux x86_64,60,5f47c0b9b035471e11593a5c,5f4f819717b4c203961f3947,5,,,,,,perfume,,,,,,0,6,6,11,1,2,0,,,,,,,,,,,,,,,,,,,,,,,,,,,,,,,,,,,,,,,,,,,,,,,,,,,,,,,,,,,,,,,,,,,,,,,,,,,
,,,,,,,,,,stimuli/images/PICTURE_208.png,LOTS,5ed358aab6ee6f2e2885eddf,28/02/94,2020-09-02_13h20.27.591,proactive3.2,2020.1.2,Linux x86_64,60,5f47c0b9b035471e11593a5c,5f4f819717b4c203961f3947,5,,,,,,microphone,,,,,,0,7,7,10,1,2,0,,,,,,,,,,,,,,,,,,,,,,,,,,,,,,,,,,,,,,,,,,,,,,,,,,,,,,,,,,,,,,,,,,,,,,,,,,,
,,,,,,,,,,stimuli/images/PICTURE_285.png,ADVICE,5ed358aab6ee6f2e2885eddf,28/02/94,2020-09-02_13h20.27.591,proactive3.2,2020.1.2,Linux x86_64,60,5f47c0b9b035471e11593a5c,5f4f819717b4c203961f3947,5,,,,,,carrot,,,,,,0,8,8,12,1,2,0,,,,,,,,,,,,,,,,,,,,,,,,,,,,,,,,,,,,,,,,,,,,,,,,,,,,,,,,,,,,,,,,,,,,,,,,,,,
,,,,,,,,,,stimuli/images/PICTURE_469.png,ARTIST,5ed358aab6ee6f2e2885eddf,28/02/94,2020-09-02_13h20.27.591,proactive3.2,2020.1.2,Linux x86_64,60,5f47c0b9b035471e11593a5c,5f4f819717b4c203961f3947,5,,,,,,stool,,,,,,0,9,9,6,1,1,0,,,,,,,,,,,,,,,,,,,,,,,,,,,,,,,,,,,,,,,,,,,,,,,,,,,,,,,,,,,,,,,,,,,,,,,,,,,
,,,,,,,,,,stimuli/images/PICTURE_744.png,SAKE,5ed358aab6ee6f2e2885eddf,28/02/94,2020-09-02_13h20.27.591,proactive3.2,2020.1.2,Linux x86_64,60,5f47c0b9b035471e11593a5c,5f4f819717b4c203961f3947,5,,,,,,ring,,,,,,0,10,10,17,1,2,0,,,,,,,,,,,,,,,,,,,,,,,,,,,,,,,,,,,,,,,,,,,,,,,,,,,,,,,,,,,,,,,,,,,,,,,,,,,
,,,,,,,,,,stimuli/images/PICTURE_85.png,THING,5ed358aab6ee6f2e2885eddf,28/02/94,2020-09-02_13h20.27.591,proactive3.2,2020.1.2,Linux x86_64,60,5f47c0b9b035471e11593a5c,5f4f819717b4c203961f3947,5,,,,,,diamond,,,,,,0,11,11,15,1,2,0,,,,,,,,,,,,,,,,,,,,,,,,,,,,,,,,,,,,,,,,,,,,,,,,,,,,,,,,,,,,,,,,,,,,,,,,,,,
,,,,,,,,,,stimuli/images/PICTURE_177.png,CARS,5ed358aab6ee6f2e2885eddf,28/02/94,2020-09-02_13h20.27.591,proactive3.2,2020.1.2,Linux x86_64,60,5f47c0b9b035471e11593a5c,5f4f819717b4c203961f3947,5,,,,,,mushroom,,,,,,0,12,12,35,1,4,0,,,,,,,,,,,,,,,,,,,,,,,,,,,,,,,,,,,,,,,,,,,,,,,,,,,,,,,,,,,,,,,,,,,,,,,,,,,
,,,,,,,,,,stimuli/images/PICTURE_151.png,GIRL,5ed358aab6ee6f2e2885eddf,28/02/94,2020-09-02_13h20.27.591,proactive3.2,2020.1.2,Linux x86_64,60,5f47c0b9b035471e11593a5c,5f4f819717b4c203961f3947,5,,,,,,tray,,,,,,0,13,13,19,1,2,0,,,,,,,,,,,,,,,,,,,,,,,,,,,,,,,,,,,,,,,,,,,,,,,,,,,,,,,,,,,,,,,,,,,,,,,,,,,
,,,,,,,,,,stimuli/images/PICTURE_208.png,MONTH,5ed358aab6ee6f2e2885eddf,28/02/94,2020-09-02_13h20.27.591,proactive3.2,2020.1.2,Linux x86_64,60,5f47c0b9b035471e11593a5c,5f4f819717b4c203961f3947,5,,,,,,microphone,,,,,,0,14,14,53,1,6,0,,,,,,,,,,,,,,,,,,,,,,,,,,,,,,,,,,,,,,,,,,,,,,,,,,,,,,,,,,,,,,,,,,,,,,,,,,,
,,,,,,,,,,stimuli/images/PICTURE_487.png,FLIGHT,5ed358aab6ee6f2e2885eddf,28/02/94,2020-09-02_13h20.27.591,proactive3.2,2020.1.2,Linux x86_64,60,5f47c0b9b035471e11593a5c,5f4f819717b4c203961f3947,5,,,,,,basket,,,,,,0,15,15,9,1,1,0,,,,,,,,,,,,,,,,,,,,,,,,,,,,,,,,,,,,,,,,,,,,,,,,,,,,,,,,,,,,,,,,,,,,,,,,,,,
,,,,,,,,,,stimuli/images/PICTURE_160.png,FEET,5ed358aab6ee6f2e2885eddf,28/02/94,2020-09-02_13h20.27.591,proactive3.2,2020.1.2,Linux x86_64,60,5f47c0b9b035471e11593a5c,5f4f819717b4c203961f3947,5,,,,,,wheelbarrow,,,,,,0,16,16,58,1,6,0,,,,,,,,,,,,,,,,,,,,,,,,,,,,,,,,,,,,,,,,,,,,,,,,,,,,,,,,,,,,,,,,,,,,,,,,,,,
,,,,,,,,,,stimuli/images/PICTURE_654.png,VALLEY,5ed358aab6ee6f2e2885eddf,28/02/94,2020-09-02_13h20.27.591,proactive3.2,2020.1.2,Linux x86_64,60,5f47c0b9b035471e11593a5c,5f4f819717b4c203961f3947,5,,,,,,pencil,,,,,,0,17,17,1,1,1,0,,,,,,,,,,,,,,,,,,,,,,,,,,,,,,,,,,,,,,,,,,,,,,,,,,,,,,,,,,,,,,,,,,,,,,,,,,,
,,,,,,,,,,stimuli/images/PICTURE_95.png,STYLE,5ed358aab6ee6f2e2885eddf,28/02/94,2020-09-02_13h20.27.591,proactive3.2,2020.1.2,Linux x86_64,60,5f47c0b9b035471e11593a5c,5f4f819717b4c203961f3947,5,,,,,,suitcase,,,,,,0,18,18,25,1,3,0,,,,,,,,,,,,,,,,,,,,,,,,,,,,,,,,,,,,,,,,,,,,,,,,,,,,,,,,,,,,,,,,,,,,,,,,,,,
,,,,,,,,,,stimuli/images/PICTURE_147.png,MOMENT,5ed358aab6ee6f2e2885eddf,28/02/94,2020-09-02_13h20.27.591,proactive3.2,2020.1.2,Linux x86_64,60,5f47c0b9b035471e11593a5c,5f4f819717b4c203961f3947,5,,,,,,hanger,,,,,,0,19,19,51,1,6,0,,,,,,,,,,,,,,,,,,,,,,,,,,,,,,,,,,,,,,,,,,,,,,,,,,,,,,,,,,,,,,,,,,,,,,,,,,,
,,,,,,,,,,stimuli/images/PICTURE_380.png,PHOTO,5ed358aab6ee6f2e2885eddf,28/02/94,2020-09-02_13h20.27.591,proactive3.2,2020.1.2,Linux x86_64,60,5f47c0b9b035471e11593a5c,5f4f819717b4c203961f3947,5,,,,,,gorilla,,,,,,0,20,20,52,1,6,0,,,,,,,,,,,,,,,,,,,,,,,,,,,,,,,,,,,,,,,,,,,,,,,,,,,,,,,,,,,,,,,,,,,,,,,,,,,
,,,,,,,,,,stimuli/images/PICTURE_356.png,DANGER,5ed358aab6ee6f2e2885eddf,28/02/94,2020-09-02_13h20.27.591,proactive3.2,2020.1.2,Linux x86_64,60,5f47c0b9b035471e11593a5c,5f4f819717b4c203961f3947,5,,,,,,pawn,,,,,,0,21,21,55,1,6,0,,,,,,,,,,,,,,,,,,,,,,,,,,,,,,,,,,,,,,,,,,,,,,,,,,,,,,,,,,,,,,,,,,,,,,,,,,,
,,,,,,,,,,stimuli/images/PICTURE_744.png,SYSTEM,5ed358aab6ee6f2e2885eddf,28/02/94,2020-09-02_13h20.27.591,proactive3.2,2020.1.2,Linux x86_64,60,5f47c0b9b035471e11593a5c,5f4f819717b4c203961f3947,5,,,,,,ring,,,,,,0,22,22,43,1,5,0,,,,,,,,,,,,,,,,,,,,,,,,,,,,,,,,,,,,,,,,,,,,,,,,,,,,,,,,,,,,,,,,,,,,,,,,,,,
,,,,,,,,,,stimuli/images/PICTURE_68.png,MILE,5ed358aab6ee6f2e2885eddf,28/02/94,2020-09-02_13h20.27.591,proactive3.2,2020.1.2,Linux x86_64,60,5f47c0b9b035471e11593a5c,5f4f819717b4c203961f3947,5,,,,,,candle,,,,,,0,23,23,44,1,5,0,,,,,,,,,,,,,,,,,,,,,,,,,,,,,,,,,,,,,,,,,,,,,,,,,,,,,,,,,,,,,,,,,,,,,,,,,,,
,,,,,,,,,,stimuli/images/PICTURE_314.png,SAKE,5ed358aab6ee6f2e2885eddf,28/02/94,2020-09-02_13h20.27.591,proactive3.2,2020.1.2,Linux x86_64,60,5f47c0b9b035471e11593a5c,5f4f819717b4c203961f3947,5,,,,,,perfume,,,,,,0,24,24,7,1,1,0,,,,,,,,,,,,,,,,,,,,,,,,,,,,,,,,,,,,,,,,,,,,,,,,,,,,,,,,,,,,,,,,,,,,,,,,,,,
,,,,,,,,,,stimuli/images/PICTURE_311.png,BEAUTY,5ed358aab6ee6f2e2885eddf,28/02/94,2020-09-02_13h20.27.591,proactive3.2,2020.1.2,Linux x86_64,60,5f47c0b9b035471e11593a5c,5f4f819717b4c203961f3947,5,,,,,,razor,,,,,,0,25,25,13,1,2,0,,,,,,,,,,,,,,,,,,,,,,,,,,,,,,,,,,,,,,,,,,,,,,,,,,,,,,,,,,,,,,,,,,,,,,,,,,,
,,,,,,,,,,stimuli/images/PICTURE_339.png,PLENTY,5ed358aab6ee6f2e2885eddf,28/02/94,2020-09-02_13h20.27.591,proactive3.2,2020.1.2,Linux x86_64,60,5f47c0b9b035471e11593a5c,5f4f819717b4c203961f3947,5,,,,,,backpack,,,,,,0,26,26,0,1,1,0,,,,,,,,,,,,,,,,,,,,,,,,,,,,,,,,,,,,,,,,,,,,,,,,,,,,,,,,,,,,,,,,,,,,,,,,,,,
,,,,,,,,,,stimuli/images/PICTURE_308.png,KIND,5ed358aab6ee6f2e2885eddf,28/02/94,2020-09-02_13h20.27.591,proactive3.2,2020.1.2,Linux x86_64,60,5f47c0b9b035471e11593a5c,5f4f819717b4c203961f3947,5,,,,,,dice,,,,,,0,27,27,54,1,6,0,,,,,,,,,,,,,,,,,,,,,,,,,,,,,,,,,,,,,,,,,,,,,,,,,,,,,,,,,,,,,,,,,,,,,,,,,,,
,,,,,,,,,,stimuli/images/PICTURE_692.png,MONTH,5ed358aab6ee6f2e2885eddf,28/02/94,2020-09-02_13h20.27.591,proactive3.2,2020.1.2,Linux x86_64,60,5f47c0b9b035471e11593a5c,5f4f819717b4c203961f3947,5,,,,,,cherry,,,,,,0,28,28,16,1,2,0,,,,,,,,,,,,,,,,,,,,,,,,,,,,,,,,,,,,,,,,,,,,,,,,,,,,,,,,,,,,,,,,,,,,,,,,,,,
,,,,,,,,,,stimuli/images/PICTURE_380.png,DEATH,5ed358aab6ee6f2e2885eddf,28/02/94,2020-09-02_13h20.27.591,proactive3.2,2020.1.2,Linux x86_64,60,5f47c0b9b035471e11593a5c,5f4f819717b4c203961f3947,5,,,,,,gorilla,,,,,,0,29,29,49,1,5,0,,,,,,,,,,,,,,,,,,,,,,,,,,,,,,,,,,,,,,,,,,,,,,,,,,,,,,,,,,,,,,,,,,,,,,,,,,,
,,,,,,,,,,stimuli/images/PICTURE_509.png,PHOTO,5ed358aab6ee6f2e2885eddf,28/02/94,2020-09-02_13h20.27.591,proactive3.2,2020.1.2,Linux x86_64,60,5f47c0b9b035471e11593a5c,5f4f819717b4c203961f3947,5,,,,,,telephone,,,,,,0,30,30,21,1,3,0,,,,,,,,,,,,,,,,,,,,,,,,,,,,,,,,,,,,,,,,,,,,,,,,,,,,,,,,,,,,,,,,,,,,,,,,,,,
,,,,,,,,,,stimuli/images/PICTURE_302.png,FAMILY,5ed358aab6ee6f2e2885eddf,28/02/94,2020-09-02_13h20.27.591,proactive3.2,2020.1.2,Linux x86_64,60,5f47c0b9b035471e11593a5c,5f4f819717b4c203961f3947,5,,,,,,taxi,,,,,,0,31,31,18,1,2,0,,,,,,,,,,,,,,,,,,,,,,,,,,,,,,,,,,,,,,,,,,,,,,,,,,,,,,,,,,,,,,,,,,,,,,,,,,,
,,,,,,,,,,stimuli/images/PICTURE_248.png,DOZEN,5ed358aab6ee6f2e2885eddf,28/02/94,2020-09-02_13h20.27.591,proactive3.2,2020.1.2,Linux x86_64,60,5f47c0b9b035471e11593a5c,5f4f819717b4c203961f3947,5,,,,,,cart,,,,,,0,32,32,39,1,4,0,,,,,,,,,,,,,,,,,,,,,,,,,,,,,,,,,,,,,,,,,,,,,,,,,,,,,,,,,,,,,,,,,,,,,,,,,,,
,,,,,,,,,,stimuli/images/PICTURE_215.png,PLENTY,5ed358aab6ee6f2e2885eddf,28/02/94,2020-09-02_13h20.27.591,proactive3.2,2020.1.2,Linux x86_64,60,5f47c0b9b035471e11593a5c,5f4f819717b4c203961f3947,5,,,,,,boot,,,,,,0,33,33,37,1,4,0,,,,,,,,,,,,,,,,,,,,,,,,,,,,,,,,,,,,,,,,,,,,,,,,,,,,,,,,,,,,,,,,,,,,,,,,,,,
,,,,,,,,,,stimuli/images/PICTURE_308.png,ESTATE,5ed358aab6ee6f2e2885eddf,28/02/94,2020-09-02_13h20.27.591,proactive3.2,2020.1.2,Linux x86_64,60,5f47c0b9b035471e11593a5c,5f4f819717b4c203961f3947,5,,,,,,dice,,,,,,0,34,34,46,1,5,0,,,,,,,,,,,,,,,,,,,,,,,,,,,,,,,,,,,,,,,,,,,,,,,,,,,,,,,,,,,,,,,,,,,,,,,,,,,
,,,,,,,,,,stimuli/images/PICTURE_491.png,ROOF,5ed358aab6ee6f2e2885eddf,28/02/94,2020-09-02_13h20.27.591,proactive3.2,2020.1.2,Linux x86_64,60,5f47c0b9b035471e11593a5c,5f4f819717b4c203961f3947,5,,,,,,rug,,,,,,0,35,35,24,1,3,0,,,,,,,,,,,,,,,,,,,,,,,,,,,,,,,,,,,,,,,,,,,,,,,,,,,,,,,,,,,,,,,,,,,,,,,,,,,
,,,,,,,,,,stimuli/images/PICTURE_453.png,PLENTY,5ed358aab6ee6f2e2885eddf,28/02/94,2020-09-02_13h20.27.591,proactive3.2,2020.1.2,Linux x86_64,60,5f47c0b9b035471e11593a5c,5f4f819717b4c203961f3947,5,,,,,,scissors,,,,,,0,36,36,56,1,6,0,,,,,,,,,,,,,,,,,,,,,,,,,,,,,,,,,,,,,,,,,,,,,,,,,,,,,,,,,,,,,,,,,,,,,,,,,,,
,,,,,,,,,,stimuli/images/PICTURE_233.png,WOMEN,5ed358aab6ee6f2e2885eddf,28/02/94,2020-09-02_13h20.27.591,proactive3.2,2020.1.2,Linux x86_64,60,5f47c0b9b035471e11593a5c,5f4f819717b4c203961f3947,5,,,,,,salt,,,,,,0,37,37,38,1,4,0,,,,,,,,,,,,,,,,,,,,,,,,,,,,,,,,,,,,,,,,,,,,,,,,,,,,,,,,,,,,,,,,,,,,,,,,,,,
,,,,,,,,,,stimuli/images/PICTURE_677.png,MILE,5ed358aab6ee6f2e2885eddf,28/02/94,2020-09-02_13h20.27.591,proactive3.2,2020.1.2,Linux x86_64,60,5f47c0b9b035471e11593a5c,5f4f819717b4c203961f3947,5,,,,,,map,,,,,,0,38,38,30,1,4,0,,,,,,,,,,,,,,,,,,,,,,,,,,,,,,,,,,,,,,,,,,,,,,,,,,,,,,,,,,,,,,,,,,,,,,,,,,,
,,,,,,,,,,stimuli/images/PICTURE_688.png,WOMEN,5ed358aab6ee6f2e2885eddf,28/02/94,2020-09-02_13h20.27.591,proactive3.2,2020.1.2,Linux x86_64,60,5f47c0b9b035471e11593a5c,5f4f819717b4c203961f3947,5,,,,,,runner,,,,,,0,39,39,14,1,2,0,,,,,,,,,,,,,,,,,,,,,,,,,,,,,,,,,,,,,,,,,,,,,,,,,,,,,,,,,,,,,,,,,,,,,,,,,,,
,,,,,,,,,,stimuli/images/PICTURE_688.png,CASINO,5ed358aab6ee6f2e2885eddf,28/02/94,2020-09-02_13h20.27.591,proactive3.2,2020.1.2,Linux x86_64,60,5f47c0b9b035471e11593a5c,5f4f819717b4c203961f3947,5,,,,,,runner,,,,,,0,40,40,2,1,1,0,,,,,,,,,,,,,,,,,,,,,,,,,,,,,,,,,,,,,,,,,,,,,,,,,,,,,,,,,,,,,,,,,,,,,,,,,,,
,,,,,,,,,,stimuli/images/PICTURE_203.png,ARTIST,5ed358aab6ee6f2e2885eddf,28/02/94,2020-09-02_13h20.27.591,proactive3.2,2020.1.2,Linux x86_64,60,5f47c0b9b035471e11593a5c,5f4f819717b4c203961f3947,5,,,,,,cap,,,,,,0,41,41,26,1,3,0,,,,,,,,,,,,,,,,,,,,,,,,,,,,,,,,,,,,,,,,,,,,,,,,,,,,,,,,,,,,,,,,,,,,,,,,,,,
,,,,,,,,,,stimuli/images/PICTURE_160.png,LEADER,5ed358aab6ee6f2e2885eddf,28/02/94,2020-09-02_13h20.27.591,proactive3.2,2020.1.2,Linux x86_64,60,5f47c0b9b035471e11593a5c,5f4f819717b4c203961f3947,5,,,,,,wheelbarrow,,,,,,0,42,42,3,1,1,0,,,,,,,,,,,,,,,,,,,,,,,,,,,,,,,,,,,,,,,,,,,,,,,,,,,,,,,,,,,,,,,,,,,,,,,,,,,
,,,,,,,,,,stimuli/images/PICTURE_255.png,AREA,5ed358aab6ee6f2e2885eddf,28/02/94,2020-09-02_13h20.27.591,proactive3.2,2020.1.2,Linux x86_64,60,5f47c0b9b035471e11593a5c,5f4f819717b4c203961f3947,5,,,,,,shovel,,,,,,0,43,43,22,1,3,0,,,,,,,,,,,,,,,,,,,,,,,,,,,,,,,,,,,,,,,,,,,,,,,,,,,,,,,,,,,,,,,,,,,,,,,,,,,
,,,,,,,,,,stimuli/images/PICTURE_449.png,THING,5ed358aab6ee6f2e2885eddf,28/02/94,2020-09-02_13h20.27.591,proactive3.2,2020.1.2,Linux x86_64,60,5f47c0b9b035471e11593a5c,5f4f819717b4c203961f3947,5,,,,,,bench,,,,,,0,44,44,59,1,6,0,,,,,,,,,,,,,,,,,,,,,,,,,,,,,,,,,,,,,,,,,,,,,,,,,,,,,,,,,,,,,,,,,,,,,,,,,,,
,,,,,,,,,,stimuli/images/PICTURE_32.png,JUNGLE,5ed358aab6ee6f2e2885eddf,28/02/94,2020-09-02_13h20.27.591,proactive3.2,2020.1.2,Linux x86_64,60,5f47c0b9b035471e11593a5c,5f4f819717b4c203961f3947,5,,,,,,crown,,,,,,0,45,45,45,1,5,0,,,,,,,,,,,,,,,,,,,,,,,,,,,,,,,,,,,,,,,,,,,,,,,,,,,,,,,,,,,,,,,,,,,,,,,,,,,
,,,,,,,,,,stimuli/images/PICTURE_708.png,PENNY,5ed358aab6ee6f2e2885eddf,28/02/94,2020-09-02_13h20.27.591,proactive3.2,2020.1.2,Linux x86_64,60,5f47c0b9b035471e11593a5c,5f4f819717b4c203961f3947,5,,,,,,monkey,,,,,,0,46,46,31,1,4,0,,,,,,,,,,,,,,,,,,,,,,,,,,,,,,,,,,,,,,,,,,,,,,,,,,,,,,,,,,,,,,,,,,,,,,,,,,,
,,,,,,,,,,stimuli/images/PICTURE_708.png,YARD,5ed358aab6ee6f2e2885eddf,28/02/94,2020-09-02_13h20.27.591,proactive3.2,2020.1.2,Linux x86_64,60,5f47c0b9b035471e11593a5c,5f4f819717b4c203961f3947,5,,,,,,monkey,,,,,,0,47,47,29,1,3,0,,,,,,,,,,,,,,,,,,,,,,,,,,,,,,,,,,,,,,,,,,,,,,,,,,,,,,,,,,,,,,,,,,,,,,,,,,,
,,,,,,,,,,stimuli/images/PICTURE_233.png,IDEAS,5ed358aab6ee6f2e2885eddf,28/02/94,2020-09-02_13h20.27.591,proactive3.2,2020.1.2,Linux x86_64,60,5f47c0b9b035471e11593a5c,5f4f819717b4c203961f3947,5,,,,,,salt,,,,,,0,48,48,28,1,3,0,,,,,,,,,,,,,,,,,,,,,,,,,,,,,,,,,,,,,,,,,,,,,,,,,,,,,,,,,,,,,,,,,,,,,,,,,,,
,,,,,,,,,,stimuli/images/PICTURE_488.png,STYLE,5ed358aab6ee6f2e2885eddf,28/02/94,2020-09-02_13h20.27.591,proactive3.2,2020.1.2,Linux x86_64,60,5f47c0b9b035471e11593a5c,5f4f819717b4c203961f3947,5,,,,,,sun,,,,,,0,49,49,33,1,4,0,,,,,,,,,,,,,,,,,,,,,,,,,,,,,,,,,,,,,,,,,,,,,,,,,,,,,,,,,,,,,,,,,,,,,,,,,,,
,,,,,,,,,,stimuli/images/PICTURE_123.png,ADVICE,5ed358aab6ee6f2e2885eddf,28/02/94,2020-09-02_13h20.27.591,proactive3.2,2020.1.2,Linux x86_64,60,5f47c0b9b035471e11593a5c,5f4f819717b4c203961f3947,5,,,,,,dart,,,,,,0,50,50,50,1,6,0,,,,,,,,,,,,,,,,,,,,,,,,,,,,,,,,,,,,,,,,,,,,,,,,,,,,,,,,,,,,,,,,,,,,,,,,,,,
,,,,,,,,,,stimuli/images/PICTURE_123.png,ADVICE,5ed358aab6ee6f2e2885eddf,28/02/94,2020-09-02_13h20.27.591,proactive3.2,2020.1.2,Linux x86_64,60,5f47c0b9b035471e11593a5c,5f4f819717b4c203961f3947,5,,,,,,dart,,,,,,0,51,51,40,1,5,0,,,,,,,,,,,,,,,,,,,,,,,,,,,,,,,,,,,,,,,,,,,,,,,,,,,,,,,,,,,,,,,,,,,,,,,,,,,
,,,,,,,,,,stimuli/images/PICTURE_491.png,WRITER,5ed358aab6ee6f2e2885eddf,28/02/94,2020-09-02_13h20.27.591,proactive3.2,2020.1.2,Linux x86_64,60,5f47c0b9b035471e11593a5c,5f4f819717b4c203961f3947,5,,,,,,rug,,,,,,0,52,52,57,1,6,0,,,,,,,,,,,,,,,,,,,,,,,,,,,,,,,,,,,,,,,,,,,,,,,,,,,,,,,,,,,,,,,,,,,,,,,,,,,
,,,,,,,,,,stimuli/images/PICTURE_208.png,THING,5ed358aab6ee6f2e2885eddf,28/02/94,2020-09-02_13h20.27.591,proactive3.2,2020.1.2,Linux x86_64,60,5f47c0b9b035471e11593a5c,5f4f819717b4c203961f3947,5,,,,,,microphone,,,,,,0,53,53,47,1,5,0,,,,,,,,,,,,,,,,,,,,,,,,,,,,,,,,,,,,,,,,,,,,,,,,,,,,,,,,,,,,,,,,,,,,,,,,,,,
,,,,,,,,,,stimuli/images/PICTURE_311.png,FRIEND,5ed358aab6ee6f2e2885eddf,28/02/94,2020-09-02_13h20.27.591,proactive3.2,2020.1.2,Linux x86_64,60,5f47c0b9b035471e11593a5c,5f4f819717b4c203961f3947,5,,,,,,razor,,,,,,0,54,54,34,1,4,0,,,,,,,,,,,,,,,,,,,,,,,,,,,,,,,,,,,,,,,,,,,,,,,,,,,,,,,,,,,,,,,,,,,,,,,,,,,
,,,,,,,,,,stimuli/images/PICTURE_348.png,SPEECH,5ed358aab6ee6f2e2885eddf,28/02/94,2020-09-02_13h20.27.591,proactive3.2,2020.1.2,Linux x86_64,60,5f47c0b9b035471e11593a5c,5f4f819717b4c203961f3947,5,,,,,,pepper,,,,,,0,55,55,20,1,3,0,,,,,,,,,,,,,,,,,,,,,,,,,,,,,,,,,,,,,,,,,,,,,,,,,,,,,,,,,,,,,,,,,,,,,,,,,,,
,,,,,,,,,,stimuli/images/PICTURE_504.png,BODY,5ed358aab6ee6f2e2885eddf,28/02/94,2020-09-02_13h20.27.591,proactive3.2,2020.1.2,Linux x86_64,60,5f47c0b9b035471e11593a5c,5f4f819717b4c203961f3947,5,,,,,,wheel,,,,,,0,56,56,8,1,1,0,,,,,,,,,,,,,,,,,,,,,,,,,,,,,,,,,,,,,,,,,,,,,,,,,,,,,,,,,,,,,,,,,,,,,,,,,,,
,,,,,,,,,,stimuli/images/PICTURE_470.png,CASINO,5ed358aab6ee6f2e2885eddf,28/02/94,2020-09-02_13h20.27.591,proactive3.2,2020.1.2,Linux x86_64,60,5f47c0b9b035471e11593a5c,5f4f819717b4c203961f3947,5,,,,,,motorbike,,,,,,0,57,57,36,1,4,0,,,,,,,,,,,,,,,,,,,,,,,,,,,,,,,,,,,,,,,,,,,,,,,,,,,,,,,,,,,,,,,,,,,,,,,,,,,
,,,,,,,,,,stimuli/images/PICTURE_667.png,PLENTY,5ed358aab6ee6f2e2885eddf,28/02/94,2020-09-02_13h20.27.591,proactive3.2,2020.1.2,Linux x86_64,60,5f47c0b9b035471e11593a5c,5f4f819717b4c203961f3947,5,,,,,,daisy,,,,,,0,58,58,41,1,5,0,,,,,,,,,,,,,,,,,,,,,,,,,,,,,,,,,,,,,,,,,,,,,,,,,,,,,,,,,,,,,,,,,,,,,,,,,,,
,,?,0.003115,0,,,,,,stimuli/images/PICTURE_504.png,BODY,5ed358aab6ee6f2e2885eddf,28/02/94,2020-09-02_13h20.27.591,proactive3.2,2020.1.2,Linux x86_64,60,5f47c0b9b035471e11593a5c,5f4f819717b4c203961f3947,5,,,,,,wheel,,,,,,,,,,,1,0,0,0,0,8,1,,,,,,,,,,,,,,,,,,,,,,,,,,,,,,,,,,,,,,,,,,,,,,,,,,,,,,,,,,,,,,,,,,,,,,
,,?,0.004725,0,,,,,,stimuli/images/PICTURE_339.png,PLENTY,5ed358aab6ee6f2e2885eddf,28/02/94,2020-09-02_13h20.27.591,proactive3.2,2020.1.2,Linux x86_64,60,5f47c0b9b035471e11593a5c,5f4f819717b4c203961f3947,5,,,,,,backpack,,,,,,,,,,,1,0,0,1,1,0,1,,,,,,,,,,,,,,,,,,,,,,,,,,,,,,,,,,,,,,,,,,,,,,,,,,,,,,,,,,,,,,,,,,,,,,
,,BEAUTY,6.83496,0,,,,,,stimuli/images/PICTURE_469.png,LETTER,5ed358aab6ee6f2e2885eddf,28/02/94,2020-09-02_13h20.27.591,proactive3.2,2020.1.2,Linux x86_64,60,5f47c0b9b035471e11593a5c,5f4f819717b4c203961f3947,5,,,,,,stool,,,,,,,,,,,5,0,0,2,2,42,1,,,,,,,,,,,,,,,,,,,,,,,,,,,,,,,,,,,,,,,,,,,,,,,,,,,,,,,,,,,,,,,,,,,,,,
,,?,0.00328,0,,,,,,stimuli/images/PICTURE_491.png,WRITER,5ed358aab6ee6f2e2885eddf,28/02/94,2020-09-02_13h20.27.591,proactive3.2,2020.1.2,Linux x86_64,60,5f47c0b9b035471e11593a5c,5f4f819717b4c203961f3947,5,,,,,,rug,,,,,,,,,,,6,0,0,3,3,57,1,,,,,,,,,,,,,,,,,,,,,,,,,,,,,,,,,,,,,,,,,,,,,,,,,,,,,,,,,,,,,,,,,,,,,,
,,?,0.00348,0,,,,,,stimuli/images/PICTURE_692.png,MONTH,5ed358aab6ee6f2e2885eddf,28/02/94,2020-09-02_13h20.27.591,proactive3.2,2020.1.2,Linux x86_64,60,5f47c0b9b035471e11593a5c,5f4f819717b4c203961f3947,5,,,,,,cherry,,,,,,,,,,,2,0,0,4,4,16,1,,,,,,,,,,,,,,,,,,,,,,,,,,,,,,,,,,,,,,,,,,,,,,,,,,,,,,,,,,,,,,,,,,,,,,
,,?,0.003085,0,,,,,,stimuli/images/PICTURE_308.png,KIND,5ed358aab6ee6f2e2885eddf,28/02/94,2020-09-02_13h20.27.591,proactive3.2,2020.1.2,Linux x86_64,60,5f47c0b9b035471e11593a5c,5f4f819717b4c203961f3947,5,,,,,,dice,,,,,,,,,,,6,0,0,5,5,54,1,,,,,,,,,,,,,,,,,,,,,,,,,,,,,,,,,,,,,,,,,,,,,,,,,,,,,,,,,,,,,,,,,,,,,,
,,?,0.003045,0,,,,,,stimuli/images/PICTURE_487.png,FLIGHT,5ed358aab6ee6f2e2885eddf,28/02/94,2020-09-02_13h20.27.591,proactive3.2,2020.1.2,Linux x86_64,60,5f47c0b9b035471e11593a5c,5f4f819717b4c203961f3947,5,,,,,,basket,,,,,,,,,,,1,0,0,6,6,9,1,,,,,,,,,,,,,,,,,,,,,,,,,,,,,,,,,,,,,,,,,,,,,,,,,,,,,,,,,,,,,,,,,,,,,,
,,?,0.003125,0,,,,,,stimuli/images/PICTURE_248.png,DOZEN,5ed358aab6ee6f2e2885eddf,28/02/94,2020-09-02_13h20.27.591,proactive3.2,2020.1.2,Linux x86_64,60,5f47c0b9b035471e11593a5c,5f4f819717b4c203961f3947,5,,,,,,cart,,,,,,,,,,,4,0,0,7,7,39,1,,,,,,,,,,,,,,,,,,,,,,,,,,,,,,,,,,,,,,,,,,,,,,,,,,,,,,,,,,,,,,,,,,,,,,
,,FIRE,4.637345,0,,,,,,stimuli/images/PICTURE_68.png,MILE,5ed358aab6ee6f2e2885eddf,28/02/94,2020-09-02_13h20.27.591,proactive3.2,2020.1.2,Linux x86_64,60,5f47c0b9b035471e11593a5c,5f4f819717b4c203961f3947,5,,,,,,candle,,,,,,,,,,,5,0,0,8,8,44,1,,,,,,,,,,,,,,,,,,,,,,,,,,,,,,,,,,,,,,,,,,,,,,,,,,,,,,,,,,,,,,,,,,,,,,
,,?,0.003925,0,,,,,,stimuli/images/PICTURE_215.png,PLENTY,5ed358aab6ee6f2e2885eddf,28/02/94,2020-09-02_13h20.27.591,proactive3.2,2020.1.2,Linux x86_64,60,5f47c0b9b035471e11593a5c,5f4f819717b4c203961f3947,5,,,,,,boot,,,,,,,,,,,4,0,0,9,9,37,1,,,,,,,,,,,,,,,,,,,,,,,,,,,,,,,,,,,,,,,,,,,,,,,,,,,,,,,,,,,,,,,,,,,,,,
,,?,0.00438,0,,,,,,stimuli/images/PICTURE_123.png,ADVICE,5ed358aab6ee6f2e2885eddf,28/02/94,2020-09-02_13h20.27.591,proactive3.2,2020.1.2,Linux x86_64,60,5f47c0b9b035471e11593a5c,5f4f819717b4c203961f3947,5,,,,,,dart,,,,,,,,,,,6,0,0,10,10,50,1,,,,,,,,,,,,,,,,,,,,,,,,,,,,,,,,,,,,,,,,,,,,,,,,,,,,,,,,,,,,,,,,,,,,,,
,,?,0.0028,0,,,,,,stimuli/images/PICTURE_467.png,DEMON,5ed358aab6ee6f2e2885eddf,28/02/94,2020-09-02_13h20.27.591,proactive3.2,2020.1.2,Linux x86_64,60,5f47c0b9b035471e11593a5c,5f4f819717b4c203961f3947,5,,,,,,peg,,,,,,,,,,,3,0,0,11,11,23,1,,,,,,,,,,,,,,,,,,,,,,,,,,,,,,,,,,,,,,,,,,,,,,,,,,,,,,,,,,,,,,,,,,,,,,
,,?,0.003385,0,,,,,,stimuli/images/PICTURE_233.png,WOMEN,5ed358aab6ee6f2e2885eddf,28/02/94,2020-09-02_13h20.27.591,proactive3.2,2020.1.2,Linux x86_64,60,5f47c0b9b035471e11593a5c,5f4f819717b4c203961f3947,5,,,,,,salt,,,,,,,,,,,4,0,0,12,12,38,1,,,,,,,,,,,,,,,,,,,,,,,,,,,,,,,,,,,,,,,,,,,,,,,,,,,,,,,,,,,,,,,,,,,,,,
,,?,0.00292,0,,,,,,stimuli/images/PICTURE_95.png,STYLE,5ed358aab6ee6f2e2885eddf,28/02/94,2020-09-02_13h20.27.591,proactive3.2,2020.1.2,Linux x86_64,60,5f47c0b9b035471e11593a5c,5f4f819717b4c203961f3947,5,,,,,,suitcase,,,,,,,,,,,3,0,0,13,13,25,1,,,,,,,,,,,,,,,,,,,,,,,,,,,,,,,,,,,,,,,,,,,,,,,,,,,,,,,,,,,,,,,,,,,,,,
,,?,0.00285,0,,,,,,stimuli/images/PICTURE_509.png,PHOTO,5ed358aab6ee6f2e2885eddf,28/02/94,2020-09-02_13h20.27.591,proactive3.2,2020.1.2,Linux x86_64,60,5f47c0b9b035471e11593a5c,5f4f819717b4c203961f3947,5,,,,,,telephone,,,,,,,,,,,3,0,0,14,14,21,1,,,,,,,,,,,,,,,,,,,,,,,,,,,,,,,,,,,,,,,,,,,,,,,,,,,,,,,,,,,,,,,,,,,,,,
,,?,0.002855,0,,,,,,stimuli/images/PICTURE_151.png,GIRL,5ed358aab6ee6f2e2885eddf,28/02/94,2020-09-02_13h20.27.591,proactive3.2,2020.1.2,Linux x86_64,60,5f47c0b9b035471e11593a5c,5f4f819717b4c203961f3947,5,,,,,,tray,,,,,,,,,,,2,0,0,15,15,19,1,,,,,,,,,,,,,,,,,,,,,,,,,,,,,,,,,,,,,,,,,,,,,,,,,,,,,,,,,,,,,,,,,,,,,,
,,?,0.002815,0,,,,,,stimuli/images/PICTURE_491.png,ROOF,5ed358aab6ee6f2e2885eddf,28/02/94,2020-09-02_13h20.27.591,proactive3.2,2020.1.2,Linux x86_64,60,5f47c0b9b035471e11593a5c,5f4f819717b4c203961f3947,5,,,,,,rug,,,,,,,,,,,3,0,0,16,16,24,1,,,,,,,,,,,,,,,,,,,,,,,,,,,,,,,,,,,,,,,,,,,,,,,,,,,,,,,,,,,,,,,,,,,,,,
,,?,0.011985,0,,,,,,stimuli/images/PICTURE_160.png,FEET,5ed358aab6ee6f2e2885eddf,28/02/94,2020-09-02_13h20.27.591,proactive3.2,2020.1.2,Linux x86_64,60,5f47c0b9b035471e11593a5c,5f4f819717b4c203961f3947,5,,,,,,wheelbarrow,,,,,,,,,,,6,0,0,17,17,58,1,,,,,,,,,,,,,,,,,,,,,,,,,,,,,,,,,,,,,,,,,,,,,,,,,,,,,,,,,,,,,,,,,,,,,,
,,?,0.001875,0,,,,,,stimuli/images/PICTURE_675.png,WEAPON,5ed358aab6ee6f2e2885eddf,28/02/94,2020-09-02_13h20.27.591,proactive3.2,2020.1.2,Linux x86_64,60,5f47c0b9b035471e11593a5c,5f4f819717b4c203961f3947,5,,,,,,windmill,,,,,,,,,,,4,0,0,18,18,32,1,,,,,,,,,,,,,,,,,,,,,,,,,,,,,,,,,,,,,,,,,,,,,,,,,,,,,,,,,,,,,,,,,,,,,,
,,?,0.00164,0,,,,,,stimuli/images/PICTURE_470.png,CASINO,5ed358aab6ee6f2e2885eddf,28/02/94,2020-09-02_13h20.27.591,proactive3.2,2020.1.2,Linux x86_64,60,5f47c0b9b035471e11593a5c,5f4f819717b4c203961f3947,5,,,,,,motorbike,,,,,,,,,,,4,0,0,19,19,36,1,,,,,,,,,,,,,,,,,,,,,,,,,,,,,,,,,,,,,,,,,,,,,,,,,,,,,,,,,,,,,,,,,,,,,,
,,?,0.00142,0,,,,,,stimuli/images/PICTURE_208.png,MONTH,5ed358aab6ee6f2e2885eddf,28/02/94,2020-09-02_13h20.27.591,proactive3.2,2020.1.2,Linux x86_64,60,5f47c0b9b035471e11593a5c,5f4f819717b4c203961f3947,5,,,,,,microphone,,,,,,,,,,,6,0,0,20,20,53,1,,,,,,,,,,,,,,,,,,,,,,,,,,,,,,,,,,,,,,,,,,,,,,,,,,,,,,,,,,,,,,,,,,,,,,
,,?,0.001195,0,,,,,,stimuli/images/PICTURE_302.png,FAMILY,5ed358aab6ee6f2e2885eddf,28/02/94,2020-09-02_13h20.27.591,proactive3.2,2020.1.2,Linux x86_64,60,5f47c0b9b035471e11593a5c,5f4f819717b4c203961f3947,5,,,,,,taxi,,,,,,,,,,,2,0,0,21,21,18,1,,,,,,,,,,,,,,,,,,,,,,,,,,,,,,,,,,,,,,,,,,,,,,,,,,,,,,,,,,,,,,,,,,,,,,
,,?,0.001255,0,,,,,,stimuli/images/PICTURE_208.png,LOTS,5ed358aab6ee6f2e2885eddf,28/02/94,2020-09-02_13h20.27.591,proactive3.2,2020.1.2,Linux x86_64,60,5f47c0b9b035471e11593a5c,5f4f819717b4c203961f3947,5,,,,,,microphone,,,,,,,,,,,2,0,0,22,22,10,1,,,,,,,,,,,,,,,,,,,,,,,,,,,,,,,,,,,,,,,,,,,,,,,,,,,,,,,,,,,,,,,,,,,,,,
,,?,0.013515,0,,,,,,stimuli/images/PICTURE_32.png,JUNGLE,5ed358aab6ee6f2e2885eddf,28/02/94,2020-09-02_13h20.27.591,proactive3.2,2020.1.2,Linux x86_64,60,5f47c0b9b035471e11593a5c,5f4f819717b4c203961f3947,5,,,,,,crown,,,,,,,,,,,5,0,0,23,23,45,1,,,,,,,,,,,,,,,,,,,,,,,,,,,,,,,,,,,,,,,,,,,,,,,,,,,,,,,,,,,,,,,,,,,,,,
,,?,0.00283,0,,,,,,stimuli/images/PICTURE_147.png,MOMENT,5ed358aab6ee6f2e2885eddf,28/02/94,2020-09-02_13h20.27.591,proactive3.2,2020.1.2,Linux x86_64,60,5f47c0b9b035471e11593a5c,5f4f819717b4c203961f3947,5,,,,,,hanger,,,,,,,,,,,6,0,0,24,24,51,1,,,,,,,,,,,,,,,,,,,,,,,,,,,,,,,,,,,,,,,,,,,,,,,,,,,,,,,,,,,,,,,,,,,,,,
,,?,0.002855,0,,,,,,stimuli/images/PICTURE_285.png,ADVICE,5ed358aab6ee6f2e2885eddf,28/02/94,2020-09-02_13h20.27.591,proactive3.2,2020.1.2,Linux x86_64,60,5f47c0b9b035471e11593a5c,5f4f819717b4c203961f3947,5,,,,,,carrot,,,,,,,,,,,2,0,0,25,25,12,1,,,,,,,,,,,,,,,,,,,,,,,,,,,,,,,,,,,,,,,,,,,,,,,,,,,,,,,,,,,,,,,,,,,,,,
,,BEAUTY,5.84137,0,,,,,,stimuli/images/PICTURE_308.png,ESTATE,5ed358aab6ee6f2e2885eddf,28/02/94,2020-09-02_13h20.27.591,proactive3.2,2020.1.2,Linux x86_64,60,5f47c0b9b035471e11593a5c,5f4f819717b4c203961f3947,5,,,,,,dice,,,,,,,,,,,5,0,0,26,26,46,1,,,,,,,,,,,,,,,,,,,,,,,,,,,,,,,,,,,,,,,,,,,,,,,,,,,,,,,,,,,,,,,,,,,,,,
,,?,0.0038,0,,,,,,stimuli/images/PICTURE_667.png,BATH,5ed358aab6ee6f2e2885eddf,28/02/94,2020-09-02_13h20.27.591,proactive3.2,2020.1.2,Linux x86_64,60,5f47c0b9b035471e11593a5c,5f4f819717b4c203961f3947,5,,,,,,daisy,,,,,,,,,,,1,0,0,27,27,4,1,,,,,,,,,,,,,,,,,,,,,,,,,,,,,,,,,,,,,,,,,,,,,,,,,,,,,,,,,,,,,,,,,,,,,,
,,?,0.00451,0,,,,,,stimuli/images/PICTURE_203.png,ARTIST,5ed358aab6ee6f2e2885eddf,28/02/94,2020-09-02_13h20.27.591,proactive3.2,2020.1.2,Linux x86_64,60,5f47c0b9b035471e11593a5c,5f4f819717b4c203961f3947,5,,,,,,cap,,,,,,,,,,,3,0,0,28,28,26,1,,,,,,,,,,,,,,,,,,,,,,,,,,,,,,,,,,,,,,,,,,,,,,,,,,,,,,,,,,,,,,,,,,,,,,
,,?,0.002765,0,,,,,,stimuli/images/PICTURE_453.png,DUDE,5ed358aab6ee6f2e2885eddf,28/02/94,2020-09-02_13h20.27.591,proactive3.2,2020.1.2,Linux x86_64,60,5f47c0b9b035471e11593a5c,5f4f819717b4c203961f3947,5,,,,,,scissors,,,,,,,,,,,3,0,0,29,29,27,1,,,,,,,,,,,,,,,,,,,,,,,,,,,,,,,,,,,,,,,,,,,,,,,,,,,,,,,,,,,,,,,,,,,,,,
,,?,0.00303,0,,,,,,stimuli/images/PICTURE_449.png,THING,5ed358aab6ee6f2e2885eddf,28/02/94,2020-09-02_13h20.27.591,proactive3.2,2020.1.2,Linux x86_64,60,5f47c0b9b035471e11593a5c,5f4f819717b4c203961f3947,5,,,,,,bench,,,,,,,,,,,6,0,0,30,30,59,1,,,,,,,,,,,,,,,,,,,,,,,,,,,,,,,,,,,,,,,,,,,,,,,,,,,,,,,,,,,,,,,,,,,,,,
,,?,0.002595,0,,,,,,stimuli/images/PICTURE_311.png,FRIEND,5ed358aab6ee6f2e2885eddf,28/02/94,2020-09-02_13h20.27.591,proactive3.2,2020.1.2,Linux x86_64,60,5f47c0b9b035471e11593a5c,5f4f819717b4c203961f3947,5,,,,,,razor,,,,,,,,,,,4,0,0,31,31,34,1,,,,,,,,,,,,,,,,,,,,,,,,,,,,,,,,,,,,,,,,,,,,,,,,,,,,,,,,,,,,,,,,,,,,,,
,,KING,2.687665,0,,,,,,stimuli/images/PICTURE_208.png,THING,5ed358aab6ee6f2e2885eddf,28/02/94,2020-09-02_13h20.27.591,proactive3.2,2020.1.2,Linux x86_64,60,5f47c0b9b035471e11593a5c,5f4f819717b4c203961f3947,5,,,,,,microphone,,,,,,,,,,,5,0,0,32,32,47,1,,,,,,,,,,,,,,,,,,,,,,,,,,,,,,,,,,,,,,,,,,,,,,,,,,,,,,,,,,,,,,,,,,,,,,
,,?,0.004095,0,,,,,,stimuli/images/PICTURE_177.png,CARS,5ed358aab6ee6f2e2885eddf,28/02/94,2020-09-02_13h20.27.591,proactive3.2,2020.1.2,Linux x86_64,60,5f47c0b9b035471e11593a5c,5f4f819717b4c203961f3947,5,,,,,,mushroom,,,,,,,,,,,4,0,0,33,33,35,1,,,,,,,,,,,,,,,,,,,,,,,,,,,,,,,,,,,,,,,,,,,,,,,,,,,,,,,,,,,,,,,,,,,,,,
,,?,0.00321,0,,,,,,stimuli/images/PICTURE_314.png,SAKE,5ed358aab6ee6f2e2885eddf,28/02/94,2020-09-02_13h20.27.591,proactive3.2,2020.1.2,Linux x86_64,60,5f47c0b9b035471e11593a5c,5f4f819717b4c203961f3947,5,,,,,,perfume,,,,,,,,,,,1,0,0,34,34,7,1,,,,,,,,,,,,,,,,,,,,,,,,,,,,,,,,,,,,,,,,,,,,,,,,,,,,,,,,,,,,,,,,,,,,,,
,,?,0.003085,0,,,,,,stimuli/images/PICTURE_160.png,LEADER,5ed358aab6ee6f2e2885eddf,28/02/94,2020-09-02_13h20.27.591,proactive3.2,2020.1.2,Linux x86_64,60,5f47c0b9b035471e11593a5c,5f4f819717b4c203961f3947,5,,,,,,wheelbarrow,,,,,,,,,,,1,0,0,35,35,3,1,,,,,,,,,,,,,,,,,,,,,,,,,,,,,,,,,,,,,,,,,,,,,,,,,,,,,,,,,,,,,,,,,,,,,,
,,?,0.00362,0,,,,,,stimuli/images/PICTURE_488.png,STYLE,5ed358aab6ee6f2e2885eddf,28/02/94,2020-09-02_13h20.27.591,proactive3.2,2020.1.2,Linux x86_64,60,5f47c0b9b035471e11593a5c,5f4f819717b4c203961f3947,5,,,,,,sun,,,,,,,,,,,4,0,0,36,36,33,1,,,,,,,,,,,,,,,,,,,,,,,,,,,,,,,,,,,,,,,,,,,,,,,,,,,,,,,,,,,,,,,,,,,,,,
,,BEAUTY,3.59074,1,,,,,,stimuli/images/PICTURE_327.png,BEAUTY,5ed358aab6ee6f2e2885eddf,28/02/94,2020-09-02_13h20.27.591,proactive3.2,2020.1.2,Linux x86_64,60,5f47c0b9b035471e11593a5c,5f4f819717b4c203961f3947,5,,,,,,helmet,,,,,,,,,,,5,0,0,37,37,48,1,,,,,,,,,,,,,,,,,,,,,,,,,,,,,,,,,,,,,,,,,,,,,,,,,,,,,,,,,,,,,,,,,,,,,,
,,?,0.005125,0,,,,,,stimuli/images/PICTURE_311.png,BEAUTY,5ed358aab6ee6f2e2885eddf,28/02/94,2020-09-02_13h20.27.591,proactive3.2,2020.1.2,Linux x86_64,60,5f47c0b9b035471e11593a5c,5f4f819717b4c203961f3947,5,,,,,,razor,,,,,,,,,,,2,0,0,38,38,13,1,,,,,,,,,,,,,,,,,,,,,,,,,,,,,,,,,,,,,,,,,,,,,,,,,,,,,,,,,,,,,,,,,,,,,,
,,?,0.004355,0,,,,,,stimuli/images/PICTURE_744.png,SAKE,5ed358aab6ee6f2e2885eddf,28/02/94,2020-09-02_13h20.27.591,proactive3.2,2020.1.2,Linux x86_64,60,5f47c0b9b035471e11593a5c,5f4f819717b4c203961f3947,5,,,,,,ring,,,,,,,,,,,2,0,0,39,39,17,1,,,,,,,,,,,,,,,,,,,,,,,,,,,,,,,,,,,,,,,,,,,,,,,,,,,,,,,,,,,,,,,,,,,,,,
,,?,0.00152,0,,,,,,stimuli/images/PICTURE_708.png,CLIENT,5ed358aab6ee6f2e2885eddf,28/02/94,2020-09-02_13h20.27.591,proactive3.2,2020.1.2,Linux x86_64,60,5f47c0b9b035471e11593a5c,5f4f819717b4c203961f3947,5,,,,,,monkey,,,,,,,,,,,1,0,0,40,40,5,1,,,,,,,,,,,,,,,,,,,,,,,,,,,,,,,,,,,,,,,,,,,,,,,,,,,,,,,,,,,,,,,,,,,,,,
,,?,0.00208,0,,,,,,stimuli/images/PICTURE_688.png,CASINO,5ed358aab6ee6f2e2885eddf,28/02/94,2020-09-02_13h20.27.591,proactive3.2,2020.1.2,Linux x86_64,60,5f47c0b9b035471e11593a5c,5f4f819717b4c203961f3947,5,,,,,,runner,,,,,,,,,,,1,0,0,41,41,2,1,,,,,,,,,,,,,,,,,,,,,,,,,,,,,,,,,,,,,,,,,,,,,,,,,,,,,,,,,,,,,,,,,,,,,,
,,?,0.00112,0,,,,,,stimuli/images/PICTURE_453.png,PLENTY,5ed358aab6ee6f2e2885eddf,28/02/94,2020-09-02_13h20.27.591,proactive3.2,2020.1.2,Linux x86_64,60,5f47c0b9b035471e11593a5c,5f4f819717b4c203961f3947,5,,,,,,scissors,,,,,,,,,,,6,0,0,42,42,56,1,,,,,,,,,,,,,,,,,,,,,,,,,,,,,,,,,,,,,,,,,,,,,,,,,,,,,,,,,,,,,,,,,,,,,,
,,?,0.00122,0,,,,,,stimuli/images/PICTURE_469.png,ARTIST,5ed358aab6ee6f2e2885eddf,28/02/94,2020-09-02_13h20.27.591,proactive3.2,2020.1.2,Linux x86_64,60,5f47c0b9b035471e11593a5c,5f4f819717b4c203961f3947,5,,,,,,stool,,,,,,,,,,,1,0,0,43,43,6,1,,,,,,,,,,,,,,,,,,,,,,,,,,,,,,,,,,,,,,,,,,,,,,,,,,,,,,,,,,,,,,,,,,,,,,
,,?,0.001375,0,,,,,,stimuli/images/PICTURE_380.png,PHOTO,5ed358aab6ee6f2e2885eddf,28/02/94,2020-09-02_13h20.27.591,proactive3.2,2020.1.2,Linux x86_64,60,5f47c0b9b035471e11593a5c,5f4f819717b4c203961f3947,5,,,,,,gorilla,,,,,,,,,,,6,0,0,44,44,52,1,,,,,,,,,,,,,,,,,,,,,,,,,,,,,,,,,,,,,,,,,,,,,,,,,,,,,,,,,,,,,,,,,,,,,,
,,?,0.000985,0,,,,,,stimuli/images/PICTURE_255.png,AREA,5ed358aab6ee6f2e2885eddf,28/02/94,2020-09-02_13h20.27.591,proactive3.2,2020.1.2,Linux x86_64,60,5f47c0b9b035471e11593a5c,5f4f819717b4c203961f3947,5,,,,,,shovel,,,,,,,,,,,3,0,0,45,45,22,1,,,,,,,,,,,,,,,,,,,,,,,,,,,,,,,,,,,,,,,,,,,,,,,,,,,,,,,,,,,,,,,,,,,,,,
,,?,0.00098,0,,,,,,stimuli/images/PICTURE_85.png,THING,5ed358aab6ee6f2e2885eddf,28/02/94,2020-09-02_13h20.27.591,proactive3.2,2020.1.2,Linux x86_64,60,5f47c0b9b035471e11593a5c,5f4f819717b4c203961f3947,5,,,,,,diamond,,,,,,,,,,,2,0,0,46,46,15,1,,,,,,,,,,,,,,,,,,,,,,,,,,,,,,,,,,,,,,,,,,,,,,,,,,,,,,,,,,,,,,,,,,,,,,
,,HOUSE,5.39576,0,,,,,,stimuli/images/PICTURE_744.png,SYSTEM,5ed358aab6ee6f2e2885eddf,28/02/94,2020-09-02_13h20.27.591,proactive3.2,2020.1.2,Linux x86_64,60,5f47c0b9b035471e11593a5c,5f4f819717b4c203961f3947,5,,,,,,ring,,,,,,,,,,,5,0,0,47,47,43,1,,,,,,,,,,,,,,,,,,,,,,,,,,,,,,,,,,,,,,,,,,,,,,,,,,,,,,,,,,,,,,,,,,,,,,
,,?,0.003085,0,,,,,,stimuli/images/PICTURE_708.png,YARD,5ed358aab6ee6f2e2885eddf,28/02/94,2020-09-02_13h20.27.591,proactive3.2,2020.1.2,Linux x86_64,60,5f47c0b9b035471e11593a5c,5f4f819717b4c203961f3947,5,,,,,,monkey,,,,,,,,,,,3,0,0,48,48,29,1,,,,,,,,,,,,,,,,,,,,,,,,,,,,,,,,,,,,,,,,,,,,,,,,,,,,,,,,,,,,,,,,,,,,,,
,,FIRE,3.261045,0,,,,,,stimuli/images/PICTURE_667.png,PLENTY,5ed358aab6ee6f2e2885eddf,28/02/94,2020-09-02_13h20.27.591,proactive3.2,2020.1.2,Linux x86_64,60,5f47c0b9b035471e11593a5c,5f4f819717b4c203961f3947,5,,,,,,daisy,,,,,,,,,,,5,0,0,49,49,41,1,,,,,,,,,,,,,,,,,,,,,,,,,,,,,,,,,,,,,,,,,,,,,,,,,,,,,,,,,,,,,,,,,,,,,,
,,?,0.002915,0,,,,,,stimuli/images/PICTURE_233.png,IDEAS,5ed358aab6ee6f2e2885eddf,28/02/94,2020-09-02_13h20.27.591,proactive3.2,2020.1.2,Linux x86_64,60,5f47c0b9b035471e11593a5c,5f4f819717b4c203961f3947,5,,,,,,salt,,,,,,,,,,,3,0,0,50,50,28,1,,,,,,,,,,,,,,,,,,,,,,,,,,,,,,,,,,,,,,,,,,,,,,,,,,,,,,,,,,,,,,,,,,,,,,
,,?,0.00273,0,,,,,,stimuli/images/PICTURE_356.png,DANGER,5ed358aab6ee6f2e2885eddf,28/02/94,2020-09-02_13h20.27.591,proactive3.2,2020.1.2,Linux x86_64,60,5f47c0b9b035471e11593a5c,5f4f819717b4c203961f3947,5,,,,,,pawn,,,,,,,,,,,6,0,0,51,51,55,1,,,,,,,,,,,,,,,,,,,,,,,,,,,,,,,,,,,,,,,,,,,,,,,,,,,,,,,,,,,,,,,,,,,,,,
,,?,0.003925,0,,,,,,stimuli/images/PICTURE_314.png,GODS,5ed358aab6ee6f2e2885eddf,28/02/94,2020-09-02_13h20.27.591,proactive3.2,2020.1.2,Linux x86_64,60,5f47c0b9b035471e11593a5c,5f4f819717b4c203961f3947,5,,,,,,perfume,,,,,,,,,,,2,0,0,52,52,11,1,,,,,,,,,,,,,,,,,,,,,,,,,,,,,,,,,,,,,,,,,,,,,,,,,,,,,,,,,,,,,,,,,,,,,,
,,?,0.004655,0,,,,,,stimuli/images/PICTURE_654.png,VALLEY,5ed358aab6ee6f2e2885eddf,28/02/94,2020-09-02_13h20.27.591,proactive3.2,2020.1.2,Linux x86_64,60,5f47c0b9b035471e11593a5c,5f4f819717b4c203961f3947,5,,,,,,pencil,,,,,,,,,,,1,0,0,53,53,1,1,,,,,,,,,,,,,,,,,,,,,,,,,,,,,,,,,,,,,,,,,,,,,,,,,,,,,,,,,,,,,,,,,,,,,,
,,?,0.00271,0,,,,,,stimuli/images/PICTURE_677.png,MILE,5ed358aab6ee6f2e2885eddf,28/02/94,2020-09-02_13h20.27.591,proactive3.2,2020.1.2,Linux x86_64,60,5f47c0b9b035471e11593a5c,5f4f819717b4c203961f3947,5,,,,,,map,,,,,,,,,,,4,0,0,54,54,30,1,,,,,,,,,,,,,,,,,,,,,,,,,,,,,,,,,,,,,,,,,,,,,,,,,,,,,,,,,,,,,,,,,,,,,,
,,?,0.003725,0,,,,,,stimuli/images/PICTURE_348.png,SPEECH,5ed358aab6ee6f2e2885eddf,28/02/94,2020-09-02_13h20.27.591,proactive3.2,2020.1.2,Linux x86_64,60,5f47c0b9b035471e11593a5c,5f4f819717b4c203961f3947,5,,,,,,pepper,,,,,,,,,,,3,0,0,55,55,20,1,,,,,,,,,,,,,,,,,,,,,,,,,,,,,,,,,,,,,,,,,,,,,,,,,,,,,,,,,,,,,,,,,,,,,,
,,?,0.002655,0,,,,,,stimuli/images/PICTURE_708.png,PENNY,5ed358aab6ee6f2e2885eddf,28/02/94,2020-09-02_13h20.27.591,proactive3.2,2020.1.2,Linux x86_64,60,5f47c0b9b035471e11593a5c,5f4f819717b4c203961f3947,5,,,,,,monkey,,,,,,,,,,,4,0,0,56,56,31,1,,,,,,,,,,,,,,,,,,,,,,,,,,,,,,,,,,,,,,,,,,,,,,,,,,,,,,,,,,,,,,,,,,,,,,
,,?,0.003505,0,,,,,,stimuli/images/PICTURE_688.png,WOMEN,5ed358aab6ee6f2e2885eddf,28/02/94,2020-09-02_13h20.27.591,proactive3.2,2020.1.2,Linux x86_64,60,5f47c0b9b035471e11593a5c,5f4f819717b4c203961f3947,5,,,,,,runner,,,,,,,,,,,2,0,0,57,57,14,1,,,,,,,,,,,,,,,,,,,,,,,,,,,,,,,,,,,,,,,,,,,,,,,,,,,,,,,,,,,,,,,,,,,,,,
,,DOG,6.574405,0,,,,,,stimuli/images/PICTURE_380.png,DEATH,5ed358aab6ee6f2e2885eddf,28/02/94,2020-09-02_13h20.27.591,proactive3.2,2020.1.2,Linux x86_64,60,5f47c0b9b035471e11593a5c,5f4f819717b4c203961f3947,5,,,,,,gorilla,,,,,,,,,,,5,0,0,58,58,49,1,,,,,,,,,,,,,,,,,,,,,,,,,,,,,,,,,,,,,,,,,,,,,,,,,,,,,,,,,,,,,,,,,,,,,,
,,FIRE,2.69228,0,,,,,,stimuli/images/PICTURE_123.png,ADVICE,5ed358aab6ee6f2e2885eddf,28/02/94,2020-09-02_13h20.27.591,proactive3.2,2020.1.2,Linux x86_64,60,5f47c0b9b035471e11593a5c,5f4f819717b4c203961f3947,5,,,,,,dart,,,,,,,,,,,5,0,0,59,59,40,1,,,,,,,,,,,,,,,,,,,,,,,,,,,,,,,,,,,,,,,,,,,,,,,,,,,,,,,,,,,,,,,,,,,,,,
,,,,,,,,,,,,5ed358aab6ee6f2e2885eddf,28/02/94,2020-09-02_13h20.27.591,proactive3.2,2020.1.2,Linux x86_64,60,5f47c0b9b035471e11593a5c,5f4f819717b4c203961f3947,5,,,,,,,,,,,,,,,,,,,,,,,,0,0,0,0,1,stimuli/learn-block1.csv,,,,,,,,,,,,,,,,,,,,,,,,,,,,,,,,,,,,,,,,,,,,,,,,,,,,,,,,,,,,,,,,
,,,,,,,,,,stimuli/images/PICTURE_57.png,MOMENT,5ed358aab6ee6f2e2885eddf,28/02/94,2020-09-02_13h20.27.591,proactive3.2,2020.1.2,Linux x86_64,60,5f47c0b9b035471e11593a5c,5f4f819717b4c203961f3947,5,,,,,,stamp,,,,,,0,0,0,37,1,4,1,,,,,,,,,,,,,,,,,,,,,,,,,,,,,,,,,,,,,,,,,,,,,,,,,,,,,,,,,,,,,,,,,,,,,,,,,,,
,,,,,,,,,,stimuli/images/PICTURE_95.png,HONEY,5ed358aab6ee6f2e2885eddf,28/02/94,2020-09-02_13h20.27.591,proactive3.2,2020.1.2,Linux x86_64,60,5f47c0b9b035471e11593a5c,5f4f819717b4c203961f3947,5,,,,,,suitcase,,,,,,0,1,1,44,1,5,1,,,,,,,,,,,,,,,,,,,,,,,,,,,,,,,,,,,,,,,,,,,,,,,,,,,,,,,,,,,,,,,,,,,,,,,,,,,
,,,,,,,,,,stimuli/images/PICTURE_750.png,HOTEL,5ed358aab6ee6f2e2885eddf,28/02/94,2020-09-02_13h20.27.591,proactive3.2,2020.1.2,Linux x86_64,60,5f47c0b9b035471e11593a5c,5f4f819717b4c203961f3947,5,,,,,,kettle,,,,,,0,2,2,27,1,3,1,,,,,,,,,,,,,,,,,,,,,,,,,,,,,,,,,,,,,,,,,,,,,,,,,,,,,,,,,,,,,,,,,,,,,,,,,,,
,,,,,,,,,,stimuli/images/PICTURE_68.png,MILE,5ed358aab6ee6f2e2885eddf,28/02/94,2020-09-02_13h20.27.591,proactive3.2,2020.1.2,Linux x86_64,60,5f47c0b9b035471e11593a5c,5f4f819717b4c203961f3947,5,,,,,,candle,,,,,,0,3,3,51,1,6,1,,,,,,,,,,,,,,,,,,,,,,,,,,,,,,,,,,,,,,,,,,,,,,,,,,,,,,,,,,,,,,,,,,,,,,,,,,,
,,,,,,,,,,stimuli/images/PICTURE_85.png,NATION,5ed358aab6ee6f2e2885eddf,28/02/94,2020-09-02_13h20.27.591,proactive3.2,2020.1.2,Linux x86_64,60,5f47c0b9b035471e11593a5c,5f4f819717b4c203961f3947,5,,,,,,diamond,,,,,,0,4,4,5,1,1,1,,,,,,,,,,,,,,,,,,,,,,,,,,,,,,,,,,,,,,,,,,,,,,,,,,,,,,,,,,,,,,,,,,,,,,,,,,,
,,,,,,,,,,stimuli/images/PICTURE_296.png,LIFE,5ed358aab6ee6f2e2885eddf,28/02/94,2020-09-02_13h20.27.591,proactive3.2,2020.1.2,Linux x86_64,60,5f47c0b9b035471e11593a5c,5f4f819717b4c203961f3947,5,,,,,,bolt,,,,,,0,5,5,57,1,6,1,,,,,,,,,,,,,,,,,,,,,,,,,,,,,,,,,,,,,,,,,,,,,,,,,,,,,,,,,,,,,,,,,,,,,,,,,,,
,,,,,,,,,,stimuli/images/PICTURE_491.png,GLASS,5ed358aab6ee6f2e2885eddf,28/02/94,2020-09-02_13h20.27.591,proactive3.2,2020.1.2,Linux x86_64,60,5f47c0b9b035471e11593a5c,5f4f819717b4c203961f3947,5,,,,,,rug,,,,,,0,6,6,14,1,2,1,,,,,,,,,,,,,,,,,,,,,,,,,,,,,,,,,,,,,,,,,,,,,,,,,,,,,,,,,,,,,,,,,,,,,,,,,,,
,,,,,,,,,,stimuli/images/PICTURE_491.png,RIVER,5ed358aab6ee6f2e2885eddf,28/02/94,2020-09-02_13h20.27.591,proactive3.2,2020.1.2,Linux x86_64,60,5f47c0b9b035471e11593a5c,5f4f819717b4c203961f3947,5,,,,,,rug,,,,,,0,7,7,6,1,1,1,,,,,,,,,,,,,,,,,,,,,,,,,,,,,,,,,,,,,,,,,,,,,,,,,,,,,,,,,,,,,,,,,,,,,,,,,,,
,,,,,,,,,,stimuli/images/PICTURE_685.png,PENNY,5ed358aab6ee6f2e2885eddf,28/02/94,2020-09-02_13h20.27.591,proactive3.2,2020.1.2,Linux x86_64,60,5f47c0b9b035471e11593a5c,5f4f819717b4c203961f3947,5,,,,,,goose,,,,,,0,8,8,4,1,1,1,,,,,,,,,,,,,,,,,,,,,,,,,,,,,,,,,,,,,,,,,,,,,,,,,,,,,,,,,,,,,,,,,,,,,,,,,,,
,,,,,,,,,,stimuli/images/PICTURE_203.png,GODS,5ed358aab6ee6f2e2885eddf,28/02/94,2020-09-02_13h20.27.591,proactive3.2,2020.1.2,Linux x86_64,60,5f47c0b9b035471e11593a5c,5f4f819717b4c203961f3947,5,,,,,,cap,,,,,,0,9,9,30,1,4,1,,,,,,,,,,,,,,,,,,,,,,,,,,,,,,,,,,,,,,,,,,,,,,,,,,,,,,,,,,,,,,,,,,,,,,,,,,,
,,,,,,,,,,stimuli/images/PICTURE_654.png,MONTH,5ed358aab6ee6f2e2885eddf,28/02/94,2020-09-02_13h20.27.591,proactive3.2,2020.1.2,Linux x86_64,60,5f47c0b9b035471e11593a5c,5f4f819717b4c203961f3947,5,,,,,,pencil,,,,,,0,10,10,29,1,3,1,,,,,,,,,,,,,,,,,,,,,,,,,,,,,,,,,,,,,,,,,,,,,,,,,,,,,,,,,,,,,,,,,,,,,,,,,,,
,,,,,,,,,,stimuli/images/PICTURE_340.png,LETTER,5ed358aab6ee6f2e2885eddf,28/02/94,2020-09-02_13h20.27.591,proactive3.2,2020.1.2,Linux x86_64,60,5f47c0b9b035471e11593a5c,5f4f819717b4c203961f3947,5,,,,,,mirror,,,,,,0,11,11,24,1,3,1,,,,,,,,,,,,,,,,,,,,,,,,,,,,,,,,,,,,,,,,,,,,,,,,,,,,,,,,,,,,,,,,,,,,,,,,,,,
,,,,,,,,,,stimuli/images/PICTURE_308.png,FAMILY,5ed358aab6ee6f2e2885eddf,28/02/94,2020-09-02_13h20.27.591,proactive3.2,2020.1.2,Linux x86_64,60,5f47c0b9b035471e11593a5c,5f4f819717b4c203961f3947,5,,,,,,dice,,,,,,0,12,12,36,1,4,1,,,,,,,,,,,,,,,,,,,,,,,,,,,,,,,,,,,,,,,,,,,,,,,,,,,,,,,,,,,,,,,,,,,,,,,,,,,
,,,,,,,,,,stimuli/images/PICTURE_675.png,SALE,5ed358aab6ee6f2e2885eddf,28/02/94,2020-09-02_13h20.27.591,proactive3.2,2020.1.2,Linux x86_64,60,5f47c0b9b035471e11593a5c,5f4f819717b4c203961f3947,5,,,,,,windmill,,,,,,0,13,13,47,1,5,1,,,,,,,,,,,,,,,,,,,,,,,,,,,,,,,,,,,,,,,,,,,,,,,,,,,,,,,,,,,,,,,,,,,,,,,,,,,
,,,,,,,,,,stimuli/images/PICTURE_504.png,YEAR,5ed358aab6ee6f2e2885eddf,28/02/94,2020-09-02_13h20.27.591,proactive3.2,2020.1.2,Linux x86_64,60,5f47c0b9b035471e11593a5c,5f4f819717b4c203961f3947,5,,,,,,wheel,,,,,,0,14,14,13,1,2,1,,,,,,,,,,,,,,,,,,,,,,,,,,,,,,,,,,,,,,,,,,,,,,,,,,,,,,,,,,,,,,,,,,,,,,,,,,,
,,,,,,,,,,stimuli/images/PICTURE_68.png,ROOF,5ed358aab6ee6f2e2885eddf,28/02/94,2020-09-02_13h20.27.591,proactive3.2,2020.1.2,Linux x86_64,60,5f47c0b9b035471e11593a5c,5f4f819717b4c203961f3947,5,,,,,,candle,,,,,,0,15,15,38,1,4,1,,,,,,,,,,,,,,,,,,,,,,,,,,,,,,,,,,,,,,,,,,,,,,,,,,,,,,,,,,,,,,,,,,,,,,,,,,,
,,,,,,,,,,stimuli/images/PICTURE_33.png,FRIEND,5ed358aab6ee6f2e2885eddf,28/02/94,2020-09-02_13h20.27.591,proactive3.2,2020.1.2,Linux x86_64,60,5f47c0b9b035471e11593a5c,5f4f819717b4c203961f3947,5,,,,,,frame,,,,,,0,16,16,8,1,1,1,,,,,,,,,,,,,,,,,,,,,,,,,,,,,,,,,,,,,,,,,,,,,,,,,,,,,,,,,,,,,,,,,,,,,,,,,,,
,,,,,,,,,,stimuli/images/PICTURE_467.png,POLICY,5ed358aab6ee6f2e2885eddf,28/02/94,2020-09-02_13h20.27.591,proactive3.2,2020.1.2,Linux x86_64,60,5f47c0b9b035471e11593a5c,5f4f819717b4c203961f3947,5,,,,,,peg,,,,,,0,17,17,53,1,6,1,,,,,,,,,,,,,,,,,,,,,,,,,,,,,,,,,,,,,,,,,,,,,,,,,,,,,,,,,,,,,,,,,,,,,,,,,,,
,,,,,,,,,,stimuli/images/PICTURE_677.png,APPLE,5ed358aab6ee6f2e2885eddf,28/02/94,2020-09-02_13h20.27.591,proactive3.2,2020.1.2,Linux x86_64,60,5f47c0b9b035471e11593a5c,5f4f819717b4c203961f3947,5,,,,,,map,,,,,,0,18,18,43,1,5,1,,,,,,,,,,,,,,,,,,,,,,,,,,,,,,,,,,,,,,,,,,,,,,,,,,,,,,,,,,,,,,,,,,,,,,,,,,,
,,,,,,,,,,stimuli/images/PICTURE_564.png,BATH,5ed358aab6ee6f2e2885eddf,28/02/94,2020-09-02_13h20.27.591,proactive3.2,2020.1.2,Linux x86_64,60,5f47c0b9b035471e11593a5c,5f4f819717b4c203961f3947,5,,,,,,spoon,,,,,,0,19,19,26,1,3,1,,,,,,,,,,,,,,,,,,,,,,,,,,,,,,,,,,,,,,,,,,,,,,,,,,,,,,,,,,,,,,,,,,,,,,,,,,,
,,,,,,,,,,stimuli/images/PICTURE_2.png,FLIGHT,5ed358aab6ee6f2e2885eddf,28/02/94,2020-09-02_13h20.27.591,proactive3.2,2020.1.2,Linux x86_64,60,5f47c0b9b035471e11593a5c,5f4f819717b4c203961f3947,5,,,,,,tyre,,,,,,0,20,20,15,1,2,1,,,,,,,,,,,,,,,,,,,,,,,,,,,,,,,,,,,,,,,,,,,,,,,,,,,,,,,,,,,,,,,,,,,,,,,,,,,
,,,,,,,,,,stimuli/images/PICTURE_380.png,HONEY,5ed358aab6ee6f2e2885eddf,28/02/94,2020-09-02_13h20.27.591,proactive3.2,2020.1.2,Linux x86_64,60,5f47c0b9b035471e11593a5c,5f4f819717b4c203961f3947,5,,,,,,gorilla,,,,,,0,21,21,19,1,2,1,,,,,,,,,,,,,,,,,,,,,,,,,,,,,,,,,,,,,,,,,,,,,,,,,,,,,,,,,,,,,,,,,,,,,,,,,,,
,,,,,,,,,,stimuli/images/PICTURE_403.png,WRITER,5ed358aab6ee6f2e2885eddf,28/02/94,2020-09-02_13h20.27.591,proactive3.2,2020.1.2,Linux x86_64,60,5f47c0b9b035471e11593a5c,5f4f819717b4c203961f3947,5,,,,,,cathedral,,,,,,0,22,22,31,1,4,1,,,,,,,,,,,,,,,,,,,,,,,,,,,,,,,,,,,,,,,,,,,,,,,,,,,,,,,,,,,,,,,,,,,,,,,,,,,
,,,,,,,,,,stimuli/images/PICTURE_487.png,GIRL,5ed358aab6ee6f2e2885eddf,28/02/94,2020-09-02_13h20.27.591,proactive3.2,2020.1.2,Linux x86_64,60,5f47c0b9b035471e11593a5c,5f4f819717b4c203961f3947,5,,,,,,basket,,,,,,0,23,23,45,1,5,1,,,,,,,,,,,,,,,,,,,,,,,,,,,,,,,,,,,,,,,,,,,,,,,,,,,,,,,,,,,,,,,,,,,,,,,,,,,
,,,,,,,,,,stimuli/images/PICTURE_327.png,SERIES,5ed358aab6ee6f2e2885eddf,28/02/94,2020-09-02_13h20.27.591,proactive3.2,2020.1.2,Linux x86_64,60,5f47c0b9b035471e11593a5c,5f4f819717b4c203961f3947,5,,,,,,helmet,,,,,,0,24,24,3,1,1,1,,,,,,,,,,,,,,,,,,,,,,,,,,,,,,,,,,,,,,,,,,,,,,,,,,,,,,,,,,,,,,,,,,,,,,,,,,,
,,,,,,,,,,stimuli/images/PICTURE_147.png,WOMEN,5ed358aab6ee6f2e2885eddf,28/02/94,2020-09-02_13h20.27.591,proactive3.2,2020.1.2,Linux x86_64,60,5f47c0b9b035471e11593a5c,5f4f819717b4c203961f3947,5,,,,,,hanger,,,,,,0,25,25,7,1,1,1,,,,,,,,,,,,,,,,,,,,,,,,,,,,,,,,,,,,,,,,,,,,,,,,,,,,,,,,,,,,,,,,,,,,,,,,,,,
,,,,,,,,,,stimuli/images/PICTURE_403.png,RIVER,5ed358aab6ee6f2e2885eddf,28/02/94,2020-09-02_13h20.27.591,proactive3.2,2020.1.2,Linux x86_64,60,5f47c0b9b035471e11593a5c,5f4f819717b4c203961f3947,5,,,,,,cathedral,,,,,,0,26,26,40,1,5,1,,,,,,,,,,,,,,,,,,,,,,,,,,,,,,,,,,,,,,,,,,,,,,,,,,,,,,,,,,,,,,,,,,,,,,,,,,,
,,,,,,,,,,stimuli/images/PICTURE_297.png,RIVER,5ed358aab6ee6f2e2885eddf,28/02/94,2020-09-02_13h20.27.591,proactive3.2,2020.1.2,Linux x86_64,60,5f47c0b9b035471e11593a5c,5f4f819717b4c203961f3947,5,,,,,,aeroplane,,,,,,0,27,27,39,1,4,1,,,,,,,,,,,,,,,,,,,,,,,,,,,,,,,,,,,,,,,,,,,,,,,,,,,,,,,,,,,,,,,,,,,,,,,,,,,
,,,,,,,,,,stimuli/images/PICTURE_32.png,KIND,5ed358aab6ee6f2e2885eddf,28/02/94,2020-09-02_13h20.27.591,proactive3.2,2020.1.2,Linux x86_64,60,5f47c0b9b035471e11593a5c,5f4f819717b4c203961f3947,5,,,,,,crown,,,,,,0,28,28,35,1,4,1,,,,,,,,,,,,,,,,,,,,,,,,,,,,,,,,,,,,,,,,,,,,,,,,,,,,,,,,,,,,,,,,,,,,,,,,,,,
,,,,,,,,,,stimuli/images/PICTURE_339.png,CLIENT,5ed358aab6ee6f2e2885eddf,28/02/94,2020-09-02_13h20.27.591,proactive3.2,2020.1.2,Linux x86_64,60,5f47c0b9b035471e11593a5c,5f4f819717b4c203961f3947,5,,,,,,backpack,,,,,,0,29,29,11,1,2,1,,,,,,,,,,,,,,,,,,,,,,,,,,,,,,,,,,,,,,,,,,,,,,,,,,,,,,,,,,,,,,,,,,,,,,,,,,,
,,,,,,,,,,stimuli/images/PICTURE_405.png,YEAR,5ed358aab6ee6f2e2885eddf,28/02/94,2020-09-02_13h20.27.591,proactive3.2,2020.1.2,Linux x86_64,60,5f47c0b9b035471e11593a5c,5f4f819717b4c203961f3947,5,,,,,,anchor,,,,,,0,30,30,34,1,4,1,,,,,,,,,,,,,,,,,,,,,,,,,,,,,,,,,,,,,,,,,,,,,,,,,,,,,,,,,,,,,,,,,,,,,,,,,,,
,,,,,,,,,,stimuli/images/PICTURE_95.png,BOYS,5ed358aab6ee6f2e2885eddf,28/02/94,2020-09-02_13h20.27.591,proactive3.2,2020.1.2,Linux x86_64,60,5f47c0b9b035471e11593a5c,5f4f819717b4c203961f3947,5,,,,,,suitcase,,,,,,0,31,31,1,1,1,1,,,,,,,,,,,,,,,,,,,,,,,,,,,,,,,,,,,,,,,,,,,,,,,,,,,,,,,,,,,,,,,,,,,,,,,,,,,
,,,,,,,,,,stimuli/images/PICTURE_147.png,YEAR,5ed358aab6ee6f2e2885eddf,28/02/94,2020-09-02_13h20.27.591,proactive3.2,2020.1.2,Linux x86_64,60,5f47c0b9b035471e11593a5c,5f4f819717b4c203961f3947,5,,,,,,hanger,,,,,,0,32,32,21,1,3,1,,,,,,,,,,,,,,,,,,,,,,,,,,,,,,,,,,,,,,,,,,,,,,,,,,,,,,,,,,,,,,,,,,,,,,,,,,,
,,,,,,,,,,stimuli/images/PICTURE_504.png,ARTIST,5ed358aab6ee6f2e2885eddf,28/02/94,2020-09-02_13h20.27.591,proactive3.2,2020.1.2,Linux x86_64,60,5f47c0b9b035471e11593a5c,5f4f819717b4c203961f3947,5,,,,,,wheel,,,,,,0,33,33,49,1,5,1,,,,,,,,,,,,,,,,,,,,,,,,,,,,,,,,,,,,,,,,,,,,,,,,,,,,,,,,,,,,,,,,,,,,,,,,,,,
,,,,,,,,,,stimuli/images/PICTURE_403.png,TOILET,5ed358aab6ee6f2e2885eddf,28/02/94,2020-09-02_13h20.27.591,proactive3.2,2020.1.2,Linux x86_64,60,5f47c0b9b035471e11593a5c,5f4f819717b4c203961f3947,5,,,,,,cathedral,,,,,,0,34,34,25,1,3,1,,,,,,,,,,,,,,,,,,,,,,,,,,,,,,,,,,,,,,,,,,,,,,,,,,,,,,,,,,,,,,,,,,,,,,,,,,,
,,,,,,,,,,stimuli/images/PICTURE_208.png,SYSTEM,5ed358aab6ee6f2e2885eddf,28/02/94,2020-09-02_13h20.27.591,proactive3.2,2020.1.2,Linux x86_64,60,5f47c0b9b035471e11593a5c,5f4f819717b4c203961f3947,5,,,,,,microphone,,,,,,0,35,35,32,1,4,1,,,,,,,,,,,,,,,,,,,,,,,,,,,,,,,,,,,,,,,,,,,,,,,,,,,,,,,,,,,,,,,,,,,,,,,,,,,
,,,,,,,,,,stimuli/images/PICTURE_667.png,RIVER,5ed358aab6ee6f2e2885eddf,28/02/94,2020-09-02_13h20.27.591,proactive3.2,2020.1.2,Linux x86_64,60,5f47c0b9b035471e11593a5c,5f4f819717b4c203961f3947,5,,,,,,daisy,,,,,,0,36,36,10,1,2,1,,,,,,,,,,,,,,,,,,,,,,,,,,,,,,,,,,,,,,,,,,,,,,,,,,,,,,,,,,,,,,,,,,,,,,,,,,,
,,,,,,,,,,stimuli/images/PICTURE_95.png,MILLER,5ed358aab6ee6f2e2885eddf,28/02/94,2020-09-02_13h20.27.591,proactive3.2,2020.1.2,Linux x86_64,60,5f47c0b9b035471e11593a5c,5f4f819717b4c203961f3947,5,,,,,,suitcase,,,,,,0,37,37,56,1,6,1,,,,,,,,,,,,,,,,,,,,,,,,,,,,,,,,,,,,,,,,,,,,,,,,,,,,,,,,,,,,,,,,,,,,,,,,,,,
,,,,,,,,,,stimuli/images/PICTURE_285.png,LIFE,5ed358aab6ee6f2e2885eddf,28/02/94,2020-09-02_13h20.27.591,proactive3.2,2020.1.2,Linux x86_64,60,5f47c0b9b035471e11593a5c,5f4f819717b4c203961f3947,5,,,,,,carrot,,,,,,0,38,38,33,1,4,1,,,,,,,,,,,,,,,,,,,,,,,,,,,,,,,,,,,,,,,,,,,,,,,,,,,,,,,,,,,,,,,,,,,,,,,,,,,
,,,,,,,,,,stimuli/images/PICTURE_85.png,TOILET,5ed358aab6ee6f2e2885eddf,28/02/94,2020-09-02_13h20.27.591,proactive3.2,2020.1.2,Linux x86_64,60,5f47c0b9b035471e11593a5c,5f4f819717b4c203961f3947,5,,,,,,diamond,,,,,,0,39,39,48,1,5,1,,,,,,,,,,,,,,,,,,,,,,,,,,,,,,,,,,,,,,,,,,,,,,,,,,,,,,,,,,,,,,,,,,,,,,,,,,,
,,,,,,,,,,stimuli/images/PICTURE_177.png,WRITER,5ed358aab6ee6f2e2885eddf,28/02/94,2020-09-02_13h20.27.591,proactive3.2,2020.1.2,Linux x86_64,60,5f47c0b9b035471e11593a5c,5f4f819717b4c203961f3947,5,,,,,,mushroom,,,,,,0,40,40,41,1,5,1,,,,,,,,,,,,,,,,,,,,,,,,,,,,,,,,,,,,,,,,,,,,,,,,,,,,,,,,,,,,,,,,,,,,,,,,,,,
,,,,,,,,,,stimuli/images/PICTURE_383.png,SERIES,5ed358aab6ee6f2e2885eddf,28/02/94,2020-09-02_13h20.27.591,proactive3.2,2020.1.2,Linux x86_64,60,5f47c0b9b035471e11593a5c,5f4f819717b4c203961f3947,5,,,,,,coin,,,,,,0,41,41,46,1,5,1,,,,,,,,,,,,,,,,,,,,,,,,,,,,,,,,,,,,,,,,,,,,,,,,,,,,,,,,,,,,,,,,,,,,,,,,,,,
,,,,,,,,,,stimuli/images/PICTURE_108.png,FLIGHT,5ed358aab6ee6f2e2885eddf,28/02/94,2020-09-02_13h20.27.591,proactive3.2,2020.1.2,Linux x86_64,60,5f47c0b9b035471e11593a5c,5f4f819717b4c203961f3947,5,,,,,,calendar,,,,,,0,42,42,59,1,6,1,,,,,,,,,,,,,,,,,,,,,,,,,,,,,,,,,,,,,,,,,,,,,,,,,,,,,,,,,,,,,,,,,,,,,,,,,,,
,,,,,,,,,,stimuli/images/PICTURE_340.png,VALLEY,5ed358aab6ee6f2e2885eddf,28/02/94,2020-09-02_13h20.27.591,proactive3.2,2020.1.2,Linux x86_64,60,5f47c0b9b035471e11593a5c,5f4f819717b4c203961f3947,5,,,,,,mirror,,,,,,0,43,43,54,1,6,1,,,,,,,,,,,,,,,,,,,,,,,,,,,,,,,,,,,,,,,,,,,,,,,,,,,,,,,,,,,,,,,,,,,,,,,,,,,
,,,,,,,,,,stimuli/images/PICTURE_327.png,CASINO,5ed358aab6ee6f2e2885eddf,28/02/94,2020-09-02_13h20.27.591,proactive3.2,2020.1.2,Linux x86_64,60,5f47c0b9b035471e11593a5c,5f4f819717b4c203961f3947,5,,,,,,helmet,,,,,,0,44,44,20,1,3,1,,,,,,,,,,,,,,,,,,,,,,,,,,,,,,,,,,,,,,,,,,,,,,,,,,,,,,,,,,,,,,,,,,,,,,,,,,,
,,,,,,,,,,stimuli/images/PICTURE_708.png,RECORD,5ed358aab6ee6f2e2885eddf,28/02/94,2020-09-02_13h20.27.591,proactive3.2,2020.1.2,Linux x86_64,60,5f47c0b9b035471e11593a5c,5f4f819717b4c203961f3947,5,,,,,,monkey,,,,,,0,45,45,58,1,6,1,,,,,,,,,,,,,,,,,,,,,,,,,,,,,,,,,,,,,,,,,,,,,,,,,,,,,,,,,,,,,,,,,,,,,,,,,,,
,,,,,,,,,,stimuli/images/PICTURE_405.png,PLENTY,5ed358aab6ee6f2e2885eddf,28/02/94,2020-09-02_13h20.27.591,proactive3.2,2020.1.2,Linux x86_64,60,5f47c0b9b035471e11593a5c,5f4f819717b4c203961f3947,5,,,,,,anchor,,,,,,0,46,46,23,1,3,1,,,,,,,,,,,,,,,,,,,,,,,,,,,,,,,,,,,,,,,,,,,,,,,,,,,,,,,,,,,,,,,,,,,,,,,,,,,
,,,,,,,,,,stimuli/images/PICTURE_380.png,CANDY,5ed358aab6ee6f2e2885eddf,28/02/94,2020-09-02_13h20.27.591,proactive3.2,2020.1.2,Linux x86_64,60,5f47c0b9b035471e11593a5c,5f4f819717b4c203961f3947,5,,,,,,gorilla,,,,,,0,47,47,0,1,1,1,,,,,,,,,,,,,,,,,,,,,,,,,,,,,,,,,,,,,,,,,,,,,,,,,,,,,,,,,,,,,,,,,,,,,,,,,,,
,,,,,,,,,,stimuli/images/PICTURE_655.png,TOILET,5ed358aab6ee6f2e2885eddf,28/02/94,2020-09-02_13h20.27.591,proactive3.2,2020.1.2,Linux x86_64,60,5f47c0b9b035471e11593a5c,5f4f819717b4c203961f3947,5,,,,,,megaphone,,,,,,0,48,48,12,1,2,1,,,,,,,,,,,,,,,,,,,,,,,,,,,,,,,,,,,,,,,,,,,,,,,,,,,,,,,,,,,,,,,,,,,,,,,,,,,
,,,,,,,,,,stimuli/images/PICTURE_449.png,DUDE,5ed358aab6ee6f2e2885eddf,28/02/94,2020-09-02_13h20.27.591,proactive3.2,2020.1.2,Linux x86_64,60,5f47c0b9b035471e11593a5c,5f4f819717b4c203961f3947,5,,,,,,bench,,,,,,0,49,49,17,1,2,1,,,,,,,,,,,,,,,,,,,,,,,,,,,,,,,,,,,,,,,,,,,,,,,,,,,,,,,,,,,,,,,,,,,,,,,,,,,
,,,,,,,,,,stimuli/images/PICTURE_504.png,COPS,5ed358aab6ee6f2e2885eddf,28/02/94,2020-09-02_13h20.27.591,proactive3.2,2020.1.2,Linux x86_64,60,5f47c0b9b035471e11593a5c,5f4f819717b4c203961f3947,5,,,,,,wheel,,,,,,0,50,50,52,1,6,1,,,,,,,,,,,,,,,,,,,,,,,,,,,,,,,,,,,,,,,,,,,,,,,,,,,,,,,,,,,,,,,,,,,,,,,,,,,
,,,,,,,,,,stimuli/images/PICTURE_233.png,LOTS,5ed358aab6ee6f2e2885eddf,28/02/94,2020-09-02_13h20.27.591,proactive3.2,2020.1.2,Linux x86_64,60,5f47c0b9b035471e11593a5c,5f4f819717b4c203961f3947,5,,,,,,salt,,,,,,0,51,51,42,1,5,1,,,,,,,,,,,,,,,,,,,,,,,,,,,,,,,,,,,,,,,,,,,,,,,,,,,,,,,,,,,,,,,,,,,,,,,,,,,
,,,,,,,,,,stimuli/images/PICTURE_296.png,LOTS,5ed358aab6ee6f2e2885eddf,28/02/94,2020-09-02_13h20.27.591,proactive3.2,2020.1.2,Linux x86_64,60,5f47c0b9b035471e11593a5c,5f4f819717b4c203961f3947,5,,,,,,bolt,,,,,,0,52,52,9,1,1,1,,,,,,,,,,,,,,,,,,,,,,,,,,,,,,,,,,,,,,,,,,,,,,,,,,,,,,,,,,,,,,,,,,,,,,,,,,,
,,,,,,,,,,stimuli/images/PICTURE_42.png,BOYS,5ed358aab6ee6f2e2885eddf,28/02/94,2020-09-02_13h20.27.591,proactive3.2,2020.1.2,Linux x86_64,60,5f47c0b9b035471e11593a5c,5f4f819717b4c203961f3947,5,,,,,,pear,,,,,,0,53,53,55,1,6,1,,,,,,,,,,,,,,,,,,,,,,,,,,,,,,,,,,,,,,,,,,,,,,,,,,,,,,,,,,,,,,,,,,,,,,,,,,,
,,,,,,,,,,stimuli/images/PICTURE_108.png,POLICY,5ed358aab6ee6f2e2885eddf,28/02/94,2020-09-02_13h20.27.591,proactive3.2,2020.1.2,Linux x86_64,60,5f47c0b9b035471e11593a5c,5f4f819717b4c203961f3947,5,,,,,,calendar,,,,,,0,54,54,22,1,3,1,,,,,,,,,,,,,,,,,,,,,,,,,,,,,,,,,,,,,,,,,,,,,,,,,,,,,,,,,,,,,,,,,,,,,,,,,,,
,,,,,,,,,,stimuli/images/PICTURE_383.png,WRITER,5ed358aab6ee6f2e2885eddf,28/02/94,2020-09-02_13h20.27.591,proactive3.2,2020.1.2,Linux x86_64,60,5f47c0b9b035471e11593a5c,5f4f819717b4c203961f3947,5,,,,,,coin,,,,,,0,55,55,28,1,3,1,,,,,,,,,,,,,,,,,,,,,,,,,,,,,,,,,,,,,,,,,,,,,,,,,,,,,,,,,,,,,,,,,,,,,,,,,,,
,,,,,,,,,,stimuli/images/PICTURE_744.png,WEAPON,5ed358aab6ee6f2e2885eddf,28/02/94,2020-09-02_13h20.27.591,proactive3.2,2020.1.2,Linux x86_64,60,5f47c0b9b035471e11593a5c,5f4f819717b4c203961f3947,5,,,,,,ring,,,,,,0,56,56,50,1,6,1,,,,,,,,,,,,,,,,,,,,,,,,,,,,,,,,,,,,,,,,,,,,,,,,,,,,,,,,,,,,,,,,,,,,,,,,,,,
,,,,,,,,,,stimuli/images/PICTURE_203.png,NIGHT,5ed358aab6ee6f2e2885eddf,28/02/94,2020-09-02_13h20.27.591,proactive3.2,2020.1.2,Linux x86_64,60,5f47c0b9b035471e11593a5c,5f4f819717b4c203961f3947,5,,,,,,cap,,,,,,0,57,57,2,1,1,1,,,,,,,,,,,,,,,,,,,,,,,,,,,,,,,,,,,,,,,,,,,,,,,,,,,,,,,,,,,,,,,,,,,,,,,,,,,
,,,,,,,,,,stimuli/images/PICTURE_32.png,PILLS,5ed358aab6ee6f2e2885eddf,28/02/94,2020-09-02_13h20.27.591,proactive3.2,2020.1.2,Linux x86_64,60,5f47c0b9b035471e11593a5c,5f4f819717b4c203961f3947,5,,,,,,crown,,,,,,0,58,58,18,1,2,1,,,,,,,,,,,,,,,,,,,,,,,,,,,,,,,,,,,,,,,,,,,,,,,,,,,,,,,,,,,,,,,,,,,,,,,,,,,
,,?,0.00428,0,,,,,,stimuli/images/PICTURE_403.png,WRITER,5ed358aab6ee6f2e2885eddf,28/02/94,2020-09-02_13h20.27.591,proactive3.2,2020.1.2,Linux x86_64,60,5f47c0b9b035471e11593a5c,5f4f819717b4c203961f3947,5,,,,,,cathedral,,,,,,,,,,,4,1,0,0,0,31,1,,,,,,,,,,,,,,,,,,,,,,,,,,,,,,,,,,,,,,,,,,,,,,,,,,,,,,,,,,,,,,,,,,,,,,
,,?,0.002815,0,,,,,,stimuli/images/PICTURE_203.png,NIGHT,5ed358aab6ee6f2e2885eddf,28/02/94,2020-09-02_13h20.27.591,proactive3.2,2020.1.2,Linux x86_64,60,5f47c0b9b035471e11593a5c,5f4f819717b4c203961f3947,5,,,,,,cap,,,,,,,,,,,1,1,0,1,1,2,1,,,,,,,,,,,,,,,,,,,,,,,,,,,,,,,,,,,,,,,,,,,,,,,,,,,,,,,,,,,,,,,,,,,,,,
,,GIRL,3.656185,0,,,,,,stimuli/images/PICTURE_504.png,ARTIST,5ed358aab6ee6f2e2885eddf,28/02/94,2020-09-02_13h20.27.591,proactive3.2,2020.1.2,Linux x86_64,60,5f47c0b9b035471e11593a5c,5f4f819717b4c203961f3947,5,,,,,,wheel,,,,,,,,,,,5,1,0,2,2,49,1,,,,,,,,,,,,,,,,,,,,,,,,,,,,,,,,,,,,,,,,,,,,,,,,,,,,,,,,,,,,,,,,,,,,,,
,,?,0.002915,0,,,,,,stimuli/images/PICTURE_147.png,WOMEN,5ed358aab6ee6f2e2885eddf,28/02/94,2020-09-02_13h20.27.591,proactive3.2,2020.1.2,Linux x86_64,60,5f47c0b9b035471e11593a5c,5f4f819717b4c203961f3947,5,,,,,,hanger,,,,,,,,,,,1,1,0,3,3,7,1,,,,,,,,,,,,,,,,,,,,,,,,,,,,,,,,,,,,,,,,,,,,,,,,,,,,,,,,,,,,,,,,,,,,,,
,,?,0.002225,0,,,,,,stimuli/images/PICTURE_296.png,LOTS,5ed358aab6ee6f2e2885eddf,28/02/94,2020-09-02_13h20.27.591,proactive3.2,2020.1.2,Linux x86_64,60,5f47c0b9b035471e11593a5c,5f4f819717b4c203961f3947,5,,,,,,bolt,,,,,,,,,,,1,1,0,4,4,9,1,,,,,,,,,,,,,,,,,,,,,,,,,,,,,,,,,,,,,,,,,,,,,,,,,,,,,,,,,,,,,,,,,,,,,,
,,?,0.00385,0,,,,,,stimuli/images/PICTURE_285.png,LIFE,5ed358aab6ee6f2e2885eddf,28/02/94,2020-09-02_13h20.27.591,proactive3.2,2020.1.2,Linux x86_64,60,5f47c0b9b035471e11593a5c,5f4f819717b4c203961f3947,5,,,,,,carrot,,,,,,,,,,,4,1,0,5,5,33,1,,,,,,,,,,,,,,,,,,,,,,,,,,,,,,,,,,,,,,,,,,,,,,,,,,,,,,,,,,,,,,,,,,,,,,
,,?,0.00234,0,,,,,,stimuli/images/PICTURE_203.png,GODS,5ed358aab6ee6f2e2885eddf,28/02/94,2020-09-02_13h20.27.591,proactive3.2,2020.1.2,Linux x86_64,60,5f47c0b9b035471e11593a5c,5f4f819717b4c203961f3947,5,,,,,,cap,,,,,,,,,,,4,1,0,6,6,30,1,,,,,,,,,,,,,,,,,,,,,,,,,,,,,,,,,,,,,,,,,,,,,,,,,,,,,,,,,,,,,,,,,,,,,,
,,GIRL,3.06315,1,,,,,,stimuli/images/PICTURE_487.png,GIRL,5ed358aab6ee6f2e2885eddf,28/02/94,2020-09-02_13h20.27.591,proactive3.2,2020.1.2,Linux x86_64,60,5f47c0b9b035471e11593a5c,5f4f819717b4c203961f3947,5,,,,,,basket,,,,,,,,,,,5,1,0,7,7,45,1,,,,,,,,,,,,,,,,,,,,,,,,,,,,,,,,,,,,,,,,,,,,,,,,,,,,,,,,,,,,,,,,,,,,,,
,,RIVER,4.833575,0,,,,,,stimuli/images/PICTURE_383.png,SERIES,5ed358aab6ee6f2e2885eddf,28/02/94,2020-09-02_13h20.27.591,proactive3.2,2020.1.2,Linux x86_64,60,5f47c0b9b035471e11593a5c,5f4f819717b4c203961f3947,5,,,,,,coin,,,,,,,,,,,5,1,0,8,8,46,1,,,,,,,,,,,,,,,,,,,,,,,,,,,,,,,,,,,,,,,,,,,,,,,,,,,,,,,,,,,,,,,,,,,,,,
,,?,0.002525,0,,,,,,stimuli/images/PICTURE_405.png,PLENTY,5ed358aab6ee6f2e2885eddf,28/02/94,2020-09-02_13h20.27.591,proactive3.2,2020.1.2,Linux x86_64,60,5f47c0b9b035471e11593a5c,5f4f819717b4c203961f3947,5,,,,,,anchor,,,,,,,,,,,3,1,0,9,9,23,1,,,,,,,,,,,,,,,,,,,,,,,,,,,,,,,,,,,,,,,,,,,,,,,,,,,,,,,,,,,,,,,,,,,,,,
,,?,0.00226,0,,,,,,stimuli/images/PICTURE_403.png,TOILET,5ed358aab6ee6f2e2885eddf,28/02/94,2020-09-02_13h20.27.591,proactive3.2,2020.1.2,Linux x86_64,60,5f47c0b9b035471e11593a5c,5f4f819717b4c203961f3947,5,,,,,,cathedral,,,,,,,,,,,3,1,0,10,10,25,1,,,,,,,,,,,,,,,,,,,,,,,,,,,,,,,,,,,,,,,,,,,,,,,,,,,,,,,,,,,,,,,,,,,,,,
,,?,0.00238,0,,,,,,stimuli/images/PICTURE_339.png,CLIENT,5ed358aab6ee6f2e2885eddf,28/02/94,2020-09-02_13h20.27.591,proactive3.2,2020.1.2,Linux x86_64,60,5f47c0b9b035471e11593a5c,5f4f819717b4c203961f3947,5,,,,,,backpack,,,,,,,,,,,2,1,0,11,11,11,1,,,,,,,,,,,,,,,,,,,,,,,,,,,,,,,,,,,,,,,,,,,,,,,,,,,,,,,,,,,,,,,,,,,,,,
,,?,0.00214,0,,,,,,stimuli/images/PICTURE_504.png,YEAR,5ed358aab6ee6f2e2885eddf,28/02/94,2020-09-02_13h20.27.591,proactive3.2,2020.1.2,Linux x86_64,60,5f47c0b9b035471e11593a5c,5f4f819717b4c203961f3947,5,,,,,,wheel,,,,,,,,,,,2,1,0,12,12,13,1,,,,,,,,,,,,,,,,,,,,,,,,,,,,,,,,,,,,,,,,,,,,,,,,,,,,,,,,,,,,,,,,,,,,,,
,,?,0.00225,0,,,,,,stimuli/images/PICTURE_383.png,WRITER,5ed358aab6ee6f2e2885eddf,28/02/94,2020-09-02_13h20.27.591,proactive3.2,2020.1.2,Linux x86_64,60,5f47c0b9b035471e11593a5c,5f4f819717b4c203961f3947,5,,,,,,coin,,,,,,,,,,,3,1,0,13,13,28,1,,,,,,,,,,,,,,,,,,,,,,,,,,,,,,,,,,,,,,,,,,,,,,,,,,,,,,,,,,,,,,,,,,,,,,
,,?,0.00208,0,,,,,,stimuli/images/PICTURE_308.png,FAMILY,5ed358aab6ee6f2e2885eddf,28/02/94,2020-09-02_13h20.27.591,proactive3.2,2020.1.2,Linux x86_64,60,5f47c0b9b035471e11593a5c,5f4f819717b4c203961f3947,5,,,,,,dice,,,,,,,,,,,4,1,0,14,14,36,1,,,,,,,,,,,,,,,,,,,,,,,,,,,,,,,,,,,,,,,,,,,,,,,,,,,,,,,,,,,,,,,,,,,,,,
,,?,0.002185,0,,,,,,stimuli/images/PICTURE_564.png,BATH,5ed358aab6ee6f2e2885eddf,28/02/94,2020-09-02_13h20.27.591,proactive3.2,2020.1.2,Linux x86_64,60,5f47c0b9b035471e11593a5c,5f4f819717b4c203961f3947,5,,,,,,spoon,,,,,,,,,,,3,1,0,15,15,26,1,,,,,,,,,,,,,,,,,,,,,,,,,,,,,,,,,,,,,,,,,,,,,,,,,,,,,,,,,,,,,,,,,,,,,,
,,?,0.00212,0,,,,,,stimuli/images/PICTURE_340.png,LETTER,5ed358aab6ee6f2e2885eddf,28/02/94,2020-09-02_13h20.27.591,proactive3.2,2020.1.2,Linux x86_64,60,5f47c0b9b035471e11593a5c,5f4f819717b4c203961f3947,5,,,,,,mirror,,,,,,,,,,,3,1,0,16,16,24,1,,,,,,,,,,,,,,,,,,,,,,,,,,,,,,,,,,,,,,,,,,,,,,,,,,,,,,,,,,,,,,,,,,,,,,
,,?,0.002045,0,,,,,,stimuli/images/PICTURE_744.png,WEAPON,5ed358aab6ee6f2e2885eddf,28/02/94,2020-09-02_13h20.27.591,proactive3.2,2020.1.2,Linux x86_64,60,5f47c0b9b035471e11593a5c,5f4f819717b4c203961f3947,5,,,,,,ring,,,,,,,,,,,6,1,0,17,17,50,1,,,,,,,,,,,,,,,,,,,,,,,,,,,,,,,,,,,,,,,,,,,,,,,,,,,,,,,,,,,,,,,,,,,,,,
,,RIVER,3.23434,0,,,,,,stimuli/images/PICTURE_177.png,WRITER,5ed358aab6ee6f2e2885eddf,28/02/94,2020-09-02_13h20.27.591,proactive3.2,2020.1.2,Linux x86_64,60,5f47c0b9b035471e11593a5c,5f4f819717b4c203961f3947,5,,,,,,mushroom,,,,,,,,,,,5,1,0,18,18,41,1,,,,,,,,,,,,,,,,,,,,,,,,,,,,,,,,,,,,,,,,,,,,,,,,,,,,,,,,,,,,,,,,,,,,,,
,,?,0.002605,0,,,,,,stimuli/images/PICTURE_108.png,FLIGHT,5ed358aab6ee6f2e2885eddf,28/02/94,2020-09-02_13h20.27.591,proactive3.2,2020.1.2,Linux x86_64,60,5f47c0b9b035471e11593a5c,5f4f819717b4c203961f3947,5,,,,,,calendar,,,,,,,,,,,6,1,0,19,19,59,1,,,,,,,,,,,,,,,,,,,,,,,,,,,,,,,,,,,,,,,,,,,,,,,,,,,,,,,,,,,,,,,,,,,,,,
,,APPLE,2.03563,0,,,,,,stimuli/images/PICTURE_95.png,HONEY,5ed358aab6ee6f2e2885eddf,28/02/94,2020-09-02_13h20.27.591,proactive3.2,2020.1.2,Linux x86_64,60,5f47c0b9b035471e11593a5c,5f4f819717b4c203961f3947,5,,,,,,suitcase,,,,,,,,,,,5,1,0,20,20,44,1,,,,,,,,,,,,,,,,,,,,,,,,,,,,,,,,,,,,,,,,,,,,,,,,,,,,,,,,,,,,,,,,,,,,,,
,,APPLE,3.74175,0,,,,,,stimuli/images/PICTURE_403.png,RIVER,5ed358aab6ee6f2e2885eddf,28/02/94,2020-09-02_13h20.27.591,proactive3.2,2020.1.2,Linux x86_64,60,5f47c0b9b035471e11593a5c,5f4f819717b4c203961f3947,5,,,,,,cathedral,,,,,,,,,,,5,1,0,21,21,40,1,,,,,,,,,,,,,,,,,,,,,,,,,,,,,,,,,,,,,,,,,,,,,,,,,,,,,,,,,,,,,,,,,,,,,,
,,?,0.00267,0,,,,,,stimuli/images/PICTURE_655.png,TOILET,5ed358aab6ee6f2e2885eddf,28/02/94,2020-09-02_13h20.27.591,proactive3.2,2020.1.2,Linux x86_64,60,5f47c0b9b035471e11593a5c,5f4f819717b4c203961f3947,5,,,,,,megaphone,,,,,,,,,,,2,1,0,22,22,12,1,,,,,,,,,,,,,,,,,,,,,,,,,,,,,,,,,,,,,,,,,,,,,,,,,,,,,,,,,,,,,,,,,,,,,,
,,?,0.002335,0,,,,,,stimuli/images/PICTURE_85.png,NATION,5ed358aab6ee6f2e2885eddf,28/02/94,2020-09-02_13h20.27.591,proactive3.2,2020.1.2,Linux x86_64,60,5f47c0b9b035471e11593a5c,5f4f819717b4c203961f3947,5,,,,,,diamond,,,,,,,,,,,1,1,0,23,23,5,1,,,,,,,,,,,,,,,,,,,,,,,,,,,,,,,,,,,,,,,,,,,,,,,,,,,,,,,,,,,,,,,,,,,,,,
,,?,0.0028,0,,,,,,stimuli/images/PICTURE_469.png,AGENT,5ed358aab6ee6f2e2885eddf,28/02/94,2020-09-02_13h20.27.591,proactive3.2,2020.1.2,Linux x86_64,60,5f47c0b9b035471e11593a5c,5f4f819717b4c203961f3947,5,,,,,,stool,,,,,,,,,,,2,1,0,24,24,16,1,,,,,,,,,,,,,,,,,,,,,,,,,,,,,,,,,,,,,,,,,,,,,,,,,,,,,,,,,,,,,,,,,,,,,,
,,?,0.002355,0,,,,,,stimuli/images/PICTURE_95.png,BOYS,5ed358aab6ee6f2e2885eddf,28/02/94,2020-09-02_13h20.27.591,proactive3.2,2020.1.2,Linux x86_64,60,5f47c0b9b035471e11593a5c,5f4f819717b4c203961f3947,5,,,,,,suitcase,,,,,,,,,,,1,1,0,25,25,1,1,,,,,,,,,,,,,,,,,,,,,,,,,,,,,,,,,,,,,,,,,,,,,,,,,,,,,,,,,,,,,,,,,,,,,,
,,?,0.003735,0,,,,,,stimuli/images/PICTURE_32.png,PILLS,5ed358aab6ee6f2e2885eddf,28/02/94,2020-09-02_13h20.27.591,proactive3.2,2020.1.2,Linux x86_64,60,5f47c0b9b035471e11593a5c,5f4f819717b4c203961f3947,5,,,,,,crown,,,,,,,,,,,2,1,0,26,26,18,1,,,,,,,,,,,,,,,,,,,,,,,,,,,,,,,,,,,,,,,,,,,,,,,,,,,,,,,,,,,,,,,,,,,,,,
,,?,0.00267,0,,,,,,stimuli/images/PICTURE_491.png,GLASS,5ed358aab6ee6f2e2885eddf,28/02/94,2020-09-02_13h20.27.591,proactive3.2,2020.1.2,Linux x86_64,60,5f47c0b9b035471e11593a5c,5f4f819717b4c203961f3947,5,,,,,,rug,,,,,,,,,,,2,1,0,27,27,14,1,,,,,,,,,,,,,,,,,,,,,,,,,,,,,,,,,,,,,,,,,,,,,,,,,,,,,,,,,,,,,,,,,,,,,,
,,?,0.002885,0,,,,,,stimuli/images/PICTURE_449.png,DUDE,5ed358aab6ee6f2e2885eddf,28/02/94,2020-09-02_13h20.27.591,proactive3.2,2020.1.2,Linux x86_64,60,5f47c0b9b035471e11593a5c,5f4f819717b4c203961f3947,5,,,,,,bench,,,,,,,,,,,2,1,0,28,28,17,1,,,,,,,,,,,,,,,,,,,,,,,,,,,,,,,,,,,,,,,,,,,,,,,,,,,,,,,,,,,,,,,,,,,,,,
,,?,0.002495,0,,,,,,stimuli/images/PICTURE_654.png,MONTH,5ed358aab6ee6f2e2885eddf,28/02/94,2020-09-02_13h20.27.591,proactive3.2,2020.1.2,Linux x86_64,60,5f47c0b9b035471e11593a5c,5f4f819717b4c203961f3947,5,,,,,,pencil,,,,,,,,,,,3,1,0,29,29,29,1,,,,,,,,,,,,,,,,,,,,,,,,,,,,,,,,,,,,,,,,,,,,,,,,,,,,,,,,,,,,,,,,,,,,,,
,,?,0.002215,0,,,,,,stimuli/images/PICTURE_108.png,POLICY,5ed358aab6ee6f2e2885eddf,28/02/94,2020-09-02_13h20.27.591,proactive3.2,2020.1.2,Linux x86_64,60,5f47c0b9b035471e11593a5c,5f4f819717b4c203961f3947,5,,,,,,calendar,,,,,,,,,,,3,1,0,30,30,22,1,,,,,,,,,,,,,,,,,,,,,,,,,,,,,,,,,,,,,,,,,,,,,,,,,,,,,,,,,,,,,,,,,,,,,,
,,?,0.00249,0,,,,,,stimuli/images/PICTURE_57.png,MOMENT,5ed358aab6ee6f2e2885eddf,28/02/94,2020-09-02_13h20.27.591,proactive3.2,2020.1.2,Linux x86_64,60,5f47c0b9b035471e11593a5c,5f4f819717b4c203961f3947,5,,,,,,stamp,,,,,,,,,,,4,1,0,31,31,37,1,,,,,,,,,,,,,,,,,,,,,,,,,,,,,,,,,,,,,,,,,,,,,,,,,,,,,,,,,,,,,,,,,,,,,,
,,?,0.002285,0,,,,,,stimuli/images/PICTURE_42.png,BOYS,5ed358aab6ee6f2e2885eddf,28/02/94,2020-09-02_13h20.27.591,proactive3.2,2020.1.2,Linux x86_64,60,5f47c0b9b035471e11593a5c,5f4f819717b4c203961f3947,5,,,,,,pear,,,,,,,,,,,6,1,0,32,32,55,1,,,,,,,,,,,,,,,,,,,,,,,,,,,,,,,,,,,,,,,,,,,,,,,,,,,,,,,,,,,,,,,,,,,,,,
,,?,0.002145,0,,,,,,stimuli/images/PICTURE_33.png,FRIEND,5ed358aab6ee6f2e2885eddf,28/02/94,2020-09-02_13h20.27.591,proactive3.2,2020.1.2,Linux x86_64,60,5f47c0b9b035471e11593a5c,5f4f819717b4c203961f3947,5,,,,,,frame,,,,,,,,,,,1,1,0,33,33,8,1,,,,,,,,,,,,,,,,,,,,,,,,,,,,,,,,,,,,,,,,,,,,,,,,,,,,,,,,,,,,,,,,,,,,,,
,,?,0.002305,0,,,,,,stimuli/images/PICTURE_467.png,POLICY,5ed358aab6ee6f2e2885eddf,28/02/94,2020-09-02_13h20.27.591,proactive3.2,2020.1.2,Linux x86_64,60,5f47c0b9b035471e11593a5c,5f4f819717b4c203961f3947,5,,,,,,peg,,,,,,,,,,,6,1,0,34,34,53,1,,,,,,,,,,,,,,,,,,,,,,,,,,,,,,,,,,,,,,,,,,,,,,,,,,,,,,,,,,,,,,,,,,,,,,
,,APPLE,1.1693,1,,,,,,stimuli/images/PICTURE_677.png,APPLE,5ed358aab6ee6f2e2885eddf,28/02/94,2020-09-02_13h20.27.591,proactive3.2,2020.1.2,Linux x86_64,60,5f47c0b9b035471e11593a5c,5f4f819717b4c203961f3947,5,,,,,,map,,,,,,,,,,,5,1,0,35,35,43,1,,,,,,,,,,,,,,,,,,,,,,,,,,,,,,,,,,,,,,,,,,,,,,,,,,,,,,,,,,,,,,,,,,,,,,
,,?,0.0041,0,,,,,,stimuli/images/PICTURE_327.png,SERIES,5ed358aab6ee6f2e2885eddf,28/02/94,2020-09-02_13h20.27.591,proactive3.2,2020.1.2,Linux x86_64,60,5f47c0b9b035471e11593a5c,5f4f819717b4c203961f3947,5,,,,,,helmet,,,,,,,,,,,1,1,0,36,36,3,1,,,,,,,,,,,,,,,,,,,,,,,,,,,,,,,,,,,,,,,,,,,,,,,,,,,,,,,,,,,,,,,,,,,,,,
,,?,0.002885,0,,,,,,stimuli/images/PICTURE_340.png,VALLEY,5ed358aab6ee6f2e2885eddf,28/02/94,2020-09-02_13h20.27.591,proactive3.2,2020.1.2,Linux x86_64,60,5f47c0b9b035471e11593a5c,5f4f819717b4c203961f3947,5,,,,,,mirror,,,,,,,,,,,6,1,0,37,37,54,1,,,,,,,,,,,,,,,,,,,,,,,,,,,,,,,,,,,,,,,,,,,,,,,,,,,,,,,,,,,,,,,,,,,,,,
,,?,0.003215,0,,,,,,stimuli/images/PICTURE_296.png,LIFE,5ed358aab6ee6f2e2885eddf,28/02/94,2020-09-02_13h20.27.591,proactive3.2,2020.1.2,Linux x86_64,60,5f47c0b9b035471e11593a5c,5f4f819717b4c203961f3947,5,,,,,,bolt,,,,,,,,,,,6,1,0,38,38,57,1,,,,,,,,,,,,,,,,,,,,,,,,,,,,,,,,,,,,,,,,,,,,,,,,,,,,,,,,,,,,,,,,,,,,,,
,,ARTIST,4.937265,0,,,,,,stimuli/images/PICTURE_233.png,LOTS,5ed358aab6ee6f2e2885eddf,28/02/94,2020-09-02_13h20.27.591,proactive3.2,2020.1.2,Linux x86_64,60,5f47c0b9b035471e11593a5c,5f4f819717b4c203961f3947,5,,,,,,salt,,,,,,,,,,,5,1,0,39,39,42,1,,,,,,,,,,,,,,,,,,,,,,,,,,,,,,,,,,,,,,,,,,,,,,,,,,,,,,,,,,,,,,,,,,,,,,
,,?,0.002535,0,,,,,,stimuli/images/PICTURE_491.png,RIVER,5ed358aab6ee6f2e2885eddf,28/02/94,2020-09-02_13h20.27.591,proactive3.2,2020.1.2,Linux x86_64,60,5f47c0b9b035471e11593a5c,5f4f819717b4c203961f3947,5,,,,,,rug,,,,,,,,,,,1,1,0,40,40,6,1,,,,,,,,,,,,,,,,,,,,,,,,,,,,,,,,,,,,,,,,,,,,,,,,,,,,,,,,,,,,,,,,,,,,,,
,,?,0.00231,0,,,,,,stimuli/images/PICTURE_750.png,HOTEL,5ed358aab6ee6f2e2885eddf,28/02/94,2020-09-02_13h20.27.591,proactive3.2,2020.1.2,Linux x86_64,60,5f47c0b9b035471e11593a5c,5f4f819717b4c203961f3947,5,,,,,,kettle,,,,,,,,,,,3,1,0,41,41,27,1,,,,,,,,,,,,,,,,,,,,,,,,,,,,,,,,,,,,,,,,,,,,,,,,,,,,,,,,,,,,,,,,,,,,,,
,,?,0.002355,0,,,,,,stimuli/images/PICTURE_685.png,PENNY,5ed358aab6ee6f2e2885eddf,28/02/94,2020-09-02_13h20.27.591,proactive3.2,2020.1.2,Linux x86_64,60,5f47c0b9b035471e11593a5c,5f4f819717b4c203961f3947,5,,,,,,goose,,,,,,,,,,,1,1,0,42,42,4,1,,,,,,,,,,,,,,,,,,,,,,,,,,,,,,,,,,,,,,,,,,,,,,,,,,,,,,,,,,,,,,,,,,,,,,
,,?,0.002225,0,,,,,,stimuli/images/PICTURE_667.png,RIVER,5ed358aab6ee6f2e2885eddf,28/02/94,2020-09-02_13h20.27.591,proactive3.2,2020.1.2,Linux x86_64,60,5f47c0b9b035471e11593a5c,5f4f819717b4c203961f3947,5,,,,,,daisy,,,,,,,,,,,2,1,0,43,43,10,1,,,,,,,,,,,,,,,,,,,,,,,,,,,,,,,,,,,,,,,,,,,,,,,,,,,,,,,,,,,,,,,,,,,,,,
,,?,0.00345,0,,,,,,stimuli/images/PICTURE_95.png,MILLER,5ed358aab6ee6f2e2885eddf,28/02/94,2020-09-02_13h20.27.591,proactive3.2,2020.1.2,Linux x86_64,60,5f47c0b9b035471e11593a5c,5f4f819717b4c203961f3947,5,,,,,,suitcase,,,,,,,,,,,6,1,0,44,44,56,1,,,,,,,,,,,,,,,,,,,,,,,,,,,,,,,,,,,,,,,,,,,,,,,,,,,,,,,,,,,,,,,,,,,,,,
,,?,0.002525,0,,,,,,stimuli/images/PICTURE_208.png,SYSTEM,5ed358aab6ee6f2e2885eddf,28/02/94,2020-09-02_13h20.27.591,proactive3.2,2020.1.2,Linux x86_64,60,5f47c0b9b035471e11593a5c,5f4f819717b4c203961f3947,5,,,,,,microphone,,,,,,,,,,,4,1,0,45,45,32,1,,,,,,,,,,,,,,,,,,,,,,,,,,,,,,,,,,,,,,,,,,,,,,,,,,,,,,,,,,,,,,,,,,,,,,
,,?,0.002275,0,,,,,,stimuli/images/PICTURE_380.png,CANDY,5ed358aab6ee6f2e2885eddf,28/02/94,2020-09-02_13h20.27.591,proactive3.2,2020.1.2,Linux x86_64,60,5f47c0b9b035471e11593a5c,5f4f819717b4c203961f3947,5,,,,,,gorilla,,,,,,,,,,,1,1,0,46,46,0,1,,,,,,,,,,,,,,,,,,,,,,,,,,,,,,,,,,,,,,,,,,,,,,,,,,,,,,,,,,,,,,,,,,,,,,
,,?,0.002215,0,,,,,,stimuli/images/PICTURE_2.png,FLIGHT,5ed358aab6ee6f2e2885eddf,28/02/94,2020-09-02_13h20.27.591,proactive3.2,2020.1.2,Linux x86_64,60,5f47c0b9b035471e11593a5c,5f4f819717b4c203961f3947,5,,,,,,tyre,,,,,,,,,,,2,1,0,47,47,15,1,,,,,,,,,,,,,,,,,,,,,,,,,,,,,,,,,,,,,,,,,,,,,,,,,,,,,,,,,,,,,,,,,,,,,,
,,ARTIST,5.638315,0,,,,,,stimuli/images/PICTURE_85.png,TOILET,5ed358aab6ee6f2e2885eddf,28/02/94,2020-09-02_13h20.27.591,proactive3.2,2020.1.2,Linux x86_64,60,5f47c0b9b035471e11593a5c,5f4f819717b4c203961f3947,5,,,,,,diamond,,,,,,,,,,,5,1,0,48,48,48,1,,,,,,,,,,,,,,,,,,,,,,,,,,,,,,,,,,,,,,,,,,,,,,,,,,,,,,,,,,,,,,,,,,,,,,
,,?,0.00322,0,,,,,,stimuli/images/PICTURE_405.png,YEAR,5ed358aab6ee6f2e2885eddf,28/02/94,2020-09-02_13h20.27.591,proactive3.2,2020.1.2,Linux x86_64,60,5f47c0b9b035471e11593a5c,5f4f819717b4c203961f3947,5,,,,,,anchor,,,,,,,,,,,4,1,0,49,49,34,1,,,,,,,,,,,,,,,,,,,,,,,,,,,,,,,,,,,,,,,,,,,,,,,,,,,,,,,,,,,,,,,,,,,,,,
,,?,0.002515,0,,,,,,stimuli/images/PICTURE_708.png,RECORD,5ed358aab6ee6f2e2885eddf,28/02/94,2020-09-02_13h20.27.591,proactive3.2,2020.1.2,Linux x86_64,60,5f47c0b9b035471e11593a5c,5f4f819717b4c203961f3947,5,,,,,,monkey,,,,,,,,,,,6,1,0,50,50,58,1,,,,,,,,,,,,,,,,,,,,,,,,,,,,,,,,,,,,,,,,,,,,,,,,,,,,,,,,,,,,,,,,,,,,,,
,,?,0.00347,0,,,,,,stimuli/images/PICTURE_68.png,ROOF,5ed358aab6ee6f2e2885eddf,28/02/94,2020-09-02_13h20.27.591,proactive3.2,2020.1.2,Linux x86_64,60,5f47c0b9b035471e11593a5c,5f4f819717b4c203961f3947,5,,,,,,candle,,,,,,,,,,,4,1,0,51,51,38,1,,,,,,,,,,,,,,,,,,,,,,,,,,,,,,,,,,,,,,,,,,,,,,,,,,,,,,,,,,,,,,,,,,,,,,
,,?,0.002725,0,,,,,,stimuli/images/PICTURE_504.png,COPS,5ed358aab6ee6f2e2885eddf,28/02/94,2020-09-02_13h20.27.591,proactive3.2,2020.1.2,Linux x86_64,60,5f47c0b9b035471e11593a5c,5f4f819717b4c203961f3947,5,,,,,,wheel,,,,,,,,,,,6,1,0,52,52,52,1,,,,,,,,,,,,,,,,,,,,,,,,,,,,,,,,,,,,,,,,,,,,,,,,,,,,,,,,,,,,,,,,,,,,,,
,,?,0.002505,0,,,,,,stimuli/images/PICTURE_68.png,MILE,5ed358aab6ee6f2e2885eddf,28/02/94,2020-09-02_13h20.27.591,proactive3.2,2020.1.2,Linux x86_64,60,5f47c0b9b035471e11593a5c,5f4f819717b4c203961f3947,5,,,,,,candle,,,,,,,,,,,6,1,0,53,53,51,1,,,,,,,,,,,,,,,,,,,,,,,,,,,,,,,,,,,,,,,,,,,,,,,,,,,,,,,,,,,,,,,,,,,,,,
,,APPLE,2.80725,0,,,,,,stimuli/images/PICTURE_675.png,SALE,5ed358aab6ee6f2e2885eddf,28/02/94,2020-09-02_13h20.27.591,proactive3.2,2020.1.2,Linux x86_64,60,5f47c0b9b035471e11593a5c,5f4f819717b4c203961f3947,5,,,,,,windmill,,,,,,,,,,,5,1,0,54,54,47,1,,,,,,,,,,,,,,,,,,,,,,,,,,,,,,,,,,,,,,,,,,,,,,,,,,,,,,,,,,,,,,,,,,,,,,
,,?,0.00271,0,,,,,,stimuli/images/PICTURE_32.png,KIND,5ed358aab6ee6f2e2885eddf,28/02/94,2020-09-02_13h20.27.591,proactive3.2,2020.1.2,Linux x86_64,60,5f47c0b9b035471e11593a5c,5f4f819717b4c203961f3947,5,,,,,,crown,,,,,,,,,,,4,1,0,55,55,35,1,,,,,,,,,,,,,,,,,,,,,,,,,,,,,,,,,,,,,,,,,,,,,,,,,,,,,,,,,,,,,,,,,,,,,,
,,?,0.00253,0,,,,,,stimuli/images/PICTURE_147.png,YEAR,5ed358aab6ee6f2e2885eddf,28/02/94,2020-09-02_13h20.27.591,proactive3.2,2020.1.2,Linux x86_64,60,5f47c0b9b035471e11593a5c,5f4f819717b4c203961f3947,5,,,,,,hanger,,,,,,,,,,,3,1,0,56,56,21,1,,,,,,,,,,,,,,,,,,,,,,,,,,,,,,,,,,,,,,,,,,,,,,,,,,,,,,,,,,,,,,,,,,,,,,
,,?,0.00305,0,,,,,,stimuli/images/PICTURE_297.png,RIVER,5ed358aab6ee6f2e2885eddf,28/02/94,2020-09-02_13h20.27.591,proactive3.2,2020.1.2,Linux x86_64,60,5f47c0b9b035471e11593a5c,5f4f819717b4c203961f3947,5,,,,,,aeroplane,,,,,,,,,,,4,1,0,57,57,39,1,,,,,,,,,,,,,,,,,,,,,,,,,,,,,,,,,,,,,,,,,,,,,,,,,,,,,,,,,,,,,,,,,,,,,,
,,?,0.00261,0,,,,,,stimuli/images/PICTURE_380.png,HONEY,5ed358aab6ee6f2e2885eddf,28/02/94,2020-09-02_13h20.27.591,proactive3.2,2020.1.2,Linux x86_64,60,5f47c0b9b035471e11593a5c,5f4f819717b4c203961f3947,5,,,,,,gorilla,,,,,,,,,,,2,1,0,58,58,19,1,,,,,,,,,,,,,,,,,,,,,,,,,,,,,,,,,,,,,,,,,,,,,,,,,,,,,,,,,,,,,,,,,,,,,,
,,?,0.003995,0,,,,,,stimuli/images/PICTURE_327.png,CASINO,5ed358aab6ee6f2e2885eddf,28/02/94,2020-09-02_13h20.27.591,proactive3.2,2020.1.2,Linux x86_64,60,5f47c0b9b035471e11593a5c,5f4f819717b4c203961f3947,5,,,,,,helmet,,,,,,,,,,,3,1,0,59,59,20,1,,,,,,,,,,,,,,,,,,,,,,,,,,,,,,,,,,,,,,,,,,,,,,,,,,,,,,,,,,,,,,,,,,,,,,
,,,,,,,,,,,,5ed358aab6ee6f2e2885eddf,28/02/94,2020-09-02_13h20.27.591,proactive3.2,2020.1.2,Linux x86_64,60,5f47c0b9b035471e11593a5c,5f4f819717b4c203961f3947,5,,,,,,,,,,,,,,,,,,,,,,,,0,1,1,1,1,stimuli/learn-block2.csv,,,,,,,,,,,,,,,,,,,,,,,,,,,,,,,,,,,,,,,,,,,,,,,,,,,,,,,,,,,,,,,,
,,,,,,,,,,stimuli/images/PICTURE_405.png,JUNGLE,5ed358aab6ee6f2e2885eddf,28/02/94,2020-09-02_13h20.27.591,proactive3.2,2020.1.2,Linux x86_64,60,5f47c0b9b035471e11593a5c,5f4f819717b4c203961f3947,5,,,,,,anchor,,,,,,0,0,0,58,1,6,2,,,,,,,,,,,,,,,,,,,,,,,,,,,,,,,,,,,,,,,,,,,,,,,,,,,,,,,,,,,,,,,,,,,,,,,,,,,
,,,,,,,,,,stimuli/images/PICTURE_2.png,JUNGLE,5ed358aab6ee6f2e2885eddf,28/02/94,2020-09-02_13h20.27.591,proactive3.2,2020.1.2,Linux x86_64,60,5f47c0b9b035471e11593a5c,5f4f819717b4c203961f3947,5,,,,,,tyre,,,,,,0,1,1,1,1,1,2,,,,,,,,,,,,,,,,,,,,,,,,,,,,,,,,,,,,,,,,,,,,,,,,,,,,,,,,,,,,,,,,,,,,,,,,,,,
,,,,,,,,,,stimuli/images/PICTURE_285.png,WRITER,5ed358aab6ee6f2e2885eddf,28/02/94,2020-09-02_13h20.27.591,proactive3.2,2020.1.2,Linux x86_64,60,5f47c0b9b035471e11593a5c,5f4f819717b4c203961f3947,5,,,,,,carrot,,,,,,0,2,2,6,1,1,2,,,,,,,,,,,,,,,,,,,,,,,,,,,,,,,,,,,,,,,,,,,,,,,,,,,,,,,,,,,,,,,,,,,,,,,,,,,
,,,,,,,,,,stimuli/images/PICTURE_215.png,FOOD,5ed358aab6ee6f2e2885eddf,28/02/94,2020-09-02_13h20.27.591,proactive3.2,2020.1.2,Linux x86_64,60,5f47c0b9b035471e11593a5c,5f4f819717b4c203961f3947,5,,,,,,boot,,,,,,0,3,3,5,1,1,2,,,,,,,,,,,,,,,,,,,,,,,,,,,,,,,,,,,,,,,,,,,,,,,,,,,,,,,,,,,,,,,,,,,,,,,,,,,
,,,,,,,,,,stimuli/images/PICTURE_255.png,PENNY,5ed358aab6ee6f2e2885eddf,28/02/94,2020-09-02_13h20.27.591,proactive3.2,2020.1.2,Linux x86_64,60,5f47c0b9b035471e11593a5c,5f4f819717b4c203961f3947,5,,,,,,shovel,,,,,,0,4,4,19,1,2,2,,,,,,,,,,,,,,,,,,,,,,,,,,,,,,,,,,,,,,,,,,,,,,,,,,,,,,,,,,,,,,,,,,,,,,,,,,,
,,,,,,,,,,stimuli/images/PICTURE_654.png,YEAR,5ed358aab6ee6f2e2885eddf,28/02/94,2020-09-02_13h20.27.591,proactive3.2,2020.1.2,Linux x86_64,60,5f47c0b9b035471e11593a5c,5f4f819717b4c203961f3947,5,,,,,,pencil,,,,,,0,5,5,41,1,5,2,,,,,,,,,,,,,,,,,,,,,,,,,,,,,,,,,,,,,,,,,,,,,,,,,,,,,,,,,,,,,,,,,,,,,,,,,,,
,,,,,,,,,,stimuli/images/PICTURE_314.png,SPEECH,5ed358aab6ee6f2e2885eddf,28/02/94,2020-09-02_13h20.27.591,proactive3.2,2020.1.2,Linux x86_64,60,5f47c0b9b035471e11593a5c,5f4f819717b4c203961f3947,5,,,,,,perfume,,,,,,0,6,6,35,1,4,2,,,,,,,,,,,,,,,,,,,,,,,,,,,,,,,,,,,,,,,,,,,,,,,,,,,,,,,,,,,,,,,,,,,,,,,,,,,
,,,,,,,,,,stimuli/images/PICTURE_692.png,DUDE,5ed358aab6ee6f2e2885eddf,28/02/94,2020-09-02_13h20.27.591,proactive3.2,2020.1.2,Linux x86_64,60,5f47c0b9b035471e11593a5c,5f4f819717b4c203961f3947,5,,,,,,cherry,,,,,,0,7,7,47,1,5,2,,,,,,,,,,,,,,,,,,,,,,,,,,,,,,,,,,,,,,,,,,,,,,,,,,,,,,,,,,,,,,,,,,,,,,,,,,,
,,,,,,,,,,stimuli/images/PICTURE_564.png,PLENTY,5ed358aab6ee6f2e2885eddf,28/02/94,2020-09-02_13h20.27.591,proactive3.2,2020.1.2,Linux x86_64,60,5f47c0b9b035471e11593a5c,5f4f819717b4c203961f3947,5,,,,,,spoon,,,,,,0,8,8,11,1,2,2,,,,,,,,,,,,,,,,,,,,,,,,,,,,,,,,,,,,,,,,,,,,,,,,,,,,,,,,,,,,,,,,,,,,,,,,,,,
,,,,,,,,,,stimuli/images/PICTURE_215.png,LEADER,5ed358aab6ee6f2e2885eddf,28/02/94,2020-09-02_13h20.27.591,proactive3.2,2020.1.2,Linux x86_64,60,5f47c0b9b035471e11593a5c,5f4f819717b4c203961f3947,5,,,,,,boot,,,,,,0,9,9,43,1,5,2,,,,,,,,,,,,,,,,,,,,,,,,,,,,,,,,,,,,,,,,,,,,,,,,,,,,,,,,,,,,,,,,,,,,,,,,,,,
,,,,,,,,,,stimuli/images/PICTURE_356.png,CANDY,5ed358aab6ee6f2e2885eddf,28/02/94,2020-09-02_13h20.27.591,proactive3.2,2020.1.2,Linux x86_64,60,5f47c0b9b035471e11593a5c,5f4f819717b4c203961f3947,5,,,,,,pawn,,,,,,0,10,10,46,1,5,2,,,,,,,,,,,,,,,,,,,,,,,,,,,,,,,,,,,,,,,,,,,,,,,,,,,,,,,,,,,,,,,,,,,,,,,,,,,
,,,,,,,,,,stimuli/images/PICTURE_57.png,CASINO,5ed358aab6ee6f2e2885eddf,28/02/94,2020-09-02_13h20.27.591,proactive3.2,2020.1.2,Linux x86_64,60,5f47c0b9b035471e11593a5c,5f4f819717b4c203961f3947,5,,,,,,stamp,,,,,,0,11,11,12,1,2,2,,,,,,,,,,,,,,,,,,,,,,,,,,,,,,,,,,,,,,,,,,,,,,,,,,,,,,,,,,,,,,,,,,,,,,,,,,,
,,,,,,,,,,stimuli/images/PICTURE_405.png,JUNGLE,5ed358aab6ee6f2e2885eddf,28/02/94,2020-09-02_13h20.27.591,proactive3.2,2020.1.2,Linux x86_64,60,5f47c0b9b035471e11593a5c,5f4f819717b4c203961f3947,5,,,,,,anchor,,,,,,0,12,12,13,1,2,2,,,,,,,,,,,,,,,,,,,,,,,,,,,,,,,,,,,,,,,,,,,,,,,,,,,,,,,,,,,,,,,,,,,,,,,,,,,
,,,,,,,,,,stimuli/images/PICTURE_677.png,PHOTO,5ed358aab6ee6f2e2885eddf,28/02/94,2020-09-02_13h20.27.591,proactive3.2,2020.1.2,Linux x86_64,60,5f47c0b9b035471e11593a5c,5f4f819717b4c203961f3947,5,,,,,,map,,,,,,0,13,13,14,1,2,2,,,,,,,,,,,,,,,,,,,,,,,,,,,,,,,,,,,,,,,,,,,,,,,,,,,,,,,,,,,,,,,,,,,,,,,,,,,
,,,,,,,,,,stimuli/images/PICTURE_487.png,POLICY,5ed358aab6ee6f2e2885eddf,28/02/94,2020-09-02_13h20.27.591,proactive3.2,2020.1.2,Linux x86_64,60,5f47c0b9b035471e11593a5c,5f4f819717b4c203961f3947,5,,,,,,basket,,,,,,0,14,14,34,1,4,2,,,,,,,,,,,,,,,,,,,,,,,,,,,,,,,,,,,,,,,,,,,,,,,,,,,,,,,,,,,,,,,,,,,,,,,,,,,
,,,,,,,,,,stimuli/images/PICTURE_93.png,GIRL,5ed358aab6ee6f2e2885eddf,28/02/94,2020-09-02_13h20.27.591,proactive3.2,2020.1.2,Linux x86_64,60,5f47c0b9b035471e11593a5c,5f4f819717b4c203961f3947,5,,,,,,skateboard,,,,,,0,15,15,31,1,4,2,,,,,,,,,,,,,,,,,,,,,,,,,,,,,,,,,,,,,,,,,,,,,,,,,,,,,,,,,,,,,,,,,,,,,,,,,,,
,,,,,,,,,,stimuli/images/PICTURE_311.png,FLESH,5ed358aab6ee6f2e2885eddf,28/02/94,2020-09-02_13h20.27.591,proactive3.2,2020.1.2,Linux x86_64,60,5f47c0b9b035471e11593a5c,5f4f819717b4c203961f3947,5,,,,,,razor,,,,,,0,16,16,3,1,1,2,,,,,,,,,,,,,,,,,,,,,,,,,,,,,,,,,,,,,,,,,,,,,,,,,,,,,,,,,,,,,,,,,,,,,,,,,,,
,,,,,,,,,,stimuli/images/PICTURE_504.png,HOUSE,5ed358aab6ee6f2e2885eddf,28/02/94,2020-09-02_13h20.27.591,proactive3.2,2020.1.2,Linux x86_64,60,5f47c0b9b035471e11593a5c,5f4f819717b4c203961f3947,5,,,,,,wheel,,,,,,0,17,17,36,1,4,2,,,,,,,,,,,,,,,,,,,,,,,,,,,,,,,,,,,,,,,,,,,,,,,,,,,,,,,,,,,,,,,,,,,,,,,,,,,
,,,,,,,,,,stimuli/images/PICTURE_141.png,CLIENT,5ed358aab6ee6f2e2885eddf,28/02/94,2020-09-02_13h20.27.591,proactive3.2,2020.1.2,Linux x86_64,60,5f47c0b9b035471e11593a5c,5f4f819717b4c203961f3947,5,,,,,,sunflower,,,,,,0,18,18,30,1,4,2,,,,,,,,,,,,,,,,,,,,,,,,,,,,,,,,,,,,,,,,,,,,,,,,,,,,,,,,,,,,,,,,,,,,,,,,,,,
,,,,,,,,,,stimuli/images/PICTURE_509.png,MILLER,5ed358aab6ee6f2e2885eddf,28/02/94,2020-09-02_13h20.27.591,proactive3.2,2020.1.2,Linux x86_64,60,5f47c0b9b035471e11593a5c,5f4f819717b4c203961f3947,5,,,,,,telephone,,,,,,0,19,19,49,1,5,2,,,,,,,,,,,,,,,,,,,,,,,,,,,,,,,,,,,,,,,,,,,,,,,,,,,,,,,,,,,,,,,,,,,,,,,,,,,
,,,,,,,,,,stimuli/images/PICTURE_57.png,NATION,5ed358aab6ee6f2e2885eddf,28/02/94,2020-09-02_13h20.27.591,proactive3.2,2020.1.2,Linux x86_64,60,5f47c0b9b035471e11593a5c,5f4f819717b4c203961f3947,5,,,,,,stamp,,,,,,0,20,20,21,1,3,2,,,,,,,,,,,,,,,,,,,,,,,,,,,,,,,,,,,,,,,,,,,,,,,,,,,,,,,,,,,,,,,,,,,,,,,,,,,
,,,,,,,,,,stimuli/images/PICTURE_655.png,SALE,5ed358aab6ee6f2e2885eddf,28/02/94,2020-09-02_13h20.27.591,proactive3.2,2020.1.2,Linux x86_64,60,5f47c0b9b035471e11593a5c,5f4f819717b4c203961f3947,5,,,,,,megaphone,,,,,,0,21,21,57,1,6,2,,,,,,,,,,,,,,,,,,,,,,,,,,,,,,,,,,,,,,,,,,,,,,,,,,,,,,,,,,,,,,,,,,,,,,,,,,,
,,,,,,,,,,stimuli/images/PICTURE_405.png,HOUSE,5ed358aab6ee6f2e2885eddf,28/02/94,2020-09-02_13h20.27.591,proactive3.2,2020.1.2,Linux x86_64,60,5f47c0b9b035471e11593a5c,5f4f819717b4c203961f3947,5,,,,,,anchor,,,,,,0,22,22,2,1,1,2,,,,,,,,,,,,,,,,,,,,,,,,,,,,,,,,,,,,,,,,,,,,,,,,,,,,,,,,,,,,,,,,,,,,,,,,,,,
,,,,,,,,,,stimuli/images/PICTURE_215.png,BOYS,5ed358aab6ee6f2e2885eddf,28/02/94,2020-09-02_13h20.27.591,proactive3.2,2020.1.2,Linux x86_64,60,5f47c0b9b035471e11593a5c,5f4f819717b4c203961f3947,5,,,,,,boot,,,,,,0,23,23,24,1,3,2,,,,,,,,,,,,,,,,,,,,,,,,,,,,,,,,,,,,,,,,,,,,,,,,,,,,,,,,,,,,,,,,,,,,,,,,,,,
,,,,,,,,,,stimuli/images/PICTURE_750.png,POLICY,5ed358aab6ee6f2e2885eddf,28/02/94,2020-09-02_13h20.27.591,proactive3.2,2020.1.2,Linux x86_64,60,5f47c0b9b035471e11593a5c,5f4f819717b4c203961f3947,5,,,,,,kettle,,,,,,0,24,24,44,1,5,2,,,,,,,,,,,,,,,,,,,,,,,,,,,,,,,,,,,,,,,,,,,,,,,,,,,,,,,,,,,,,,,,,,,,,,,,,,,
,,,,,,,,,,stimuli/images/PICTURE_177.png,HOUSE,5ed358aab6ee6f2e2885eddf,28/02/94,2020-09-02_13h20.27.591,proactive3.2,2020.1.2,Linux x86_64,60,5f47c0b9b035471e11593a5c,5f4f819717b4c203961f3947,5,,,,,,mushroom,,,,,,0,25,25,25,1,3,2,,,,,,,,,,,,,,,,,,,,,,,,,,,,,,,,,,,,,,,,,,,,,,,,,,,,,,,,,,,,,,,,,,,,,,,,,,,
,,,,,,,,,,stimuli/images/PICTURE_470.png,BEAUTY,5ed358aab6ee6f2e2885eddf,28/02/94,2020-09-02_13h20.27.591,proactive3.2,2020.1.2,Linux x86_64,60,5f47c0b9b035471e11593a5c,5f4f819717b4c203961f3947,5,,,,,,motorbike,,,,,,0,26,26,26,1,3,2,,,,,,,,,,,,,,,,,,,,,,,,,,,,,,,,,,,,,,,,,,,,,,,,,,,,,,,,,,,,,,,,,,,,,,,,,,,
,,,,,,,,,,stimuli/images/PICTURE_470.png,MOMENT,5ed358aab6ee6f2e2885eddf,28/02/94,2020-09-02_13h20.27.591,proactive3.2,2020.1.2,Linux x86_64,60,5f47c0b9b035471e11593a5c,5f4f819717b4c203961f3947,5,,,,,,motorbike,,,,,,0,27,27,40,1,5,2,,,,,,,,,,,,,,,,,,,,,,,,,,,,,,,,,,,,,,,,,,,,,,,,,,,,,,,,,,,,,,,,,,,,,,,,,,,
,,,,,,,,,,stimuli/images/PICTURE_208.png,SPIRIT,5ed358aab6ee6f2e2885eddf,28/02/94,2020-09-02_13h20.27.591,proactive3.2,2020.1.2,Linux x86_64,60,5f47c0b9b035471e11593a5c,5f4f819717b4c203961f3947,5,,,,,,microphone,,,,,,0,28,28,28,1,3,2,,,,,,,,,,,,,,,,,,,,,,,,,,,,,,,,,,,,,,,,,,,,,,,,,,,,,,,,,,,,,,,,,,,,,,,,,,,
,,,,,,,,,,stimuli/images/PICTURE_403.png,FAMILY,5ed358aab6ee6f2e2885eddf,28/02/94,2020-09-02_13h20.27.591,proactive3.2,2020.1.2,Linux x86_64,60,5f47c0b9b035471e11593a5c,5f4f819717b4c203961f3947,5,,,,,,cathedral,,,,,,0,29,29,9,1,1,2,,,,,,,,,,,,,,,,,,,,,,,,,,,,,,,,,,,,,,,,,,,,,,,,,,,,,,,,,,,,,,,,,,,,,,,,,,,
,,,,,,,,,,stimuli/images/PICTURE_509.png,SHOTS,5ed358aab6ee6f2e2885eddf,28/02/94,2020-09-02_13h20.27.591,proactive3.2,2020.1.2,Linux x86_64,60,5f47c0b9b035471e11593a5c,5f4f819717b4c203961f3947,5,,,,,,telephone,,,,,,0,30,30,7,1,1,2,,,,,,,,,,,,,,,,,,,,,,,,,,,,,,,,,,,,,,,,,,,,,,,,,,,,,,,,,,,,,,,,,,,,,,,,,,,
,,,,,,,,,,stimuli/images/PICTURE_453.png,FAMILY,5ed358aab6ee6f2e2885eddf,28/02/94,2020-09-02_13h20.27.591,proactive3.2,2020.1.2,Linux x86_64,60,5f47c0b9b035471e11593a5c,5f4f819717b4c203961f3947,5,,,,,,scissors,,,,,,0,31,31,48,1,5,2,,,,,,,,,,,,,,,,,,,,,,,,,,,,,,,,,,,,,,,,,,,,,,,,,,,,,,,,,,,,,,,,,,,,,,,,,,,
,,,,,,,,,,stimuli/images/PICTURE_33.png,COPS,5ed358aab6ee6f2e2885eddf,28/02/94,2020-09-02_13h20.27.591,proactive3.2,2020.1.2,Linux x86_64,60,5f47c0b9b035471e11593a5c,5f4f819717b4c203961f3947,5,,,,,,frame,,,,,,0,32,32,29,1,3,2,,,,,,,,,,,,,,,,,,,,,,,,,,,,,,,,,,,,,,,,,,,,,,,,,,,,,,,,,,,,,,,,,,,,,,,,,,,
,,,,,,,,,,stimuli/images/PICTURE_654.png,COPS,5ed358aab6ee6f2e2885eddf,28/02/94,2020-09-02_13h20.27.591,proactive3.2,2020.1.2,Linux x86_64,60,5f47c0b9b035471e11593a5c,5f4f819717b4c203961f3947,5,,,,,,pencil,,,,,,0,33,33,10,1,2,2,,,,,,,,,,,,,,,,,,,,,,,,,,,,,,,,,,,,,,,,,,,,,,,,,,,,,,,,,,,,,,,,,,,,,,,,,,,
,,,,,,,,,,stimuli/images/PICTURE_32.png,LETTER,5ed358aab6ee6f2e2885eddf,28/02/94,2020-09-02_13h20.27.591,proactive3.2,2020.1.2,Linux x86_64,60,5f47c0b9b035471e11593a5c,5f4f819717b4c203961f3947,5,,,,,,crown,,,,,,0,34,34,56,1,6,2,,,,,,,,,,,,,,,,,,,,,,,,,,,,,,,,,,,,,,,,,,,,,,,,,,,,,,,,,,,,,,,,,,,,,,,,,,,
,,,,,,,,,,stimuli/images/PICTURE_296.png,CLOCK,5ed358aab6ee6f2e2885eddf,28/02/94,2020-09-02_13h20.27.591,proactive3.2,2020.1.2,Linux x86_64,60,5f47c0b9b035471e11593a5c,5f4f819717b4c203961f3947,5,,,,,,bolt,,,,,,0,35,35,18,1,2,2,,,,,,,,,,,,,,,,,,,,,,,,,,,,,,,,,,,,,,,,,,,,,,,,,,,,,,,,,,,,,,,,,,,,,,,,,,,
,,,,,,,,,,stimuli/images/PICTURE_297.png,BODY,5ed358aab6ee6f2e2885eddf,28/02/94,2020-09-02_13h20.27.591,proactive3.2,2020.1.2,Linux x86_64,60,5f47c0b9b035471e11593a5c,5f4f819717b4c203961f3947,5,,,,,,aeroplane,,,,,,0,36,36,51,1,6,2,,,,,,,,,,,,,,,,,,,,,,,,,,,,,,,,,,,,,,,,,,,,,,,,,,,,,,,,,,,,,,,,,,,,,,,,,,,
,,,,,,,,,,stimuli/images/PICTURE_509.png,APPLE,5ed358aab6ee6f2e2885eddf,28/02/94,2020-09-02_13h20.27.591,proactive3.2,2020.1.2,Linux x86_64,60,5f47c0b9b035471e11593a5c,5f4f819717b4c203961f3947,5,,,,,,telephone,,,,,,0,37,37,38,1,4,2,,,,,,,,,,,,,,,,,,,,,,,,,,,,,,,,,,,,,,,,,,,,,,,,,,,,,,,,,,,,,,,,,,,,,,,,,,,
,,,,,,,,,,stimuli/images/PICTURE_491.png,SERIES,5ed358aab6ee6f2e2885eddf,28/02/94,2020-09-02_13h20.27.591,proactive3.2,2020.1.2,Linux x86_64,60,5f47c0b9b035471e11593a5c,5f4f819717b4c203961f3947,5,,,,,,rug,,,,,,0,38,38,39,1,4,2,,,,,,,,,,,,,,,,,,,,,,,,,,,,,,,,,,,,,,,,,,,,,,,,,,,,,,,,,,,,,,,,,,,,,,,,,,,
,,,,,,,,,,stimuli/images/PICTURE_285.png,PRINCE,5ed358aab6ee6f2e2885eddf,28/02/94,2020-09-02_13h20.27.591,proactive3.2,2020.1.2,Linux x86_64,60,5f47c0b9b035471e11593a5c,5f4f819717b4c203961f3947,5,,,,,,carrot,,,,,,0,39,39,20,1,3,2,,,,,,,,,,,,,,,,,,,,,,,,,,,,,,,,,,,,,,,,,,,,,,,,,,,,,,,,,,,,,,,,,,,,,,,,,,,
,,,,,,,,,,stimuli/images/PICTURE_688.png,CLOCK,5ed358aab6ee6f2e2885eddf,28/02/94,2020-09-02_13h20.27.591,proactive3.2,2020.1.2,Linux x86_64,60,5f47c0b9b035471e11593a5c,5f4f819717b4c203961f3947,5,,,,,,runner,,,,,,0,40,40,42,1,5,2,,,,,,,,,,,,,,,,,,,,,,,,,,,,,,,,,,,,,,,,,,,,,,,,,,,,,,,,,,,,,,,,,,,,,,,,,,,
,,,,,,,,,,stimuli/images/PICTURE_487.png,ROOF,5ed358aab6ee6f2e2885eddf,28/02/94,2020-09-02_13h20.27.591,proactive3.2,2020.1.2,Linux x86_64,60,5f47c0b9b035471e11593a5c,5f4f819717b4c203961f3947,5,,,,,,basket,,,,,,0,41,41,50,1,6,2,,,,,,,,,,,,,,,,,,,,,,,,,,,,,,,,,,,,,,,,,,,,,,,,,,,,,,,,,,,,,,,,,,,,,,,,,,,
,,,,,,,,,,stimuli/images/PICTURE_452.png,COPS,5ed358aab6ee6f2e2885eddf,28/02/94,2020-09-02_13h20.27.591,proactive3.2,2020.1.2,Linux x86_64,60,5f47c0b9b035471e11593a5c,5f4f819717b4c203961f3947,5,,,,,,watch,,,,,,0,42,42,0,1,1,2,,,,,,,,,,,,,,,,,,,,,,,,,,,,,,,,,,,,,,,,,,,,,,,,,,,,,,,,,,,,,,,,,,,,,,,,,,,
,,,,,,,,,,stimuli/images/PICTURE_348.png,TOILET,5ed358aab6ee6f2e2885eddf,28/02/94,2020-09-02_13h20.27.591,proactive3.2,2020.1.2,Linux x86_64,60,5f47c0b9b035471e11593a5c,5f4f819717b4c203961f3947,5,,,,,,pepper,,,,,,0,43,43,4,1,1,2,,,,,,,,,,,,,,,,,,,,,,,,,,,,,,,,,,,,,,,,,,,,,,,,,,,,,,,,,,,,,,,,,,,,,,,,,,,
,,,,,,,,,,stimuli/images/PICTURE_95.png,NIGHT,5ed358aab6ee6f2e2885eddf,28/02/94,2020-09-02_13h20.27.591,proactive3.2,2020.1.2,Linux x86_64,60,5f47c0b9b035471e11593a5c,5f4f819717b4c203961f3947,5,,,,,,suitcase,,,,,,0,44,44,37,1,4,2,,,,,,,,,,,,,,,,,,,,,,,,,,,,,,,,,,,,,,,,,,,,,,,,,,,,,,,,,,,,,,,,,,,,,,,,,,,
,,,,,,,,,,stimuli/images/PICTURE_2.png,AREA,5ed358aab6ee6f2e2885eddf,28/02/94,2020-09-02_13h20.27.591,proactive3.2,2020.1.2,Linux x86_64,60,5f47c0b9b035471e11593a5c,5f4f819717b4c203961f3947,5,,,,,,tyre,,,,,,0,45,45,32,1,4,2,,,,,,,,,,,,,,,,,,,,,,,,,,,,,,,,,,,,,,,,,,,,,,,,,,,,,,,,,,,,,,,,,,,,,,,,,,,
,,,,,,,,,,stimuli/images/PICTURE_2.png,YARD,5ed358aab6ee6f2e2885eddf,28/02/94,2020-09-02_13h20.27.591,proactive3.2,2020.1.2,Linux x86_64,60,5f47c0b9b035471e11593a5c,5f4f819717b4c203961f3947,5,,,,,,tyre,,,,,,0,46,46,55,1,6,2,,,,,,,,,,,,,,,,,,,,,,,,,,,,,,,,,,,,,,,,,,,,,,,,,,,,,,,,,,,,,,,,,,,,,,,,,,,
,,,,,,,,,,stimuli/images/PICTURE_147.png,LEADER,5ed358aab6ee6f2e2885eddf,28/02/94,2020-09-02_13h20.27.591,proactive3.2,2020.1.2,Linux x86_64,60,5f47c0b9b035471e11593a5c,5f4f819717b4c203961f3947,5,,,,,,hanger,,,,,,0,47,47,33,1,4,2,,,,,,,,,,,,,,,,,,,,,,,,,,,,,,,,,,,,,,,,,,,,,,,,,,,,,,,,,,,,,,,,,,,,,,,,,,,
,,,,,,,,,,stimuli/images/PICTURE_160.png,HOTEL,5ed358aab6ee6f2e2885eddf,28/02/94,2020-09-02_13h20.27.591,proactive3.2,2020.1.2,Linux x86_64,60,5f47c0b9b035471e11593a5c,5f4f819717b4c203961f3947,5,,,,,,wheelbarrow,,,,,,0,48,48,16,1,2,2,,,,,,,,,,,,,,,,,,,,,,,,,,,,,,,,,,,,,,,,,,,,,,,,,,,,,,,,,,,,,,,,,,,,,,,,,,,
,,,,,,,,,,stimuli/images/PICTURE_311.png,TOILET,5ed358aab6ee6f2e2885eddf,28/02/94,2020-09-02_13h20.27.591,proactive3.2,2020.1.2,Linux x86_64,60,5f47c0b9b035471e11593a5c,5f4f819717b4c203961f3947,5,,,,,,razor,,,,,,0,49,49,54,1,6,2,,,,,,,,,,,,,,,,,,,,,,,,,,,,,,,,,,,,,,,,,,,,,,,,,,,,,,,,,,,,,,,,,,,,,,,,,,,
,,,,,,,,,,stimuli/images/PICTURE_348.png,DUDE,5ed358aab6ee6f2e2885eddf,28/02/94,2020-09-02_13h20.27.591,proactive3.2,2020.1.2,Linux x86_64,60,5f47c0b9b035471e11593a5c,5f4f819717b4c203961f3947,5,,,,,,pepper,,,,,,0,50,50,59,1,6,2,,,,,,,,,,,,,,,,,,,,,,,,,,,,,,,,,,,,,,,,,,,,,,,,,,,,,,,,,,,,,,,,,,,,,,,,,,,
,,,,,,,,,,stimuli/images/PICTURE_123.png,SALE,5ed358aab6ee6f2e2885eddf,28/02/94,2020-09-02_13h20.27.591,proactive3.2,2020.1.2,Linux x86_64,60,5f47c0b9b035471e11593a5c,5f4f819717b4c203961f3947,5,,,,,,dart,,,,,,0,51,51,8,1,1,2,,,,,,,,,,,,,,,,,,,,,,,,,,,,,,,,,,,,,,,,,,,,,,,,,,,,,,,,,,,,,,,,,,,,,,,,,,,
,,,,,,,,,,stimuli/images/PICTURE_327.png,LEADER,5ed358aab6ee6f2e2885eddf,28/02/94,2020-09-02_13h20.27.591,proactive3.2,2020.1.2,Linux x86_64,60,5f47c0b9b035471e11593a5c,5f4f819717b4c203961f3947,5,,,,,,helmet,,,,,,0,52,52,17,1,2,2,,,,,,,,,,,,,,,,,,,,,,,,,,,,,,,,,,,,,,,,,,,,,,,,,,,,,,,,,,,,,,,,,,,,,,,,,,,
,,,,,,,,,,stimuli/images/PICTURE_68.png,KIND,5ed358aab6ee6f2e2885eddf,28/02/94,2020-09-02_13h20.27.591,proactive3.2,2020.1.2,Linux x86_64,60,5f47c0b9b035471e11593a5c,5f4f819717b4c203961f3947,5,,,,,,candle,,,,,,0,53,53,23,1,3,2,,,,,,,,,,,,,,,,,,,,,,,,,,,,,,,,,,,,,,,,,,,,,,,,,,,,,,,,,,,,,,,,,,,,,,,,,,,
,,,,,,,,,,stimuli/images/PICTURE_18.png,RIVER,5ed358aab6ee6f2e2885eddf,28/02/94,2020-09-02_13h20.27.591,proactive3.2,2020.1.2,Linux x86_64,60,5f47c0b9b035471e11593a5c,5f4f819717b4c203961f3947,5,,,,,,planet,,,,,,0,54,54,22,1,3,2,,,,,,,,,,,,,,,,,,,,,,,,,,,,,,,,,,,,,,,,,,,,,,,,,,,,,,,,,,,,,,,,,,,,,,,,,,,
,,,,,,,,,,stimuli/images/PICTURE_677.png,FAMILY,5ed358aab6ee6f2e2885eddf,28/02/94,2020-09-02_13h20.27.591,proactive3.2,2020.1.2,Linux x86_64,60,5f47c0b9b035471e11593a5c,5f4f819717b4c203961f3947,5,,,,,,map,,,,,,0,55,55,53,1,6,2,,,,,,,,,,,,,,,,,,,,,,,,,,,,,,,,,,,,,,,,,,,,,,,,,,,,,,,,,,,,,,,,,,,,,,,,,,,
,,,,,,,,,,stimuli/images/PICTURE_57.png,CANDY,5ed358aab6ee6f2e2885eddf,28/02/94,2020-09-02_13h20.27.591,proactive3.2,2020.1.2,Linux x86_64,60,5f47c0b9b035471e11593a5c,5f4f819717b4c203961f3947,5,,,,,,stamp,,,,,,0,56,56,52,1,6,2,,,,,,,,,,,,,,,,,,,,,,,,,,,,,,,,,,,,,,,,,,,,,,,,,,,,,,,,,,,,,,,,,,,,,,,,,,,
,,,,,,,,,,stimuli/images/PICTURE_667.png,GLASS,5ed358aab6ee6f2e2885eddf,28/02/94,2020-09-02_13h20.27.591,proactive3.2,2020.1.2,Linux x86_64,60,5f47c0b9b035471e11593a5c,5f4f819717b4c203961f3947,5,,,,,,daisy,,,,,,0,57,57,27,1,3,2,,,,,,,,,,,,,,,,,,,,,,,,,,,,,,,,,,,,,,,,,,,,,,,,,,,,,,,,,,,,,,,,,,,,,,,,,,,
,,,,,,,,,,stimuli/images/PICTURE_509.png,BATH,5ed358aab6ee6f2e2885eddf,28/02/94,2020-09-02_13h20.27.591,proactive3.2,2020.1.2,Linux x86_64,60,5f47c0b9b035471e11593a5c,5f4f819717b4c203961f3947,5,,,,,,telephone,,,,,,0,58,58,15,1,2,2,,,,,,,,,,,,,,,,,,,,,,,,,,,,,,,,,,,,,,,,,,,,,,,,,,,,,,,,,,,,,,,,,,,,,,,,,,,
,,?,0.002635,0,,,,,,stimuli/images/PICTURE_2.png,JUNGLE,5ed358aab6ee6f2e2885eddf,28/02/94,2020-09-02_13h20.27.591,proactive3.2,2020.1.2,Linux x86_64,60,5f47c0b9b035471e11593a5c,5f4f819717b4c203961f3947,5,,,,,,tyre,,,,,,,,,,,1,2,0,0,0,1,1,,,,,,,,,,,,,,,,,,,,,,,,,,,,,,,,,,,,,,,,,,,,,,,,,,,,,,,,,,,,,,,,,,,,,,
,,?,0.00213,0,,,,,,stimuli/images/PICTURE_405.png,JUNGLE,5ed358aab6ee6f2e2885eddf,28/02/94,2020-09-02_13h20.27.591,proactive3.2,2020.1.2,Linux x86_64,60,5f47c0b9b035471e11593a5c,5f4f819717b4c203961f3947,5,,,,,,anchor,,,,,,,,,,,6,2,0,1,1,58,1,,,,,,,,,,,,,,,,,,,,,,,,,,,,,,,,,,,,,,,,,,,,,,,,,,,,,,,,,,,,,,,,,,,,,,
,,?,0.002635,0,,,,,,stimuli/images/PICTURE_215.png,FOOD,5ed358aab6ee6f2e2885eddf,28/02/94,2020-09-02_13h20.27.591,proactive3.2,2020.1.2,Linux x86_64,60,5f47c0b9b035471e11593a5c,5f4f819717b4c203961f3947,5,,,,,,boot,,,,,,,,,,,1,2,0,2,2,5,1,,,,,,,,,,,,,,,,,,,,,,,,,,,,,,,,,,,,,,,,,,,,,,,,,,,,,,,,,,,,,,,,,,,,,,
,,?,0.00238,0,,,,,,stimuli/images/PICTURE_405.png,HOUSE,5ed358aab6ee6f2e2885eddf,28/02/94,2020-09-02_13h20.27.591,proactive3.2,2020.1.2,Linux x86_64,60,5f47c0b9b035471e11593a5c,5f4f819717b4c203961f3947,5,,,,,,anchor,,,,,,,,,,,1,2,0,3,3,2,1,,,,,,,,,,,,,,,,,,,,,,,,,,,,,,,,,,,,,,,,,,,,,,,,,,,,,,,,,,,,,,,,,,,,,,
,,?,0.002465,0,,,,,,stimuli/images/PICTURE_509.png,SHOTS,5ed358aab6ee6f2e2885eddf,28/02/94,2020-09-02_13h20.27.591,proactive3.2,2020.1.2,Linux x86_64,60,5f47c0b9b035471e11593a5c,5f4f819717b4c203961f3947,5,,,,,,telephone,,,,,,,,,,,1,2,0,4,4,7,1,,,,,,,,,,,,,,,,,,,,,,,,,,,,,,,,,,,,,,,,,,,,,,,,,,,,,,,,,,,,,,,,,,,,,,
,,PLAY,2.527105,0,,,,,,stimuli/images/PICTURE_356.png,CANDY,5ed358aab6ee6f2e2885eddf,28/02/94,2020-09-02_13h20.27.591,proactive3.2,2020.1.2,Linux x86_64,60,5f47c0b9b035471e11593a5c,5f4f819717b4c203961f3947,5,,,,,,pawn,,,,,,,,,,,5,2,0,5,5,46,1,,,,,,,,,,,,,,,,,,,,,,,,,,,,,,,,,,,,,,,,,,,,,,,,,,,,,,,,,,,,,,,,,,,,,,
,,?,0.00262,0,,,,,,stimuli/images/PICTURE_314.png,SPEECH,5ed358aab6ee6f2e2885eddf,28/02/94,2020-09-02_13h20.27.591,proactive3.2,2020.1.2,Linux x86_64,60,5f47c0b9b035471e11593a5c,5f4f819717b4c203961f3947,5,,,,,,perfume,,,,,,,,,,,4,2,0,6,6,35,1,,,,,,,,,,,,,,,,,,,,,,,,,,,,,,,,,,,,,,,,,,,,,,,,,,,,,,,,,,,,,,,,,,,,,,
,,?,0.00218,0,,,,,,stimuli/images/PICTURE_311.png,TOILET,5ed358aab6ee6f2e2885eddf,28/02/94,2020-09-02_13h20.27.591,proactive3.2,2020.1.2,Linux x86_64,60,5f47c0b9b035471e11593a5c,5f4f819717b4c203961f3947,5,,,,,,razor,,,,,,,,,,,6,2,0,7,7,54,1,,,,,,,,,,,,,,,,,,,,,,,,,,,,,,,,,,,,,,,,,,,,,,,,,,,,,,,,,,,,,,,,,,,,,,
,,?,0.003815,0,,,,,,stimuli/images/PICTURE_93.png,GIRL,5ed358aab6ee6f2e2885eddf,28/02/94,2020-09-02_13h20.27.591,proactive3.2,2020.1.2,Linux x86_64,60,5f47c0b9b035471e11593a5c,5f4f819717b4c203961f3947,5,,,,,,skateboard,,,,,,,,,,,4,2,0,8,8,31,1,,,,,,,,,,,,,,,,,,,,,,,,,,,,,,,,,,,,,,,,,,,,,,,,,,,,,,,,,,,,,,,,,,,,,,
