consent_key.keys,consent_key.rt,recalled,recalled_rt,recall_acc,example_recall.thisRepN,example_recall.thisTrialN,example_recall.thisN,example_recall.thisIndex,example_recall.ran,file,word,participant,please enter your date of birth (dd/mm/yyyy),date,expName,psychopyVersion,OS,frameRate,STUDY_ID,SESSION_ID,list,prac_learn_study_loop.thisRepN,prac_learn_study_loop.thisTrialN,prac_learn_study_loop.thisN,prac_learn_study_loop.thisIndex,prac_learn_study_loop.ran,image,prac_learn_test_loop.thisRepN,prac_learn_test_loop.thisTrialN,prac_learn_test_loop.thisN,prac_learn_test_loop.thisIndex,prac_learn_test_loop.ran,learn_study_loop.thisRepN,learn_study_loop.thisTrialN,learn_study_loop.thisN,learn_study_loop.thisIndex,learn_study_loop.ran,list_no,block_no,learn_test_loop.thisRepN,learn_test_loop.thisTrialN,learn_test_loop.thisN,learn_test_loop.thisIndex,learn_test_loop.ran,learn_blocks.thisRepN,learn_blocks.thisTrialN,learn_blocks.thisN,learn_blocks.thisIndex,learn_blocks.ran,block_csv,key_resp_13.keys,key_resp_13.rt,learn_blocks_loop.thisRepN,learn_blocks_loop.thisTrialN,learn_blocks_loop.thisN,learn_blocks_loop.thisIndex,learn_blocks_loop.ran,final_learn_test.thisRepN,final_learn_test.thisTrialN,final_learn_test.thisN,final_learn_test.thisIndex,final_learn_test.ran,prac_wm_test_loop.thisRepN,prac_wm_test_loop.thisTrialN,prac_wm_test_loop.thisN,prac_wm_test_loop.thisIndex,prac_wm_test_loop.ran,wm_recalled1,wm_recall_rt1,wm_probed1,wm_recall_acc1,wm_recalled2,wm_recall_rt2,wm_probed2,wm_recall_acc2,wm_recalled3,wm_recall_rt3,wm_probed3,wm_recall_acc3,wm_recalled4,wm_recall_rt4,wm_probed4,wm_recall_acc4,prac_wm_trial_loop.thisRepN,prac_wm_trial_loop.thisTrialN,prac_wm_trial_loop.thisN,prac_wm_trial_loop.thisIndex,prac_wm_trial_loop.ran,word1,image1,file1,item_type1,word2,image2,file2,item_type2,word4,image4,file4,item_type4,word3,image3,file3,item_type3,wm_test_loop.thisRepN,wm_test_loop.thisTrialN,wm_test_loop.thisN,wm_test_loop.thisIndex,wm_test_loop.ran,wm_trial_loop.thisRepN,wm_trial_loop.thisTrialN,wm_trial_loop.thisN,wm_trial_loop.thisIndex,wm_trial_loop.ran
y,38.18575,TOUGH,3.52674,1,0,0,0,0,1,stimuli/images/PICTURE_747.png,TOUGH,5ed651be42c213062cd3cea3,04/22/1987,2020-08-27_12h30.52.313,proactive3.2,2020.1.2,Win32,60,5f47c0b9b035471e11593a5c,5f47df949b01a622a876751e,2,,,,,,,,,,,,,,,,,,,,,,,,,,,,,,,,,,,,,,,,,,,,,,,,,,,,,,,,,,,,,,,,,,,,,,,,,,,,,,,,,,,,,,,,,,,,,
,,,,,,,,,,stimuli/images/PICTURE_727.png,CELL,5ed651be42c213062cd3cea3,04/22/1987,2020-08-27_12h30.52.313,proactive3.2,2020.1.2,Win32,60,5f47c0b9b035471e11593a5c,5f47df949b01a622a876751e,2,0,0,0,1,1,hose,,,,,,,,,,,,,,,,,,,,,,,,,,,,,,,,,,,,,,,,,,,,,,,,,,,,,,,,,,,,,,,,,,,,,,,,,,,,,,,,,,,,,,,
,,,,,,,,,,stimuli/images/PICTURE_697.png,KILLER,5ed651be42c213062cd3cea3,04/22/1987,2020-08-27_12h30.52.313,proactive3.2,2020.1.2,Win32,60,5f47c0b9b035471e11593a5c,5f47df949b01a622a876751e,2,0,1,1,4,1,peach,,,,,,,,,,,,,,,,,,,,,,,,,,,,,,,,,,,,,,,,,,,,,,,,,,,,,,,,,,,,,,,,,,,,,,,,,,,,,,,,,,,,,,,
,,,,,,,,,,stimuli/images/PICTURE_658.png,DEVIL,5ed651be42c213062cd3cea3,04/22/1987,2020-08-27_12h30.52.313,proactive3.2,2020.1.2,Win32,60,5f47c0b9b035471e11593a5c,5f47df949b01a622a876751e,2,0,2,2,3,1,crow,,,,,,,,,,,,,,,,,,,,,,,,,,,,,,,,,,,,,,,,,,,,,,,,,,,,,,,,,,,,,,,,,,,,,,,,,,,,,,,,,,,,,,,
,,,,,,,,,,stimuli/images/PICTURE_269.png,GENIUS,5ed651be42c213062cd3cea3,04/22/1987,2020-08-27_12h30.52.313,proactive3.2,2020.1.2,Win32,60,5f47c0b9b035471e11593a5c,5f47df949b01a622a876751e,2,0,3,3,0,1,chameleon,,,,,,,,,,,,,,,,,,,,,,,,,,,,,,,,,,,,,,,,,,,,,,,,,,,,,,,,,,,,,,,,,,,,,,,,,,,,,,,,,,,,,,,
,,DEVIL,2.08951,1,,,,,,stimuli/images/PICTURE_658.png,DEVIL,5ed651be42c213062cd3cea3,04/22/1987,2020-08-27_12h30.52.313,proactive3.2,2020.1.2,Win32,60,5f47c0b9b035471e11593a5c,5f47df949b01a622a876751e,2,,,,,,crow,0,0,0,3,1,,,,,,,,,,,,,,,,,,,,,,,,,,,,,,,,,,,,,,,,,,,,,,,,,,,,,,,,,,,,,,,,,,,,,,,,,,,,,,,,,,
,,KILLER,1.4317,1,,,,,,stimuli/images/PICTURE_697.png,KILLER,5ed651be42c213062cd3cea3,04/22/1987,2020-08-27_12h30.52.313,proactive3.2,2020.1.2,Win32,60,5f47c0b9b035471e11593a5c,5f47df949b01a622a876751e,2,,,,,,peach,0,1,1,4,1,,,,,,,,,,,,,,,,,,,,,,,,,,,,,,,,,,,,,,,,,,,,,,,,,,,,,,,,,,,,,,,,,,,,,,,,,,,,,,,,,,
,,GENIUS,2.48238,1,,,,,,stimuli/images/PICTURE_269.png,GENIUS,5ed651be42c213062cd3cea3,04/22/1987,2020-08-27_12h30.52.313,proactive3.2,2020.1.2,Win32,60,5f47c0b9b035471e11593a5c,5f47df949b01a622a876751e,2,,,,,,chameleon,0,2,2,0,1,,,,,,,,,,,,,,,,,,,,,,,,,,,,,,,,,,,,,,,,,,,,,,,,,,,,,,,,,,,,,,,,,,,,,,,,,,,,,,,,,,
,,LOSS,1.24875,1,,,,,,stimuli/images/PICTURE_378.png,LOSS,5ed651be42c213062cd3cea3,04/22/1987,2020-08-27_12h30.52.313,proactive3.2,2020.1.2,Win32,60,5f47c0b9b035471e11593a5c,5f47df949b01a622a876751e,2,,,,,,lobster,0,3,3,2,1,,,,,,,,,,,,,,,,,,,,,,,,,,,,,,,,,,,,,,,,,,,,,,,,,,,,,,,,,,,,,,,,,,,,,,,,,,,,,,,,,,
,,CELL,1.39803,1,,,,,,stimuli/images/PICTURE_727.png,CELL,5ed651be42c213062cd3cea3,04/22/1987,2020-08-27_12h30.52.313,proactive3.2,2020.1.2,Win32,60,5f47c0b9b035471e11593a5c,5f47df949b01a622a876751e,2,,,,,,hose,0,4,4,1,1,,,,,,,,,,,,,,,,,,,,,,,,,,,,,,,,,,,,,,,,,,,,,,,,,,,,,,,,,,,,,,,,,,,,,,,,,,,,,,,,,,
,,,,,,,,,,stimuli/images/PICTURE_667.png,BATH,5ed651be42c213062cd3cea3,04/22/1987,2020-08-27_12h30.52.313,proactive3.2,2020.1.2,Win32,60,5f47c0b9b035471e11593a5c,5f47df949b01a622a876751e,2,,,,,,daisy,,,,,,0,0,0,4,1,1,0,,,,,,,,,,,,,,,,,,,,,,,,,,,,,,,,,,,,,,,,,,,,,,,,,,,,,,,,,,,,,,,,,,,,,,,,,,,
,,,,,,,,,,stimuli/images/PICTURE_453.png,PLENTY,5ed651be42c213062cd3cea3,04/22/1987,2020-08-27_12h30.52.313,proactive3.2,2020.1.2,Win32,60,5f47c0b9b035471e11593a5c,5f47df949b01a622a876751e,2,,,,,,scissors,,,,,,0,1,1,56,1,6,0,,,,,,,,,,,,,,,,,,,,,,,,,,,,,,,,,,,,,,,,,,,,,,,,,,,,,,,,,,,,,,,,,,,,,,,,,,,
,,,,,,,,,,stimuli/images/PICTURE_177.png,CARS,5ed651be42c213062cd3cea3,04/22/1987,2020-08-27_12h30.52.313,proactive3.2,2020.1.2,Win32,60,5f47c0b9b035471e11593a5c,5f47df949b01a622a876751e,2,,,,,,mushroom,,,,,,0,2,2,35,1,4,0,,,,,,,,,,,,,,,,,,,,,,,,,,,,,,,,,,,,,,,,,,,,,,,,,,,,,,,,,,,,,,,,,,,,,,,,,,,
,,,,,,,,,,stimuli/images/PICTURE_147.png,MOMENT,5ed651be42c213062cd3cea3,04/22/1987,2020-08-27_12h30.52.313,proactive3.2,2020.1.2,Win32,60,5f47c0b9b035471e11593a5c,5f47df949b01a622a876751e,2,,,,,,hanger,,,,,,0,3,3,51,1,6,0,,,,,,,,,,,,,,,,,,,,,,,,,,,,,,,,,,,,,,,,,,,,,,,,,,,,,,,,,,,,,,,,,,,,,,,,,,,
,,,,,,,,,,stimuli/images/PICTURE_339.png,PLENTY,5ed651be42c213062cd3cea3,04/22/1987,2020-08-27_12h30.52.313,proactive3.2,2020.1.2,Win32,60,5f47c0b9b035471e11593a5c,5f47df949b01a622a876751e,2,,,,,,backpack,,,,,,0,4,4,0,1,1,0,,,,,,,,,,,,,,,,,,,,,,,,,,,,,,,,,,,,,,,,,,,,,,,,,,,,,,,,,,,,,,,,,,,,,,,,,,,
,,,,,,,,,,stimuli/images/PICTURE_708.png,CLIENT,5ed651be42c213062cd3cea3,04/22/1987,2020-08-27_12h30.52.313,proactive3.2,2020.1.2,Win32,60,5f47c0b9b035471e11593a5c,5f47df949b01a622a876751e,2,,,,,,monkey,,,,,,0,5,5,5,1,1,0,,,,,,,,,,,,,,,,,,,,,,,,,,,,,,,,,,,,,,,,,,,,,,,,,,,,,,,,,,,,,,,,,,,,,,,,,,,
,,,,,,,,,,stimuli/images/PICTURE_208.png,MONTH,5ed651be42c213062cd3cea3,04/22/1987,2020-08-27_12h30.52.313,proactive3.2,2020.1.2,Win32,60,5f47c0b9b035471e11593a5c,5f47df949b01a622a876751e,2,,,,,,microphone,,,,,,0,6,6,53,1,6,0,,,,,,,,,,,,,,,,,,,,,,,,,,,,,,,,,,,,,,,,,,,,,,,,,,,,,,,,,,,,,,,,,,,,,,,,,,,
,,,,,,,,,,stimuli/images/PICTURE_327.png,BEAUTY,5ed651be42c213062cd3cea3,04/22/1987,2020-08-27_12h30.52.313,proactive3.2,2020.1.2,Win32,60,5f47c0b9b035471e11593a5c,5f47df949b01a622a876751e,2,,,,,,helmet,,,,,,0,7,7,48,1,5,0,,,,,,,,,,,,,,,,,,,,,,,,,,,,,,,,,,,,,,,,,,,,,,,,,,,,,,,,,,,,,,,,,,,,,,,,,,,
,,,,,,,,,,stimuli/images/PICTURE_151.png,GIRL,5ed651be42c213062cd3cea3,04/22/1987,2020-08-27_12h30.52.313,proactive3.2,2020.1.2,Win32,60,5f47c0b9b035471e11593a5c,5f47df949b01a622a876751e,2,,,,,,tray,,,,,,0,8,8,19,1,2,0,,,,,,,,,,,,,,,,,,,,,,,,,,,,,,,,,,,,,,,,,,,,,,,,,,,,,,,,,,,,,,,,,,,,,,,,,,,
,,,,,,,,,,stimuli/images/PICTURE_469.png,ARTIST,5ed651be42c213062cd3cea3,04/22/1987,2020-08-27_12h30.52.313,proactive3.2,2020.1.2,Win32,60,5f47c0b9b035471e11593a5c,5f47df949b01a622a876751e,2,,,,,,stool,,,,,,0,9,9,6,1,1,0,,,,,,,,,,,,,,,,,,,,,,,,,,,,,,,,,,,,,,,,,,,,,,,,,,,,,,,,,,,,,,,,,,,,,,,,,,,
,,,,,,,,,,stimuli/images/PICTURE_203.png,ARTIST,5ed651be42c213062cd3cea3,04/22/1987,2020-08-27_12h30.52.313,proactive3.2,2020.1.2,Win32,60,5f47c0b9b035471e11593a5c,5f47df949b01a622a876751e,2,,,,,,cap,,,,,,0,10,10,26,1,3,0,,,,,,,,,,,,,,,,,,,,,,,,,,,,,,,,,,,,,,,,,,,,,,,,,,,,,,,,,,,,,,,,,,,,,,,,,,,
,,,,,,,,,,stimuli/images/PICTURE_233.png,WOMEN,5ed651be42c213062cd3cea3,04/22/1987,2020-08-27_12h30.52.313,proactive3.2,2020.1.2,Win32,60,5f47c0b9b035471e11593a5c,5f47df949b01a622a876751e,2,,,,,,salt,,,,,,0,11,11,38,1,4,0,,,,,,,,,,,,,,,,,,,,,,,,,,,,,,,,,,,,,,,,,,,,,,,,,,,,,,,,,,,,,,,,,,,,,,,,,,,
,,,,,,,,,,stimuli/images/PICTURE_677.png,MILE,5ed651be42c213062cd3cea3,04/22/1987,2020-08-27_12h30.52.313,proactive3.2,2020.1.2,Win32,60,5f47c0b9b035471e11593a5c,5f47df949b01a622a876751e,2,,,,,,map,,,,,,0,12,12,30,1,4,0,,,,,,,,,,,,,,,,,,,,,,,,,,,,,,,,,,,,,,,,,,,,,,,,,,,,,,,,,,,,,,,,,,,,,,,,,,,
,,,,,,,,,,stimuli/images/PICTURE_509.png,PHOTO,5ed651be42c213062cd3cea3,04/22/1987,2020-08-27_12h30.52.313,proactive3.2,2020.1.2,Win32,60,5f47c0b9b035471e11593a5c,5f47df949b01a622a876751e,2,,,,,,telephone,,,,,,0,13,13,21,1,3,0,,,,,,,,,,,,,,,,,,,,,,,,,,,,,,,,,,,,,,,,,,,,,,,,,,,,,,,,,,,,,,,,,,,,,,,,,,,
,,,,,,,,,,stimuli/images/PICTURE_95.png,STYLE,5ed651be42c213062cd3cea3,04/22/1987,2020-08-27_12h30.52.313,proactive3.2,2020.1.2,Win32,60,5f47c0b9b035471e11593a5c,5f47df949b01a622a876751e,2,,,,,,suitcase,,,,,,0,14,14,25,1,3,0,,,,,,,,,,,,,,,,,,,,,,,,,,,,,,,,,,,,,,,,,,,,,,,,,,,,,,,,,,,,,,,,,,,,,,,,,,,
,,,,,,,,,,stimuli/images/PICTURE_32.png,JUNGLE,5ed651be42c213062cd3cea3,04/22/1987,2020-08-27_12h30.52.313,proactive3.2,2020.1.2,Win32,60,5f47c0b9b035471e11593a5c,5f47df949b01a622a876751e,2,,,,,,crown,,,,,,0,15,15,45,1,5,0,,,,,,,,,,,,,,,,,,,,,,,,,,,,,,,,,,,,,,,,,,,,,,,,,,,,,,,,,,,,,,,,,,,,,,,,,,,
,,,,,,,,,,stimuli/images/PICTURE_285.png,ADVICE,5ed651be42c213062cd3cea3,04/22/1987,2020-08-27_12h30.52.313,proactive3.2,2020.1.2,Win32,60,5f47c0b9b035471e11593a5c,5f47df949b01a622a876751e,2,,,,,,carrot,,,,,,0,16,16,12,1,2,0,,,,,,,,,,,,,,,,,,,,,,,,,,,,,,,,,,,,,,,,,,,,,,,,,,,,,,,,,,,,,,,,,,,,,,,,,,,
,,,,,,,,,,stimuli/images/PICTURE_453.png,DUDE,5ed651be42c213062cd3cea3,04/22/1987,2020-08-27_12h30.52.313,proactive3.2,2020.1.2,Win32,60,5f47c0b9b035471e11593a5c,5f47df949b01a622a876751e,2,,,,,,scissors,,,,,,0,17,17,27,1,3,0,,,,,,,,,,,,,,,,,,,,,,,,,,,,,,,,,,,,,,,,,,,,,,,,,,,,,,,,,,,,,,,,,,,,,,,,,,,
,,,,,,,,,,stimuli/images/PICTURE_248.png,DOZEN,5ed651be42c213062cd3cea3,04/22/1987,2020-08-27_12h30.52.313,proactive3.2,2020.1.2,Win32,60,5f47c0b9b035471e11593a5c,5f47df949b01a622a876751e,2,,,,,,cart,,,,,,0,18,18,39,1,4,0,,,,,,,,,,,,,,,,,,,,,,,,,,,,,,,,,,,,,,,,,,,,,,,,,,,,,,,,,,,,,,,,,,,,,,,,,,,
,,,,,,,,,,stimuli/images/PICTURE_68.png,MILE,5ed651be42c213062cd3cea3,04/22/1987,2020-08-27_12h30.52.313,proactive3.2,2020.1.2,Win32,60,5f47c0b9b035471e11593a5c,5f47df949b01a622a876751e,2,,,,,,candle,,,,,,0,19,19,44,1,5,0,,,,,,,,,,,,,,,,,,,,,,,,,,,,,,,,,,,,,,,,,,,,,,,,,,,,,,,,,,,,,,,,,,,,,,,,,,,
,,,,,,,,,,stimuli/images/PICTURE_688.png,CASINO,5ed651be42c213062cd3cea3,04/22/1987,2020-08-27_12h30.52.313,proactive3.2,2020.1.2,Win32,60,5f47c0b9b035471e11593a5c,5f47df949b01a622a876751e,2,,,,,,runner,,,,,,0,20,20,2,1,1,0,,,,,,,,,,,,,,,,,,,,,,,,,,,,,,,,,,,,,,,,,,,,,,,,,,,,,,,,,,,,,,,,,,,,,,,,,,,
,,,,,,,,,,stimuli/images/PICTURE_123.png,ADVICE,5ed651be42c213062cd3cea3,04/22/1987,2020-08-27_12h30.52.313,proactive3.2,2020.1.2,Win32,60,5f47c0b9b035471e11593a5c,5f47df949b01a622a876751e,2,,,,,,dart,,,,,,0,21,21,50,1,6,0,,,,,,,,,,,,,,,,,,,,,,,,,,,,,,,,,,,,,,,,,,,,,,,,,,,,,,,,,,,,,,,,,,,,,,,,,,,
,,,,,,,,,,stimuli/images/PICTURE_469.png,LETTER,5ed651be42c213062cd3cea3,04/22/1987,2020-08-27_12h30.52.313,proactive3.2,2020.1.2,Win32,60,5f47c0b9b035471e11593a5c,5f47df949b01a622a876751e,2,,,,,,stool,,,,,,0,22,22,42,1,5,0,,,,,,,,,,,,,,,,,,,,,,,,,,,,,,,,,,,,,,,,,,,,,,,,,,,,,,,,,,,,,,,,,,,,,,,,,,,
,,,,,,,,,,stimuli/images/PICTURE_160.png,FEET,5ed651be42c213062cd3cea3,04/22/1987,2020-08-27_12h30.52.313,proactive3.2,2020.1.2,Win32,60,5f47c0b9b035471e11593a5c,5f47df949b01a622a876751e,2,,,,,,wheelbarrow,,,,,,0,23,23,58,1,6,0,,,,,,,,,,,,,,,,,,,,,,,,,,,,,,,,,,,,,,,,,,,,,,,,,,,,,,,,,,,,,,,,,,,,,,,,,,,
,,,,,,,,,,stimuli/images/PICTURE_356.png,DANGER,5ed651be42c213062cd3cea3,04/22/1987,2020-08-27_12h30.52.313,proactive3.2,2020.1.2,Win32,60,5f47c0b9b035471e11593a5c,5f47df949b01a622a876751e,2,,,,,,pawn,,,,,,0,24,24,55,1,6,0,,,,,,,,,,,,,,,,,,,,,,,,,,,,,,,,,,,,,,,,,,,,,,,,,,,,,,,,,,,,,,,,,,,,,,,,,,,
,,,,,,,,,,stimuli/images/PICTURE_688.png,WOMEN,5ed651be42c213062cd3cea3,04/22/1987,2020-08-27_12h30.52.313,proactive3.2,2020.1.2,Win32,60,5f47c0b9b035471e11593a5c,5f47df949b01a622a876751e,2,,,,,,runner,,,,,,0,25,25,14,1,2,0,,,,,,,,,,,,,,,,,,,,,,,,,,,,,,,,,,,,,,,,,,,,,,,,,,,,,,,,,,,,,,,,,,,,,,,,,,,
,,,,,,,,,,stimuli/images/PICTURE_504.png,BODY,5ed651be42c213062cd3cea3,04/22/1987,2020-08-27_12h30.52.313,proactive3.2,2020.1.2,Win32,60,5f47c0b9b035471e11593a5c,5f47df949b01a622a876751e,2,,,,,,wheel,,,,,,0,26,26,8,1,1,0,,,,,,,,,,,,,,,,,,,,,,,,,,,,,,,,,,,,,,,,,,,,,,,,,,,,,,,,,,,,,,,,,,,,,,,,,,,
,,,,,,,,,,stimuli/images/PICTURE_449.png,THING,5ed651be42c213062cd3cea3,04/22/1987,2020-08-27_12h30.52.313,proactive3.2,2020.1.2,Win32,60,5f47c0b9b035471e11593a5c,5f47df949b01a622a876751e,2,,,,,,bench,,,,,,0,27,27,59,1,6,0,,,,,,,,,,,,,,,,,,,,,,,,,,,,,,,,,,,,,,,,,,,,,,,,,,,,,,,,,,,,,,,,,,,,,,,,,,,
,,,,,,,,,,stimuli/images/PICTURE_380.png,PHOTO,5ed651be42c213062cd3cea3,04/22/1987,2020-08-27_12h30.52.313,proactive3.2,2020.1.2,Win32,60,5f47c0b9b035471e11593a5c,5f47df949b01a622a876751e,2,,,,,,gorilla,,,,,,0,28,28,52,1,6,0,,,,,,,,,,,,,,,,,,,,,,,,,,,,,,,,,,,,,,,,,,,,,,,,,,,,,,,,,,,,,,,,,,,,,,,,,,,
,,,,,,,,,,stimuli/images/PICTURE_667.png,PLENTY,5ed651be42c213062cd3cea3,04/22/1987,2020-08-27_12h30.52.313,proactive3.2,2020.1.2,Win32,60,5f47c0b9b035471e11593a5c,5f47df949b01a622a876751e,2,,,,,,daisy,,,,,,0,29,29,41,1,5,0,,,,,,,,,,,,,,,,,,,,,,,,,,,,,,,,,,,,,,,,,,,,,,,,,,,,,,,,,,,,,,,,,,,,,,,,,,,
,,,,,,,,,,stimuli/images/PICTURE_208.png,THING,5ed651be42c213062cd3cea3,04/22/1987,2020-08-27_12h30.52.313,proactive3.2,2020.1.2,Win32,60,5f47c0b9b035471e11593a5c,5f47df949b01a622a876751e,2,,,,,,microphone,,,,,,0,30,30,47,1,5,0,,,,,,,,,,,,,,,,,,,,,,,,,,,,,,,,,,,,,,,,,,,,,,,,,,,,,,,,,,,,,,,,,,,,,,,,,,,
,,,,,,,,,,stimuli/images/PICTURE_308.png,KIND,5ed651be42c213062cd3cea3,04/22/1987,2020-08-27_12h30.52.313,proactive3.2,2020.1.2,Win32,60,5f47c0b9b035471e11593a5c,5f47df949b01a622a876751e,2,,,,,,dice,,,,,,0,31,31,54,1,6,0,,,,,,,,,,,,,,,,,,,,,,,,,,,,,,,,,,,,,,,,,,,,,,,,,,,,,,,,,,,,,,,,,,,,,,,,,,,
,,,,,,,,,,stimuli/images/PICTURE_85.png,THING,5ed651be42c213062cd3cea3,04/22/1987,2020-08-27_12h30.52.313,proactive3.2,2020.1.2,Win32,60,5f47c0b9b035471e11593a5c,5f47df949b01a622a876751e,2,,,,,,diamond,,,,,,0,32,32,15,1,2,0,,,,,,,,,,,,,,,,,,,,,,,,,,,,,,,,,,,,,,,,,,,,,,,,,,,,,,,,,,,,,,,,,,,,,,,,,,,
,,,,,,,,,,stimuli/images/PICTURE_233.png,IDEAS,5ed651be42c213062cd3cea3,04/22/1987,2020-08-27_12h30.52.313,proactive3.2,2020.1.2,Win32,60,5f47c0b9b035471e11593a5c,5f47df949b01a622a876751e,2,,,,,,salt,,,,,,0,33,33,28,1,3,0,,,,,,,,,,,,,,,,,,,,,,,,,,,,,,,,,,,,,,,,,,,,,,,,,,,,,,,,,,,,,,,,,,,,,,,,,,,
,,,,,,,,,,stimuli/images/PICTURE_160.png,LEADER,5ed651be42c213062cd3cea3,04/22/1987,2020-08-27_12h30.52.313,proactive3.2,2020.1.2,Win32,60,5f47c0b9b035471e11593a5c,5f47df949b01a622a876751e,2,,,,,,wheelbarrow,,,,,,0,34,34,3,1,1,0,,,,,,,,,,,,,,,,,,,,,,,,,,,,,,,,,,,,,,,,,,,,,,,,,,,,,,,,,,,,,,,,,,,,,,,,,,,
,,,,,,,,,,stimuli/images/PICTURE_692.png,MONTH,5ed651be42c213062cd3cea3,04/22/1987,2020-08-27_12h30.52.313,proactive3.2,2020.1.2,Win32,60,5f47c0b9b035471e11593a5c,5f47df949b01a622a876751e,2,,,,,,cherry,,,,,,0,35,35,16,1,2,0,,,,,,,,,,,,,,,,,,,,,,,,,,,,,,,,,,,,,,,,,,,,,,,,,,,,,,,,,,,,,,,,,,,,,,,,,,,
,,,,,,,,,,stimuli/images/PICTURE_308.png,ESTATE,5ed651be42c213062cd3cea3,04/22/1987,2020-08-27_12h30.52.313,proactive3.2,2020.1.2,Win32,60,5f47c0b9b035471e11593a5c,5f47df949b01a622a876751e,2,,,,,,dice,,,,,,0,36,36,46,1,5,0,,,,,,,,,,,,,,,,,,,,,,,,,,,,,,,,,,,,,,,,,,,,,,,,,,,,,,,,,,,,,,,,,,,,,,,,,,,
,,,,,,,,,,stimuli/images/PICTURE_215.png,PLENTY,5ed651be42c213062cd3cea3,04/22/1987,2020-08-27_12h30.52.313,proactive3.2,2020.1.2,Win32,60,5f47c0b9b035471e11593a5c,5f47df949b01a622a876751e,2,,,,,,boot,,,,,,0,37,37,37,1,4,0,,,,,,,,,,,,,,,,,,,,,,,,,,,,,,,,,,,,,,,,,,,,,,,,,,,,,,,,,,,,,,,,,,,,,,,,,,,
,,,,,,,,,,stimuli/images/PICTURE_491.png,ROOF,5ed651be42c213062cd3cea3,04/22/1987,2020-08-27_12h30.52.313,proactive3.2,2020.1.2,Win32,60,5f47c0b9b035471e11593a5c,5f47df949b01a622a876751e,2,,,,,,rug,,,,,,0,38,38,24,1,3,0,,,,,,,,,,,,,,,,,,,,,,,,,,,,,,,,,,,,,,,,,,,,,,,,,,,,,,,,,,,,,,,,,,,,,,,,,,,
,,,,,,,,,,stimuli/images/PICTURE_491.png,WRITER,5ed651be42c213062cd3cea3,04/22/1987,2020-08-27_12h30.52.313,proactive3.2,2020.1.2,Win32,60,5f47c0b9b035471e11593a5c,5f47df949b01a622a876751e,2,,,,,,rug,,,,,,0,39,39,57,1,6,0,,,,,,,,,,,,,,,,,,,,,,,,,,,,,,,,,,,,,,,,,,,,,,,,,,,,,,,,,,,,,,,,,,,,,,,,,,,
,,,,,,,,,,stimuli/images/PICTURE_255.png,AREA,5ed651be42c213062cd3cea3,04/22/1987,2020-08-27_12h30.52.313,proactive3.2,2020.1.2,Win32,60,5f47c0b9b035471e11593a5c,5f47df949b01a622a876751e,2,,,,,,shovel,,,,,,0,40,40,22,1,3,0,,,,,,,,,,,,,,,,,,,,,,,,,,,,,,,,,,,,,,,,,,,,,,,,,,,,,,,,,,,,,,,,,,,,,,,,,,,
,,,,,,,,,,stimuli/images/PICTURE_654.png,VALLEY,5ed651be42c213062cd3cea3,04/22/1987,2020-08-27_12h30.52.313,proactive3.2,2020.1.2,Win32,60,5f47c0b9b035471e11593a5c,5f47df949b01a622a876751e,2,,,,,,pencil,,,,,,0,41,41,1,1,1,0,,,,,,,,,,,,,,,,,,,,,,,,,,,,,,,,,,,,,,,,,,,,,,,,,,,,,,,,,,,,,,,,,,,,,,,,,,,
,,,,,,,,,,stimuli/images/PICTURE_380.png,DEATH,5ed651be42c213062cd3cea3,04/22/1987,2020-08-27_12h30.52.313,proactive3.2,2020.1.2,Win32,60,5f47c0b9b035471e11593a5c,5f47df949b01a622a876751e,2,,,,,,gorilla,,,,,,0,42,42,49,1,5,0,,,,,,,,,,,,,,,,,,,,,,,,,,,,,,,,,,,,,,,,,,,,,,,,,,,,,,,,,,,,,,,,,,,,,,,,,,,
,,,,,,,,,,stimuli/images/PICTURE_744.png,SYSTEM,5ed651be42c213062cd3cea3,04/22/1987,2020-08-27_12h30.52.313,proactive3.2,2020.1.2,Win32,60,5f47c0b9b035471e11593a5c,5f47df949b01a622a876751e,2,,,,,,ring,,,,,,0,43,43,43,1,5,0,,,,,,,,,,,,,,,,,,,,,,,,,,,,,,,,,,,,,,,,,,,,,,,,,,,,,,,,,,,,,,,,,,,,,,,,,,,
,,,,,,,,,,stimuli/images/PICTURE_708.png,YARD,5ed651be42c213062cd3cea3,04/22/1987,2020-08-27_12h30.52.313,proactive3.2,2020.1.2,Win32,60,5f47c0b9b035471e11593a5c,5f47df949b01a622a876751e,2,,,,,,monkey,,,,,,0,44,44,29,1,3,0,,,,,,,,,,,,,,,,,,,,,,,,,,,,,,,,,,,,,,,,,,,,,,,,,,,,,,,,,,,,,,,,,,,,,,,,,,,
,,,,,,,,,,stimuli/images/PICTURE_467.png,DEMON,5ed651be42c213062cd3cea3,04/22/1987,2020-08-27_12h30.52.313,proactive3.2,2020.1.2,Win32,60,5f47c0b9b035471e11593a5c,5f47df949b01a622a876751e,2,,,,,,peg,,,,,,0,45,45,23,1,3,0,,,,,,,,,,,,,,,,,,,,,,,,,,,,,,,,,,,,,,,,,,,,,,,,,,,,,,,,,,,,,,,,,,,,,,,,,,,
,,,,,,,,,,stimuli/images/PICTURE_311.png,FRIEND,5ed651be42c213062cd3cea3,04/22/1987,2020-08-27_12h30.52.313,proactive3.2,2020.1.2,Win32,60,5f47c0b9b035471e11593a5c,5f47df949b01a622a876751e,2,,,,,,razor,,,,,,0,46,46,34,1,4,0,,,,,,,,,,,,,,,,,,,,,,,,,,,,,,,,,,,,,,,,,,,,,,,,,,,,,,,,,,,,,,,,,,,,,,,,,,,
,,,,,,,,,,stimuli/images/PICTURE_744.png,SAKE,5ed651be42c213062cd3cea3,04/22/1987,2020-08-27_12h30.52.313,proactive3.2,2020.1.2,Win32,60,5f47c0b9b035471e11593a5c,5f47df949b01a622a876751e,2,,,,,,ring,,,,,,0,47,47,17,1,2,0,,,,,,,,,,,,,,,,,,,,,,,,,,,,,,,,,,,,,,,,,,,,,,,,,,,,,,,,,,,,,,,,,,,,,,,,,,,
,,,,,,,,,,stimuli/images/PICTURE_314.png,GODS,5ed651be42c213062cd3cea3,04/22/1987,2020-08-27_12h30.52.313,proactive3.2,2020.1.2,Win32,60,5f47c0b9b035471e11593a5c,5f47df949b01a622a876751e,2,,,,,,perfume,,,,,,0,48,48,11,1,2,0,,,,,,,,,,,,,,,,,,,,,,,,,,,,,,,,,,,,,,,,,,,,,,,,,,,,,,,,,,,,,,,,,,,,,,,,,,,
,,,,,,,,,,stimuli/images/PICTURE_487.png,FLIGHT,5ed651be42c213062cd3cea3,04/22/1987,2020-08-27_12h30.52.313,proactive3.2,2020.1.2,Win32,60,5f47c0b9b035471e11593a5c,5f47df949b01a622a876751e,2,,,,,,basket,,,,,,0,49,49,9,1,1,0,,,,,,,,,,,,,,,,,,,,,,,,,,,,,,,,,,,,,,,,,,,,,,,,,,,,,,,,,,,,,,,,,,,,,,,,,,,
,,,,,,,,,,stimuli/images/PICTURE_302.png,FAMILY,5ed651be42c213062cd3cea3,04/22/1987,2020-08-27_12h30.52.313,proactive3.2,2020.1.2,Win32,60,5f47c0b9b035471e11593a5c,5f47df949b01a622a876751e,2,,,,,,taxi,,,,,,0,50,50,18,1,2,0,,,,,,,,,,,,,,,,,,,,,,,,,,,,,,,,,,,,,,,,,,,,,,,,,,,,,,,,,,,,,,,,,,,,,,,,,,,
,,,,,,,,,,stimuli/images/PICTURE_348.png,SPEECH,5ed651be42c213062cd3cea3,04/22/1987,2020-08-27_12h30.52.313,proactive3.2,2020.1.2,Win32,60,5f47c0b9b035471e11593a5c,5f47df949b01a622a876751e,2,,,,,,pepper,,,,,,0,51,51,20,1,3,0,,,,,,,,,,,,,,,,,,,,,,,,,,,,,,,,,,,,,,,,,,,,,,,,,,,,,,,,,,,,,,,,,,,,,,,,,,,
,,,,,,,,,,stimuli/images/PICTURE_708.png,PENNY,5ed651be42c213062cd3cea3,04/22/1987,2020-08-27_12h30.52.313,proactive3.2,2020.1.2,Win32,60,5f47c0b9b035471e11593a5c,5f47df949b01a622a876751e,2,,,,,,monkey,,,,,,0,52,52,31,1,4,0,,,,,,,,,,,,,,,,,,,,,,,,,,,,,,,,,,,,,,,,,,,,,,,,,,,,,,,,,,,,,,,,,,,,,,,,,,,
,,,,,,,,,,stimuli/images/PICTURE_470.png,CASINO,5ed651be42c213062cd3cea3,04/22/1987,2020-08-27_12h30.52.313,proactive3.2,2020.1.2,Win32,60,5f47c0b9b035471e11593a5c,5f47df949b01a622a876751e,2,,,,,,motorbike,,,,,,0,53,53,36,1,4,0,,,,,,,,,,,,,,,,,,,,,,,,,,,,,,,,,,,,,,,,,,,,,,,,,,,,,,,,,,,,,,,,,,,,,,,,,,,
,,,,,,,,,,stimuli/images/PICTURE_488.png,STYLE,5ed651be42c213062cd3cea3,04/22/1987,2020-08-27_12h30.52.313,proactive3.2,2020.1.2,Win32,60,5f47c0b9b035471e11593a5c,5f47df949b01a622a876751e,2,,,,,,sun,,,,,,0,54,54,33,1,4,0,,,,,,,,,,,,,,,,,,,,,,,,,,,,,,,,,,,,,,,,,,,,,,,,,,,,,,,,,,,,,,,,,,,,,,,,,,,
,,,,,,,,,,stimuli/images/PICTURE_311.png,BEAUTY,5ed651be42c213062cd3cea3,04/22/1987,2020-08-27_12h30.52.313,proactive3.2,2020.1.2,Win32,60,5f47c0b9b035471e11593a5c,5f47df949b01a622a876751e,2,,,,,,razor,,,,,,0,55,55,13,1,2,0,,,,,,,,,,,,,,,,,,,,,,,,,,,,,,,,,,,,,,,,,,,,,,,,,,,,,,,,,,,,,,,,,,,,,,,,,,,
,,,,,,,,,,stimuli/images/PICTURE_675.png,WEAPON,5ed651be42c213062cd3cea3,04/22/1987,2020-08-27_12h30.52.313,proactive3.2,2020.1.2,Win32,60,5f47c0b9b035471e11593a5c,5f47df949b01a622a876751e,2,,,,,,windmill,,,,,,0,56,56,32,1,4,0,,,,,,,,,,,,,,,,,,,,,,,,,,,,,,,,,,,,,,,,,,,,,,,,,,,,,,,,,,,,,,,,,,,,,,,,,,,
,,,,,,,,,,stimuli/images/PICTURE_208.png,LOTS,5ed651be42c213062cd3cea3,04/22/1987,2020-08-27_12h30.52.313,proactive3.2,2020.1.2,Win32,60,5f47c0b9b035471e11593a5c,5f47df949b01a622a876751e,2,,,,,,microphone,,,,,,0,57,57,10,1,2,0,,,,,,,,,,,,,,,,,,,,,,,,,,,,,,,,,,,,,,,,,,,,,,,,,,,,,,,,,,,,,,,,,,,,,,,,,,,
,,,,,,,,,,stimuli/images/PICTURE_314.png,SAKE,5ed651be42c213062cd3cea3,04/22/1987,2020-08-27_12h30.52.313,proactive3.2,2020.1.2,Win32,60,5f47c0b9b035471e11593a5c,5f47df949b01a622a876751e,2,,,,,,perfume,,,,,,0,58,58,7,1,1,0,,,,,,,,,,,,,,,,,,,,,,,,,,,,,,,,,,,,,,,,,,,,,,,,,,,,,,,,,,,,,,,,,,,,,,,,,,,
,,?,0.001425,0,,,,,,stimuli/images/PICTURE_470.png,CASINO,5ed651be42c213062cd3cea3,04/22/1987,2020-08-27_12h30.52.313,proactive3.2,2020.1.2,Win32,60,5f47c0b9b035471e11593a5c,5f47df949b01a622a876751e,2,,,,,,motorbike,,,,,,,,,,,4,0,0,0,0,36,1,,,,,,,,,,,,,,,,,,,,,,,,,,,,,,,,,,,,,,,,,,,,,,,,,,,,,,,,,,,,,,,,,,,,,,
,,?,0.003255,0,,,,,,stimuli/images/PICTURE_314.png,SAKE,5ed651be42c213062cd3cea3,04/22/1987,2020-08-27_12h30.52.313,proactive3.2,2020.1.2,Win32,60,5f47c0b9b035471e11593a5c,5f47df949b01a622a876751e,2,,,,,,perfume,,,,,,,,,,,1,0,0,1,1,7,1,,,,,,,,,,,,,,,,,,,,,,,,,,,,,,,,,,,,,,,,,,,,,,,,,,,,,,,,,,,,,,,,,,,,,,
,,?,0.00086,0,,,,,,stimuli/images/PICTURE_311.png,FRIEND,5ed651be42c213062cd3cea3,04/22/1987,2020-08-27_12h30.52.313,proactive3.2,2020.1.2,Win32,60,5f47c0b9b035471e11593a5c,5f47df949b01a622a876751e,2,,,,,,razor,,,,,,,,,,,4,0,0,2,2,34,1,,,,,,,,,,,,,,,,,,,,,,,,,,,,,,,,,,,,,,,,,,,,,,,,,,,,,,,,,,,,,,,,,,,,,,
,,?,0.000895,0,,,,,,stimuli/images/PICTURE_491.png,ROOF,5ed651be42c213062cd3cea3,04/22/1987,2020-08-27_12h30.52.313,proactive3.2,2020.1.2,Win32,60,5f47c0b9b035471e11593a5c,5f47df949b01a622a876751e,2,,,,,,rug,,,,,,,,,,,3,0,0,3,3,24,1,,,,,,,,,,,,,,,,,,,,,,,,,,,,,,,,,,,,,,,,,,,,,,,,,,,,,,,,,,,,,,,,,,,,,,
,,?,0.00214,0,,,,,,stimuli/images/PICTURE_308.png,ESTATE,5ed651be42c213062cd3cea3,04/22/1987,2020-08-27_12h30.52.313,proactive3.2,2020.1.2,Win32,60,5f47c0b9b035471e11593a5c,5f47df949b01a622a876751e,2,,,,,,dice,,,,,,,,,,,5,0,0,4,4,46,1,,,,,,,,,,,,,,,,,,,,,,,,,,,,,,,,,,,,,,,,,,,,,,,,,,,,,,,,,,,,,,,,,,,,,,
,,?,0.00085,0,,,,,,stimuli/images/PICTURE_208.png,MONTH,5ed651be42c213062cd3cea3,04/22/1987,2020-08-27_12h30.52.313,proactive3.2,2020.1.2,Win32,60,5f47c0b9b035471e11593a5c,5f47df949b01a622a876751e,2,,,,,,microphone,,,,,,,,,,,6,0,0,5,5,53,1,,,,,,,,,,,,,,,,,,,,,,,,,,,,,,,,,,,,,,,,,,,,,,,,,,,,,,,,,,,,,,,,,,,,,,
,,?,0.000665,0,,,,,,stimuli/images/PICTURE_449.png,THING,5ed651be42c213062cd3cea3,04/22/1987,2020-08-27_12h30.52.313,proactive3.2,2020.1.2,Win32,60,5f47c0b9b035471e11593a5c,5f47df949b01a622a876751e,2,,,,,,bench,,,,,,,,,,,6,0,0,6,6,59,1,,,,,,,,,,,,,,,,,,,,,,,,,,,,,,,,,,,,,,,,,,,,,,,,,,,,,,,,,,,,,,,,,,,,,,
,,?,0.00081,0,,,,,,stimuli/images/PICTURE_667.png,PLENTY,5ed651be42c213062cd3cea3,04/22/1987,2020-08-27_12h30.52.313,proactive3.2,2020.1.2,Win32,60,5f47c0b9b035471e11593a5c,5f47df949b01a622a876751e,2,,,,,,daisy,,,,,,,,,,,5,0,0,7,7,41,1,,,,,,,,,,,,,,,,,,,,,,,,,,,,,,,,,,,,,,,,,,,,,,,,,,,,,,,,,,,,,,,,,,,,,,
,,MONTH,1.428285,1,,,,,,stimuli/images/PICTURE_692.png,MONTH,5ed651be42c213062cd3cea3,04/22/1987,2020-08-27_12h30.52.313,proactive3.2,2020.1.2,Win32,60,5f47c0b9b035471e11593a5c,5f47df949b01a622a876751e,2,,,,,,cherry,,,,,,,,,,,2,0,0,8,8,16,1,,,,,,,,,,,,,,,,,,,,,,,,,,,,,,,,,,,,,,,,,,,,,,,,,,,,,,,,,,,,,,,,,,,,,,
,,?,0.003515,0,,,,,,stimuli/images/PICTURE_688.png,CASINO,5ed651be42c213062cd3cea3,04/22/1987,2020-08-27_12h30.52.313,proactive3.2,2020.1.2,Win32,60,5f47c0b9b035471e11593a5c,5f47df949b01a622a876751e,2,,,,,,runner,,,,,,,,,,,1,0,0,9,9,2,1,,,,,,,,,,,,,,,,,,,,,,,,,,,,,,,,,,,,,,,,,,,,,,,,,,,,,,,,,,,,,,,,,,,,,,
,,?,0.0019,0,,,,,,stimuli/images/PICTURE_327.png,BEAUTY,5ed651be42c213062cd3cea3,04/22/1987,2020-08-27_12h30.52.313,proactive3.2,2020.1.2,Win32,60,5f47c0b9b035471e11593a5c,5f47df949b01a622a876751e,2,,,,,,helmet,,,,,,,,,,,5,0,0,10,10,48,1,,,,,,,,,,,,,,,,,,,,,,,,,,,,,,,,,,,,,,,,,,,,,,,,,,,,,,,,,,,,,,,,,,,,,,
,,?,0.001985,0,,,,,,stimuli/images/PICTURE_255.png,AREA,5ed651be42c213062cd3cea3,04/22/1987,2020-08-27_12h30.52.313,proactive3.2,2020.1.2,Win32,60,5f47c0b9b035471e11593a5c,5f47df949b01a622a876751e,2,,,,,,shovel,,,,,,,,,,,3,0,0,11,11,22,1,,,,,,,,,,,,,,,,,,,,,,,,,,,,,,,,,,,,,,,,,,,,,,,,,,,,,,,,,,,,,,,,,,,,,,
,,?,0.00195,0,,,,,,stimuli/images/PICTURE_68.png,MILE,5ed651be42c213062cd3cea3,04/22/1987,2020-08-27_12h30.52.313,proactive3.2,2020.1.2,Win32,60,5f47c0b9b035471e11593a5c,5f47df949b01a622a876751e,2,,,,,,candle,,,,,,,,,,,5,0,0,12,12,44,1,,,,,,,,,,,,,,,,,,,,,,,,,,,,,,,,,,,,,,,,,,,,,,,,,,,,,,,,,,,,,,,,,,,,,,
,,LOTS,1.42601,1,,,,,,stimuli/images/PICTURE_208.png,LOTS,5ed651be42c213062cd3cea3,04/22/1987,2020-08-27_12h30.52.313,proactive3.2,2020.1.2,Win32,60,5f47c0b9b035471e11593a5c,5f47df949b01a622a876751e,2,,,,,,microphone,,,,,,,,,,,2,0,0,13,13,10,1,,,,,,,,,,,,,,,,,,,,,,,,,,,,,,,,,,,,,,,,,,,,,,,,,,,,,,,,,,,,,,,,,,,,,,
,,?,0.004205,0,,,,,,stimuli/images/PICTURE_469.png,ARTIST,5ed651be42c213062cd3cea3,04/22/1987,2020-08-27_12h30.52.313,proactive3.2,2020.1.2,Win32,60,5f47c0b9b035471e11593a5c,5f47df949b01a622a876751e,2,,,,,,stool,,,,,,,,,,,1,0,0,14,14,6,1,,,,,,,,,,,,,,,,,,,,,,,,,,,,,,,,,,,,,,,,,,,,,,,,,,,,,,,,,,,,,,,,,,,,,,
,,?,0.00091,0,,,,,,stimuli/images/PICTURE_504.png,BODY,5ed651be42c213062cd3cea3,04/22/1987,2020-08-27_12h30.52.313,proactive3.2,2020.1.2,Win32,60,5f47c0b9b035471e11593a5c,5f47df949b01a622a876751e,2,,,,,,wheel,,,,,,,,,,,1,0,0,15,15,8,1,,,,,,,,,,,,,,,,,,,,,,,,,,,,,,,,,,,,,,,,,,,,,,,,,,,,,,,,,,,,,,,,,,,,,,
,,?,0.000885,0,,,,,,stimuli/images/PICTURE_488.png,STYLE,5ed651be42c213062cd3cea3,04/22/1987,2020-08-27_12h30.52.313,proactive3.2,2020.1.2,Win32,60,5f47c0b9b035471e11593a5c,5f47df949b01a622a876751e,2,,,,,,sun,,,,,,,,,,,4,0,0,16,16,33,1,,,,,,,,,,,,,,,,,,,,,,,,,,,,,,,,,,,,,,,,,,,,,,,,,,,,,,,,,,,,,,,,,,,,,,
,,?,0.00097,0,,,,,,stimuli/images/PICTURE_248.png,DOZEN,5ed651be42c213062cd3cea3,04/22/1987,2020-08-27_12h30.52.313,proactive3.2,2020.1.2,Win32,60,5f47c0b9b035471e11593a5c,5f47df949b01a622a876751e,2,,,,,,cart,,,,,,,,,,,4,0,0,17,17,39,1,,,,,,,,,,,,,,,,,,,,,,,,,,,,,,,,,,,,,,,,,,,,,,,,,,,,,,,,,,,,,,,,,,,,,,
,,?,0.00085,0,,,,,,stimuli/images/PICTURE_160.png,LEADER,5ed651be42c213062cd3cea3,04/22/1987,2020-08-27_12h30.52.313,proactive3.2,2020.1.2,Win32,60,5f47c0b9b035471e11593a5c,5f47df949b01a622a876751e,2,,,,,,wheelbarrow,,,,,,,,,,,1,0,0,18,18,3,1,,,,,,,,,,,,,,,,,,,,,,,,,,,,,,,,,,,,,,,,,,,,,,,,,,,,,,,,,,,,,,,,,,,,,,
,,FAMILY,1.883035,1,,,,,,stimuli/images/PICTURE_302.png,FAMILY,5ed651be42c213062cd3cea3,04/22/1987,2020-08-27_12h30.52.313,proactive3.2,2020.1.2,Win32,60,5f47c0b9b035471e11593a5c,5f47df949b01a622a876751e,2,,,,,,taxi,,,,,,,,,,,2,0,0,19,19,18,1,,,,,,,,,,,,,,,,,,,,,,,,,,,,,,,,,,,,,,,,,,,,,,,,,,,,,,,,,,,,,,,,,,,,,,
,,?,0.00299,0,,,,,,stimuli/images/PICTURE_675.png,WEAPON,5ed651be42c213062cd3cea3,04/22/1987,2020-08-27_12h30.52.313,proactive3.2,2020.1.2,Win32,60,5f47c0b9b035471e11593a5c,5f47df949b01a622a876751e,2,,,,,,windmill,,,,,,,,,,,4,0,0,20,20,32,1,,,,,,,,,,,,,,,,,,,,,,,,,,,,,,,,,,,,,,,,,,,,,,,,,,,,,,,,,,,,,,,,,,,,,,
,,?,0.00133,0,,,,,,stimuli/images/PICTURE_95.png,STYLE,5ed651be42c213062cd3cea3,04/22/1987,2020-08-27_12h30.52.313,proactive3.2,2020.1.2,Win32,60,5f47c0b9b035471e11593a5c,5f47df949b01a622a876751e,2,,,,,,suitcase,,,,,,,,,,,3,0,0,21,21,25,1,,,,,,,,,,,,,,,,,,,,,,,,,,,,,,,,,,,,,,,,,,,,,,,,,,,,,,,,,,,,,,,,,,,,,,
,,BEAUTY,3.1876,1,,,,,,stimuli/images/PICTURE_311.png,BEAUTY,5ed651be42c213062cd3cea3,04/22/1987,2020-08-27_12h30.52.313,proactive3.2,2020.1.2,Win32,60,5f47c0b9b035471e11593a5c,5f47df949b01a622a876751e,2,,,,,,razor,,,,,,,,,,,2,0,0,22,22,13,1,,,,,,,,,,,,,,,,,,,,,,,,,,,,,,,,,,,,,,,,,,,,,,,,,,,,,,,,,,,,,,,,,,,,,,
,,?,0.002325,0,,,,,,stimuli/images/PICTURE_667.png,BATH,5ed651be42c213062cd3cea3,04/22/1987,2020-08-27_12h30.52.313,proactive3.2,2020.1.2,Win32,60,5f47c0b9b035471e11593a5c,5f47df949b01a622a876751e,2,,,,,,daisy,,,,,,,,,,,1,0,0,23,23,4,1,,,,,,,,,,,,,,,,,,,,,,,,,,,,,,,,,,,,,,,,,,,,,,,,,,,,,,,,,,,,,,,,,,,,,,
,,ADVICE,1.991825,1,,,,,,stimuli/images/PICTURE_285.png,ADVICE,5ed651be42c213062cd3cea3,04/22/1987,2020-08-27_12h30.52.313,proactive3.2,2020.1.2,Win32,60,5f47c0b9b035471e11593a5c,5f47df949b01a622a876751e,2,,,,,,carrot,,,,,,,,,,,2,0,0,24,24,12,1,,,,,,,,,,,,,,,,,,,,,,,,,,,,,,,,,,,,,,,,,,,,,,,,,,,,,,,,,,,,,,,,,,,,,,
,,?,0.00263,0,,,,,,stimuli/images/PICTURE_744.png,SYSTEM,5ed651be42c213062cd3cea3,04/22/1987,2020-08-27_12h30.52.313,proactive3.2,2020.1.2,Win32,60,5f47c0b9b035471e11593a5c,5f47df949b01a622a876751e,2,,,,,,ring,,,,,,,,,,,5,0,0,25,25,43,1,,,,,,,,,,,,,,,,,,,,,,,,,,,,,,,,,,,,,,,,,,,,,,,,,,,,,,,,,,,,,,,,,,,,,,
,,?,0.001275,0,,,,,,stimuli/images/PICTURE_233.png,WOMEN,5ed651be42c213062cd3cea3,04/22/1987,2020-08-27_12h30.52.313,proactive3.2,2020.1.2,Win32,60,5f47c0b9b035471e11593a5c,5f47df949b01a622a876751e,2,,,,,,salt,,,,,,,,,,,4,0,0,26,26,38,1,,,,,,,,,,,,,,,,,,,,,,,,,,,,,,,,,,,,,,,,,,,,,,,,,,,,,,,,,,,,,,,,,,,,,,
,,?,0.003395,0,,,,,,stimuli/images/PICTURE_147.png,MOMENT,5ed651be42c213062cd3cea3,04/22/1987,2020-08-27_12h30.52.313,proactive3.2,2020.1.2,Win32,60,5f47c0b9b035471e11593a5c,5f47df949b01a622a876751e,2,,,,,,hanger,,,,,,,,,,,6,0,0,27,27,51,1,,,,,,,,,,,,,,,,,,,,,,,,,,,,,,,,,,,,,,,,,,,,,,,,,,,,,,,,,,,,,,,,,,,,,,
,,?,0.00267,0,,,,,,stimuli/images/PICTURE_708.png,YARD,5ed651be42c213062cd3cea3,04/22/1987,2020-08-27_12h30.52.313,proactive3.2,2020.1.2,Win32,60,5f47c0b9b035471e11593a5c,5f47df949b01a622a876751e,2,,,,,,monkey,,,,,,,,,,,3,0,0,28,28,29,1,,,,,,,,,,,,,,,,,,,,,,,,,,,,,,,,,,,,,,,,,,,,,,,,,,,,,,,,,,,,,,,,,,,,,,
,,?,0.00109,0,,,,,,stimuli/images/PICTURE_356.png,DANGER,5ed651be42c213062cd3cea3,04/22/1987,2020-08-27_12h30.52.313,proactive3.2,2020.1.2,Win32,60,5f47c0b9b035471e11593a5c,5f47df949b01a622a876751e,2,,,,,,pawn,,,,,,,,,,,6,0,0,29,29,55,1,,,,,,,,,,,,,,,,,,,,,,,,,,,,,,,,,,,,,,,,,,,,,,,,,,,,,,,,,,,,,,,,,,,,,,
,,?,0.00068,0,,,,,,stimuli/images/PICTURE_32.png,JUNGLE,5ed651be42c213062cd3cea3,04/22/1987,2020-08-27_12h30.52.313,proactive3.2,2020.1.2,Win32,60,5f47c0b9b035471e11593a5c,5f47df949b01a622a876751e,2,,,,,,crown,,,,,,,,,,,5,0,0,30,30,45,1,,,,,,,,,,,,,,,,,,,,,,,,,,,,,,,,,,,,,,,,,,,,,,,,,,,,,,,,,,,,,,,,,,,,,,
,,?,0.00069,0,,,,,,stimuli/images/PICTURE_123.png,ADVICE,5ed651be42c213062cd3cea3,04/22/1987,2020-08-27_12h30.52.313,proactive3.2,2020.1.2,Win32,60,5f47c0b9b035471e11593a5c,5f47df949b01a622a876751e,2,,,,,,dart,,,,,,,,,,,5,0,0,31,31,40,1,,,,,,,,,,,,,,,,,,,,,,,,,,,,,,,,,,,,,,,,,,,,,,,,,,,,,,,,,,,,,,,,,,,,,,
,,?,0.000685,0,,,,,,stimuli/images/PICTURE_509.png,PHOTO,5ed651be42c213062cd3cea3,04/22/1987,2020-08-27_12h30.52.313,proactive3.2,2020.1.2,Win32,60,5f47c0b9b035471e11593a5c,5f47df949b01a622a876751e,2,,,,,,telephone,,,,,,,,,,,3,0,0,32,32,21,1,,,,,,,,,,,,,,,,,,,,,,,,,,,,,,,,,,,,,,,,,,,,,,,,,,,,,,,,,,,,,,,,,,,,,,
,,SAKE,1.252105,1,,,,,,stimuli/images/PICTURE_744.png,SAKE,5ed651be42c213062cd3cea3,04/22/1987,2020-08-27_12h30.52.313,proactive3.2,2020.1.2,Win32,60,5f47c0b9b035471e11593a5c,5f47df949b01a622a876751e,2,,,,,,ring,,,,,,,,,,,2,0,0,33,33,17,1,,,,,,,,,,,,,,,,,,,,,,,,,,,,,,,,,,,,,,,,,,,,,,,,,,,,,,,,,,,,,,,,,,,,,,
,,?,0.00244,0,,,,,,stimuli/images/PICTURE_467.png,DEMON,5ed651be42c213062cd3cea3,04/22/1987,2020-08-27_12h30.52.313,proactive3.2,2020.1.2,Win32,60,5f47c0b9b035471e11593a5c,5f47df949b01a622a876751e,2,,,,,,peg,,,,,,,,,,,3,0,0,34,34,23,1,,,,,,,,,,,,,,,,,,,,,,,,,,,,,,,,,,,,,,,,,,,,,,,,,,,,,,,,,,,,,,,,,,,,,,
,,?,0.00118,0,,,,,,stimuli/images/PICTURE_708.png,CLIENT,5ed651be42c213062cd3cea3,04/22/1987,2020-08-27_12h30.52.313,proactive3.2,2020.1.2,Win32,60,5f47c0b9b035471e11593a5c,5f47df949b01a622a876751e,2,,,,,,monkey,,,,,,,,,,,1,0,0,35,35,5,1,,,,,,,,,,,,,,,,,,,,,,,,,,,,,,,,,,,,,,,,,,,,,,,,,,,,,,,,,,,,,,,,,,,,,,
,,?,0.001055,0,,,,,,stimuli/images/PICTURE_469.png,LETTER,5ed651be42c213062cd3cea3,04/22/1987,2020-08-27_12h30.52.313,proactive3.2,2020.1.2,Win32,60,5f47c0b9b035471e11593a5c,5f47df949b01a622a876751e,2,,,,,,stool,,,,,,,,,,,5,0,0,36,36,42,1,,,,,,,,,,,,,,,,,,,,,,,,,,,,,,,,,,,,,,,,,,,,,,,,,,,,,,,,,,,,,,,,,,,,,,
,,?,0.001055,0,,,,,,stimuli/images/PICTURE_677.png,MILE,5ed651be42c213062cd3cea3,04/22/1987,2020-08-27_12h30.52.313,proactive3.2,2020.1.2,Win32,60,5f47c0b9b035471e11593a5c,5f47df949b01a622a876751e,2,,,,,,map,,,,,,,,,,,4,0,0,37,37,30,1,,,,,,,,,,,,,,,,,,,,,,,,,,,,,,,,,,,,,,,,,,,,,,,,,,,,,,,,,,,,,,,,,,,,,,
,,?,0.00104,0,,,,,,stimuli/images/PICTURE_487.png,FLIGHT,5ed651be42c213062cd3cea3,04/22/1987,2020-08-27_12h30.52.313,proactive3.2,2020.1.2,Win32,60,5f47c0b9b035471e11593a5c,5f47df949b01a622a876751e,2,,,,,,basket,,,,,,,,,,,1,0,0,38,38,9,1,,,,,,,,,,,,,,,,,,,,,,,,,,,,,,,,,,,,,,,,,,,,,,,,,,,,,,,,,,,,,,,,,,,,,,
,,?,0.000915,0,,,,,,stimuli/images/PICTURE_215.png,PLENTY,5ed651be42c213062cd3cea3,04/22/1987,2020-08-27_12h30.52.313,proactive3.2,2020.1.2,Win32,60,5f47c0b9b035471e11593a5c,5f47df949b01a622a876751e,2,,,,,,boot,,,,,,,,,,,4,0,0,39,39,37,1,,,,,,,,,,,,,,,,,,,,,,,,,,,,,,,,,,,,,,,,,,,,,,,,,,,,,,,,,,,,,,,,,,,,,,
,,?,0.0009,0,,,,,,stimuli/images/PICTURE_708.png,PENNY,5ed651be42c213062cd3cea3,04/22/1987,2020-08-27_12h30.52.313,proactive3.2,2020.1.2,Win32,60,5f47c0b9b035471e11593a5c,5f47df949b01a622a876751e,2,,,,,,monkey,,,,,,,,,,,4,0,0,40,40,31,1,,,,,,,,,,,,,,,,,,,,,,,,,,,,,,,,,,,,,,,,,,,,,,,,,,,,,,,,,,,,,,,,,,,,,,
,,?,0.000665,0,,,,,,stimuli/images/PICTURE_208.png,THING,5ed651be42c213062cd3cea3,04/22/1987,2020-08-27_12h30.52.313,proactive3.2,2020.1.2,Win32,60,5f47c0b9b035471e11593a5c,5f47df949b01a622a876751e,2,,,,,,microphone,,,,,,,,,,,5,0,0,41,41,47,1,,,,,,,,,,,,,,,,,,,,,,,,,,,,,,,,,,,,,,,,,,,,,,,,,,,,,,,,,,,,,,,,,,,,,,
,,?,0.000665,0,,,,,,stimuli/images/PICTURE_453.png,DUDE,5ed651be42c213062cd3cea3,04/22/1987,2020-08-27_12h30.52.313,proactive3.2,2020.1.2,Win32,60,5f47c0b9b035471e11593a5c,5f47df949b01a622a876751e,2,,,,,,scissors,,,,,,,,,,,3,0,0,42,42,27,1,,,,,,,,,,,,,,,,,,,,,,,,,,,,,,,,,,,,,,,,,,,,,,,,,,,,,,,,,,,,,,,,,,,,,,
,,GIRL,6.9896,1,,,,,,stimuli/images/PICTURE_151.png,GIRL,5ed651be42c213062cd3cea3,04/22/1987,2020-08-27_12h30.52.313,proactive3.2,2020.1.2,Win32,60,5f47c0b9b035471e11593a5c,5f47df949b01a622a876751e,2,,,,,,tray,,,,,,,,,,,2,0,0,43,43,19,1,,,,,,,,,,,,,,,,,,,,,,,,,,,,,,,,,,,,,,,,,,,,,,,,,,,,,,,,,,,,,,,,,,,,,,
,,?,0.002695,0,,,,,,stimuli/images/PICTURE_177.png,CARS,5ed651be42c213062cd3cea3,04/22/1987,2020-08-27_12h30.52.313,proactive3.2,2020.1.2,Win32,60,5f47c0b9b035471e11593a5c,5f47df949b01a622a876751e,2,,,,,,mushroom,,,,,,,,,,,4,0,0,44,44,35,1,,,,,,,,,,,,,,,,,,,,,,,,,,,,,,,,,,,,,,,,,,,,,,,,,,,,,,,,,,,,,,,,,,,,,,
,,?,0.00097,0,,,,,,stimuli/images/PICTURE_348.png,SPEECH,5ed651be42c213062cd3cea3,04/22/1987,2020-08-27_12h30.52.313,proactive3.2,2020.1.2,Win32,60,5f47c0b9b035471e11593a5c,5f47df949b01a622a876751e,2,,,,,,pepper,,,,,,,,,,,3,0,0,45,45,20,1,,,,,,,,,,,,,,,,,,,,,,,,,,,,,,,,,,,,,,,,,,,,,,,,,,,,,,,,,,,,,,,,,,,,,,
,,?,0.000895,0,,,,,,stimuli/images/PICTURE_453.png,PLENTY,5ed651be42c213062cd3cea3,04/22/1987,2020-08-27_12h30.52.313,proactive3.2,2020.1.2,Win32,60,5f47c0b9b035471e11593a5c,5f47df949b01a622a876751e,2,,,,,,scissors,,,,,,,,,,,6,0,0,46,46,56,1,,,,,,,,,,,,,,,,,,,,,,,,,,,,,,,,,,,,,,,,,,,,,,,,,,,,,,,,,,,,,,,,,,,,,,
,,?,0.00091,0,,,,,,stimuli/images/PICTURE_233.png,IDEAS,5ed651be42c213062cd3cea3,04/22/1987,2020-08-27_12h30.52.313,proactive3.2,2020.1.2,Win32,60,5f47c0b9b035471e11593a5c,5f47df949b01a622a876751e,2,,,,,,salt,,,,,,,,,,,3,0,0,47,47,28,1,,,,,,,,,,,,,,,,,,,,,,,,,,,,,,,,,,,,,,,,,,,,,,,,,,,,,,,,,,,,,,,,,,,,,,
,,WOMAN,1.202755,0,,,,,,stimuli/images/PICTURE_688.png,WOMEN,5ed651be42c213062cd3cea3,04/22/1987,2020-08-27_12h30.52.313,proactive3.2,2020.1.2,Win32,60,5f47c0b9b035471e11593a5c,5f47df949b01a622a876751e,2,,,,,,runner,,,,,,,,,,,2,0,0,48,48,14,1,,,,,,,,,,,,,,,,,,,,,,,,,,,,,,,,,,,,,,,,,,,,,,,,,,,,,,,,,,,,,,,,,,,,,,
,,?,0.004145,0,,,,,,stimuli/images/PICTURE_380.png,DEATH,5ed651be42c213062cd3cea3,04/22/1987,2020-08-27_12h30.52.313,proactive3.2,2020.1.2,Win32,60,5f47c0b9b035471e11593a5c,5f47df949b01a622a876751e,2,,,,,,gorilla,,,,,,,,,,,5,0,0,49,49,49,1,,,,,,,,,,,,,,,,,,,,,,,,,,,,,,,,,,,,,,,,,,,,,,,,,,,,,,,,,,,,,,,,,,,,,,
,,?,0.001805,0,,,,,,stimuli/images/PICTURE_160.png,FEET,5ed651be42c213062cd3cea3,04/22/1987,2020-08-27_12h30.52.313,proactive3.2,2020.1.2,Win32,60,5f47c0b9b035471e11593a5c,5f47df949b01a622a876751e,2,,,,,,wheelbarrow,,,,,,,,,,,6,0,0,50,50,58,1,,,,,,,,,,,,,,,,,,,,,,,,,,,,,,,,,,,,,,,,,,,,,,,,,,,,,,,,,,,,,,,,,,,,,,
,,GLOSS,13.8472,0,,,,,,stimuli/images/PICTURE_314.png,GODS,5ed651be42c213062cd3cea3,04/22/1987,2020-08-27_12h30.52.313,proactive3.2,2020.1.2,Win32,60,5f47c0b9b035471e11593a5c,5f47df949b01a622a876751e,2,,,,,,perfume,,,,,,,,,,,2,0,0,51,51,11,1,,,,,,,,,,,,,,,,,,,,,,,,,,,,,,,,,,,,,,,,,,,,,,,,,,,,,,,,,,,,,,,,,,,,,,
,,THING,1.46548,1,,,,,,stimuli/images/PICTURE_85.png,THING,5ed651be42c213062cd3cea3,04/22/1987,2020-08-27_12h30.52.313,proactive3.2,2020.1.2,Win32,60,5f47c0b9b035471e11593a5c,5f47df949b01a622a876751e,2,,,,,,diamond,,,,,,,,,,,2,0,0,52,52,15,1,,,,,,,,,,,,,,,,,,,,,,,,,,,,,,,,,,,,,,,,,,,,,,,,,,,,,,,,,,,,,,,,,,,,,,
,,?,0.00352,0,,,,,,stimuli/images/PICTURE_491.png,WRITER,5ed651be42c213062cd3cea3,04/22/1987,2020-08-27_12h30.52.313,proactive3.2,2020.1.2,Win32,60,5f47c0b9b035471e11593a5c,5f47df949b01a622a876751e,2,,,,,,rug,,,,,,,,,,,6,0,0,53,53,57,1,,,,,,,,,,,,,,,,,,,,,,,,,,,,,,,,,,,,,,,,,,,,,,,,,,,,,,,,,,,,,,,,,,,,,,
,,?,0.00152,0,,,,,,stimuli/images/PICTURE_339.png,PLENTY,5ed651be42c213062cd3cea3,04/22/1987,2020-08-27_12h30.52.313,proactive3.2,2020.1.2,Win32,60,5f47c0b9b035471e11593a5c,5f47df949b01a622a876751e,2,,,,,,backpack,,,,,,,,,,,1,0,0,54,54,0,1,,,,,,,,,,,,,,,,,,,,,,,,,,,,,,,,,,,,,,,,,,,,,,,,,,,,,,,,,,,,,,,,,,,,,,
,,?,0.001425,0,,,,,,stimuli/images/PICTURE_123.png,ADVICE,5ed651be42c213062cd3cea3,04/22/1987,2020-08-27_12h30.52.313,proactive3.2,2020.1.2,Win32,60,5f47c0b9b035471e11593a5c,5f47df949b01a622a876751e,2,,,,,,dart,,,,,,,,,,,6,0,0,55,55,50,1,,,,,,,,,,,,,,,,,,,,,,,,,,,,,,,,,,,,,,,,,,,,,,,,,,,,,,,,,,,,,,,,,,,,,,
,,?,0.001575,0,,,,,,stimuli/images/PICTURE_380.png,PHOTO,5ed651be42c213062cd3cea3,04/22/1987,2020-08-27_12h30.52.313,proactive3.2,2020.1.2,Win32,60,5f47c0b9b035471e11593a5c,5f47df949b01a622a876751e,2,,,,,,gorilla,,,,,,,,,,,6,0,0,56,56,52,1,,,,,,,,,,,,,,,,,,,,,,,,,,,,,,,,,,,,,,,,,,,,,,,,,,,,,,,,,,,,,,,,,,,,,,
,,?,0.00229,0,,,,,,stimuli/images/PICTURE_654.png,VALLEY,5ed651be42c213062cd3cea3,04/22/1987,2020-08-27_12h30.52.313,proactive3.2,2020.1.2,Win32,60,5f47c0b9b035471e11593a5c,5f47df949b01a622a876751e,2,,,,,,pencil,,,,,,,,,,,1,0,0,57,57,1,1,,,,,,,,,,,,,,,,,,,,,,,,,,,,,,,,,,,,,,,,,,,,,,,,,,,,,,,,,,,,,,,,,,,,,,
,,?,0.00141,0,,,,,,stimuli/images/PICTURE_203.png,ARTIST,5ed651be42c213062cd3cea3,04/22/1987,2020-08-27_12h30.52.313,proactive3.2,2020.1.2,Win32,60,5f47c0b9b035471e11593a5c,5f47df949b01a622a876751e,2,,,,,,cap,,,,,,,,,,,3,0,0,58,58,26,1,,,,,,,,,,,,,,,,,,,,,,,,,,,,,,,,,,,,,,,,,,,,,,,,,,,,,,,,,,,,,,,,,,,,,,
,,?,0.001005,0,,,,,,stimuli/images/PICTURE_308.png,KIND,5ed651be42c213062cd3cea3,04/22/1987,2020-08-27_12h30.52.313,proactive3.2,2020.1.2,Win32,60,5f47c0b9b035471e11593a5c,5f47df949b01a622a876751e,2,,,,,,dice,,,,,,,,,,,6,0,0,59,59,54,1,,,,,,,,,,,,,,,,,,,,,,,,,,,,,,,,,,,,,,,,,,,,,,,,,,,,,,,,,,,,,,,,,,,,,,
,,,,,,,,,,,,5ed651be42c213062cd3cea3,04/22/1987,2020-08-27_12h30.52.313,proactive3.2,2020.1.2,Win32,60,5f47c0b9b035471e11593a5c,5f47df949b01a622a876751e,2,,,,,,,,,,,,,,,,,,,,,,,,0,0,0,0,1,stimuli/learn-block1.csv,,,,,,,,,,,,,,,,,,,,,,,,,,,,,,,,,,,,,,,,,,,,,,,,,,,,,,,,,,,,,,,,
,,,,,,,,,,stimuli/images/PICTURE_685.png,PENNY,5ed651be42c213062cd3cea3,04/22/1987,2020-08-27_12h30.52.313,proactive3.2,2020.1.2,Win32,60,5f47c0b9b035471e11593a5c,5f47df949b01a622a876751e,2,,,,,,goose,,,,,,0,0,0,4,1,1,1,,,,,,,,,,,,,,,,,,,,,,,,,,,,,,,,,,,,,,,,,,,,,,,,,,,,,,,,,,,,,,,,,,,,,,,,,,,
,,,,,,,,,,stimuli/images/PICTURE_675.png,SALE,5ed651be42c213062cd3cea3,04/22/1987,2020-08-27_12h30.52.313,proactive3.2,2020.1.2,Win32,60,5f47c0b9b035471e11593a5c,5f47df949b01a622a876751e,2,,,,,,windmill,,,,,,0,1,1,47,1,5,1,,,,,,,,,,,,,,,,,,,,,,,,,,,,,,,,,,,,,,,,,,,,,,,,,,,,,,,,,,,,,,,,,,,,,,,,,,,
,,,,,,,,,,stimuli/images/PICTURE_296.png,LOTS,5ed651be42c213062cd3cea3,04/22/1987,2020-08-27_12h30.52.313,proactive3.2,2020.1.2,Win32,60,5f47c0b9b035471e11593a5c,5f47df949b01a622a876751e,2,,,,,,bolt,,,,,,0,2,2,9,1,1,1,,,,,,,,,,,,,,,,,,,,,,,,,,,,,,,,,,,,,,,,,,,,,,,,,,,,,,,,,,,,,,,,,,,,,,,,,,,
,,,,,,,,,,stimuli/images/PICTURE_491.png,RIVER,5ed651be42c213062cd3cea3,04/22/1987,2020-08-27_12h30.52.313,proactive3.2,2020.1.2,Win32,60,5f47c0b9b035471e11593a5c,5f47df949b01a622a876751e,2,,,,,,rug,,,,,,0,3,3,6,1,1,1,,,,,,,,,,,,,,,,,,,,,,,,,,,,,,,,,,,,,,,,,,,,,,,,,,,,,,,,,,,,,,,,,,,,,,,,,,,
,,,,,,,,,,stimuli/images/PICTURE_708.png,RECORD,5ed651be42c213062cd3cea3,04/22/1987,2020-08-27_12h30.52.313,proactive3.2,2020.1.2,Win32,60,5f47c0b9b035471e11593a5c,5f47df949b01a622a876751e,2,,,,,,monkey,,,,,,0,4,4,58,1,6,1,,,,,,,,,,,,,,,,,,,,,,,,,,,,,,,,,,,,,,,,,,,,,,,,,,,,,,,,,,,,,,,,,,,,,,,,,,,
,,,,,,,,,,stimuli/images/PICTURE_491.png,GLASS,5ed651be42c213062cd3cea3,04/22/1987,2020-08-27_12h30.52.313,proactive3.2,2020.1.2,Win32,60,5f47c0b9b035471e11593a5c,5f47df949b01a622a876751e,2,,,,,,rug,,,,,,0,5,5,14,1,2,1,,,,,,,,,,,,,,,,,,,,,,,,,,,,,,,,,,,,,,,,,,,,,,,,,,,,,,,,,,,,,,,,,,,,,,,,,,,
,,,,,,,,,,stimuli/images/PICTURE_327.png,SERIES,5ed651be42c213062cd3cea3,04/22/1987,2020-08-27_12h30.52.313,proactive3.2,2020.1.2,Win32,60,5f47c0b9b035471e11593a5c,5f47df949b01a622a876751e,2,,,,,,helmet,,,,,,0,6,6,3,1,1,1,,,,,,,,,,,,,,,,,,,,,,,,,,,,,,,,,,,,,,,,,,,,,,,,,,,,,,,,,,,,,,,,,,,,,,,,,,,
,,,,,,,,,,stimuli/images/PICTURE_147.png,YEAR,5ed651be42c213062cd3cea3,04/22/1987,2020-08-27_12h30.52.313,proactive3.2,2020.1.2,Win32,60,5f47c0b9b035471e11593a5c,5f47df949b01a622a876751e,2,,,,,,hanger,,,,,,0,7,7,21,1,3,1,,,,,,,,,,,,,,,,,,,,,,,,,,,,,,,,,,,,,,,,,,,,,,,,,,,,,,,,,,,,,,,,,,,,,,,,,,,
,,,,,,,,,,stimuli/images/PICTURE_308.png,FAMILY,5ed651be42c213062cd3cea3,04/22/1987,2020-08-27_12h30.52.313,proactive3.2,2020.1.2,Win32,60,5f47c0b9b035471e11593a5c,5f47df949b01a622a876751e,2,,,,,,dice,,,,,,0,8,8,36,1,4,1,,,,,,,,,,,,,,,,,,,,,,,,,,,,,,,,,,,,,,,,,,,,,,,,,,,,,,,,,,,,,,,,,,,,,,,,,,,
,,,,,,,,,,stimuli/images/PICTURE_383.png,WRITER,5ed651be42c213062cd3cea3,04/22/1987,2020-08-27_12h30.52.313,proactive3.2,2020.1.2,Win32,60,5f47c0b9b035471e11593a5c,5f47df949b01a622a876751e,2,,,,,,coin,,,,,,0,9,9,28,1,3,1,,,,,,,,,,,,,,,,,,,,,,,,,,,,,,,,,,,,,,,,,,,,,,,,,,,,,,,,,,,,,,,,,,,,,,,,,,,
,,,,,,,,,,stimuli/images/PICTURE_203.png,NIGHT,5ed651be42c213062cd3cea3,04/22/1987,2020-08-27_12h30.52.313,proactive3.2,2020.1.2,Win32,60,5f47c0b9b035471e11593a5c,5f47df949b01a622a876751e,2,,,,,,cap,,,,,,0,10,10,2,1,1,1,,,,,,,,,,,,,,,,,,,,,,,,,,,,,,,,,,,,,,,,,,,,,,,,,,,,,,,,,,,,,,,,,,,,,,,,,,,
,,,,,,,,,,stimuli/images/PICTURE_285.png,LIFE,5ed651be42c213062cd3cea3,04/22/1987,2020-08-27_12h30.52.313,proactive3.2,2020.1.2,Win32,60,5f47c0b9b035471e11593a5c,5f47df949b01a622a876751e,2,,,,,,carrot,,,,,,0,11,11,33,1,4,1,,,,,,,,,,,,,,,,,,,,,,,,,,,,,,,,,,,,,,,,,,,,,,,,,,,,,,,,,,,,,,,,,,,,,,,,,,,
,,,,,,,,,,stimuli/images/PICTURE_32.png,KIND,5ed651be42c213062cd3cea3,04/22/1987,2020-08-27_12h30.52.313,proactive3.2,2020.1.2,Win32,60,5f47c0b9b035471e11593a5c,5f47df949b01a622a876751e,2,,,,,,crown,,,,,,0,12,12,35,1,4,1,,,,,,,,,,,,,,,,,,,,,,,,,,,,,,,,,,,,,,,,,,,,,,,,,,,,,,,,,,,,,,,,,,,,,,,,,,,
,,,,,,,,,,stimuli/images/PICTURE_339.png,CLIENT,5ed651be42c213062cd3cea3,04/22/1987,2020-08-27_12h30.52.313,proactive3.2,2020.1.2,Win32,60,5f47c0b9b035471e11593a5c,5f47df949b01a622a876751e,2,,,,,,backpack,,,,,,0,13,13,11,1,2,1,,,,,,,,,,,,,,,,,,,,,,,,,,,,,,,,,,,,,,,,,,,,,,,,,,,,,,,,,,,,,,,,,,,,,,,,,,,
,,,,,,,,,,stimuli/images/PICTURE_564.png,BATH,5ed651be42c213062cd3cea3,04/22/1987,2020-08-27_12h30.52.313,proactive3.2,2020.1.2,Win32,60,5f47c0b9b035471e11593a5c,5f47df949b01a622a876751e,2,,,,,,spoon,,,,,,0,14,14,26,1,3,1,,,,,,,,,,,,,,,,,,,,,,,,,,,,,,,,,,,,,,,,,,,,,,,,,,,,,,,,,,,,,,,,,,,,,,,,,,,
,,,,,,,,,,stimuli/images/PICTURE_487.png,GIRL,5ed651be42c213062cd3cea3,04/22/1987,2020-08-27_12h30.52.313,proactive3.2,2020.1.2,Win32,60,5f47c0b9b035471e11593a5c,5f47df949b01a622a876751e,2,,,,,,basket,,,,,,0,15,15,45,1,5,1,,,,,,,,,,,,,,,,,,,,,,,,,,,,,,,,,,,,,,,,,,,,,,,,,,,,,,,,,,,,,,,,,,,,,,,,,,,
,,,,,,,,,,stimuli/images/PICTURE_667.png,RIVER,5ed651be42c213062cd3cea3,04/22/1987,2020-08-27_12h30.52.313,proactive3.2,2020.1.2,Win32,60,5f47c0b9b035471e11593a5c,5f47df949b01a622a876751e,2,,,,,,daisy,,,,,,0,16,16,10,1,2,1,,,,,,,,,,,,,,,,,,,,,,,,,,,,,,,,,,,,,,,,,,,,,,,,,,,,,,,,,,,,,,,,,,,,,,,,,,,
,,,,,,,,,,stimuli/images/PICTURE_405.png,YEAR,5ed651be42c213062cd3cea3,04/22/1987,2020-08-27_12h30.52.313,proactive3.2,2020.1.2,Win32,60,5f47c0b9b035471e11593a5c,5f47df949b01a622a876751e,2,,,,,,anchor,,,,,,0,17,17,34,1,4,1,,,,,,,,,,,,,,,,,,,,,,,,,,,,,,,,,,,,,,,,,,,,,,,,,,,,,,,,,,,,,,,,,,,,,,,,,,,
,,,,,,,,,,stimuli/images/PICTURE_467.png,POLICY,5ed651be42c213062cd3cea3,04/22/1987,2020-08-27_12h30.52.313,proactive3.2,2020.1.2,Win32,60,5f47c0b9b035471e11593a5c,5f47df949b01a622a876751e,2,,,,,,peg,,,,,,0,18,18,53,1,6,1,,,,,,,,,,,,,,,,,,,,,,,,,,,,,,,,,,,,,,,,,,,,,,,,,,,,,,,,,,,,,,,,,,,,,,,,,,,
,,,,,,,,,,stimuli/images/PICTURE_42.png,BOYS,5ed651be42c213062cd3cea3,04/22/1987,2020-08-27_12h30.52.313,proactive3.2,2020.1.2,Win32,60,5f47c0b9b035471e11593a5c,5f47df949b01a622a876751e,2,,,,,,pear,,,,,,0,19,19,55,1,6,1,,,,,,,,,,,,,,,,,,,,,,,,,,,,,,,,,,,,,,,,,,,,,,,,,,,,,,,,,,,,,,,,,,,,,,,,,,,
,,,,,,,,,,stimuli/images/PICTURE_68.png,MILE,5ed651be42c213062cd3cea3,04/22/1987,2020-08-27_12h30.52.313,proactive3.2,2020.1.2,Win32,60,5f47c0b9b035471e11593a5c,5f47df949b01a622a876751e,2,,,,,,candle,,,,,,0,20,20,51,1,6,1,,,,,,,,,,,,,,,,,,,,,,,,,,,,,,,,,,,,,,,,,,,,,,,,,,,,,,,,,,,,,,,,,,,,,,,,,,,
,,,,,,,,,,stimuli/images/PICTURE_504.png,COPS,5ed651be42c213062cd3cea3,04/22/1987,2020-08-27_12h30.52.313,proactive3.2,2020.1.2,Win32,60,5f47c0b9b035471e11593a5c,5f47df949b01a622a876751e,2,,,,,,wheel,,,,,,0,21,21,52,1,6,1,,,,,,,,,,,,,,,,,,,,,,,,,,,,,,,,,,,,,,,,,,,,,,,,,,,,,,,,,,,,,,,,,,,,,,,,,,,
,,,,,,,,,,stimuli/images/PICTURE_2.png,FLIGHT,5ed651be42c213062cd3cea3,04/22/1987,2020-08-27_12h30.52.313,proactive3.2,2020.1.2,Win32,60,5f47c0b9b035471e11593a5c,5f47df949b01a622a876751e,2,,,,,,tyre,,,,,,0,22,22,15,1,2,1,,,,,,,,,,,,,,,,,,,,,,,,,,,,,,,,,,,,,,,,,,,,,,,,,,,,,,,,,,,,,,,,,,,,,,,,,,,
,,,,,,,,,,stimuli/images/PICTURE_327.png,CASINO,5ed651be42c213062cd3cea3,04/22/1987,2020-08-27_12h30.52.313,proactive3.2,2020.1.2,Win32,60,5f47c0b9b035471e11593a5c,5f47df949b01a622a876751e,2,,,,,,helmet,,,,,,0,23,23,20,1,3,1,,,,,,,,,,,,,,,,,,,,,,,,,,,,,,,,,,,,,,,,,,,,,,,,,,,,,,,,,,,,,,,,,,,,,,,,,,,
,,,,,,,,,,stimuli/images/PICTURE_32.png,PILLS,5ed651be42c213062cd3cea3,04/22/1987,2020-08-27_12h30.52.313,proactive3.2,2020.1.2,Win32,60,5f47c0b9b035471e11593a5c,5f47df949b01a622a876751e,2,,,,,,crown,,,,,,0,24,24,18,1,2,1,,,,,,,,,,,,,,,,,,,,,,,,,,,,,,,,,,,,,,,,,,,,,,,,,,,,,,,,,,,,,,,,,,,,,,,,,,,
,,,,,,,,,,stimuli/images/PICTURE_403.png,TOILET,5ed651be42c213062cd3cea3,04/22/1987,2020-08-27_12h30.52.313,proactive3.2,2020.1.2,Win32,60,5f47c0b9b035471e11593a5c,5f47df949b01a622a876751e,2,,,,,,cathedral,,,,,,0,25,25,25,1,3,1,,,,,,,,,,,,,,,,,,,,,,,,,,,,,,,,,,,,,,,,,,,,,,,,,,,,,,,,,,,,,,,,,,,,,,,,,,,
,,,,,,,,,,stimuli/images/PICTURE_340.png,LETTER,5ed651be42c213062cd3cea3,04/22/1987,2020-08-27_12h30.52.313,proactive3.2,2020.1.2,Win32,60,5f47c0b9b035471e11593a5c,5f47df949b01a622a876751e,2,,,,,,mirror,,,,,,0,26,26,24,1,3,1,,,,,,,,,,,,,,,,,,,,,,,,,,,,,,,,,,,,,,,,,,,,,,,,,,,,,,,,,,,,,,,,,,,,,,,,,,,
,,,,,,,,,,stimuli/images/PICTURE_177.png,WRITER,5ed651be42c213062cd3cea3,04/22/1987,2020-08-27_12h30.52.313,proactive3.2,2020.1.2,Win32,60,5f47c0b9b035471e11593a5c,5f47df949b01a622a876751e,2,,,,,,mushroom,,,,,,0,27,27,41,1,5,1,,,,,,,,,,,,,,,,,,,,,,,,,,,,,,,,,,,,,,,,,,,,,,,,,,,,,,,,,,,,,,,,,,,,,,,,,,,
,,,,,,,,,,stimuli/images/PICTURE_655.png,TOILET,5ed651be42c213062cd3cea3,04/22/1987,2020-08-27_12h30.52.313,proactive3.2,2020.1.2,Win32,60,5f47c0b9b035471e11593a5c,5f47df949b01a622a876751e,2,,,,,,megaphone,,,,,,0,28,28,12,1,2,1,,,,,,,,,,,,,,,,,,,,,,,,,,,,,,,,,,,,,,,,,,,,,,,,,,,,,,,,,,,,,,,,,,,,,,,,,,,
,,,,,,,,,,stimuli/images/PICTURE_654.png,MONTH,5ed651be42c213062cd3cea3,04/22/1987,2020-08-27_12h30.52.313,proactive3.2,2020.1.2,Win32,60,5f47c0b9b035471e11593a5c,5f47df949b01a622a876751e,2,,,,,,pencil,,,,,,0,29,29,29,1,3,1,,,,,,,,,,,,,,,,,,,,,,,,,,,,,,,,,,,,,,,,,,,,,,,,,,,,,,,,,,,,,,,,,,,,,,,,,,,
,,,,,,,,,,stimuli/images/PICTURE_108.png,FLIGHT,5ed651be42c213062cd3cea3,04/22/1987,2020-08-27_12h30.52.313,proactive3.2,2020.1.2,Win32,60,5f47c0b9b035471e11593a5c,5f47df949b01a622a876751e,2,,,,,,calendar,,,,,,0,30,30,59,1,6,1,,,,,,,,,,,,,,,,,,,,,,,,,,,,,,,,,,,,,,,,,,,,,,,,,,,,,,,,,,,,,,,,,,,,,,,,,,,
,,,,,,,,,,stimuli/images/PICTURE_469.png,AGENT,5ed651be42c213062cd3cea3,04/22/1987,2020-08-27_12h30.52.313,proactive3.2,2020.1.2,Win32,60,5f47c0b9b035471e11593a5c,5f47df949b01a622a876751e,2,,,,,,stool,,,,,,0,31,31,16,1,2,1,,,,,,,,,,,,,,,,,,,,,,,,,,,,,,,,,,,,,,,,,,,,,,,,,,,,,,,,,,,,,,,,,,,,,,,,,,,
,,,,,,,,,,stimuli/images/PICTURE_233.png,LOTS,5ed651be42c213062cd3cea3,04/22/1987,2020-08-27_12h30.52.313,proactive3.2,2020.1.2,Win32,60,5f47c0b9b035471e11593a5c,5f47df949b01a622a876751e,2,,,,,,salt,,,,,,0,32,32,42,1,5,1,,,,,,,,,,,,,,,,,,,,,,,,,,,,,,,,,,,,,,,,,,,,,,,,,,,,,,,,,,,,,,,,,,,,,,,,,,,
,,,,,,,,,,stimuli/images/PICTURE_677.png,APPLE,5ed651be42c213062cd3cea3,04/22/1987,2020-08-27_12h30.52.313,proactive3.2,2020.1.2,Win32,60,5f47c0b9b035471e11593a5c,5f47df949b01a622a876751e,2,,,,,,map,,,,,,0,33,33,43,1,5,1,,,,,,,,,,,,,,,,,,,,,,,,,,,,,,,,,,,,,,,,,,,,,,,,,,,,,,,,,,,,,,,,,,,,,,,,,,,
,,,,,,,,,,stimuli/images/PICTURE_85.png,NATION,5ed651be42c213062cd3cea3,04/22/1987,2020-08-27_12h30.52.313,proactive3.2,2020.1.2,Win32,60,5f47c0b9b035471e11593a5c,5f47df949b01a622a876751e,2,,,,,,diamond,,,,,,0,34,34,5,1,1,1,,,,,,,,,,,,,,,,,,,,,,,,,,,,,,,,,,,,,,,,,,,,,,,,,,,,,,,,,,,,,,,,,,,,,,,,,,,
,,,,,,,,,,stimuli/images/PICTURE_403.png,RIVER,5ed651be42c213062cd3cea3,04/22/1987,2020-08-27_12h30.52.313,proactive3.2,2020.1.2,Win32,60,5f47c0b9b035471e11593a5c,5f47df949b01a622a876751e,2,,,,,,cathedral,,,,,,0,35,35,40,1,5,1,,,,,,,,,,,,,,,,,,,,,,,,,,,,,,,,,,,,,,,,,,,,,,,,,,,,,,,,,,,,,,,,,,,,,,,,,,,
,,,,,,,,,,stimuli/images/PICTURE_403.png,WRITER,5ed651be42c213062cd3cea3,04/22/1987,2020-08-27_12h30.52.313,proactive3.2,2020.1.2,Win32,60,5f47c0b9b035471e11593a5c,5f47df949b01a622a876751e,2,,,,,,cathedral,,,,,,0,36,36,31,1,4,1,,,,,,,,,,,,,,,,,,,,,,,,,,,,,,,,,,,,,,,,,,,,,,,,,,,,,,,,,,,,,,,,,,,,,,,,,,,
,,,,,,,,,,stimuli/images/PICTURE_340.png,VALLEY,5ed651be42c213062cd3cea3,04/22/1987,2020-08-27_12h30.52.313,proactive3.2,2020.1.2,Win32,60,5f47c0b9b035471e11593a5c,5f47df949b01a622a876751e,2,,,,,,mirror,,,,,,0,37,37,54,1,6,1,,,,,,,,,,,,,,,,,,,,,,,,,,,,,,,,,,,,,,,,,,,,,,,,,,,,,,,,,,,,,,,,,,,,,,,,,,,
,,,,,,,,,,stimuli/images/PICTURE_108.png,POLICY,5ed651be42c213062cd3cea3,04/22/1987,2020-08-27_12h30.52.313,proactive3.2,2020.1.2,Win32,60,5f47c0b9b035471e11593a5c,5f47df949b01a622a876751e,2,,,,,,calendar,,,,,,0,38,38,22,1,3,1,,,,,,,,,,,,,,,,,,,,,,,,,,,,,,,,,,,,,,,,,,,,,,,,,,,,,,,,,,,,,,,,,,,,,,,,,,,
,,,,,,,,,,stimuli/images/PICTURE_57.png,MOMENT,5ed651be42c213062cd3cea3,04/22/1987,2020-08-27_12h30.52.313,proactive3.2,2020.1.2,Win32,60,5f47c0b9b035471e11593a5c,5f47df949b01a622a876751e,2,,,,,,stamp,,,,,,0,39,39,37,1,4,1,,,,,,,,,,,,,,,,,,,,,,,,,,,,,,,,,,,,,,,,,,,,,,,,,,,,,,,,,,,,,,,,,,,,,,,,,,,
,,,,,,,,,,stimuli/images/PICTURE_95.png,HONEY,5ed651be42c213062cd3cea3,04/22/1987,2020-08-27_12h30.52.313,proactive3.2,2020.1.2,Win32,60,5f47c0b9b035471e11593a5c,5f47df949b01a622a876751e,2,,,,,,suitcase,,,,,,0,40,40,44,1,5,1,,,,,,,,,,,,,,,,,,,,,,,,,,,,,,,,,,,,,,,,,,,,,,,,,,,,,,,,,,,,,,,,,,,,,,,,,,,
,,,,,,,,,,stimuli/images/PICTURE_383.png,SERIES,5ed651be42c213062cd3cea3,04/22/1987,2020-08-27_12h30.52.313,proactive3.2,2020.1.2,Win32,60,5f47c0b9b035471e11593a5c,5f47df949b01a622a876751e,2,,,,,,coin,,,,,,0,41,41,46,1,5,1,,,,,,,,,,,,,,,,,,,,,,,,,,,,,,,,,,,,,,,,,,,,,,,,,,,,,,,,,,,,,,,,,,,,,,,,,,,
,,,,,,,,,,stimuli/images/PICTURE_296.png,LIFE,5ed651be42c213062cd3cea3,04/22/1987,2020-08-27_12h30.52.313,proactive3.2,2020.1.2,Win32,60,5f47c0b9b035471e11593a5c,5f47df949b01a622a876751e,2,,,,,,bolt,,,,,,0,42,42,57,1,6,1,,,,,,,,,,,,,,,,,,,,,,,,,,,,,,,,,,,,,,,,,,,,,,,,,,,,,,,,,,,,,,,,,,,,,,,,,,,
,,,,,,,,,,stimuli/images/PICTURE_504.png,YEAR,5ed651be42c213062cd3cea3,04/22/1987,2020-08-27_12h30.52.313,proactive3.2,2020.1.2,Win32,60,5f47c0b9b035471e11593a5c,5f47df949b01a622a876751e,2,,,,,,wheel,,,,,,0,43,43,13,1,2,1,,,,,,,,,,,,,,,,,,,,,,,,,,,,,,,,,,,,,,,,,,,,,,,,,,,,,,,,,,,,,,,,,,,,,,,,,,,
,,,,,,,,,,stimuli/images/PICTURE_380.png,HONEY,5ed651be42c213062cd3cea3,04/22/1987,2020-08-27_12h30.52.313,proactive3.2,2020.1.2,Win32,60,5f47c0b9b035471e11593a5c,5f47df949b01a622a876751e,2,,,,,,gorilla,,,,,,0,44,44,19,1,2,1,,,,,,,,,,,,,,,,,,,,,,,,,,,,,,,,,,,,,,,,,,,,,,,,,,,,,,,,,,,,,,,,,,,,,,,,,,,
,,,,,,,,,,stimuli/images/PICTURE_750.png,HOTEL,5ed651be42c213062cd3cea3,04/22/1987,2020-08-27_12h30.52.313,proactive3.2,2020.1.2,Win32,60,5f47c0b9b035471e11593a5c,5f47df949b01a622a876751e,2,,,,,,kettle,,,,,,0,45,45,27,1,3,1,,,,,,,,,,,,,,,,,,,,,,,,,,,,,,,,,,,,,,,,,,,,,,,,,,,,,,,,,,,,,,,,,,,,,,,,,,,
,,,,,,,,,,stimuli/images/PICTURE_297.png,RIVER,5ed651be42c213062cd3cea3,04/22/1987,2020-08-27_12h30.52.313,proactive3.2,2020.1.2,Win32,60,5f47c0b9b035471e11593a5c,5f47df949b01a622a876751e,2,,,,,,aeroplane,,,,,,0,46,46,39,1,4,1,,,,,,,,,,,,,,,,,,,,,,,,,,,,,,,,,,,,,,,,,,,,,,,,,,,,,,,,,,,,,,,,,,,,,,,,,,,
,,,,,,,,,,stimuli/images/PICTURE_95.png,MILLER,5ed651be42c213062cd3cea3,04/22/1987,2020-08-27_12h30.52.313,proactive3.2,2020.1.2,Win32,60,5f47c0b9b035471e11593a5c,5f47df949b01a622a876751e,2,,,,,,suitcase,,,,,,0,47,47,56,1,6,1,,,,,,,,,,,,,,,,,,,,,,,,,,,,,,,,,,,,,,,,,,,,,,,,,,,,,,,,,,,,,,,,,,,,,,,,,,,
,,,,,,,,,,stimuli/images/PICTURE_85.png,TOILET,5ed651be42c213062cd3cea3,04/22/1987,2020-08-27_12h30.52.313,proactive3.2,2020.1.2,Win32,60,5f47c0b9b035471e11593a5c,5f47df949b01a622a876751e,2,,,,,,diamond,,,,,,0,48,48,48,1,5,1,,,,,,,,,,,,,,,,,,,,,,,,,,,,,,,,,,,,,,,,,,,,,,,,,,,,,,,,,,,,,,,,,,,,,,,,,,,
,,,,,,,,,,stimuli/images/PICTURE_449.png,DUDE,5ed651be42c213062cd3cea3,04/22/1987,2020-08-27_12h30.52.313,proactive3.2,2020.1.2,Win32,60,5f47c0b9b035471e11593a5c,5f47df949b01a622a876751e,2,,,,,,bench,,,,,,0,49,49,17,1,2,1,,,,,,,,,,,,,,,,,,,,,,,,,,,,,,,,,,,,,,,,,,,,,,,,,,,,,,,,,,,,,,,,,,,,,,,,,,,
,,,,,,,,,,stimuli/images/PICTURE_95.png,BOYS,5ed651be42c213062cd3cea3,04/22/1987,2020-08-27_12h30.52.313,proactive3.2,2020.1.2,Win32,60,5f47c0b9b035471e11593a5c,5f47df949b01a622a876751e,2,,,,,,suitcase,,,,,,0,50,50,1,1,1,1,,,,,,,,,,,,,,,,,,,,,,,,,,,,,,,,,,,,,,,,,,,,,,,,,,,,,,,,,,,,,,,,,,,,,,,,,,,
,,,,,,,,,,stimuli/images/PICTURE_147.png,WOMEN,5ed651be42c213062cd3cea3,04/22/1987,2020-08-27_12h30.52.313,proactive3.2,2020.1.2,Win32,60,5f47c0b9b035471e11593a5c,5f47df949b01a622a876751e,2,,,,,,hanger,,,,,,0,51,51,7,1,1,1,,,,,,,,,,,,,,,,,,,,,,,,,,,,,,,,,,,,,,,,,,,,,,,,,,,,,,,,,,,,,,,,,,,,,,,,,,,
,,,,,,,,,,stimuli/images/PICTURE_405.png,PLENTY,5ed651be42c213062cd3cea3,04/22/1987,2020-08-27_12h30.52.313,proactive3.2,2020.1.2,Win32,60,5f47c0b9b035471e11593a5c,5f47df949b01a622a876751e,2,,,,,,anchor,,,,,,0,52,52,23,1,3,1,,,,,,,,,,,,,,,,,,,,,,,,,,,,,,,,,,,,,,,,,,,,,,,,,,,,,,,,,,,,,,,,,,,,,,,,,,,
,,,,,,,,,,stimuli/images/PICTURE_744.png,WEAPON,5ed651be42c213062cd3cea3,04/22/1987,2020-08-27_12h30.52.313,proactive3.2,2020.1.2,Win32,60,5f47c0b9b035471e11593a5c,5f47df949b01a622a876751e,2,,,,,,ring,,,,,,0,53,53,50,1,6,1,,,,,,,,,,,,,,,,,,,,,,,,,,,,,,,,,,,,,,,,,,,,,,,,,,,,,,,,,,,,,,,,,,,,,,,,,,,
,,,,,,,,,,stimuli/images/PICTURE_68.png,ROOF,5ed651be42c213062cd3cea3,04/22/1987,2020-08-27_12h30.52.313,proactive3.2,2020.1.2,Win32,60,5f47c0b9b035471e11593a5c,5f47df949b01a622a876751e,2,,,,,,candle,,,,,,0,54,54,38,1,4,1,,,,,,,,,,,,,,,,,,,,,,,,,,,,,,,,,,,,,,,,,,,,,,,,,,,,,,,,,,,,,,,,,,,,,,,,,,,
,,,,,,,,,,stimuli/images/PICTURE_504.png,ARTIST,5ed651be42c213062cd3cea3,04/22/1987,2020-08-27_12h30.52.313,proactive3.2,2020.1.2,Win32,60,5f47c0b9b035471e11593a5c,5f47df949b01a622a876751e,2,,,,,,wheel,,,,,,0,55,55,49,1,5,1,,,,,,,,,,,,,,,,,,,,,,,,,,,,,,,,,,,,,,,,,,,,,,,,,,,,,,,,,,,,,,,,,,,,,,,,,,,
,,,,,,,,,,stimuli/images/PICTURE_33.png,FRIEND,5ed651be42c213062cd3cea3,04/22/1987,2020-08-27_12h30.52.313,proactive3.2,2020.1.2,Win32,60,5f47c0b9b035471e11593a5c,5f47df949b01a622a876751e,2,,,,,,frame,,,,,,0,56,56,8,1,1,1,,,,,,,,,,,,,,,,,,,,,,,,,,,,,,,,,,,,,,,,,,,,,,,,,,,,,,,,,,,,,,,,,,,,,,,,,,,
,,,,,,,,,,stimuli/images/PICTURE_203.png,GODS,5ed651be42c213062cd3cea3,04/22/1987,2020-08-27_12h30.52.313,proactive3.2,2020.1.2,Win32,60,5f47c0b9b035471e11593a5c,5f47df949b01a622a876751e,2,,,,,,cap,,,,,,0,57,57,30,1,4,1,,,,,,,,,,,,,,,,,,,,,,,,,,,,,,,,,,,,,,,,,,,,,,,,,,,,,,,,,,,,,,,,,,,,,,,,,,,
,,,,,,,,,,stimuli/images/PICTURE_380.png,CANDY,5ed651be42c213062cd3cea3,04/22/1987,2020-08-27_12h30.52.313,proactive3.2,2020.1.2,Win32,60,5f47c0b9b035471e11593a5c,5f47df949b01a622a876751e,2,,,,,,gorilla,,,,,,0,58,58,0,1,1,1,,,,,,,,,,,,,,,,,,,,,,,,,,,,,,,,,,,,,,,,,,,,,,,,,,,,,,,,,,,,,,,,,,,,,,,,,,,
,,?,0.001355,0,,,,,,stimuli/images/PICTURE_403.png,WRITER,5ed651be42c213062cd3cea3,04/22/1987,2020-08-27_12h30.52.313,proactive3.2,2020.1.2,Win32,60,5f47c0b9b035471e11593a5c,5f47df949b01a622a876751e,2,,,,,,cathedral,,,,,,,,,,,4,1,0,0,0,31,1,,,,,,,,,,,,,,,,,,,,,,,,,,,,,,,,,,,,,,,,,,,,,,,,,,,,,,,,,,,,,,,,,,,,,,
,,?,0.000985,0,,,,,,stimuli/images/PICTURE_654.png,MONTH,5ed651be42c213062cd3cea3,04/22/1987,2020-08-27_12h30.52.313,proactive3.2,2020.1.2,Win32,60,5f47c0b9b035471e11593a5c,5f47df949b01a622a876751e,2,,,,,,pencil,,,,,,,,,,,3,1,0,1,1,29,1,,,,,,,,,,,,,,,,,,,,,,,,,,,,,,,,,,,,,,,,,,,,,,,,,,,,,,,,,,,,,,,,,,,,,,
,,?,0.00071,0,,,,,,stimuli/images/PICTURE_487.png,GIRL,5ed651be42c213062cd3cea3,04/22/1987,2020-08-27_12h30.52.313,proactive3.2,2020.1.2,Win32,60,5f47c0b9b035471e11593a5c,5f47df949b01a622a876751e,2,,,,,,basket,,,,,,,,,,,5,1,0,2,2,45,1,,,,,,,,,,,,,,,,,,,,,,,,,,,,,,,,,,,,,,,,,,,,,,,,,,,,,,,,,,,,,,,,,,,,,,
,,?,0.00075,0,,,,,,stimuli/images/PICTURE_33.png,FRIEND,5ed651be42c213062cd3cea3,04/22/1987,2020-08-27_12h30.52.313,proactive3.2,2020.1.2,Win32,60,5f47c0b9b035471e11593a5c,5f47df949b01a622a876751e,2,,,,,,frame,,,,,,,,,,,1,1,0,3,3,8,1,,,,,,,,,,,,,,,,,,,,,,,,,,,,,,,,,,,,,,,,,,,,,,,,,,,,,,,,,,,,,,,,,,,,,,
,,?,0.00079,0,,,,,,stimuli/images/PICTURE_380.png,CANDY,5ed651be42c213062cd3cea3,04/22/1987,2020-08-27_12h30.52.313,proactive3.2,2020.1.2,Win32,60,5f47c0b9b035471e11593a5c,5f47df949b01a622a876751e,2,,,,,,gorilla,,,,,,,,,,,1,1,0,4,4,0,1,,,,,,,,,,,,,,,,,,,,,,,,,,,,,,,,,,,,,,,,,,,,,,,,,,,,,,,,,,,,,,,,,,,,,,
,,?,0.00061,0,,,,,,stimuli/images/PICTURE_208.png,SYSTEM,5ed651be42c213062cd3cea3,04/22/1987,2020-08-27_12h30.52.313,proactive3.2,2020.1.2,Win32,60,5f47c0b9b035471e11593a5c,5f47df949b01a622a876751e,2,,,,,,microphone,,,,,,,,,,,4,1,0,5,5,32,1,,,,,,,,,,,,,,,,,,,,,,,,,,,,,,,,,,,,,,,,,,,,,,,,,,,,,,,,,,,,,,,,,,,,,,
,,?,0.000645,0,,,,,,stimuli/images/PICTURE_108.png,FLIGHT,5ed651be42c213062cd3cea3,04/22/1987,2020-08-27_12h30.52.313,proactive3.2,2020.1.2,Win32,60,5f47c0b9b035471e11593a5c,5f47df949b01a622a876751e,2,,,,,,calendar,,,,,,,,,,,6,1,0,6,6,59,1,,,,,,,,,,,,,,,,,,,,,,,,,,,,,,,,,,,,,,,,,,,,,,,,,,,,,,,,,,,,,,,,,,,,,,
,,RIVER,1.89797,1,,,,,,stimuli/images/PICTURE_667.png,RIVER,5ed651be42c213062cd3cea3,04/22/1987,2020-08-27_12h30.52.313,proactive3.2,2020.1.2,Win32,60,5f47c0b9b035471e11593a5c,5f47df949b01a622a876751e,2,,,,,,daisy,,,,,,,,,,,2,1,0,7,7,10,1,,,,,,,,,,,,,,,,,,,,,,,,,,,,,,,,,,,,,,,,,,,,,,,,,,,,,,,,,,,,,,,,,,,,,,
,,?,0.003675,0,,,,,,stimuli/images/PICTURE_403.png,RIVER,5ed651be42c213062cd3cea3,04/22/1987,2020-08-27_12h30.52.313,proactive3.2,2020.1.2,Win32,60,5f47c0b9b035471e11593a5c,5f47df949b01a622a876751e,2,,,,,,cathedral,,,,,,,,,,,5,1,0,8,8,40,1,,,,,,,,,,,,,,,,,,,,,,,,,,,,,,,,,,,,,,,,,,,,,,,,,,,,,,,,,,,,,,,,,,,,,,
,,DUDE,1.373095,1,,,,,,stimuli/images/PICTURE_449.png,DUDE,5ed651be42c213062cd3cea3,04/22/1987,2020-08-27_12h30.52.313,proactive3.2,2020.1.2,Win32,60,5f47c0b9b035471e11593a5c,5f47df949b01a622a876751e,2,,,,,,bench,,,,,,,,,,,2,1,0,9,9,17,1,,,,,,,,,,,,,,,,,,,,,,,,,,,,,,,,,,,,,,,,,,,,,,,,,,,,,,,,,,,,,,,,,,,,,,
,,?,0.00606,0,,,,,,stimuli/images/PICTURE_504.png,COPS,5ed651be42c213062cd3cea3,04/22/1987,2020-08-27_12h30.52.313,proactive3.2,2020.1.2,Win32,60,5f47c0b9b035471e11593a5c,5f47df949b01a622a876751e,2,,,,,,wheel,,,,,,,,,,,6,1,0,10,10,52,1,,,,,,,,,,,,,,,,,,,,,,,,,,,,,,,,,,,,,,,,,,,,,,,,,,,,,,,,,,,,,,,,,,,,,,
,,?,0.002035,0,,,,,,stimuli/images/PICTURE_296.png,LOTS,5ed651be42c213062cd3cea3,04/22/1987,2020-08-27_12h30.52.313,proactive3.2,2020.1.2,Win32,60,5f47c0b9b035471e11593a5c,5f47df949b01a622a876751e,2,,,,,,bolt,,,,,,,,,,,1,1,0,11,11,9,1,,,,,,,,,,,,,,,,,,,,,,,,,,,,,,,,,,,,,,,,,,,,,,,,,,,,,,,,,,,,,,,,,,,,,,
,,?,0.002375,0,,,,,,stimuli/images/PICTURE_147.png,WOMEN,5ed651be42c213062cd3cea3,04/22/1987,2020-08-27_12h30.52.313,proactive3.2,2020.1.2,Win32,60,5f47c0b9b035471e11593a5c,5f47df949b01a622a876751e,2,,,,,,hanger,,,,,,,,,,,1,1,0,12,12,7,1,,,,,,,,,,,,,,,,,,,,,,,,,,,,,,,,,,,,,,,,,,,,,,,,,,,,,,,,,,,,,,,,,,,,,,
,,?,0.001755,0,,,,,,stimuli/images/PICTURE_750.png,HOTEL,5ed651be42c213062cd3cea3,04/22/1987,2020-08-27_12h30.52.313,proactive3.2,2020.1.2,Win32,60,5f47c0b9b035471e11593a5c,5f47df949b01a622a876751e,2,,,,,,kettle,,,,,,,,,,,3,1,0,13,13,27,1,,,,,,,,,,,,,,,,,,,,,,,,,,,,,,,,,,,,,,,,,,,,,,,,,,,,,,,,,,,,,,,,,,,,,,
,,?,0.00165,0,,,,,,stimuli/images/PICTURE_708.png,RECORD,5ed651be42c213062cd3cea3,04/22/1987,2020-08-27_12h30.52.313,proactive3.2,2020.1.2,Win32,60,5f47c0b9b035471e11593a5c,5f47df949b01a622a876751e,2,,,,,,monkey,,,,,,,,,,,6,1,0,14,14,58,1,,,,,,,,,,,,,,,,,,,,,,,,,,,,,,,,,,,,,,,,,,,,,,,,,,,,,,,,,,,,,,,,,,,,,,
,,CLIENT,2.26533,1,,,,,,stimuli/images/PICTURE_339.png,CLIENT,5ed651be42c213062cd3cea3,04/22/1987,2020-08-27_12h30.52.313,proactive3.2,2020.1.2,Win32,60,5f47c0b9b035471e11593a5c,5f47df949b01a622a876751e,2,,,,,,backpack,,,,,,,,,,,2,1,0,15,15,11,1,,,,,,,,,,,,,,,,,,,,,,,,,,,,,,,,,,,,,,,,,,,,,,,,,,,,,,,,,,,,,,,,,,,,,,
,,?,0.006325,0,,,,,,stimuli/images/PICTURE_297.png,RIVER,5ed651be42c213062cd3cea3,04/22/1987,2020-08-27_12h30.52.313,proactive3.2,2020.1.2,Win32,60,5f47c0b9b035471e11593a5c,5f47df949b01a622a876751e,2,,,,,,aeroplane,,,,,,,,,,,4,1,0,16,16,39,1,,,,,,,,,,,,,,,,,,,,,,,,,,,,,,,,,,,,,,,,,,,,,,,,,,,,,,,,,,,,,,,,,,,,,,
,,?,0.00111,0,,,,,,stimuli/images/PICTURE_491.png,RIVER,5ed651be42c213062cd3cea3,04/22/1987,2020-08-27_12h30.52.313,proactive3.2,2020.1.2,Win32,60,5f47c0b9b035471e11593a5c,5f47df949b01a622a876751e,2,,,,,,rug,,,,,,,,,,,1,1,0,17,17,6,1,,,,,,,,,,,,,,,,,,,,,,,,,,,,,,,,,,,,,,,,,,,,,,,,,,,,,,,,,,,,,,,,,,,,,,
,,?,0.00104,0,,,,,,stimuli/images/PICTURE_677.png,APPLE,5ed651be42c213062cd3cea3,04/22/1987,2020-08-27_12h30.52.313,proactive3.2,2020.1.2,Win32,60,5f47c0b9b035471e11593a5c,5f47df949b01a622a876751e,2,,,,,,map,,,,,,,,,,,5,1,0,18,18,43,1,,,,,,,,,,,,,,,,,,,,,,,,,,,,,,,,,,,,,,,,,,,,,,,,,,,,,,,,,,,,,,,,,,,,,,
,,?,0.00102,0,,,,,,stimuli/images/PICTURE_95.png,BOYS,5ed651be42c213062cd3cea3,04/22/1987,2020-08-27_12h30.52.313,proactive3.2,2020.1.2,Win32,60,5f47c0b9b035471e11593a5c,5f47df949b01a622a876751e,2,,,,,,suitcase,,,,,,,,,,,1,1,0,19,19,1,1,,,,,,,,,,,,,,,,,,,,,,,,,,,,,,,,,,,,,,,,,,,,,,,,,,,,,,,,,,,,,,,,,,,,,,
,,FLIGHT,1.54788,1,,,,,,stimuli/images/PICTURE_2.png,FLIGHT,5ed651be42c213062cd3cea3,04/22/1987,2020-08-27_12h30.52.313,proactive3.2,2020.1.2,Win32,60,5f47c0b9b035471e11593a5c,5f47df949b01a622a876751e,2,,,,,,tyre,,,,,,,,,,,2,1,0,20,20,15,1,,,,,,,,,,,,,,,,,,,,,,,,,,,,,,,,,,,,,,,,,,,,,,,,,,,,,,,,,,,,,,,,,,,,,,
,,?,0.003005,0,,,,,,stimuli/images/PICTURE_108.png,POLICY,5ed651be42c213062cd3cea3,04/22/1987,2020-08-27_12h30.52.313,proactive3.2,2020.1.2,Win32,60,5f47c0b9b035471e11593a5c,5f47df949b01a622a876751e,2,,,,,,calendar,,,,,,,,,,,3,1,0,21,21,22,1,,,,,,,,,,,,,,,,,,,,,,,,,,,,,,,,,,,,,,,,,,,,,,,,,,,,,,,,,,,,,,,,,,,,,,
,,?,0.00145,0,,,,,,stimuli/images/PICTURE_685.png,PENNY,5ed651be42c213062cd3cea3,04/22/1987,2020-08-27_12h30.52.313,proactive3.2,2020.1.2,Win32,60,5f47c0b9b035471e11593a5c,5f47df949b01a622a876751e,2,,,,,,goose,,,,,,,,,,,1,1,0,22,22,4,1,,,,,,,,,,,,,,,,,,,,,,,,,,,,,,,,,,,,,,,,,,,,,,,,,,,,,,,,,,,,,,,,,,,,,,
,,?,0.00151,0,,,,,,stimuli/images/PICTURE_340.png,LETTER,5ed651be42c213062cd3cea3,04/22/1987,2020-08-27_12h30.52.313,proactive3.2,2020.1.2,Win32,60,5f47c0b9b035471e11593a5c,5f47df949b01a622a876751e,2,,,,,,mirror,,,,,,,,,,,3,1,0,23,23,24,1,,,,,,,,,,,,,,,,,,,,,,,,,,,,,,,,,,,,,,,,,,,,,,,,,,,,,,,,,,,,,,,,,,,,,,
,,?,0.00217,0,,,,,,stimuli/images/PICTURE_564.png,BATH,5ed651be42c213062cd3cea3,04/22/1987,2020-08-27_12h30.52.313,proactive3.2,2020.1.2,Win32,60,5f47c0b9b035471e11593a5c,5f47df949b01a622a876751e,2,,,,,,spoon,,,,,,,,,,,3,1,0,24,24,26,1,,,,,,,,,,,,,,,,,,,,,,,,,,,,,,,,,,,,,,,,,,,,,,,,,,,,,,,,,,,,,,,,,,,,,,
,,PILLS,1.459675,1,,,,,,stimuli/images/PICTURE_32.png,PILLS,5ed651be42c213062cd3cea3,04/22/1987,2020-08-27_12h30.52.313,proactive3.2,2020.1.2,Win32,60,5f47c0b9b035471e11593a5c,5f47df949b01a622a876751e,2,,,,,,crown,,,,,,,,,,,2,1,0,25,25,18,1,,,,,,,,,,,,,,,,,,,,,,,,,,,,,,,,,,,,,,,,,,,,,,,,,,,,,,,,,,,,,,,,,,,,,,
,,?,0.002095,0,,,,,,stimuli/images/PICTURE_95.png,HONEY,5ed651be42c213062cd3cea3,04/22/1987,2020-08-27_12h30.52.313,proactive3.2,2020.1.2,Win32,60,5f47c0b9b035471e11593a5c,5f47df949b01a622a876751e,2,,,,,,suitcase,,,,,,,,,,,5,1,0,26,26,44,1,,,,,,,,,,,,,,,,,,,,,,,,,,,,,,,,,,,,,,,,,,,,,,,,,,,,,,,,,,,,,,,,,,,,,,
,,?,0.00101,0,,,,,,stimuli/images/PICTURE_285.png,LIFE,5ed651be42c213062cd3cea3,04/22/1987,2020-08-27_12h30.52.313,proactive3.2,2020.1.2,Win32,60,5f47c0b9b035471e11593a5c,5f47df949b01a622a876751e,2,,,,,,carrot,,,,,,,,,,,4,1,0,27,27,33,1,,,,,,,,,,,,,,,,,,,,,,,,,,,,,,,,,,,,,,,,,,,,,,,,,,,,,,,,,,,,,,,,,,,,,,
,,?,0.00081,0,,,,,,stimuli/images/PICTURE_675.png,SALE,5ed651be42c213062cd3cea3,04/22/1987,2020-08-27_12h30.52.313,proactive3.2,2020.1.2,Win32,60,5f47c0b9b035471e11593a5c,5f47df949b01a622a876751e,2,,,,,,windmill,,,,,,,,,,,5,1,0,28,28,47,1,,,,,,,,,,,,,,,,,,,,,,,,,,,,,,,,,,,,,,,,,,,,,,,,,,,,,,,,,,,,,,,,,,,,,,
,,HONEY,1.43876,1,,,,,,stimuli/images/PICTURE_380.png,HONEY,5ed651be42c213062cd3cea3,04/22/1987,2020-08-27_12h30.52.313,proactive3.2,2020.1.2,Win32,60,5f47c0b9b035471e11593a5c,5f47df949b01a622a876751e,2,,,,,,gorilla,,,,,,,,,,,2,1,0,29,29,19,1,,,,,,,,,,,,,,,,,,,,,,,,,,,,,,,,,,,,,,,,,,,,,,,,,,,,,,,,,,,,,,,,,,,,,,
,,?,0.003015,0,,,,,,stimuli/images/PICTURE_32.png,KIND,5ed651be42c213062cd3cea3,04/22/1987,2020-08-27_12h30.52.313,proactive3.2,2020.1.2,Win32,60,5f47c0b9b035471e11593a5c,5f47df949b01a622a876751e,2,,,,,,crown,,,,,,,,,,,4,1,0,30,30,35,1,,,,,,,,,,,,,,,,,,,,,,,,,,,,,,,,,,,,,,,,,,,,,,,,,,,,,,,,,,,,,,,,,,,,,,
,,?,0.00109,0,,,,,,stimuli/images/PICTURE_296.png,LIFE,5ed651be42c213062cd3cea3,04/22/1987,2020-08-27_12h30.52.313,proactive3.2,2020.1.2,Win32,60,5f47c0b9b035471e11593a5c,5f47df949b01a622a876751e,2,,,,,,bolt,,,,,,,,,,,6,1,0,31,31,57,1,,,,,,,,,,,,,,,,,,,,,,,,,,,,,,,,,,,,,,,,,,,,,,,,,,,,,,,,,,,,,,,,,,,,,,
,,?,0.001035,0,,,,,,stimuli/images/PICTURE_95.png,MILLER,5ed651be42c213062cd3cea3,04/22/1987,2020-08-27_12h30.52.313,proactive3.2,2020.1.2,Win32,60,5f47c0b9b035471e11593a5c,5f47df949b01a622a876751e,2,,,,,,suitcase,,,,,,,,,,,6,1,0,32,32,56,1,,,,,,,,,,,,,,,,,,,,,,,,,,,,,,,,,,,,,,,,,,,,,,,,,,,,,,,,,,,,,,,,,,,,,,
,,?,0.001015,0,,,,,,stimuli/images/PICTURE_233.png,LOTS,5ed651be42c213062cd3cea3,04/22/1987,2020-08-27_12h30.52.313,proactive3.2,2020.1.2,Win32,60,5f47c0b9b035471e11593a5c,5f47df949b01a622a876751e,2,,,,,,salt,,,,,,,,,,,5,1,0,33,33,42,1,,,,,,,,,,,,,,,,,,,,,,,,,,,,,,,,,,,,,,,,,,,,,,,,,,,,,,,,,,,,,,,,,,,,,,
,,?,0.00113,0,,,,,,stimuli/images/PICTURE_504.png,ARTIST,5ed651be42c213062cd3cea3,04/22/1987,2020-08-27_12h30.52.313,proactive3.2,2020.1.2,Win32,60,5f47c0b9b035471e11593a5c,5f47df949b01a622a876751e,2,,,,,,wheel,,,,,,,,,,,5,1,0,34,34,49,1,,,,,,,,,,,,,,,,,,,,,,,,,,,,,,,,,,,,,,,,,,,,,,,,,,,,,,,,,,,,,,,,,,,,,,
,,?,0.0011,0,,,,,,stimuli/images/PICTURE_327.png,CASINO,5ed651be42c213062cd3cea3,04/22/1987,2020-08-27_12h30.52.313,proactive3.2,2020.1.2,Win32,60,5f47c0b9b035471e11593a5c,5f47df949b01a622a876751e,2,,,,,,helmet,,,,,,,,,,,3,1,0,35,35,20,1,,,,,,,,,,,,,,,,,,,,,,,,,,,,,,,,,,,,,,,,,,,,,,,,,,,,,,,,,,,,,,,,,,,,,,
,,?,0.000985,0,,,,,,stimuli/images/PICTURE_405.png,PLENTY,5ed651be42c213062cd3cea3,04/22/1987,2020-08-27_12h30.52.313,proactive3.2,2020.1.2,Win32,60,5f47c0b9b035471e11593a5c,5f47df949b01a622a876751e,2,,,,,,anchor,,,,,,,,,,,3,1,0,36,36,23,1,,,,,,,,,,,,,,,,,,,,,,,,,,,,,,,,,,,,,,,,,,,,,,,,,,,,,,,,,,,,,,,,,,,,,,
,,?,0.00075,0,,,,,,stimuli/images/PICTURE_327.png,SERIES,5ed651be42c213062cd3cea3,04/22/1987,2020-08-27_12h30.52.313,proactive3.2,2020.1.2,Win32,60,5f47c0b9b035471e11593a5c,5f47df949b01a622a876751e,2,,,,,,helmet,,,,,,,,,,,1,1,0,37,37,3,1,,,,,,,,,,,,,,,,,,,,,,,,,,,,,,,,,,,,,,,,,,,,,,,,,,,,,,,,,,,,,,,,,,,,,,
,,?,0.000755,0,,,,,,stimuli/images/PICTURE_340.png,VALLEY,5ed651be42c213062cd3cea3,04/22/1987,2020-08-27_12h30.52.313,proactive3.2,2020.1.2,Win32,60,5f47c0b9b035471e11593a5c,5f47df949b01a622a876751e,2,,,,,,mirror,,,,,,,,,,,6,1,0,38,38,54,1,,,,,,,,,,,,,,,,,,,,,,,,,,,,,,,,,,,,,,,,,,,,,,,,,,,,,,,,,,,,,,,,,,,,,,
,,?,0.000765,0,,,,,,stimuli/images/PICTURE_57.png,MOMENT,5ed651be42c213062cd3cea3,04/22/1987,2020-08-27_12h30.52.313,proactive3.2,2020.1.2,Win32,60,5f47c0b9b035471e11593a5c,5f47df949b01a622a876751e,2,,,,,,stamp,,,,,,,,,,,4,1,0,39,39,37,1,,,,,,,,,,,,,,,,,,,,,,,,,,,,,,,,,,,,,,,,,,,,,,,,,,,,,,,,,,,,,,,,,,,,,,
,,?,0.00058,0,,,,,,stimuli/images/PICTURE_744.png,WEAPON,5ed651be42c213062cd3cea3,04/22/1987,2020-08-27_12h30.52.313,proactive3.2,2020.1.2,Win32,60,5f47c0b9b035471e11593a5c,5f47df949b01a622a876751e,2,,,,,,ring,,,,,,,,,,,6,1,0,40,40,50,1,,,,,,,,,,,,,,,,,,,,,,,,,,,,,,,,,,,,,,,,,,,,,,,,,,,,,,,,,,,,,,,,,,,,,,
,,?,0.00059,0,,,,,,stimuli/images/PICTURE_42.png,BOYS,5ed651be42c213062cd3cea3,04/22/1987,2020-08-27_12h30.52.313,proactive3.2,2020.1.2,Win32,60,5f47c0b9b035471e11593a5c,5f47df949b01a622a876751e,2,,,,,,pear,,,,,,,,,,,6,1,0,41,41,55,1,,,,,,,,,,,,,,,,,,,,,,,,,,,,,,,,,,,,,,,,,,,,,,,,,,,,,,,,,,,,,,,,,,,,,,
,,?,0.000515,0,,,,,,stimuli/images/PICTURE_85.png,NATION,5ed651be42c213062cd3cea3,04/22/1987,2020-08-27_12h30.52.313,proactive3.2,2020.1.2,Win32,60,5f47c0b9b035471e11593a5c,5f47df949b01a622a876751e,2,,,,,,diamond,,,,,,,,,,,1,1,0,42,42,5,1,,,,,,,,,,,,,,,,,,,,,,,,,,,,,,,,,,,,,,,,,,,,,,,,,,,,,,,,,,,,,,,,,,,,,,
,,AGENT,4.549065,1,,,,,,stimuli/images/PICTURE_469.png,AGENT,5ed651be42c213062cd3cea3,04/22/1987,2020-08-27_12h30.52.313,proactive3.2,2020.1.2,Win32,60,5f47c0b9b035471e11593a5c,5f47df949b01a622a876751e,2,,,,,,stool,,,,,,,,,,,2,1,0,43,43,16,1,,,,,,,,,,,,,,,,,,,,,,,,,,,,,,,,,,,,,,,,,,,,,,,,,,,,,,,,,,,,,,,,,,,,,,
,,?,0.003495,0,,,,,,stimuli/images/PICTURE_68.png,MILE,5ed651be42c213062cd3cea3,04/22/1987,2020-08-27_12h30.52.313,proactive3.2,2020.1.2,Win32,60,5f47c0b9b035471e11593a5c,5f47df949b01a622a876751e,2,,,,,,candle,,,,,,,,,,,6,1,0,44,44,51,1,,,,,,,,,,,,,,,,,,,,,,,,,,,,,,,,,,,,,,,,,,,,,,,,,,,,,,,,,,,,,,,,,,,,,,
,,?,0.00169,0,,,,,,stimuli/images/PICTURE_383.png,SERIES,5ed651be42c213062cd3cea3,04/22/1987,2020-08-27_12h30.52.313,proactive3.2,2020.1.2,Win32,60,5f47c0b9b035471e11593a5c,5f47df949b01a622a876751e,2,,,,,,coin,,,,,,,,,,,5,1,0,45,45,46,1,,,,,,,,,,,,,,,,,,,,,,,,,,,,,,,,,,,,,,,,,,,,,,,,,,,,,,,,,,,,,,,,,,,,,,
,,?,9.709625,0,,,,,,stimuli/images/PICTURE_491.png,GLASS,5ed651be42c213062cd3cea3,04/22/1987,2020-08-27_12h30.52.313,proactive3.2,2020.1.2,Win32,60,5f47c0b9b035471e11593a5c,5f47df949b01a622a876751e,2,,,,,,rug,,,,,,,,,,,2,1,0,46,46,14,1,,,,,,,,,,,,,,,,,,,,,,,,,,,,,,,,,,,,,,,,,,,,,,,,,,,,,,,,,,,,,,,,,,,,,,
,,?,0.00358,0,,,,,,stimuli/images/PICTURE_203.png,NIGHT,5ed651be42c213062cd3cea3,04/22/1987,2020-08-27_12h30.52.313,proactive3.2,2020.1.2,Win32,60,5f47c0b9b035471e11593a5c,5f47df949b01a622a876751e,2,,,,,,cap,,,,,,,,,,,1,1,0,47,47,2,1,,,,,,,,,,,,,,,,,,,,,,,,,,,,,,,,,,,,,,,,,,,,,,,,,,,,,,,,,,,,,,,,,,,,,,
,,?,0.00148,0,,,,,,stimuli/images/PICTURE_177.png,WRITER,5ed651be42c213062cd3cea3,04/22/1987,2020-08-27_12h30.52.313,proactive3.2,2020.1.2,Win32,60,5f47c0b9b035471e11593a5c,5f47df949b01a622a876751e,2,,,,,,mushroom,,,,,,,,,,,5,1,0,48,48,41,1,,,,,,,,,,,,,,,,,,,,,,,,,,,,,,,,,,,,,,,,,,,,,,,,,,,,,,,,,,,,,,,,,,,,,,
,,?,0.00213,0,,,,,,stimuli/images/PICTURE_383.png,WRITER,5ed651be42c213062cd3cea3,04/22/1987,2020-08-27_12h30.52.313,proactive3.2,2020.1.2,Win32,60,5f47c0b9b035471e11593a5c,5f47df949b01a622a876751e,2,,,,,,coin,,,,,,,,,,,3,1,0,49,49,28,1,,,,,,,,,,,,,,,,,,,,,,,,,,,,,,,,,,,,,,,,,,,,,,,,,,,,,,,,,,,,,,,,,,,,,,
,,?,5.65952,0,,,,,,stimuli/images/PICTURE_655.png,TOILET,5ed651be42c213062cd3cea3,04/22/1987,2020-08-27_12h30.52.313,proactive3.2,2020.1.2,Win32,60,5f47c0b9b035471e11593a5c,5f47df949b01a622a876751e,2,,,,,,megaphone,,,,,,,,,,,2,1,0,50,50,12,1,,,,,,,,,,,,,,,,,,,,,,,,,,,,,,,,,,,,,,,,,,,,,,,,,,,,,,,,,,,,,,,,,,,,,,
,,?,0.003905,0,,,,,,stimuli/images/PICTURE_85.png,TOILET,5ed651be42c213062cd3cea3,04/22/1987,2020-08-27_12h30.52.313,proactive3.2,2020.1.2,Win32,60,5f47c0b9b035471e11593a5c,5f47df949b01a622a876751e,2,,,,,,diamond,,,,,,,,,,,5,1,0,51,51,48,1,,,,,,,,,,,,,,,,,,,,,,,,,,,,,,,,,,,,,,,,,,,,,,,,,,,,,,,,,,,,,,,,,,,,,,
,,?,2.06388,0,,,,,,stimuli/images/PICTURE_504.png,YEAR,5ed651be42c213062cd3cea3,04/22/1987,2020-08-27_12h30.52.313,proactive3.2,2020.1.2,Win32,60,5f47c0b9b035471e11593a5c,5f47df949b01a622a876751e,2,,,,,,wheel,,,,,,,,,,,2,1,0,52,52,13,1,,,,,,,,,,,,,,,,,,,,,,,,,,,,,,,,,,,,,,,,,,,,,,,,,,,,,,,,,,,,,,,,,,,,,,
,,?,0.00426,0,,,,,,stimuli/images/PICTURE_467.png,POLICY,5ed651be42c213062cd3cea3,04/22/1987,2020-08-27_12h30.52.313,proactive3.2,2020.1.2,Win32,60,5f47c0b9b035471e11593a5c,5f47df949b01a622a876751e,2,,,,,,peg,,,,,,,,,,,6,1,0,53,53,53,1,,,,,,,,,,,,,,,,,,,,,,,,,,,,,,,,,,,,,,,,,,,,,,,,,,,,,,,,,,,,,,,,,,,,,,
,,?,0.001515,0,,,,,,stimuli/images/PICTURE_203.png,GODS,5ed651be42c213062cd3cea3,04/22/1987,2020-08-27_12h30.52.313,proactive3.2,2020.1.2,Win32,60,5f47c0b9b035471e11593a5c,5f47df949b01a622a876751e,2,,,,,,cap,,,,,,,,,,,4,1,0,54,54,30,1,,,,,,,,,,,,,,,,,,,,,,,,,,,,,,,,,,,,,,,,,,,,,,,,,,,,,,,,,,,,,,,,,,,,,,
,,?,0.001645,0,,,,,,stimuli/images/PICTURE_147.png,YEAR,5ed651be42c213062cd3cea3,04/22/1987,2020-08-27_12h30.52.313,proactive3.2,2020.1.2,Win32,60,5f47c0b9b035471e11593a5c,5f47df949b01a622a876751e,2,,,,,,hanger,,,,,,,,,,,3,1,0,55,55,21,1,,,,,,,,,,,,,,,,,,,,,,,,,,,,,,,,,,,,,,,,,,,,,,,,,,,,,,,,,,,,,,,,,,,,,,
,,?,0.003795,0,,,,,,stimuli/images/PICTURE_403.png,TOILET,5ed651be42c213062cd3cea3,04/22/1987,2020-08-27_12h30.52.313,proactive3.2,2020.1.2,Win32,60,5f47c0b9b035471e11593a5c,5f47df949b01a622a876751e,2,,,,,,cathedral,,,,,,,,,,,3,1,0,56,56,25,1,,,,,,,,,,,,,,,,,,,,,,,,,,,,,,,,,,,,,,,,,,,,,,,,,,,,,,,,,,,,,,,,,,,,,,
,,?,0.00154,0,,,,,,stimuli/images/PICTURE_405.png,YEAR,5ed651be42c213062cd3cea3,04/22/1987,2020-08-27_12h30.52.313,proactive3.2,2020.1.2,Win32,60,5f47c0b9b035471e11593a5c,5f47df949b01a622a876751e,2,,,,,,anchor,,,,,,,,,,,4,1,0,57,57,34,1,,,,,,,,,,,,,,,,,,,,,,,,,,,,,,,,,,,,,,,,,,,,,,,,,,,,,,,,,,,,,,,,,,,,,,
,,?,0.00149,0,,,,,,stimuli/images/PICTURE_68.png,ROOF,5ed651be42c213062cd3cea3,04/22/1987,2020-08-27_12h30.52.313,proactive3.2,2020.1.2,Win32,60,5f47c0b9b035471e11593a5c,5f47df949b01a622a876751e,2,,,,,,candle,,,,,,,,,,,4,1,0,58,58,38,1,,,,,,,,,,,,,,,,,,,,,,,,,,,,,,,,,,,,,,,,,,,,,,,,,,,,,,,,,,,,,,,,,,,,,,
,,?,0.00135,0,,,,,,stimuli/images/PICTURE_308.png,FAMILY,5ed651be42c213062cd3cea3,04/22/1987,2020-08-27_12h30.52.313,proactive3.2,2020.1.2,Win32,60,5f47c0b9b035471e11593a5c,5f47df949b01a622a876751e,2,,,,,,dice,,,,,,,,,,,4,1,0,59,59,36,1,,,,,,,,,,,,,,,,,,,,,,,,,,,,,,,,,,,,,,,,,,,,,,,,,,,,,,,,,,,,,,,,,,,,,,
,,,,,,,,,,,,5ed651be42c213062cd3cea3,04/22/1987,2020-08-27_12h30.52.313,proactive3.2,2020.1.2,Win32,60,5f47c0b9b035471e11593a5c,5f47df949b01a622a876751e,2,,,,,,,,,,,,,,,,,,,,,,,,0,1,1,1,1,stimuli/learn-block2.csv,,,,,,,,,,,,,,,,,,,,,,,,,,,,,,,,,,,,,,,,,,,,,,,,,,,,,,,,,,,,,,,,
,,,,,,,,,,stimuli/images/PICTURE_18.png,RIVER,5ed651be42c213062cd3cea3,04/22/1987,2020-08-27_12h30.52.313,proactive3.2,2020.1.2,Win32,60,5f47c0b9b035471e11593a5c,5f47df949b01a622a876751e,2,,,,,,planet,,,,,,0,0,0,22,1,3,2,,,,,,,,,,,,,,,,,,,,,,,,,,,,,,,,,,,,,,,,,,,,,,,,,,,,,,,,,,,,,,,,,,,,,,,,,,,
,,,,,,,,,,stimuli/images/PICTURE_452.png,COPS,5ed651be42c213062cd3cea3,04/22/1987,2020-08-27_12h30.52.313,proactive3.2,2020.1.2,Win32,60,5f47c0b9b035471e11593a5c,5f47df949b01a622a876751e,2,,,,,,watch,,,,,,0,1,1,0,1,1,2,,,,,,,,,,,,,,,,,,,,,,,,,,,,,,,,,,,,,,,,,,,,,,,,,,,,,,,,,,,,,,,,,,,,,,,,,,,
,,,,,,,,,,stimuli/images/PICTURE_285.png,WRITER,5ed651be42c213062cd3cea3,04/22/1987,2020-08-27_12h30.52.313,proactive3.2,2020.1.2,Win32,60,5f47c0b9b035471e11593a5c,5f47df949b01a622a876751e,2,,,,,,carrot,,,,,,0,2,2,6,1,1,2,,,,,,,,,,,,,,,,,,,,,,,,,,,,,,,,,,,,,,,,,,,,,,,,,,,,,,,,,,,,,,,,,,,,,,,,,,,
,,,,,,,,,,stimuli/images/PICTURE_356.png,CANDY,5ed651be42c213062cd3cea3,04/22/1987,2020-08-27_12h30.52.313,proactive3.2,2020.1.2,Win32,60,5f47c0b9b035471e11593a5c,5f47df949b01a622a876751e,2,,,,,,pawn,,,,,,0,3,3,46,1,5,2,,,,,,,,,,,,,,,,,,,,,,,,,,,,,,,,,,,,,,,,,,,,,,,,,,,,,,,,,,,,,,,,,,,,,,,,,,,
,,,,,,,,,,stimuli/images/PICTURE_509.png,APPLE,5ed651be42c213062cd3cea3,04/22/1987,2020-08-27_12h30.52.313,proactive3.2,2020.1.2,Win32,60,5f47c0b9b035471e11593a5c,5f47df949b01a622a876751e,2,,,,,,telephone,,,,,,0,4,4,38,1,4,2,,,,,,,,,,,,,,,,,,,,,,,,,,,,,,,,,,,,,,,,,,,,,,,,,,,,,,,,,,,,,,,,,,,,,,,,,,,
,,,,,,,,,,stimuli/images/PICTURE_93.png,GIRL,5ed651be42c213062cd3cea3,04/22/1987,2020-08-27_12h30.52.313,proactive3.2,2020.1.2,Win32,60,5f47c0b9b035471e11593a5c,5f47df949b01a622a876751e,2,,,,,,skateboard,,,,,,0,5,5,31,1,4,2,,,,,,,,,,,,,,,,,,,,,,,,,,,,,,,,,,,,,,,,,,,,,,,,,,,,,,,,,,,,,,,,,,,,,,,,,,,
,,,,,,,,,,stimuli/images/PICTURE_57.png,NATION,5ed651be42c213062cd3cea3,04/22/1987,2020-08-27_12h30.52.313,proactive3.2,2020.1.2,Win32,60,5f47c0b9b035471e11593a5c,5f47df949b01a622a876751e,2,,,,,,stamp,,,,,,0,6,6,21,1,3,2,,,,,,,,,,,,,,,,,,,,,,,,,,,,,,,,,,,,,,,,,,,,,,,,,,,,,,,,,,,,,,,,,,,,,,,,,,,
,,,,,,,,,,stimuli/images/PICTURE_177.png,HOUSE,5ed651be42c213062cd3cea3,04/22/1987,2020-08-27_12h30.52.313,proactive3.2,2020.1.2,Win32,60,5f47c0b9b035471e11593a5c,5f47df949b01a622a876751e,2,,,,,,mushroom,,,,,,0,7,7,25,1,3,2,,,,,,,,,,,,,,,,,,,,,,,,,,,,,,,,,,,,,,,,,,,,,,,,,,,,,,,,,,,,,,,,,,,,,,,,,,,
,,,,,,,,,,stimuli/images/PICTURE_405.png,JUNGLE,5ed651be42c213062cd3cea3,04/22/1987,2020-08-27_12h30.52.313,proactive3.2,2020.1.2,Win32,60,5f47c0b9b035471e11593a5c,5f47df949b01a622a876751e,2,,,,,,anchor,,,,,,0,8,8,13,1,2,2,,,,,,,,,,,,,,,,,,,,,,,,,,,,,,,,,,,,,,,,,,,,,,,,,,,,,,,,,,,,,,,,,,,,,,,,,,,
,,,,,,,,,,stimuli/images/PICTURE_491.png,SERIES,5ed651be42c213062cd3cea3,04/22/1987,2020-08-27_12h30.52.313,proactive3.2,2020.1.2,Win32,60,5f47c0b9b035471e11593a5c,5f47df949b01a622a876751e,2,,,,,,rug,,,,,,0,9,9,39,1,4,2,,,,,,,,,,,,,,,,,,,,,,,,,,,,,,,,,,,,,,,,,,,,,,,,,,,,,,,,,,,,,,,,,,,,,,,,,,,
,,,,,,,,,,stimuli/images/PICTURE_32.png,LETTER,5ed651be42c213062cd3cea3,04/22/1987,2020-08-27_12h30.52.313,proactive3.2,2020.1.2,Win32,60,5f47c0b9b035471e11593a5c,5f47df949b01a622a876751e,2,,,,,,crown,,,,,,0,10,10,56,1,6,2,,,,,,,,,,,,,,,,,,,,,,,,,,,,,,,,,,,,,,,,,,,,,,,,,,,,,,,,,,,,,,,,,,,,,,,,,,,
,,,,,,,,,,stimuli/images/PICTURE_403.png,FAMILY,5ed651be42c213062cd3cea3,04/22/1987,2020-08-27_12h30.52.313,proactive3.2,2020.1.2,Win32,60,5f47c0b9b035471e11593a5c,5f47df949b01a622a876751e,2,,,,,,cathedral,,,,,,0,11,11,9,1,1,2,,,,,,,,,,,,,,,,,,,,,,,,,,,,,,,,,,,,,,,,,,,,,,,,,,,,,,,,,,,,,,,,,,,,,,,,,,,
,,,,,,,,,,stimuli/images/PICTURE_285.png,PRINCE,5ed651be42c213062cd3cea3,04/22/1987,2020-08-27_12h30.52.313,proactive3.2,2020.1.2,Win32,60,5f47c0b9b035471e11593a5c,5f47df949b01a622a876751e,2,,,,,,carrot,,,,,,0,12,12,20,1,3,2,,,,,,,,,,,,,,,,,,,,,,,,,,,,,,,,,,,,,,,,,,,,,,,,,,,,,,,,,,,,,,,,,,,,,,,,,,,
,,,,,,,,,,stimuli/images/PICTURE_141.png,CLIENT,5ed651be42c213062cd3cea3,04/22/1987,2020-08-27_12h30.52.313,proactive3.2,2020.1.2,Win32,60,5f47c0b9b035471e11593a5c,5f47df949b01a622a876751e,2,,,,,,sunflower,,,,,,0,13,13,30,1,4,2,,,,,,,,,,,,,,,,,,,,,,,,,,,,,,,,,,,,,,,,,,,,,,,,,,,,,,,,,,,,,,,,,,,,,,,,,,,
,,,,,,,,,,stimuli/images/PICTURE_215.png,BOYS,5ed651be42c213062cd3cea3,04/22/1987,2020-08-27_12h30.52.313,proactive3.2,2020.1.2,Win32,60,5f47c0b9b035471e11593a5c,5f47df949b01a622a876751e,2,,,,,,boot,,,,,,0,14,14,24,1,3,2,,,,,,,,,,,,,,,,,,,,,,,,,,,,,,,,,,,,,,,,,,,,,,,,,,,,,,,,,,,,,,,,,,,,,,,,,,,
,,,,,,,,,,stimuli/images/PICTURE_405.png,JUNGLE,5ed651be42c213062cd3cea3,04/22/1987,2020-08-27_12h30.52.313,proactive3.2,2020.1.2,Win32,60,5f47c0b9b035471e11593a5c,5f47df949b01a622a876751e,2,,,,,,anchor,,,,,,0,15,15,58,1,6,2,,,,,,,,,,,,,,,,,,,,,,,,,,,,,,,,,,,,,,,,,,,,,,,,,,,,,,,,,,,,,,,,,,,,,,,,,,,
,,,,,,,,,,stimuli/images/PICTURE_692.png,DUDE,5ed651be42c213062cd3cea3,04/22/1987,2020-08-27_12h30.52.313,proactive3.2,2020.1.2,Win32,60,5f47c0b9b035471e11593a5c,5f47df949b01a622a876751e,2,,,,,,cherry,,,,,,0,16,16,47,1,5,2,,,,,,,,,,,,,,,,,,,,,,,,,,,,,,,,,,,,,,,,,,,,,,,,,,,,,,,,,,,,,,,,,,,,,,,,,,,
,,,,,,,,,,stimuli/images/PICTURE_123.png,SALE,5ed651be42c213062cd3cea3,04/22/1987,2020-08-27_12h30.52.313,proactive3.2,2020.1.2,Win32,60,5f47c0b9b035471e11593a5c,5f47df949b01a622a876751e,2,,,,,,dart,,,,,,0,17,17,8,1,1,2,,,,,,,,,,,,,,,,,,,,,,,,,,,,,,,,,,,,,,,,,,,,,,,,,,,,,,,,,,,,,,,,,,,,,,,,,,,
,,,,,,,,,,stimuli/images/PICTURE_750.png,POLICY,5ed651be42c213062cd3cea3,04/22/1987,2020-08-27_12h30.52.313,proactive3.2,2020.1.2,Win32,60,5f47c0b9b035471e11593a5c,5f47df949b01a622a876751e,2,,,,,,kettle,,,,,,0,18,18,44,1,5,2,,,,,,,,,,,,,,,,,,,,,,,,,,,,,,,,,,,,,,,,,,,,,,,,,,,,,,,,,,,,,,,,,,,,,,,,,,,
,,,,,,,,,,stimuli/images/PICTURE_147.png,LEADER,5ed651be42c213062cd3cea3,04/22/1987,2020-08-27_12h30.52.313,proactive3.2,2020.1.2,Win32,60,5f47c0b9b035471e11593a5c,5f47df949b01a622a876751e,2,,,,,,hanger,,,,,,0,19,19,33,1,4,2,,,,,,,,,,,,,,,,,,,,,,,,,,,,,,,,,,,,,,,,,,,,,,,,,,,,,,,,,,,,,,,,,,,,,,,,,,,
,,,,,,,,,,stimuli/images/PICTURE_57.png,CASINO,5ed651be42c213062cd3cea3,04/22/1987,2020-08-27_12h30.52.313,proactive3.2,2020.1.2,Win32,60,5f47c0b9b035471e11593a5c,5f47df949b01a622a876751e,2,,,,,,stamp,,,,,,0,20,20,12,1,2,2,,,,,,,,,,,,,,,,,,,,,,,,,,,,,,,,,,,,,,,,,,,,,,,,,,,,,,,,,,,,,,,,,,,,,,,,,,,
,,,,,,,,,,stimuli/images/PICTURE_297.png,BODY,5ed651be42c213062cd3cea3,04/22/1987,2020-08-27_12h30.52.313,proactive3.2,2020.1.2,Win32,60,5f47c0b9b035471e11593a5c,5f47df949b01a622a876751e,2,,,,,,aeroplane,,,,,,0,21,21,51,1,6,2,,,,,,,,,,,,,,,,,,,,,,,,,,,,,,,,,,,,,,,,,,,,,,,,,,,,,,,,,,,,,,,,,,,,,,,,,,,
,,,,,,,,,,stimuli/images/PICTURE_215.png,LEADER,5ed651be42c213062cd3cea3,04/22/1987,2020-08-27_12h30.52.313,proactive3.2,2020.1.2,Win32,60,5f47c0b9b035471e11593a5c,5f47df949b01a622a876751e,2,,,,,,boot,,,,,,0,22,22,43,1,5,2,,,,,,,,,,,,,,,,,,,,,,,,,,,,,,,,,,,,,,,,,,,,,,,,,,,,,,,,,,,,,,,,,,,,,,,,,,,
,,,,,,,,,,stimuli/images/PICTURE_470.png,BEAUTY,5ed651be42c213062cd3cea3,04/22/1987,2020-08-27_12h30.52.313,proactive3.2,2020.1.2,Win32,60,5f47c0b9b035471e11593a5c,5f47df949b01a622a876751e,2,,,,,,motorbike,,,,,,0,23,23,26,1,3,2,,,,,,,,,,,,,,,,,,,,,,,,,,,,,,,,,,,,,,,,,,,,,,,,,,,,,,,,,,,,,,,,,,,,,,,,,,,
,,,,,,,,,,stimuli/images/PICTURE_311.png,TOILET,5ed651be42c213062cd3cea3,04/22/1987,2020-08-27_12h30.52.313,proactive3.2,2020.1.2,Win32,60,5f47c0b9b035471e11593a5c,5f47df949b01a622a876751e,2,,,,,,razor,,,,,,0,24,24,54,1,6,2,,,,,,,,,,,,,,,,,,,,,,,,,,,,,,,,,,,,,,,,,,,,,,,,,,,,,,,,,,,,,,,,,,,,,,,,,,,
,,,,,,,,,,stimuli/images/PICTURE_708.png,VALLEY,5ed651be42c213062cd3cea3,04/22/1987,2020-08-27_12h30.52.313,proactive3.2,2020.1.2,Win32,60,5f47c0b9b035471e11593a5c,5f47df949b01a622a876751e,2,,,,,,monkey,,,,,,0,25,25,45,1,5,2,,,,,,,,,,,,,,,,,,,,,,,,,,,,,,,,,,,,,,,,,,,,,,,,,,,,,,,,,,,,,,,,,,,,,,,,,,,
,,,,,,,,,,stimuli/images/PICTURE_327.png,LEADER,5ed651be42c213062cd3cea3,04/22/1987,2020-08-27_12h30.52.313,proactive3.2,2020.1.2,Win32,60,5f47c0b9b035471e11593a5c,5f47df949b01a622a876751e,2,,,,,,helmet,,,,,,0,26,26,17,1,2,2,,,,,,,,,,,,,,,,,,,,,,,,,,,,,,,,,,,,,,,,,,,,,,,,,,,,,,,,,,,,,,,,,,,,,,,,,,,
,,,,,,,,,,stimuli/images/PICTURE_33.png,COPS,5ed651be42c213062cd3cea3,04/22/1987,2020-08-27_12h30.52.313,proactive3.2,2020.1.2,Win32,60,5f47c0b9b035471e11593a5c,5f47df949b01a622a876751e,2,,,,,,frame,,,,,,0,27,27,29,1,3,2,,,,,,,,,,,,,,,,,,,,,,,,,,,,,,,,,,,,,,,,,,,,,,,,,,,,,,,,,,,,,,,,,,,,,,,,,,,
,,,,,,,,,,stimuli/images/PICTURE_509.png,BATH,5ed651be42c213062cd3cea3,04/22/1987,2020-08-27_12h30.52.313,proactive3.2,2020.1.2,Win32,60,5f47c0b9b035471e11593a5c,5f47df949b01a622a876751e,2,,,,,,telephone,,,,,,0,28,28,15,1,2,2,,,,,,,,,,,,,,,,,,,,,,,,,,,,,,,,,,,,,,,,,,,,,,,,,,,,,,,,,,,,,,,,,,,,,,,,,,,
,,,,,,,,,,stimuli/images/PICTURE_208.png,SPIRIT,5ed651be42c213062cd3cea3,04/22/1987,2020-08-27_12h30.52.313,proactive3.2,2020.1.2,Win32,60,5f47c0b9b035471e11593a5c,5f47df949b01a622a876751e,2,,,,,,microphone,,,,,,0,29,29,28,1,3,2,,,,,,,,,,,,,,,,,,,,,,,,,,,,,,,,,,,,,,,,,,,,,,,,,,,,,,,,,,,,,,,,,,,,,,,,,,,
,,,,,,,,,,stimuli/images/PICTURE_68.png,KIND,5ed651be42c213062cd3cea3,04/22/1987,2020-08-27_12h30.52.313,proactive3.2,2020.1.2,Win32,60,5f47c0b9b035471e11593a5c,5f47df949b01a622a876751e,2,,,,,,candle,,,,,,0,30,30,23,1,3,2,,,,,,,,,,,,,,,,,,,,,,,,,,,,,,,,,,,,,,,,,,,,,,,,,,,,,,,,,,,,,,,,,,,,,,,,,,,
,,,,,,,,,,stimuli/images/PICTURE_314.png,SPEECH,5ed651be42c213062cd3cea3,04/22/1987,2020-08-27_12h30.52.313,proactive3.2,2020.1.2,Win32,60,5f47c0b9b035471e11593a5c,5f47df949b01a622a876751e,2,,,,,,perfume,,,,,,0,31,31,35,1,4,2,,,,,,,,,,,,,,,,,,,,,,,,,,,,,,,,,,,,,,,,,,,,,,,,,,,,,,,,,,,,,,,,,,,,,,,,,,,
,,,,,,,,,,stimuli/images/PICTURE_509.png,SHOTS,5ed651be42c213062cd3cea3,04/22/1987,2020-08-27_12h30.52.313,proactive3.2,2020.1.2,Win32,60,5f47c0b9b035471e11593a5c,5f47df949b01a622a876751e,2,,,,,,telephone,,,,,,0,32,32,7,1,1,2,,,,,,,,,,,,,,,,,,,,,,,,,,,,,,,,,,,,,,,,,,,,,,,,,,,,,,,,,,,,,,,,,,,,,,,,,,,
,,,,,,,,,,stimuli/images/PICTURE_296.png,CLOCK,5ed651be42c213062cd3cea3,04/22/1987,2020-08-27_12h30.52.313,proactive3.2,2020.1.2,Win32,60,5f47c0b9b035471e11593a5c,5f47df949b01a622a876751e,2,,,,,,bolt,,,,,,0,33,33,18,1,2,2,,,,,,,,,,,,,,,,,,,,,,,,,,,,,,,,,,,,,,,,,,,,,,,,,,,,,,,,,,,,,,,,,,,,,,,,,,,
,,,,,,,,,,stimuli/images/PICTURE_348.png,DUDE,5ed651be42c213062cd3cea3,04/22/1987,2020-08-27_12h30.52.313,proactive3.2,2020.1.2,Win32,60,5f47c0b9b035471e11593a5c,5f47df949b01a622a876751e,2,,,,,,pepper,,,,,,0,34,34,59,1,6,2,,,,,,,,,,,,,,,,,,,,,,,,,,,,,,,,,,,,,,,,,,,,,,,,,,,,,,,,,,,,,,,,,,,,,,,,,,,
,,,,,,,,,,stimuli/images/PICTURE_215.png,FOOD,5ed651be42c213062cd3cea3,04/22/1987,2020-08-27_12h30.52.313,proactive3.2,2020.1.2,Win32,60,5f47c0b9b035471e11593a5c,5f47df949b01a622a876751e,2,,,,,,boot,,,,,,0,35,35,5,1,1,2,,,,,,,,,,,,,,,,,,,,,,,,,,,,,,,,,,,,,,,,,,,,,,,,,,,,,,,,,,,,,,,,,,,,,,,,,,,
,,,,,,,,,,stimuli/images/PICTURE_677.png,PHOTO,5ed651be42c213062cd3cea3,04/22/1987,2020-08-27_12h30.52.313,proactive3.2,2020.1.2,Win32,60,5f47c0b9b035471e11593a5c,5f47df949b01a622a876751e,2,,,,,,map,,,,,,0,36,36,14,1,2,2,,,,,,,,,,,,,,,,,,,,,,,,,,,,,,,,,,,,,,,,,,,,,,,,,,,,,,,,,,,,,,,,,,,,,,,,,,,
,,,,,,,,,,stimuli/images/PICTURE_654.png,COPS,5ed651be42c213062cd3cea3,04/22/1987,2020-08-27_12h30.52.313,proactive3.2,2020.1.2,Win32,60,5f47c0b9b035471e11593a5c,5f47df949b01a622a876751e,2,,,,,,pencil,,,,,,0,37,37,10,1,2,2,,,,,,,,,,,,,,,,,,,,,,,,,,,,,,,,,,,,,,,,,,,,,,,,,,,,,,,,,,,,,,,,,,,,,,,,,,,
,,,,,,,,,,stimuli/images/PICTURE_2.png,YARD,5ed651be42c213062cd3cea3,04/22/1987,2020-08-27_12h30.52.313,proactive3.2,2020.1.2,Win32,60,5f47c0b9b035471e11593a5c,5f47df949b01a622a876751e,2,,,,,,tyre,,,,,,0,38,38,55,1,6,2,,,,,,,,,,,,,,,,,,,,,,,,,,,,,,,,,,,,,,,,,,,,,,,,,,,,,,,,,,,,,,,,,,,,,,,,,,,
,,,,,,,,,,stimuli/images/PICTURE_509.png,MILLER,5ed651be42c213062cd3cea3,04/22/1987,2020-08-27_12h30.52.313,proactive3.2,2020.1.2,Win32,60,5f47c0b9b035471e11593a5c,5f47df949b01a622a876751e,2,,,,,,telephone,,,,,,0,39,39,49,1,5,2,,,,,,,,,,,,,,,,,,,,,,,,,,,,,,,,,,,,,,,,,,,,,,,,,,,,,,,,,,,,,,,,,,,,,,,,,,,
,,,,,,,,,,stimuli/images/PICTURE_654.png,YEAR,5ed651be42c213062cd3cea3,04/22/1987,2020-08-27_12h30.52.313,proactive3.2,2020.1.2,Win32,60,5f47c0b9b035471e11593a5c,5f47df949b01a622a876751e,2,,,,,,pencil,,,,,,0,40,40,41,1,5,2,,,,,,,,,,,,,,,,,,,,,,,,,,,,,,,,,,,,,,,,,,,,,,,,,,,,,,,,,,,,,,,,,,,,,,,,,,,
,,,,,,,,,,stimuli/images/PICTURE_160.png,HOTEL,5ed651be42c213062cd3cea3,04/22/1987,2020-08-27_12h30.52.313,proactive3.2,2020.1.2,Win32,60,5f47c0b9b035471e11593a5c,5f47df949b01a622a876751e,2,,,,,,wheelbarrow,,,,,,0,41,41,16,1,2,2,,,,,,,,,,,,,,,,,,,,,,,,,,,,,,,,,,,,,,,,,,,,,,,,,,,,,,,,,,,,,,,,,,,,,,,,,,,
,,,,,,,,,,stimuli/images/PICTURE_2.png,JUNGLE,5ed651be42c213062cd3cea3,04/22/1987,2020-08-27_12h30.52.313,proactive3.2,2020.1.2,Win32,60,5f47c0b9b035471e11593a5c,5f47df949b01a622a876751e,2,,,,,,tyre,,,,,,0,42,42,1,1,1,2,,,,,,,,,,,,,,,,,,,,,,,,,,,,,,,,,,,,,,,,,,,,,,,,,,,,,,,,,,,,,,,,,,,,,,,,,,,
,,,,,,,,,,stimuli/images/PICTURE_348.png,TOILET,5ed651be42c213062cd3cea3,04/22/1987,2020-08-27_12h30.52.313,proactive3.2,2020.1.2,Win32,60,5f47c0b9b035471e11593a5c,5f47df949b01a622a876751e,2,,,,,,pepper,,,,,,0,43,43,4,1,1,2,,,,,,,,,,,,,,,,,,,,,,,,,,,,,,,,,,,,,,,,,,,,,,,,,,,,,,,,,,,,,,,,,,,,,,,,,,,
,,,,,,,,,,stimuli/images/PICTURE_688.png,CLOCK,5ed651be42c213062cd3cea3,04/22/1987,2020-08-27_12h30.52.313,proactive3.2,2020.1.2,Win32,60,5f47c0b9b035471e11593a5c,5f47df949b01a622a876751e,2,,,,,,runner,,,,,,0,44,44,42,1,5,2,,,,,,,,,,,,,,,,,,,,,,,,,,,,,,,,,,,,,,,,,,,,,,,,,,,,,,,,,,,,,,,,,,,,,,,,,,,
,,,,,,,,,,stimuli/images/PICTURE_504.png,HOUSE,5ed651be42c213062cd3cea3,04/22/1987,2020-08-27_12h30.52.313,proactive3.2,2020.1.2,Win32,60,5f47c0b9b035471e11593a5c,5f47df949b01a622a876751e,2,,,,,,wheel,,,,,,0,45,45,36,1,4,2,,,,,,,,,,,,,,,,,,,,,,,,,,,,,,,,,,,,,,,,,,,,,,,,,,,,,,,,,,,,,,,,,,,,,,,,,,,
,,,,,,,,,,stimuli/images/PICTURE_564.png,PLENTY,5ed651be42c213062cd3cea3,04/22/1987,2020-08-27_12h30.52.313,proactive3.2,2020.1.2,Win32,60,5f47c0b9b035471e11593a5c,5f47df949b01a622a876751e,2,,,,,,spoon,,,,,,0,46,46,11,1,2,2,,,,,,,,,,,,,,,,,,,,,,,,,,,,,,,,,,,,,,,,,,,,,,,,,,,,,,,,,,,,,,,,,,,,,,,,,,,
,,,,,,,,,,stimuli/images/PICTURE_255.png,PENNY,5ed651be42c213062cd3cea3,04/22/1987,2020-08-27_12h30.52.313,proactive3.2,2020.1.2,Win32,60,5f47c0b9b035471e11593a5c,5f47df949b01a622a876751e,2,,,,,,shovel,,,,,,0,47,47,19,1,2,2,,,,,,,,,,,,,,,,,,,,,,,,,,,,,,,,,,,,,,,,,,,,,,,,,,,,,,,,,,,,,,,,,,,,,,,,,,,
,,,,,,,,,,stimuli/images/PICTURE_2.png,AREA,5ed651be42c213062cd3cea3,04/22/1987,2020-08-27_12h30.52.313,proactive3.2,2020.1.2,Win32,60,5f47c0b9b035471e11593a5c,5f47df949b01a622a876751e,2,,,,,,tyre,,,,,,0,48,48,32,1,4,2,,,,,,,,,,,,,,,,,,,,,,,,,,,,,,,,,,,,,,,,,,,,,,,,,,,,,,,,,,,,,,,,,,,,,,,,,,,
,,,,,,,,,,stimuli/images/PICTURE_655.png,SALE,5ed651be42c213062cd3cea3,04/22/1987,2020-08-27_12h30.52.313,proactive3.2,2020.1.2,Win32,60,5f47c0b9b035471e11593a5c,5f47df949b01a622a876751e,2,,,,,,megaphone,,,,,,0,49,49,57,1,6,2,,,,,,,,,,,,,,,,,,,,,,,,,,,,,,,,,,,,,,,,,,,,,,,,,,,,,,,,,,,,,,,,,,,,,,,,,,,
,,,,,,,,,,stimuli/images/PICTURE_487.png,POLICY,5ed651be42c213062cd3cea3,04/22/1987,2020-08-27_12h30.52.313,proactive3.2,2020.1.2,Win32,60,5f47c0b9b035471e11593a5c,5f47df949b01a622a876751e,2,,,,,,basket,,,,,,0,50,50,34,1,4,2,,,,,,,,,,,,,,,,,,,,,,,,,,,,,,,,,,,,,,,,,,,,,,,,,,,,,,,,,,,,,,,,,,,,,,,,,,,
,,,,,,,,,,stimuli/images/PICTURE_677.png,FAMILY,5ed651be42c213062cd3cea3,04/22/1987,2020-08-27_12h30.52.313,proactive3.2,2020.1.2,Win32,60,5f47c0b9b035471e11593a5c,5f47df949b01a622a876751e,2,,,,,,map,,,,,,0,51,51,53,1,6,2,,,,,,,,,,,,,,,,,,,,,,,,,,,,,,,,,,,,,,,,,,,,,,,,,,,,,,,,,,,,,,,,,,,,,,,,,,,
,,,,,,,,,,stimuli/images/PICTURE_405.png,HOUSE,5ed651be42c213062cd3cea3,04/22/1987,2020-08-27_12h30.52.313,proactive3.2,2020.1.2,Win32,60,5f47c0b9b035471e11593a5c,5f47df949b01a622a876751e,2,,,,,,anchor,,,,,,0,52,52,2,1,1,2,,,,,,,,,,,,,,,,,,,,,,,,,,,,,,,,,,,,,,,,,,,,,,,,,,,,,,,,,,,,,,,,,,,,,,,,,,,
,,,,,,,,,,stimuli/images/PICTURE_311.png,FLESH,5ed651be42c213062cd3cea3,04/22/1987,2020-08-27_12h30.52.313,proactive3.2,2020.1.2,Win32,60,5f47c0b9b035471e11593a5c,5f47df949b01a622a876751e,2,,,,,,razor,,,,,,0,53,53,3,1,1,2,,,,,,,,,,,,,,,,,,,,,,,,,,,,,,,,,,,,,,,,,,,,,,,,,,,,,,,,,,,,,,,,,,,,,,,,,,,
,,,,,,,,,,stimuli/images/PICTURE_95.png,NIGHT,5ed651be42c213062cd3cea3,04/22/1987,2020-08-27_12h30.52.313,proactive3.2,2020.1.2,Win32,60,5f47c0b9b035471e11593a5c,5f47df949b01a622a876751e,2,,,,,,suitcase,,,,,,0,54,54,37,1,4,2,,,,,,,,,,,,,,,,,,,,,,,,,,,,,,,,,,,,,,,,,,,,,,,,,,,,,,,,,,,,,,,,,,,,,,,,,,,
,,,,,,,,,,stimuli/images/PICTURE_57.png,CANDY,5ed651be42c213062cd3cea3,04/22/1987,2020-08-27_12h30.52.313,proactive3.2,2020.1.2,Win32,60,5f47c0b9b035471e11593a5c,5f47df949b01a622a876751e,2,,,,,,stamp,,,,,,0,55,55,52,1,6,2,,,,,,,,,,,,,,,,,,,,,,,,,,,,,,,,,,,,,,,,,,,,,,,,,,,,,,,,,,,,,,,,,,,,,,,,,,,
,,,,,,,,,,stimuli/images/PICTURE_470.png,MOMENT,5ed651be42c213062cd3cea3,04/22/1987,2020-08-27_12h30.52.313,proactive3.2,2020.1.2,Win32,60,5f47c0b9b035471e11593a5c,5f47df949b01a622a876751e,2,,,,,,motorbike,,,,,,0,56,56,40,1,5,2,,,,,,,,,,,,,,,,,,,,,,,,,,,,,,,,,,,,,,,,,,,,,,,,,,,,,,,,,,,,,,,,,,,,,,,,,,,
,,,,,,,,,,stimuli/images/PICTURE_667.png,GLASS,5ed651be42c213062cd3cea3,04/22/1987,2020-08-27_12h30.52.313,proactive3.2,2020.1.2,Win32,60,5f47c0b9b035471e11593a5c,5f47df949b01a622a876751e,2,,,,,,daisy,,,,,,0,57,57,27,1,3,2,,,,,,,,,,,,,,,,,,,,,,,,,,,,,,,,,,,,,,,,,,,,,,,,,,,,,,,,,,,,,,,,,,,,,,,,,,,
,,,,,,,,,,stimuli/images/PICTURE_487.png,ROOF,5ed651be42c213062cd3cea3,04/22/1987,2020-08-27_12h30.52.313,proactive3.2,2020.1.2,Win32,60,5f47c0b9b035471e11593a5c,5f47df949b01a622a876751e,2,,,,,,basket,,,,,,0,58,58,50,1,6,2,,,,,,,,,,,,,,,,,,,,,,,,,,,,,,,,,,,,,,,,,,,,,,,,,,,,,,,,,,,,,,,,,,,,,,,,,,,
,,?,0.00166,0,,,,,,stimuli/images/PICTURE_297.png,BODY,5ed651be42c213062cd3cea3,04/22/1987,2020-08-27_12h30.52.313,proactive3.2,2020.1.2,Win32,60,5f47c0b9b035471e11593a5c,5f47df949b01a622a876751e,2,,,,,,aeroplane,,,,,,,,,,,6,2,0,0,0,51,1,,,,,,,,,,,,,,,,,,,,,,,,,,,,,,,,,,,,,,,,,,,,,,,,,,,,,,,,,,,,,,,,,,,,,,
,,BATH,1.885765,1,,,,,,stimuli/images/PICTURE_509.png,BATH,5ed651be42c213062cd3cea3,04/22/1987,2020-08-27_12h30.52.313,proactive3.2,2020.1.2,Win32,60,5f47c0b9b035471e11593a5c,5f47df949b01a622a876751e,2,,,,,,telephone,,,,,,,,,,,2,2,0,1,1,15,1,,,,,,,,,,,,,,,,,,,,,,,,,,,,,,,,,,,,,,,,,,,,,,,,,,,,,,,,,,,,,,,,,,,,,,
,,?,0.00243,0,,,,,,stimuli/images/PICTURE_215.png,BOYS,5ed651be42c213062cd3cea3,04/22/1987,2020-08-27_12h30.52.313,proactive3.2,2020.1.2,Win32,60,5f47c0b9b035471e11593a5c,5f47df949b01a622a876751e,2,,,,,,boot,,,,,,,,,,,3,2,0,2,2,24,1,,,,,,,,,,,,,,,,,,,,,,,,,,,,,,,,,,,,,,,,,,,,,,,,,,,,,,,,,,,,,,,,,,,,,,
,,PLENTY,8.77336,0,,,,,,stimuli/images/PICTURE_255.png,PENNY,5ed651be42c213062cd3cea3,04/22/1987,2020-08-27_12h30.52.313,proactive3.2,2020.1.2,Win32,60,5f47c0b9b035471e11593a5c,5f47df949b01a622a876751e,2,,,,,,shovel,,,,,,,,,,,2,2,0,3,3,19,1,,,,,,,,,,,,,,,,,,,,,,,,,,,,,,,,,,,,,,,,,,,,,,,,,,,,,,,,,,,,,,,,,,,,,,
,,?,0.00234,0,,,,,,stimuli/images/PICTURE_504.png,HOUSE,5ed651be42c213062cd3cea3,04/22/1987,2020-08-27_12h30.52.313,proactive3.2,2020.1.2,Win32,60,5f47c0b9b035471e11593a5c,5f47df949b01a622a876751e,2,,,,,,wheel,,,,,,,,,,,4,2,0,4,4,36,1,,,,,,,,,,,,,,,,,,,,,,,,,,,,,,,,,,,,,,,,,,,,,,,,,,,,,,,,,,,,,,,,,,,,,,
,,LEADER,1.676905,1,,,,,,stimuli/images/PICTURE_327.png,LEADER,5ed651be42c213062cd3cea3,04/22/1987,2020-08-27_12h30.52.313,proactive3.2,2020.1.2,Win32,60,5f47c0b9b035471e11593a5c,5f47df949b01a622a876751e,2,,,,,,helmet,,,,,,,,,,,2,2,0,5,5,17,1,,,,,,,,,,,,,,,,,,,,,,,,,,,,,,,,,,,,,,,,,,,,,,,,,,,,,,,,,,,,,,,,,,,,,,
,,?,0.0029,0,,,,,,stimuli/images/PICTURE_654.png,YEAR,5ed651be42c213062cd3cea3,04/22/1987,2020-08-27_12h30.52.313,proactive3.2,2020.1.2,Win32,60,5f47c0b9b035471e11593a5c,5f47df949b01a622a876751e,2,,,,,,pencil,,,,,,,,,,,5,2,0,6,6,41,1,,,,,,,,,,,,,,,,,,,,,,,,,,,,,,,,,,,,,,,,,,,,,,,,,,,,,,,,,,,,,,,,,,,,,,
,,?,0.001575,0,,,,,,stimuli/images/PICTURE_285.png,WRITER,5ed651be42c213062cd3cea3,04/22/1987,2020-08-27_12h30.52.313,proactive3.2,2020.1.2,Win32,60,5f47c0b9b035471e11593a5c,5f47df949b01a622a876751e,2,,,,,,carrot,,,,,,,,,,,1,2,0,7,7,6,1,,,,,,,,,,,,,,,,,,,,,,,,,,,,,,,,,,,,,,,,,,,,,,,,,,,,,,,,,,,,,,,,,,,,,,
,,?,0.00136,0,,,,,,stimuli/images/PICTURE_452.png,COPS,5ed651be42c213062cd3cea3,04/22/1987,2020-08-27_12h30.52.313,proactive3.2,2020.1.2,Win32,60,5f47c0b9b035471e11593a5c,5f47df949b01a622a876751e,2,,,,,,watch,,,,,,,,,,,1,2,0,8,8,0,1,,,,,,,,,,,,,,,,,,,,,,,,,,,,,,,,,,,,,,,,,,,,,,,,,,,,,,,,,,,,,,,,,,,,,,
,,,9.13185,0,,,,,,stimuli/images/PICTURE_405.png,JUNGLE,5ed651be42c213062cd3cea3,04/22/1987,2020-08-27_12h30.52.313,proactive3.2,2020.1.2,Win32,60,5f47c0b9b035471e11593a5c,5f47df949b01a622a876751e,2,,,,,,anchor,,,,,,,,,,,2,2,0,9,9,13,1,,,,,,,,,,,,,,,,,,,,,,,,,,,,,,,,,,,,,,,,,,,,,,,,,,,,,,,,,,,,,,,,,,,,,,
,,?,0.003225,0,,,,,,stimuli/images/PICTURE_2.png,JUNGLE,5ed651be42c213062cd3cea3,04/22/1987,2020-08-27_12h30.52.313,proactive3.2,2020.1.2,Win32,60,5f47c0b9b035471e11593a5c,5f47df949b01a622a876751e,2,,,,,,tyre,,,,,,,,,,,1,2,0,10,10,1,1,,,,,,,,,,,,,,,,,,,,,,,,,,,,,,,,,,,,,,,,,,,,,,,,,,,,,,,,,,,,,,,,,,,,,,
,,?,0.00104,0,,,,,,stimuli/images/PICTURE_708.png,VALLEY,5ed651be42c213062cd3cea3,04/22/1987,2020-08-27_12h30.52.313,proactive3.2,2020.1.2,Win32,60,5f47c0b9b035471e11593a5c,5f47df949b01a622a876751e,2,,,,,,monkey,,,,,,,,,,,5,2,0,11,11,45,1,,,,,,,,,,,,,,,,,,,,,,,,,,,,,,,,,,,,,,,,,,,,,,,,,,,,,,,,,,,,,,,,,,,,,,
,,?,0.001185,0,,,,,,stimuli/images/PICTURE_348.png,TOILET,5ed651be42c213062cd3cea3,04/22/1987,2020-08-27_12h30.52.313,proactive3.2,2020.1.2,Win32,60,5f47c0b9b035471e11593a5c,5f47df949b01a622a876751e,2,,,,,,pepper,,,,,,,,,,,1,2,0,12,12,4,1,,,,,,,,,,,,,,,,,,,,,,,,,,,,,,,,,,,,,,,,,,,,,,,,,,,,,,,,,,,,,,,,,,,,,,
,,?,3.16921,0,,,,,,stimuli/images/PICTURE_160.png,HOTEL,5ed651be42c213062cd3cea3,04/22/1987,2020-08-27_12h30.52.313,proactive3.2,2020.1.2,Win32,60,5f47c0b9b035471e11593a5c,5f47df949b01a622a876751e,2,,,,,,wheelbarrow,,,,,,,,,,,2,2,0,13,13,16,1,,,,,,,,,,,,,,,,,,,,,,,,,,,,,,,,,,,,,,,,,,,,,,,,,,,,,,,,,,,,,,,,,,,,,,
