consent_key.keys,consent_key.rt,recalled,recalled_rt,recall_acc,example_recall.thisRepN,example_recall.thisTrialN,example_recall.thisN,example_recall.thisIndex,example_recall.ran,file,word,participant,please enter your date of birth (dd/mm/yyyy),date,expName,psychopyVersion,OS,frameRate,STUDY_ID,SESSION_ID,list,prac_learn_study_loop.thisRepN,prac_learn_study_loop.thisTrialN,prac_learn_study_loop.thisN,prac_learn_study_loop.thisIndex,prac_learn_study_loop.ran,image,prac_learn_test_loop.thisRepN,prac_learn_test_loop.thisTrialN,prac_learn_test_loop.thisN,prac_learn_test_loop.thisIndex,prac_learn_test_loop.ran,learn_study_loop.thisRepN,learn_study_loop.thisTrialN,learn_study_loop.thisN,learn_study_loop.thisIndex,learn_study_loop.ran,list_no,block_no,learn_test_loop.thisRepN,learn_test_loop.thisTrialN,learn_test_loop.thisN,learn_test_loop.thisIndex,learn_test_loop.ran,learn_blocks.thisRepN,learn_blocks.thisTrialN,learn_blocks.thisN,learn_blocks.thisIndex,learn_blocks.ran,block_csv,key_resp_13.keys,key_resp_13.rt,learn_blocks_loop.thisRepN,learn_blocks_loop.thisTrialN,learn_blocks_loop.thisN,learn_blocks_loop.thisIndex,learn_blocks_loop.ran,final_learn_test.thisRepN,final_learn_test.thisTrialN,final_learn_test.thisN,final_learn_test.thisIndex,final_learn_test.ran,prac_wm_test_loop.thisRepN,prac_wm_test_loop.thisTrialN,prac_wm_test_loop.thisN,prac_wm_test_loop.thisIndex,prac_wm_test_loop.ran,wm_recalled1,wm_recall_rt1,wm_probed1,wm_recall_acc1,wm_recalled2,wm_recall_rt2,wm_probed2,wm_recall_acc2,wm_recalled3,wm_recall_rt3,wm_probed3,wm_recall_acc3,wm_recalled4,wm_recall_rt4,wm_probed4,wm_recall_acc4,prac_wm_trial_loop.thisRepN,prac_wm_trial_loop.thisTrialN,prac_wm_trial_loop.thisN,prac_wm_trial_loop.thisIndex,prac_wm_trial_loop.ran,word1,image1,file1,item_type1,word2,image2,file2,item_type2,word4,image4,file4,item_type4,word3,image3,file3,item_type3,wm_test_loop.thisRepN,wm_test_loop.thisTrialN,wm_test_loop.thisN,wm_test_loop.thisIndex,wm_test_loop.ran,wm_trial_loop.thisRepN,wm_trial_loop.thisTrialN,wm_trial_loop.thisN,wm_trial_loop.thisIndex,wm_trial_loop.ran
y,52.18151,Y,8.65357,0,0,0,0,0,1,stimuli/images/PICTURE_747.png,TOUGH,5edba672293f3b028b70eb25,09/03/1986,2020-09-02_12h27.03.927,proactive3.2,2020.1.2,Win32,60,5f47c0b9b035471e11593a5c,5f4f818e758a9c0398a28176,3,,,,,,,,,,,,,,,,,,,,,,,,,,,,,,,,,,,,,,,,,,,,,,,,,,,,,,,,,,,,,,,,,,,,,,,,,,,,,,,,,,,,,,,,,,,,,
,,,,,,,,,,stimuli/images/PICTURE_727.png,CELL,5edba672293f3b028b70eb25,09/03/1986,2020-09-02_12h27.03.927,proactive3.2,2020.1.2,Win32,60,5f47c0b9b035471e11593a5c,5f4f818e758a9c0398a28176,3,0,0,0,1,1,hose,,,,,,,,,,,,,,,,,,,,,,,,,,,,,,,,,,,,,,,,,,,,,,,,,,,,,,,,,,,,,,,,,,,,,,,,,,,,,,,,,,,,,,,
,,,,,,,,,,stimuli/images/PICTURE_697.png,KILLER,5edba672293f3b028b70eb25,09/03/1986,2020-09-02_12h27.03.927,proactive3.2,2020.1.2,Win32,60,5f47c0b9b035471e11593a5c,5f4f818e758a9c0398a28176,3,0,1,1,4,1,peach,,,,,,,,,,,,,,,,,,,,,,,,,,,,,,,,,,,,,,,,,,,,,,,,,,,,,,,,,,,,,,,,,,,,,,,,,,,,,,,,,,,,,,,
,,,,,,,,,,stimuli/images/PICTURE_658.png,DEVIL,5edba672293f3b028b70eb25,09/03/1986,2020-09-02_12h27.03.927,proactive3.2,2020.1.2,Win32,60,5f47c0b9b035471e11593a5c,5f4f818e758a9c0398a28176,3,0,2,2,3,1,crow,,,,,,,,,,,,,,,,,,,,,,,,,,,,,,,,,,,,,,,,,,,,,,,,,,,,,,,,,,,,,,,,,,,,,,,,,,,,,,,,,,,,,,,
,,,,,,,,,,stimuli/images/PICTURE_269.png,GENIUS,5edba672293f3b028b70eb25,09/03/1986,2020-09-02_12h27.03.927,proactive3.2,2020.1.2,Win32,60,5f47c0b9b035471e11593a5c,5f4f818e758a9c0398a28176,3,0,3,3,0,1,chameleon,,,,,,,,,,,,,,,,,,,,,,,,,,,,,,,,,,,,,,,,,,,,,,,,,,,,,,,,,,,,,,,,,,,,,,,,,,,,,,,,,,,,,,,
,,MEMORY,5.644565,0,,,,,,stimuli/images/PICTURE_378.png,LOSS,5edba672293f3b028b70eb25,09/03/1986,2020-09-02_12h27.03.927,proactive3.2,2020.1.2,Win32,60,5f47c0b9b035471e11593a5c,5f4f818e758a9c0398a28176,3,,,,,,lobster,0,0,0,2,1,,,,,,,,,,,,,,,,,,,,,,,,,,,,,,,,,,,,,,,,,,,,,,,,,,,,,,,,,,,,,,,,,,,,,,,,,,,,,,,,,,
,,KILLER,2.165325,1,,,,,,stimuli/images/PICTURE_697.png,KILLER,5edba672293f3b028b70eb25,09/03/1986,2020-09-02_12h27.03.927,proactive3.2,2020.1.2,Win32,60,5f47c0b9b035471e11593a5c,5f4f818e758a9c0398a28176,3,,,,,,peach,0,1,1,4,1,,,,,,,,,,,,,,,,,,,,,,,,,,,,,,,,,,,,,,,,,,,,,,,,,,,,,,,,,,,,,,,,,,,,,,,,,,,,,,,,,,
,,GENIUS,2.999155,1,,,,,,stimuli/images/PICTURE_269.png,GENIUS,5edba672293f3b028b70eb25,09/03/1986,2020-09-02_12h27.03.927,proactive3.2,2020.1.2,Win32,60,5f47c0b9b035471e11593a5c,5f4f818e758a9c0398a28176,3,,,,,,chameleon,0,2,2,0,1,,,,,,,,,,,,,,,,,,,,,,,,,,,,,,,,,,,,,,,,,,,,,,,,,,,,,,,,,,,,,,,,,,,,,,,,,,,,,,,,,,
,,DEVIL,1.877945,1,,,,,,stimuli/images/PICTURE_658.png,DEVIL,5edba672293f3b028b70eb25,09/03/1986,2020-09-02_12h27.03.927,proactive3.2,2020.1.2,Win32,60,5f47c0b9b035471e11593a5c,5f4f818e758a9c0398a28176,3,,,,,,crow,0,3,3,3,1,,,,,,,,,,,,,,,,,,,,,,,,,,,,,,,,,,,,,,,,,,,,,,,,,,,,,,,,,,,,,,,,,,,,,,,,,,,,,,,,,,
,,CELL,1.93345,1,,,,,,stimuli/images/PICTURE_727.png,CELL,5edba672293f3b028b70eb25,09/03/1986,2020-09-02_12h27.03.927,proactive3.2,2020.1.2,Win32,60,5f47c0b9b035471e11593a5c,5f4f818e758a9c0398a28176,3,,,,,,hose,0,4,4,1,1,,,,,,,,,,,,,,,,,,,,,,,,,,,,,,,,,,,,,,,,,,,,,,,,,,,,,,,,,,,,,,,,,,,,,,,,,,,,,,,,,,
,,,,,,,,,,stimuli/images/PICTURE_677.png,FAMILY,5edba672293f3b028b70eb25,09/03/1986,2020-09-02_12h27.03.927,proactive3.2,2020.1.2,Win32,60,5f47c0b9b035471e11593a5c,5f4f818e758a9c0398a28176,3,,,,,,map,,,,,,0,0,0,53,1,6,2,,,,,,,,,,,,,,,,,,,,,,,,,,,,,,,,,,,,,,,,,,,,,,,,,,,,,,,,,,,,,,,,,,,,,,,,,,,
,,,,,,,,,,stimuli/images/PICTURE_509.png,APPLE,5edba672293f3b028b70eb25,09/03/1986,2020-09-02_12h27.03.927,proactive3.2,2020.1.2,Win32,60,5f47c0b9b035471e11593a5c,5f4f818e758a9c0398a28176,3,,,,,,telephone,,,,,,0,1,1,38,1,4,2,,,,,,,,,,,,,,,,,,,,,,,,,,,,,,,,,,,,,,,,,,,,,,,,,,,,,,,,,,,,,,,,,,,,,,,,,,,
,,,,,,,,,,stimuli/images/PICTURE_285.png,PRINCE,5edba672293f3b028b70eb25,09/03/1986,2020-09-02_12h27.03.927,proactive3.2,2020.1.2,Win32,60,5f47c0b9b035471e11593a5c,5f4f818e758a9c0398a28176,3,,,,,,carrot,,,,,,0,2,2,20,1,3,2,,,,,,,,,,,,,,,,,,,,,,,,,,,,,,,,,,,,,,,,,,,,,,,,,,,,,,,,,,,,,,,,,,,,,,,,,,,
,,,,,,,,,,stimuli/images/PICTURE_215.png,LEADER,5edba672293f3b028b70eb25,09/03/1986,2020-09-02_12h27.03.927,proactive3.2,2020.1.2,Win32,60,5f47c0b9b035471e11593a5c,5f4f818e758a9c0398a28176,3,,,,,,boot,,,,,,0,3,3,43,1,5,2,,,,,,,,,,,,,,,,,,,,,,,,,,,,,,,,,,,,,,,,,,,,,,,,,,,,,,,,,,,,,,,,,,,,,,,,,,,
,,,,,,,,,,stimuli/images/PICTURE_57.png,CASINO,5edba672293f3b028b70eb25,09/03/1986,2020-09-02_12h27.03.927,proactive3.2,2020.1.2,Win32,60,5f47c0b9b035471e11593a5c,5f4f818e758a9c0398a28176,3,,,,,,stamp,,,,,,0,4,4,12,1,2,2,,,,,,,,,,,,,,,,,,,,,,,,,,,,,,,,,,,,,,,,,,,,,,,,,,,,,,,,,,,,,,,,,,,,,,,,,,,
,,,,,,,,,,stimuli/images/PICTURE_2.png,YARD,5edba672293f3b028b70eb25,09/03/1986,2020-09-02_12h27.03.927,proactive3.2,2020.1.2,Win32,60,5f47c0b9b035471e11593a5c,5f4f818e758a9c0398a28176,3,,,,,,tyre,,,,,,0,5,5,55,1,6,2,,,,,,,,,,,,,,,,,,,,,,,,,,,,,,,,,,,,,,,,,,,,,,,,,,,,,,,,,,,,,,,,,,,,,,,,,,,
,,,,,,,,,,stimuli/images/PICTURE_509.png,MILLER,5edba672293f3b028b70eb25,09/03/1986,2020-09-02_12h27.03.927,proactive3.2,2020.1.2,Win32,60,5f47c0b9b035471e11593a5c,5f4f818e758a9c0398a28176,3,,,,,,telephone,,,,,,0,6,6,49,1,5,2,,,,,,,,,,,,,,,,,,,,,,,,,,,,,,,,,,,,,,,,,,,,,,,,,,,,,,,,,,,,,,,,,,,,,,,,,,,
,,,,,,,,,,stimuli/images/PICTURE_405.png,JUNGLE,5edba672293f3b028b70eb25,09/03/1986,2020-09-02_12h27.03.927,proactive3.2,2020.1.2,Win32,60,5f47c0b9b035471e11593a5c,5f4f818e758a9c0398a28176,3,,,,,,anchor,,,,,,0,7,7,13,1,2,2,,,,,,,,,,,,,,,,,,,,,,,,,,,,,,,,,,,,,,,,,,,,,,,,,,,,,,,,,,,,,,,,,,,,,,,,,,,
,,,,,,,,,,stimuli/images/PICTURE_708.png,VALLEY,5edba672293f3b028b70eb25,09/03/1986,2020-09-02_12h27.03.927,proactive3.2,2020.1.2,Win32,60,5f47c0b9b035471e11593a5c,5f4f818e758a9c0398a28176,3,,,,,,monkey,,,,,,0,8,8,45,1,5,2,,,,,,,,,,,,,,,,,,,,,,,,,,,,,,,,,,,,,,,,,,,,,,,,,,,,,,,,,,,,,,,,,,,,,,,,,,,
,,,,,,,,,,stimuli/images/PICTURE_18.png,RIVER,5edba672293f3b028b70eb25,09/03/1986,2020-09-02_12h27.03.927,proactive3.2,2020.1.2,Win32,60,5f47c0b9b035471e11593a5c,5f4f818e758a9c0398a28176,3,,,,,,planet,,,,,,0,9,9,22,1,3,2,,,,,,,,,,,,,,,,,,,,,,,,,,,,,,,,,,,,,,,,,,,,,,,,,,,,,,,,,,,,,,,,,,,,,,,,,,,
,,,,,,,,,,stimuli/images/PICTURE_123.png,SALE,5edba672293f3b028b70eb25,09/03/1986,2020-09-02_12h27.03.927,proactive3.2,2020.1.2,Win32,60,5f47c0b9b035471e11593a5c,5f4f818e758a9c0398a28176,3,,,,,,dart,,,,,,0,10,10,8,1,1,2,,,,,,,,,,,,,,,,,,,,,,,,,,,,,,,,,,,,,,,,,,,,,,,,,,,,,,,,,,,,,,,,,,,,,,,,,,,
,,,,,,,,,,stimuli/images/PICTURE_348.png,TOILET,5edba672293f3b028b70eb25,09/03/1986,2020-09-02_12h27.03.927,proactive3.2,2020.1.2,Win32,60,5f47c0b9b035471e11593a5c,5f4f818e758a9c0398a28176,3,,,,,,pepper,,,,,,0,11,11,4,1,1,2,,,,,,,,,,,,,,,,,,,,,,,,,,,,,,,,,,,,,,,,,,,,,,,,,,,,,,,,,,,,,,,,,,,,,,,,,,,
,,,,,,,,,,stimuli/images/PICTURE_296.png,CLOCK,5edba672293f3b028b70eb25,09/03/1986,2020-09-02_12h27.03.927,proactive3.2,2020.1.2,Win32,60,5f47c0b9b035471e11593a5c,5f4f818e758a9c0398a28176,3,,,,,,bolt,,,,,,0,12,12,18,1,2,2,,,,,,,,,,,,,,,,,,,,,,,,,,,,,,,,,,,,,,,,,,,,,,,,,,,,,,,,,,,,,,,,,,,,,,,,,,,
,,,,,,,,,,stimuli/images/PICTURE_311.png,FLESH,5edba672293f3b028b70eb25,09/03/1986,2020-09-02_12h27.03.927,proactive3.2,2020.1.2,Win32,60,5f47c0b9b035471e11593a5c,5f4f818e758a9c0398a28176,3,,,,,,razor,,,,,,0,13,13,3,1,1,2,,,,,,,,,,,,,,,,,,,,,,,,,,,,,,,,,,,,,,,,,,,,,,,,,,,,,,,,,,,,,,,,,,,,,,,,,,,
,,,,,,,,,,stimuli/images/PICTURE_297.png,BODY,5edba672293f3b028b70eb25,09/03/1986,2020-09-02_12h27.03.927,proactive3.2,2020.1.2,Win32,60,5f47c0b9b035471e11593a5c,5f4f818e758a9c0398a28176,3,,,,,,aeroplane,,,,,,0,14,14,51,1,6,2,,,,,,,,,,,,,,,,,,,,,,,,,,,,,,,,,,,,,,,,,,,,,,,,,,,,,,,,,,,,,,,,,,,,,,,,,,,
,,,,,,,,,,stimuli/images/PICTURE_654.png,COPS,5edba672293f3b028b70eb25,09/03/1986,2020-09-02_12h27.03.927,proactive3.2,2020.1.2,Win32,60,5f47c0b9b035471e11593a5c,5f4f818e758a9c0398a28176,3,,,,,,pencil,,,,,,0,15,15,10,1,2,2,,,,,,,,,,,,,,,,,,,,,,,,,,,,,,,,,,,,,,,,,,,,,,,,,,,,,,,,,,,,,,,,,,,,,,,,,,,
,,,,,,,,,,stimuli/images/PICTURE_160.png,HOTEL,5edba672293f3b028b70eb25,09/03/1986,2020-09-02_12h27.03.927,proactive3.2,2020.1.2,Win32,60,5f47c0b9b035471e11593a5c,5f4f818e758a9c0398a28176,3,,,,,,wheelbarrow,,,,,,0,16,16,16,1,2,2,,,,,,,,,,,,,,,,,,,,,,,,,,,,,,,,,,,,,,,,,,,,,,,,,,,,,,,,,,,,,,,,,,,,,,,,,,,
,,,,,,,,,,stimuli/images/PICTURE_285.png,WRITER,5edba672293f3b028b70eb25,09/03/1986,2020-09-02_12h27.03.927,proactive3.2,2020.1.2,Win32,60,5f47c0b9b035471e11593a5c,5f4f818e758a9c0398a28176,3,,,,,,carrot,,,,,,0,17,17,6,1,1,2,,,,,,,,,,,,,,,,,,,,,,,,,,,,,,,,,,,,,,,,,,,,,,,,,,,,,,,,,,,,,,,,,,,,,,,,,,,
,,,,,,,,,,stimuli/images/PICTURE_327.png,LEADER,5edba672293f3b028b70eb25,09/03/1986,2020-09-02_12h27.03.927,proactive3.2,2020.1.2,Win32,60,5f47c0b9b035471e11593a5c,5f4f818e758a9c0398a28176,3,,,,,,helmet,,,,,,0,18,18,17,1,2,2,,,,,,,,,,,,,,,,,,,,,,,,,,,,,,,,,,,,,,,,,,,,,,,,,,,,,,,,,,,,,,,,,,,,,,,,,,,
,,,,,,,,,,stimuli/images/PICTURE_68.png,KIND,5edba672293f3b028b70eb25,09/03/1986,2020-09-02_12h27.03.927,proactive3.2,2020.1.2,Win32,60,5f47c0b9b035471e11593a5c,5f4f818e758a9c0398a28176,3,,,,,,candle,,,,,,0,19,19,23,1,3,2,,,,,,,,,,,,,,,,,,,,,,,,,,,,,,,,,,,,,,,,,,,,,,,,,,,,,,,,,,,,,,,,,,,,,,,,,,,
,,,,,,,,,,stimuli/images/PICTURE_564.png,PLENTY,5edba672293f3b028b70eb25,09/03/1986,2020-09-02_12h27.03.927,proactive3.2,2020.1.2,Win32,60,5f47c0b9b035471e11593a5c,5f4f818e758a9c0398a28176,3,,,,,,spoon,,,,,,0,20,20,11,1,2,2,,,,,,,,,,,,,,,,,,,,,,,,,,,,,,,,,,,,,,,,,,,,,,,,,,,,,,,,,,,,,,,,,,,,,,,,,,,
,,,,,,,,,,stimuli/images/PICTURE_487.png,ROOF,5edba672293f3b028b70eb25,09/03/1986,2020-09-02_12h27.03.927,proactive3.2,2020.1.2,Win32,60,5f47c0b9b035471e11593a5c,5f4f818e758a9c0398a28176,3,,,,,,basket,,,,,,0,21,21,50,1,6,2,,,,,,,,,,,,,,,,,,,,,,,,,,,,,,,,,,,,,,,,,,,,,,,,,,,,,,,,,,,,,,,,,,,,,,,,,,,
,,,,,,,,,,stimuli/images/PICTURE_405.png,HOUSE,5edba672293f3b028b70eb25,09/03/1986,2020-09-02_12h27.03.927,proactive3.2,2020.1.2,Win32,60,5f47c0b9b035471e11593a5c,5f4f818e758a9c0398a28176,3,,,,,,anchor,,,,,,0,22,22,2,1,1,2,,,,,,,,,,,,,,,,,,,,,,,,,,,,,,,,,,,,,,,,,,,,,,,,,,,,,,,,,,,,,,,,,,,,,,,,,,,
,,,,,,,,,,stimuli/images/PICTURE_215.png,BOYS,5edba672293f3b028b70eb25,09/03/1986,2020-09-02_12h27.03.927,proactive3.2,2020.1.2,Win32,60,5f47c0b9b035471e11593a5c,5f4f818e758a9c0398a28176,3,,,,,,boot,,,,,,0,23,23,24,1,3,2,,,,,,,,,,,,,,,,,,,,,,,,,,,,,,,,,,,,,,,,,,,,,,,,,,,,,,,,,,,,,,,,,,,,,,,,,,,
,,,,,,,,,,stimuli/images/PICTURE_470.png,MOMENT,5edba672293f3b028b70eb25,09/03/1986,2020-09-02_12h27.03.927,proactive3.2,2020.1.2,Win32,60,5f47c0b9b035471e11593a5c,5f4f818e758a9c0398a28176,3,,,,,,motorbike,,,,,,0,24,24,40,1,5,2,,,,,,,,,,,,,,,,,,,,,,,,,,,,,,,,,,,,,,,,,,,,,,,,,,,,,,,,,,,,,,,,,,,,,,,,,,,
,,,,,,,,,,stimuli/images/PICTURE_504.png,HOUSE,5edba672293f3b028b70eb25,09/03/1986,2020-09-02_12h27.03.927,proactive3.2,2020.1.2,Win32,60,5f47c0b9b035471e11593a5c,5f4f818e758a9c0398a28176,3,,,,,,wheel,,,,,,0,25,25,36,1,4,2,,,,,,,,,,,,,,,,,,,,,,,,,,,,,,,,,,,,,,,,,,,,,,,,,,,,,,,,,,,,,,,,,,,,,,,,,,,
,,,,,,,,,,stimuli/images/PICTURE_403.png,FAMILY,5edba672293f3b028b70eb25,09/03/1986,2020-09-02_12h27.03.927,proactive3.2,2020.1.2,Win32,60,5f47c0b9b035471e11593a5c,5f4f818e758a9c0398a28176,3,,,,,,cathedral,,,,,,0,26,26,9,1,1,2,,,,,,,,,,,,,,,,,,,,,,,,,,,,,,,,,,,,,,,,,,,,,,,,,,,,,,,,,,,,,,,,,,,,,,,,,,,
,,,,,,,,,,stimuli/images/PICTURE_667.png,GLASS,5edba672293f3b028b70eb25,09/03/1986,2020-09-02_12h27.03.927,proactive3.2,2020.1.2,Win32,60,5f47c0b9b035471e11593a5c,5f4f818e758a9c0398a28176,3,,,,,,daisy,,,,,,0,27,27,27,1,3,2,,,,,,,,,,,,,,,,,,,,,,,,,,,,,,,,,,,,,,,,,,,,,,,,,,,,,,,,,,,,,,,,,,,,,,,,,,,
,,,,,,,,,,stimuli/images/PICTURE_491.png,SERIES,5edba672293f3b028b70eb25,09/03/1986,2020-09-02_12h27.03.927,proactive3.2,2020.1.2,Win32,60,5f47c0b9b035471e11593a5c,5f4f818e758a9c0398a28176,3,,,,,,rug,,,,,,0,28,28,39,1,4,2,,,,,,,,,,,,,,,,,,,,,,,,,,,,,,,,,,,,,,,,,,,,,,,,,,,,,,,,,,,,,,,,,,,,,,,,,,,
,,,,,,,,,,stimuli/images/PICTURE_57.png,NATION,5edba672293f3b028b70eb25,09/03/1986,2020-09-02_12h27.03.927,proactive3.2,2020.1.2,Win32,60,5f47c0b9b035471e11593a5c,5f4f818e758a9c0398a28176,3,,,,,,stamp,,,,,,0,29,29,21,1,3,2,,,,,,,,,,,,,,,,,,,,,,,,,,,,,,,,,,,,,,,,,,,,,,,,,,,,,,,,,,,,,,,,,,,,,,,,,,,
,,,,,,,,,,stimuli/images/PICTURE_688.png,CLOCK,5edba672293f3b028b70eb25,09/03/1986,2020-09-02_12h27.03.927,proactive3.2,2020.1.2,Win32,60,5f47c0b9b035471e11593a5c,5f4f818e758a9c0398a28176,3,,,,,,runner,,,,,,0,30,30,42,1,5,2,,,,,,,,,,,,,,,,,,,,,,,,,,,,,,,,,,,,,,,,,,,,,,,,,,,,,,,,,,,,,,,,,,,,,,,,,,,
,,,,,,,,,,stimuli/images/PICTURE_147.png,LEADER,5edba672293f3b028b70eb25,09/03/1986,2020-09-02_12h27.03.927,proactive3.2,2020.1.2,Win32,60,5f47c0b9b035471e11593a5c,5f4f818e758a9c0398a28176,3,,,,,,hanger,,,,,,0,31,31,33,1,4,2,,,,,,,,,,,,,,,,,,,,,,,,,,,,,,,,,,,,,,,,,,,,,,,,,,,,,,,,,,,,,,,,,,,,,,,,,,,
,,,,,,,,,,stimuli/images/PICTURE_314.png,SPEECH,5edba672293f3b028b70eb25,09/03/1986,2020-09-02_12h27.03.927,proactive3.2,2020.1.2,Win32,60,5f47c0b9b035471e11593a5c,5f4f818e758a9c0398a28176,3,,,,,,perfume,,,,,,0,32,32,35,1,4,2,,,,,,,,,,,,,,,,,,,,,,,,,,,,,,,,,,,,,,,,,,,,,,,,,,,,,,,,,,,,,,,,,,,,,,,,,,,
,,,,,,,,,,stimuli/images/PICTURE_95.png,NIGHT,5edba672293f3b028b70eb25,09/03/1986,2020-09-02_12h27.03.927,proactive3.2,2020.1.2,Win32,60,5f47c0b9b035471e11593a5c,5f4f818e758a9c0398a28176,3,,,,,,suitcase,,,,,,0,33,33,37,1,4,2,,,,,,,,,,,,,,,,,,,,,,,,,,,,,,,,,,,,,,,,,,,,,,,,,,,,,,,,,,,,,,,,,,,,,,,,,,,
,,,,,,,,,,stimuli/images/PICTURE_2.png,AREA,5edba672293f3b028b70eb25,09/03/1986,2020-09-02_12h27.03.927,proactive3.2,2020.1.2,Win32,60,5f47c0b9b035471e11593a5c,5f4f818e758a9c0398a28176,3,,,,,,tyre,,,,,,0,34,34,32,1,4,2,,,,,,,,,,,,,,,,,,,,,,,,,,,,,,,,,,,,,,,,,,,,,,,,,,,,,,,,,,,,,,,,,,,,,,,,,,,
,,,,,,,,,,stimuli/images/PICTURE_33.png,COPS,5edba672293f3b028b70eb25,09/03/1986,2020-09-02_12h27.03.927,proactive3.2,2020.1.2,Win32,60,5f47c0b9b035471e11593a5c,5f4f818e758a9c0398a28176,3,,,,,,frame,,,,,,0,35,35,29,1,3,2,,,,,,,,,,,,,,,,,,,,,,,,,,,,,,,,,,,,,,,,,,,,,,,,,,,,,,,,,,,,,,,,,,,,,,,,,,,
,,,,,,,,,,stimuli/images/PICTURE_677.png,PHOTO,5edba672293f3b028b70eb25,09/03/1986,2020-09-02_12h27.03.927,proactive3.2,2020.1.2,Win32,60,5f47c0b9b035471e11593a5c,5f4f818e758a9c0398a28176,3,,,,,,map,,,,,,0,36,36,14,1,2,2,,,,,,,,,,,,,,,,,,,,,,,,,,,,,,,,,,,,,,,,,,,,,,,,,,,,,,,,,,,,,,,,,,,,,,,,,,,
,,,,,,,,,,stimuli/images/PICTURE_32.png,LETTER,5edba672293f3b028b70eb25,09/03/1986,2020-09-02_12h27.03.927,proactive3.2,2020.1.2,Win32,60,5f47c0b9b035471e11593a5c,5f4f818e758a9c0398a28176,3,,,,,,crown,,,,,,0,37,37,56,1,6,2,,,,,,,,,,,,,,,,,,,,,,,,,,,,,,,,,,,,,,,,,,,,,,,,,,,,,,,,,,,,,,,,,,,,,,,,,,,
,,,,,,,,,,stimuli/images/PICTURE_93.png,GIRL,5edba672293f3b028b70eb25,09/03/1986,2020-09-02_12h27.03.927,proactive3.2,2020.1.2,Win32,60,5f47c0b9b035471e11593a5c,5f4f818e758a9c0398a28176,3,,,,,,skateboard,,,,,,0,38,38,31,1,4,2,,,,,,,,,,,,,,,,,,,,,,,,,,,,,,,,,,,,,,,,,,,,,,,,,,,,,,,,,,,,,,,,,,,,,,,,,,,
,,,,,,,,,,stimuli/images/PICTURE_2.png,JUNGLE,5edba672293f3b028b70eb25,09/03/1986,2020-09-02_12h27.03.927,proactive3.2,2020.1.2,Win32,60,5f47c0b9b035471e11593a5c,5f4f818e758a9c0398a28176,3,,,,,,tyre,,,,,,0,39,39,1,1,1,2,,,,,,,,,,,,,,,,,,,,,,,,,,,,,,,,,,,,,,,,,,,,,,,,,,,,,,,,,,,,,,,,,,,,,,,,,,,
,,,,,,,,,,stimuli/images/PICTURE_348.png,DUDE,5edba672293f3b028b70eb25,09/03/1986,2020-09-02_12h27.03.927,proactive3.2,2020.1.2,Win32,60,5f47c0b9b035471e11593a5c,5f4f818e758a9c0398a28176,3,,,,,,pepper,,,,,,0,40,40,59,1,6,2,,,,,,,,,,,,,,,,,,,,,,,,,,,,,,,,,,,,,,,,,,,,,,,,,,,,,,,,,,,,,,,,,,,,,,,,,,,
,,,,,,,,,,stimuli/images/PICTURE_208.png,SPIRIT,5edba672293f3b028b70eb25,09/03/1986,2020-09-02_12h27.03.927,proactive3.2,2020.1.2,Win32,60,5f47c0b9b035471e11593a5c,5f4f818e758a9c0398a28176,3,,,,,,microphone,,,,,,0,41,41,28,1,3,2,,,,,,,,,,,,,,,,,,,,,,,,,,,,,,,,,,,,,,,,,,,,,,,,,,,,,,,,,,,,,,,,,,,,,,,,,,,
,,,,,,,,,,stimuli/images/PICTURE_509.png,SHOTS,5edba672293f3b028b70eb25,09/03/1986,2020-09-02_12h27.03.927,proactive3.2,2020.1.2,Win32,60,5f47c0b9b035471e11593a5c,5f4f818e758a9c0398a28176,3,,,,,,telephone,,,,,,0,42,42,7,1,1,2,,,,,,,,,,,,,,,,,,,,,,,,,,,,,,,,,,,,,,,,,,,,,,,,,,,,,,,,,,,,,,,,,,,,,,,,,,,
,,,,,,,,,,stimuli/images/PICTURE_470.png,BEAUTY,5edba672293f3b028b70eb25,09/03/1986,2020-09-02_12h27.03.927,proactive3.2,2020.1.2,Win32,60,5f47c0b9b035471e11593a5c,5f4f818e758a9c0398a28176,3,,,,,,motorbike,,,,,,0,43,43,26,1,3,2,,,,,,,,,,,,,,,,,,,,,,,,,,,,,,,,,,,,,,,,,,,,,,,,,,,,,,,,,,,,,,,,,,,,,,,,,,,
,,,,,,,,,,stimuli/images/PICTURE_215.png,FOOD,5edba672293f3b028b70eb25,09/03/1986,2020-09-02_12h27.03.927,proactive3.2,2020.1.2,Win32,60,5f47c0b9b035471e11593a5c,5f4f818e758a9c0398a28176,3,,,,,,boot,,,,,,0,44,44,5,1,1,2,,,,,,,,,,,,,,,,,,,,,,,,,,,,,,,,,,,,,,,,,,,,,,,,,,,,,,,,,,,,,,,,,,,,,,,,,,,
,,,,,,,,,,stimuli/images/PICTURE_311.png,TOILET,5edba672293f3b028b70eb25,09/03/1986,2020-09-02_12h27.03.927,proactive3.2,2020.1.2,Win32,60,5f47c0b9b035471e11593a5c,5f4f818e758a9c0398a28176,3,,,,,,razor,,,,,,0,45,45,54,1,6,2,,,,,,,,,,,,,,,,,,,,,,,,,,,,,,,,,,,,,,,,,,,,,,,,,,,,,,,,,,,,,,,,,,,,,,,,,,,
,,,,,,,,,,stimuli/images/PICTURE_509.png,BATH,5edba672293f3b028b70eb25,09/03/1986,2020-09-02_12h27.03.927,proactive3.2,2020.1.2,Win32,60,5f47c0b9b035471e11593a5c,5f4f818e758a9c0398a28176,3,,,,,,telephone,,,,,,0,46,46,15,1,2,2,,,,,,,,,,,,,,,,,,,,,,,,,,,,,,,,,,,,,,,,,,,,,,,,,,,,,,,,,,,,,,,,,,,,,,,,,,,
,,,,,,,,,,stimuli/images/PICTURE_654.png,YEAR,5edba672293f3b028b70eb25,09/03/1986,2020-09-02_12h27.03.927,proactive3.2,2020.1.2,Win32,60,5f47c0b9b035471e11593a5c,5f4f818e758a9c0398a28176,3,,,,,,pencil,,,,,,0,47,47,41,1,5,2,,,,,,,,,,,,,,,,,,,,,,,,,,,,,,,,,,,,,,,,,,,,,,,,,,,,,,,,,,,,,,,,,,,,,,,,,,,
,,,,,,,,,,stimuli/images/PICTURE_177.png,HOUSE,5edba672293f3b028b70eb25,09/03/1986,2020-09-02_12h27.03.927,proactive3.2,2020.1.2,Win32,60,5f47c0b9b035471e11593a5c,5f4f818e758a9c0398a28176,3,,,,,,mushroom,,,,,,0,48,48,25,1,3,2,,,,,,,,,,,,,,,,,,,,,,,,,,,,,,,,,,,,,,,,,,,,,,,,,,,,,,,,,,,,,,,,,,,,,,,,,,,
,,,,,,,,,,stimuli/images/PICTURE_750.png,POLICY,5edba672293f3b028b70eb25,09/03/1986,2020-09-02_12h27.03.927,proactive3.2,2020.1.2,Win32,60,5f47c0b9b035471e11593a5c,5f4f818e758a9c0398a28176,3,,,,,,kettle,,,,,,0,49,49,44,1,5,2,,,,,,,,,,,,,,,,,,,,,,,,,,,,,,,,,,,,,,,,,,,,,,,,,,,,,,,,,,,,,,,,,,,,,,,,,,,
,,,,,,,,,,stimuli/images/PICTURE_453.png,FAMILY,5edba672293f3b028b70eb25,09/03/1986,2020-09-02_12h27.03.927,proactive3.2,2020.1.2,Win32,60,5f47c0b9b035471e11593a5c,5f4f818e758a9c0398a28176,3,,,,,,scissors,,,,,,0,50,50,48,1,5,2,,,,,,,,,,,,,,,,,,,,,,,,,,,,,,,,,,,,,,,,,,,,,,,,,,,,,,,,,,,,,,,,,,,,,,,,,,,
,,,,,,,,,,stimuli/images/PICTURE_655.png,SALE,5edba672293f3b028b70eb25,09/03/1986,2020-09-02_12h27.03.927,proactive3.2,2020.1.2,Win32,60,5f47c0b9b035471e11593a5c,5f4f818e758a9c0398a28176,3,,,,,,megaphone,,,,,,0,51,51,57,1,6,2,,,,,,,,,,,,,,,,,,,,,,,,,,,,,,,,,,,,,,,,,,,,,,,,,,,,,,,,,,,,,,,,,,,,,,,,,,,
,,,,,,,,,,stimuli/images/PICTURE_57.png,CANDY,5edba672293f3b028b70eb25,09/03/1986,2020-09-02_12h27.03.927,proactive3.2,2020.1.2,Win32,60,5f47c0b9b035471e11593a5c,5f4f818e758a9c0398a28176,3,,,,,,stamp,,,,,,0,52,52,52,1,6,2,,,,,,,,,,,,,,,,,,,,,,,,,,,,,,,,,,,,,,,,,,,,,,,,,,,,,,,,,,,,,,,,,,,,,,,,,,,
,,,,,,,,,,stimuli/images/PICTURE_255.png,PENNY,5edba672293f3b028b70eb25,09/03/1986,2020-09-02_12h27.03.927,proactive3.2,2020.1.2,Win32,60,5f47c0b9b035471e11593a5c,5f4f818e758a9c0398a28176,3,,,,,,shovel,,,,,,0,53,53,19,1,2,2,,,,,,,,,,,,,,,,,,,,,,,,,,,,,,,,,,,,,,,,,,,,,,,,,,,,,,,,,,,,,,,,,,,,,,,,,,,
,,,,,,,,,,stimuli/images/PICTURE_487.png,POLICY,5edba672293f3b028b70eb25,09/03/1986,2020-09-02_12h27.03.927,proactive3.2,2020.1.2,Win32,60,5f47c0b9b035471e11593a5c,5f4f818e758a9c0398a28176,3,,,,,,basket,,,,,,0,54,54,34,1,4,2,,,,,,,,,,,,,,,,,,,,,,,,,,,,,,,,,,,,,,,,,,,,,,,,,,,,,,,,,,,,,,,,,,,,,,,,,,,
,,,,,,,,,,stimuli/images/PICTURE_692.png,DUDE,5edba672293f3b028b70eb25,09/03/1986,2020-09-02_12h27.03.927,proactive3.2,2020.1.2,Win32,60,5f47c0b9b035471e11593a5c,5f4f818e758a9c0398a28176,3,,,,,,cherry,,,,,,0,55,55,47,1,5,2,,,,,,,,,,,,,,,,,,,,,,,,,,,,,,,,,,,,,,,,,,,,,,,,,,,,,,,,,,,,,,,,,,,,,,,,,,,
,,,,,,,,,,stimuli/images/PICTURE_405.png,JUNGLE,5edba672293f3b028b70eb25,09/03/1986,2020-09-02_12h27.03.927,proactive3.2,2020.1.2,Win32,60,5f47c0b9b035471e11593a5c,5f4f818e758a9c0398a28176,3,,,,,,anchor,,,,,,0,56,56,58,1,6,2,,,,,,,,,,,,,,,,,,,,,,,,,,,,,,,,,,,,,,,,,,,,,,,,,,,,,,,,,,,,,,,,,,,,,,,,,,,
,,,,,,,,,,stimuli/images/PICTURE_452.png,COPS,5edba672293f3b028b70eb25,09/03/1986,2020-09-02_12h27.03.927,proactive3.2,2020.1.2,Win32,60,5f47c0b9b035471e11593a5c,5f4f818e758a9c0398a28176,3,,,,,,watch,,,,,,0,57,57,0,1,1,2,,,,,,,,,,,,,,,,,,,,,,,,,,,,,,,,,,,,,,,,,,,,,,,,,,,,,,,,,,,,,,,,,,,,,,,,,,,
,,,,,,,,,,stimuli/images/PICTURE_141.png,CLIENT,5edba672293f3b028b70eb25,09/03/1986,2020-09-02_12h27.03.927,proactive3.2,2020.1.2,Win32,60,5f47c0b9b035471e11593a5c,5f4f818e758a9c0398a28176,3,,,,,,sunflower,,,,,,0,58,58,30,1,4,2,,,,,,,,,,,,,,,,,,,,,,,,,,,,,,,,,,,,,,,,,,,,,,,,,,,,,,,,,,,,,,,,,,,,,,,,,,,
,,?,0.000705,0,,,,,,stimuli/images/PICTURE_2.png,JUNGLE,5edba672293f3b028b70eb25,09/03/1986,2020-09-02_12h27.03.927,proactive3.2,2020.1.2,Win32,60,5f47c0b9b035471e11593a5c,5f4f818e758a9c0398a28176,3,,,,,,tyre,,,,,,,,,,,1,2,0,0,0,1,1,,,,,,,,,,,,,,,,,,,,,,,,,,,,,,,,,,,,,,,,,,,,,,,,,,,,,,,,,,,,,,,,,,,,,,
,,?,0.00054,0,,,,,,stimuli/images/PICTURE_487.png,ROOF,5edba672293f3b028b70eb25,09/03/1986,2020-09-02_12h27.03.927,proactive3.2,2020.1.2,Win32,60,5f47c0b9b035471e11593a5c,5f4f818e758a9c0398a28176,3,,,,,,basket,,,,,,,,,,,6,2,0,1,1,50,1,,,,,,,,,,,,,,,,,,,,,,,,,,,,,,,,,,,,,,,,,,,,,,,,,,,,,,,,,,,,,,,,,,,,,,
,,BOYS,6.00433,1,,,,,,stimuli/images/PICTURE_215.png,BOYS,5edba672293f3b028b70eb25,09/03/1986,2020-09-02_12h27.03.927,proactive3.2,2020.1.2,Win32,60,5f47c0b9b035471e11593a5c,5f4f818e758a9c0398a28176,3,,,,,,boot,,,,,,,,,,,3,2,0,2,2,24,1,,,,,,,,,,,,,,,,,,,,,,,,,,,,,,,,,,,,,,,,,,,,,,,,,,,,,,,,,,,,,,,,,,,,,,
,,?,0.001715,0,,,,,,stimuli/images/PICTURE_509.png,BATH,5edba672293f3b028b70eb25,09/03/1986,2020-09-02_12h27.03.927,proactive3.2,2020.1.2,Win32,60,5f47c0b9b035471e11593a5c,5f4f818e758a9c0398a28176,3,,,,,,telephone,,,,,,,,,,,2,2,0,3,3,15,1,,,,,,,,,,,,,,,,,,,,,,,,,,,,,,,,,,,,,,,,,,,,,,,,,,,,,,,,,,,,,,,,,,,,,,
,,?,0.000795,0,,,,,,stimuli/images/PICTURE_356.png,CANDY,5edba672293f3b028b70eb25,09/03/1986,2020-09-02_12h27.03.927,proactive3.2,2020.1.2,Win32,60,5f47c0b9b035471e11593a5c,5f4f818e758a9c0398a28176,3,,,,,,pawn,,,,,,,,,,,5,2,0,4,4,46,1,,,,,,,,,,,,,,,,,,,,,,,,,,,,,,,,,,,,,,,,,,,,,,,,,,,,,,,,,,,,,,,,,,,,,,
,,?,0.000715,0,,,,,,stimuli/images/PICTURE_2.png,YARD,5edba672293f3b028b70eb25,09/03/1986,2020-09-02_12h27.03.927,proactive3.2,2020.1.2,Win32,60,5f47c0b9b035471e11593a5c,5f4f818e758a9c0398a28176,3,,,,,,tyre,,,,,,,,,,,6,2,0,5,5,55,1,,,,,,,,,,,,,,,,,,,,,,,,,,,,,,,,,,,,,,,,,,,,,,,,,,,,,,,,,,,,,,,,,,,,,,
,,GLASS,3.657715,1,,,,,,stimuli/images/PICTURE_667.png,GLASS,5edba672293f3b028b70eb25,09/03/1986,2020-09-02_12h27.03.927,proactive3.2,2020.1.2,Win32,60,5f47c0b9b035471e11593a5c,5f4f818e758a9c0398a28176,3,,,,,,daisy,,,,,,,,,,,3,2,0,6,6,27,1,,,,,,,,,,,,,,,,,,,,,,,,,,,,,,,,,,,,,,,,,,,,,,,,,,,,,,,,,,,,,,,,,,,,,,
,,?,0.001475,0,,,,,,stimuli/images/PICTURE_677.png,FAMILY,5edba672293f3b028b70eb25,09/03/1986,2020-09-02_12h27.03.927,proactive3.2,2020.1.2,Win32,60,5f47c0b9b035471e11593a5c,5f4f818e758a9c0398a28176,3,,,,,,map,,,,,,,,,,,6,2,0,7,7,53,1,,,,,,,,,,,,,,,,,,,,,,,,,,,,,,,,,,,,,,,,,,,,,,,,,,,,,,,,,,,,,,,,,,,,,,
,,?,0.00077,0,,,,,,stimuli/images/PICTURE_2.png,AREA,5edba672293f3b028b70eb25,09/03/1986,2020-09-02_12h27.03.927,proactive3.2,2020.1.2,Win32,60,5f47c0b9b035471e11593a5c,5f4f818e758a9c0398a28176,3,,,,,,tyre,,,,,,,,,,,4,2,0,8,8,32,1,,,,,,,,,,,,,,,,,,,,,,,,,,,,,,,,,,,,,,,,,,,,,,,,,,,,,,,,,,,,,,,,,,,,,,
,,?,0.000685,0,,,,,,stimuli/images/PICTURE_677.png,PHOTO,5edba672293f3b028b70eb25,09/03/1986,2020-09-02_12h27.03.927,proactive3.2,2020.1.2,Win32,60,5f47c0b9b035471e11593a5c,5f4f818e758a9c0398a28176,3,,,,,,map,,,,,,,,,,,2,2,0,9,9,14,1,,,,,,,,,,,,,,,,,,,,,,,,,,,,,,,,,,,,,,,,,,,,,,,,,,,,,,,,,,,,,,,,,,,,,,
,,?,0.000395,0,,,,,,stimuli/images/PICTURE_314.png,SPEECH,5edba672293f3b028b70eb25,09/03/1986,2020-09-02_12h27.03.927,proactive3.2,2020.1.2,Win32,60,5f47c0b9b035471e11593a5c,5f4f818e758a9c0398a28176,3,,,,,,perfume,,,,,,,,,,,4,2,0,10,10,35,1,,,,,,,,,,,,,,,,,,,,,,,,,,,,,,,,,,,,,,,,,,,,,,,,,,,,,,,,,,,,,,,,,,,,,,
,,SPIRIT,7.657215,1,,,,,,stimuli/images/PICTURE_208.png,SPIRIT,5edba672293f3b028b70eb25,09/03/1986,2020-09-02_12h27.03.927,proactive3.2,2020.1.2,Win32,60,5f47c0b9b035471e11593a5c,5f4f818e758a9c0398a28176,3,,,,,,microphone,,,,,,,,,,,3,2,0,11,11,28,1,,,,,,,,,,,,,,,,,,,,,,,,,,,,,,,,,,,,,,,,,,,,,,,,,,,,,,,,,,,,,,,,,,,,,,
,,?,0.001575,0,,,,,,stimuli/images/PICTURE_160.png,HOTEL,5edba672293f3b028b70eb25,09/03/1986,2020-09-02_12h27.03.927,proactive3.2,2020.1.2,Win32,60,5f47c0b9b035471e11593a5c,5f4f818e758a9c0398a28176,3,,,,,,wheelbarrow,,,,,,,,,,,2,2,0,12,12,16,1,,,,,,,,,,,,,,,,,,,,,,,,,,,,,,,,,,,,,,,,,,,,,,,,,,,,,,,,,,,,,,,,,,,,,,
,,?,0.00096,0,,,,,,stimuli/images/PICTURE_123.png,SALE,5edba672293f3b028b70eb25,09/03/1986,2020-09-02_12h27.03.927,proactive3.2,2020.1.2,Win32,60,5f47c0b9b035471e11593a5c,5f4f818e758a9c0398a28176,3,,,,,,dart,,,,,,,,,,,1,2,0,13,13,8,1,,,,,,,,,,,,,,,,,,,,,,,,,,,,,,,,,,,,,,,,,,,,,,,,,,,,,,,,,,,,,,,,,,,,,,
,,?,0.00054,0,,,,,,stimuli/images/PICTURE_405.png,HOUSE,5edba672293f3b028b70eb25,09/03/1986,2020-09-02_12h27.03.927,proactive3.2,2020.1.2,Win32,60,5f47c0b9b035471e11593a5c,5f4f818e758a9c0398a28176,3,,,,,,anchor,,,,,,,,,,,1,2,0,14,14,2,1,,,,,,,,,,,,,,,,,,,,,,,,,,,,,,,,,,,,,,,,,,,,,,,,,,,,,,,,,,,,,,,,,,,,,,
,,?,0.00052,0,,,,,,stimuli/images/PICTURE_509.png,MILLER,5edba672293f3b028b70eb25,09/03/1986,2020-09-02_12h27.03.927,proactive3.2,2020.1.2,Win32,60,5f47c0b9b035471e11593a5c,5f4f818e758a9c0398a28176,3,,,,,,telephone,,,,,,,,,,,5,2,0,15,15,49,1,,,,,,,,,,,,,,,,,,,,,,,,,,,,,,,,,,,,,,,,,,,,,,,,,,,,,,,,,,,,,,,,,,,,,,
,,?,0.00046,0,,,,,,stimuli/images/PICTURE_285.png,WRITER,5edba672293f3b028b70eb25,09/03/1986,2020-09-02_12h27.03.927,proactive3.2,2020.1.2,Win32,60,5f47c0b9b035471e11593a5c,5f4f818e758a9c0398a28176,3,,,,,,carrot,,,,,,,,,,,1,2,0,16,16,6,1,,,,,,,,,,,,,,,,,,,,,,,,,,,,,,,,,,,,,,,,,,,,,,,,,,,,,,,,,,,,,,,,,,,,,,
,,?,0.0004,0,,,,,,stimuli/images/PICTURE_348.png,DUDE,5edba672293f3b028b70eb25,09/03/1986,2020-09-02_12h27.03.927,proactive3.2,2020.1.2,Win32,60,5f47c0b9b035471e11593a5c,5f4f818e758a9c0398a28176,3,,,,,,pepper,,,,,,,,,,,6,2,0,17,17,59,1,,,,,,,,,,,,,,,,,,,,,,,,,,,,,,,,,,,,,,,,,,,,,,,,,,,,,,,,,,,,,,,,,,,,,,
,,?,0.001195,0,,,,,,stimuli/images/PICTURE_215.png,FOOD,5edba672293f3b028b70eb25,09/03/1986,2020-09-02_12h27.03.927,proactive3.2,2020.1.2,Win32,60,5f47c0b9b035471e11593a5c,5f4f818e758a9c0398a28176,3,,,,,,boot,,,,,,,,,,,1,2,0,18,18,5,1,,,,,,,,,,,,,,,,,,,,,,,,,,,,,,,,,,,,,,,,,,,,,,,,,,,,,,,,,,,,,,,,,,,,,,
,,?,0.000615,0,,,,,,stimuli/images/PICTURE_491.png,SERIES,5edba672293f3b028b70eb25,09/03/1986,2020-09-02_12h27.03.927,proactive3.2,2020.1.2,Win32,60,5f47c0b9b035471e11593a5c,5f4f818e758a9c0398a28176,3,,,,,,rug,,,,,,,,,,,4,2,0,19,19,39,1,,,,,,,,,,,,,,,,,,,,,,,,,,,,,,,,,,,,,,,,,,,,,,,,,,,,,,,,,,,,,,,,,,,,,,
,,?,0.000475,0,,,,,,stimuli/images/PICTURE_57.png,CASINO,5edba672293f3b028b70eb25,09/03/1986,2020-09-02_12h27.03.927,proactive3.2,2020.1.2,Win32,60,5f47c0b9b035471e11593a5c,5f4f818e758a9c0398a28176,3,,,,,,stamp,,,,,,,,,,,2,2,0,20,20,12,1,,,,,,,,,,,,,,,,,,,,,,,,,,,,,,,,,,,,,,,,,,,,,,,,,,,,,,,,,,,,,,,,,,,,,,
,,?,0.00047,0,,,,,,stimuli/images/PICTURE_688.png,CLOCK,5edba672293f3b028b70eb25,09/03/1986,2020-09-02_12h27.03.927,proactive3.2,2020.1.2,Win32,60,5f47c0b9b035471e11593a5c,5f4f818e758a9c0398a28176,3,,,,,,runner,,,,,,,,,,,5,2,0,21,21,42,1,,,,,,,,,,,,,,,,,,,,,,,,,,,,,,,,,,,,,,,,,,,,,,,,,,,,,,,,,,,,,,,,,,,,,,
,,?,0.00036,0,,,,,,stimuli/images/PICTURE_750.png,POLICY,5edba672293f3b028b70eb25,09/03/1986,2020-09-02_12h27.03.927,proactive3.2,2020.1.2,Win32,60,5f47c0b9b035471e11593a5c,5f4f818e758a9c0398a28176,3,,,,,,kettle,,,,,,,,,,,5,2,0,22,22,44,1,,,,,,,,,,,,,,,,,,,,,,,,,,,,,,,,,,,,,,,,,,,,,,,,,,,,,,,,,,,,,,,,,,,,,,
,,?,0.00039,0,,,,,,stimuli/images/PICTURE_255.png,PENNY,5edba672293f3b028b70eb25,09/03/1986,2020-09-02_12h27.03.927,proactive3.2,2020.1.2,Win32,60,5f47c0b9b035471e11593a5c,5f4f818e758a9c0398a28176,3,,,,,,shovel,,,,,,,,,,,2,2,0,23,23,19,1,,,,,,,,,,,,,,,,,,,,,,,,,,,,,,,,,,,,,,,,,,,,,,,,,,,,,,,,,,,,,,,,,,,,,,
,,?,0.00042,0,,,,,,stimuli/images/PICTURE_692.png,DUDE,5edba672293f3b028b70eb25,09/03/1986,2020-09-02_12h27.03.927,proactive3.2,2020.1.2,Win32,60,5f47c0b9b035471e11593a5c,5f4f818e758a9c0398a28176,3,,,,,,cherry,,,,,,,,,,,5,2,0,24,24,47,1,,,,,,,,,,,,,,,,,,,,,,,,,,,,,,,,,,,,,,,,,,,,,,,,,,,,,,,,,,,,,,,,,,,,,,
,,?,0.000345,0,,,,,,stimuli/images/PICTURE_405.png,JUNGLE,5edba672293f3b028b70eb25,09/03/1986,2020-09-02_12h27.03.927,proactive3.2,2020.1.2,Win32,60,5f47c0b9b035471e11593a5c,5f4f818e758a9c0398a28176,3,,,,,,anchor,,,,,,,,,,,6,2,0,25,25,58,1,,,,,,,,,,,,,,,,,,,,,,,,,,,,,,,,,,,,,,,,,,,,,,,,,,,,,,,,,,,,,,,,,,,,,,
,,?,0.000325,0,,,,,,stimuli/images/PICTURE_504.png,HOUSE,5edba672293f3b028b70eb25,09/03/1986,2020-09-02_12h27.03.927,proactive3.2,2020.1.2,Win32,60,5f47c0b9b035471e11593a5c,5f4f818e758a9c0398a28176,3,,,,,,wheel,,,,,,,,,,,4,2,0,26,26,36,1,,,,,,,,,,,,,,,,,,,,,,,,,,,,,,,,,,,,,,,,,,,,,,,,,,,,,,,,,,,,,,,,,,,,,,
,,?,0.0003,0,,,,,,stimuli/images/PICTURE_654.png,COPS,5edba672293f3b028b70eb25,09/03/1986,2020-09-02_12h27.03.927,proactive3.2,2020.1.2,Win32,60,5f47c0b9b035471e11593a5c,5f4f818e758a9c0398a28176,3,,,,,,pencil,,,,,,,,,,,2,2,0,27,27,10,1,,,,,,,,,,,,,,,,,,,,,,,,,,,,,,,,,,,,,,,,,,,,,,,,,,,,,,,,,,,,,,,,,,,,,,
,,?,0.00031,0,,,,,,stimuli/images/PICTURE_487.png,POLICY,5edba672293f3b028b70eb25,09/03/1986,2020-09-02_12h27.03.927,proactive3.2,2020.1.2,Win32,60,5f47c0b9b035471e11593a5c,5f4f818e758a9c0398a28176,3,,,,,,basket,,,,,,,,,,,4,2,0,28,28,34,1,,,,,,,,,,,,,,,,,,,,,,,,,,,,,,,,,,,,,,,,,,,,,,,,,,,,,,,,,,,,,,,,,,,,,,
,,?,0.000295,0,,,,,,stimuli/images/PICTURE_311.png,FLESH,5edba672293f3b028b70eb25,09/03/1986,2020-09-02_12h27.03.927,proactive3.2,2020.1.2,Win32,60,5f47c0b9b035471e11593a5c,5f4f818e758a9c0398a28176,3,,,,,,razor,,,,,,,,,,,1,2,0,29,29,3,1,,,,,,,,,,,,,,,,,,,,,,,,,,,,,,,,,,,,,,,,,,,,,,,,,,,,,,,,,,,,,,,,,,,,,,
,,?,0.000305,0,,,,,,stimuli/images/PICTURE_708.png,VALLEY,5edba672293f3b028b70eb25,09/03/1986,2020-09-02_12h27.03.927,proactive3.2,2020.1.2,Win32,60,5f47c0b9b035471e11593a5c,5f4f818e758a9c0398a28176,3,,,,,,monkey,,,,,,,,,,,5,2,0,30,30,45,1,,,,,,,,,,,,,,,,,,,,,,,,,,,,,,,,,,,,,,,,,,,,,,,,,,,,,,,,,,,,,,,,,,,,,,
,,?,0.00033,0,,,,,,stimuli/images/PICTURE_348.png,TOILET,5edba672293f3b028b70eb25,09/03/1986,2020-09-02_12h27.03.927,proactive3.2,2020.1.2,Win32,60,5f47c0b9b035471e11593a5c,5f4f818e758a9c0398a28176,3,,,,,,pepper,,,,,,,,,,,1,2,0,31,31,4,1,,,,,,,,,,,,,,,,,,,,,,,,,,,,,,,,,,,,,,,,,,,,,,,,,,,,,,,,,,,,,,,,,,,,,,
,,?,0.000305,0,,,,,,stimuli/images/PICTURE_452.png,COPS,5edba672293f3b028b70eb25,09/03/1986,2020-09-02_12h27.03.927,proactive3.2,2020.1.2,Win32,60,5f47c0b9b035471e11593a5c,5f4f818e758a9c0398a28176,3,,,,,,watch,,,,,,,,,,,1,2,0,32,32,0,1,,,,,,,,,,,,,,,,,,,,,,,,,,,,,,,,,,,,,,,,,,,,,,,,,,,,,,,,,,,,,,,,,,,,,,
,,?,0.000295,0,,,,,,stimuli/images/PICTURE_405.png,JUNGLE,5edba672293f3b028b70eb25,09/03/1986,2020-09-02_12h27.03.927,proactive3.2,2020.1.2,Win32,60,5f47c0b9b035471e11593a5c,5f4f818e758a9c0398a28176,3,,,,,,anchor,,,,,,,,,,,2,2,0,33,33,13,1,,,,,,,,,,,,,,,,,,,,,,,,,,,,,,,,,,,,,,,,,,,,,,,,,,,,,,,,,,,,,,,,,,,,,,
,,?,0.00223,0,,,,,,stimuli/images/PICTURE_403.png,FAMILY,5edba672293f3b028b70eb25,09/03/1986,2020-09-02_12h27.03.927,proactive3.2,2020.1.2,Win32,60,5f47c0b9b035471e11593a5c,5f4f818e758a9c0398a28176,3,,,,,,cathedral,,,,,,,,,,,1,2,0,34,34,9,1,,,,,,,,,,,,,,,,,,,,,,,,,,,,,,,,,,,,,,,,,,,,,,,,,,,,,,,,,,,,,,,,,,,,,,
,,?,0.00125,0,,,,,,stimuli/images/PICTURE_564.png,PLENTY,5edba672293f3b028b70eb25,09/03/1986,2020-09-02_12h27.03.927,proactive3.2,2020.1.2,Win32,60,5f47c0b9b035471e11593a5c,5f4f818e758a9c0398a28176,3,,,,,,spoon,,,,,,,,,,,2,2,0,35,35,11,1,,,,,,,,,,,,,,,,,,,,,,,,,,,,,,,,,,,,,,,,,,,,,,,,,,,,,,,,,,,,,,,,,,,,,,
,,?,0.00037,0,,,,,,stimuli/images/PICTURE_95.png,NIGHT,5edba672293f3b028b70eb25,09/03/1986,2020-09-02_12h27.03.927,proactive3.2,2020.1.2,Win32,60,5f47c0b9b035471e11593a5c,5f4f818e758a9c0398a28176,3,,,,,,suitcase,,,,,,,,,,,4,2,0,36,36,37,1,,,,,,,,,,,,,,,,,,,,,,,,,,,,,,,,,,,,,,,,,,,,,,,,,,,,,,,,,,,,,,,,,,,,,,
,,?,0.000395,0,,,,,,stimuli/images/PICTURE_453.png,FAMILY,5edba672293f3b028b70eb25,09/03/1986,2020-09-02_12h27.03.927,proactive3.2,2020.1.2,Win32,60,5f47c0b9b035471e11593a5c,5f4f818e758a9c0398a28176,3,,,,,,scissors,,,,,,,,,,,5,2,0,37,37,48,1,,,,,,,,,,,,,,,,,,,,,,,,,,,,,,,,,,,,,,,,,,,,,,,,,,,,,,,,,,,,,,,,,,,,,,
,,?,0.00034,0,,,,,,stimuli/images/PICTURE_147.png,LEADER,5edba672293f3b028b70eb25,09/03/1986,2020-09-02_12h27.03.927,proactive3.2,2020.1.2,Win32,60,5f47c0b9b035471e11593a5c,5f4f818e758a9c0398a28176,3,,,,,,hanger,,,,,,,,,,,4,2,0,38,38,33,1,,,,,,,,,,,,,,,,,,,,,,,,,,,,,,,,,,,,,,,,,,,,,,,,,,,,,,,,,,,,,,,,,,,,,,
,,?,0.0003,0,,,,,,stimuli/images/PICTURE_215.png,LEADER,5edba672293f3b028b70eb25,09/03/1986,2020-09-02_12h27.03.927,proactive3.2,2020.1.2,Win32,60,5f47c0b9b035471e11593a5c,5f4f818e758a9c0398a28176,3,,,,,,boot,,,,,,,,,,,5,2,0,39,39,43,1,,,,,,,,,,,,,,,,,,,,,,,,,,,,,,,,,,,,,,,,,,,,,,,,,,,,,,,,,,,,,,,,,,,,,,
,,?,0.00035,0,,,,,,stimuli/images/PICTURE_32.png,LETTER,5edba672293f3b028b70eb25,09/03/1986,2020-09-02_12h27.03.927,proactive3.2,2020.1.2,Win32,60,5f47c0b9b035471e11593a5c,5f4f818e758a9c0398a28176,3,,,,,,crown,,,,,,,,,,,6,2,0,40,40,56,1,,,,,,,,,,,,,,,,,,,,,,,,,,,,,,,,,,,,,,,,,,,,,,,,,,,,,,,,,,,,,,,,,,,,,,
,,?,0.00032,0,,,,,,stimuli/images/PICTURE_57.png,CANDY,5edba672293f3b028b70eb25,09/03/1986,2020-09-02_12h27.03.927,proactive3.2,2020.1.2,Win32,60,5f47c0b9b035471e11593a5c,5f4f818e758a9c0398a28176,3,,,,,,stamp,,,,,,,,,,,6,2,0,41,41,52,1,,,,,,,,,,,,,,,,,,,,,,,,,,,,,,,,,,,,,,,,,,,,,,,,,,,,,,,,,,,,,,,,,,,,,,
,,RIVER,8.27913,1,,,,,,stimuli/images/PICTURE_18.png,RIVER,5edba672293f3b028b70eb25,09/03/1986,2020-09-02_12h27.03.927,proactive3.2,2020.1.2,Win32,60,5f47c0b9b035471e11593a5c,5f4f818e758a9c0398a28176,3,,,,,,planet,,,,,,,,,,,3,2,0,42,42,22,1,,,,,,,,,,,,,,,,,,,,,,,,,,,,,,,,,,,,,,,,,,,,,,,,,,,,,,,,,,,,,,,,,,,,,,
,,?,0.001295,0,,,,,,stimuli/images/PICTURE_655.png,SALE,5edba672293f3b028b70eb25,09/03/1986,2020-09-02_12h27.03.927,proactive3.2,2020.1.2,Win32,60,5f47c0b9b035471e11593a5c,5f4f818e758a9c0398a28176,3,,,,,,megaphone,,,,,,,,,,,6,2,0,43,43,57,1,,,,,,,,,,,,,,,,,,,,,,,,,,,,,,,,,,,,,,,,,,,,,,,,,,,,,,,,,,,,,,,,,,,,,,
,,?,0.00085,0,,,,,,stimuli/images/PICTURE_297.png,BODY,5edba672293f3b028b70eb25,09/03/1986,2020-09-02_12h27.03.927,proactive3.2,2020.1.2,Win32,60,5f47c0b9b035471e11593a5c,5f4f818e758a9c0398a28176,3,,,,,,aeroplane,,,,,,,,,,,6,2,0,44,44,51,1,,,,,,,,,,,,,,,,,,,,,,,,,,,,,,,,,,,,,,,,,,,,,,,,,,,,,,,,,,,,,,,,,,,,,,
,,?,0.000525,0,,,,,,stimuli/images/PICTURE_327.png,LEADER,5edba672293f3b028b70eb25,09/03/1986,2020-09-02_12h27.03.927,proactive3.2,2020.1.2,Win32,60,5f47c0b9b035471e11593a5c,5f4f818e758a9c0398a28176,3,,,,,,helmet,,,,,,,,,,,2,2,0,45,45,17,1,,,,,,,,,,,,,,,,,,,,,,,,,,,,,,,,,,,,,,,,,,,,,,,,,,,,,,,,,,,,,,,,,,,,,,
,,COPS,6.24156,1,,,,,,stimuli/images/PICTURE_33.png,COPS,5edba672293f3b028b70eb25,09/03/1986,2020-09-02_12h27.03.927,proactive3.2,2020.1.2,Win32,60,5f47c0b9b035471e11593a5c,5f4f818e758a9c0398a28176,3,,,,,,frame,,,,,,,,,,,3,2,0,46,46,29,1,,,,,,,,,,,,,,,,,,,,,,,,,,,,,,,,,,,,,,,,,,,,,,,,,,,,,,,,,,,,,,,,,,,,,,
,,HOUSE,4.51586,1,,,,,,stimuli/images/PICTURE_177.png,HOUSE,5edba672293f3b028b70eb25,09/03/1986,2020-09-02_12h27.03.927,proactive3.2,2020.1.2,Win32,60,5f47c0b9b035471e11593a5c,5f4f818e758a9c0398a28176,3,,,,,,mushroom,,,,,,,,,,,3,2,0,47,47,25,1,,,,,,,,,,,,,,,,,,,,,,,,,,,,,,,,,,,,,,,,,,,,,,,,,,,,,,,,,,,,,,,,,,,,,,
,,?,0.00119,0,,,,,,stimuli/images/PICTURE_509.png,SHOTS,5edba672293f3b028b70eb25,09/03/1986,2020-09-02_12h27.03.927,proactive3.2,2020.1.2,Win32,60,5f47c0b9b035471e11593a5c,5f4f818e758a9c0398a28176,3,,,,,,telephone,,,,,,,,,,,1,2,0,48,48,7,1,,,,,,,,,,,,,,,,,,,,,,,,,,,,,,,,,,,,,,,,,,,,,,,,,,,,,,,,,,,,,,,,,,,,,,
,,?,0.00083,0,,,,,,stimuli/images/PICTURE_654.png,YEAR,5edba672293f3b028b70eb25,09/03/1986,2020-09-02_12h27.03.927,proactive3.2,2020.1.2,Win32,60,5f47c0b9b035471e11593a5c,5f4f818e758a9c0398a28176,3,,,,,,pencil,,,,,,,,,,,5,2,0,49,49,41,1,,,,,,,,,,,,,,,,,,,,,,,,,,,,,,,,,,,,,,,,,,,,,,,,,,,,,,,,,,,,,,,,,,,,,,
,,?,0.00056,0,,,,,,stimuli/images/PICTURE_311.png,TOILET,5edba672293f3b028b70eb25,09/03/1986,2020-09-02_12h27.03.927,proactive3.2,2020.1.2,Win32,60,5f47c0b9b035471e11593a5c,5f4f818e758a9c0398a28176,3,,,,,,razor,,,,,,,,,,,6,2,0,50,50,54,1,,,,,,,,,,,,,,,,,,,,,,,,,,,,,,,,,,,,,,,,,,,,,,,,,,,,,,,,,,,,,,,,,,,,,,
,,NATION,4.908795,1,,,,,,stimuli/images/PICTURE_57.png,NATION,5edba672293f3b028b70eb25,09/03/1986,2020-09-02_12h27.03.927,proactive3.2,2020.1.2,Win32,60,5f47c0b9b035471e11593a5c,5f4f818e758a9c0398a28176,3,,,,,,stamp,,,,,,,,,,,3,2,0,51,51,21,1,,,,,,,,,,,,,,,,,,,,,,,,,,,,,,,,,,,,,,,,,,,,,,,,,,,,,,,,,,,,,,,,,,,,,,
,,?,0.00085,0,,,,,,stimuli/images/PICTURE_93.png,GIRL,5edba672293f3b028b70eb25,09/03/1986,2020-09-02_12h27.03.927,proactive3.2,2020.1.2,Win32,60,5f47c0b9b035471e11593a5c,5f4f818e758a9c0398a28176,3,,,,,,skateboard,,,,,,,,,,,4,2,0,52,52,31,1,,,,,,,,,,,,,,,,,,,,,,,,,,,,,,,,,,,,,,,,,,,,,,,,,,,,,,,,,,,,,,,,,,,,,,
,,?,0.001045,0,,,,,,stimuli/images/PICTURE_141.png,CLIENT,5edba672293f3b028b70eb25,09/03/1986,2020-09-02_12h27.03.927,proactive3.2,2020.1.2,Win32,60,5f47c0b9b035471e11593a5c,5f4f818e758a9c0398a28176,3,,,,,,sunflower,,,,,,,,,,,4,2,0,53,53,30,1,,,,,,,,,,,,,,,,,,,,,,,,,,,,,,,,,,,,,,,,,,,,,,,,,,,,,,,,,,,,,,,,,,,,,,
,,?,0.00041,0,,,,,,stimuli/images/PICTURE_296.png,CLOCK,5edba672293f3b028b70eb25,09/03/1986,2020-09-02_12h27.03.927,proactive3.2,2020.1.2,Win32,60,5f47c0b9b035471e11593a5c,5f4f818e758a9c0398a28176,3,,,,,,bolt,,,,,,,,,,,2,2,0,54,54,18,1,,,,,,,,,,,,,,,,,,,,,,,,,,,,,,,,,,,,,,,,,,,,,,,,,,,,,,,,,,,,,,,,,,,,,,
,,?,0.000325,0,,,,,,stimuli/images/PICTURE_470.png,MOMENT,5edba672293f3b028b70eb25,09/03/1986,2020-09-02_12h27.03.927,proactive3.2,2020.1.2,Win32,60,5f47c0b9b035471e11593a5c,5f4f818e758a9c0398a28176,3,,,,,,motorbike,,,,,,,,,,,5,2,0,55,55,40,1,,,,,,,,,,,,,,,,,,,,,,,,,,,,,,,,,,,,,,,,,,,,,,,,,,,,,,,,,,,,,,,,,,,,,,
,,?,0.00054,0,,,,,,stimuli/images/PICTURE_509.png,APPLE,5edba672293f3b028b70eb25,09/03/1986,2020-09-02_12h27.03.927,proactive3.2,2020.1.2,Win32,60,5f47c0b9b035471e11593a5c,5f4f818e758a9c0398a28176,3,,,,,,telephone,,,,,,,,,,,4,2,0,56,56,38,1,,,,,,,,,,,,,,,,,,,,,,,,,,,,,,,,,,,,,,,,,,,,,,,,,,,,,,,,,,,,,,,,,,,,,,
,,PRINCE,6.074205,1,,,,,,stimuli/images/PICTURE_285.png,PRINCE,5edba672293f3b028b70eb25,09/03/1986,2020-09-02_12h27.03.927,proactive3.2,2020.1.2,Win32,60,5f47c0b9b035471e11593a5c,5f4f818e758a9c0398a28176,3,,,,,,carrot,,,,,,,,,,,3,2,0,57,57,20,1,,,,,,,,,,,,,,,,,,,,,,,,,,,,,,,,,,,,,,,,,,,,,,,,,,,,,,,,,,,,,,,,,,,,,,
,,BEAUTY,6.648855,1,,,,,,stimuli/images/PICTURE_470.png,BEAUTY,5edba672293f3b028b70eb25,09/03/1986,2020-09-02_12h27.03.927,proactive3.2,2020.1.2,Win32,60,5f47c0b9b035471e11593a5c,5f4f818e758a9c0398a28176,3,,,,,,motorbike,,,,,,,,,,,3,2,0,58,58,26,1,,,,,,,,,,,,,,,,,,,,,,,,,,,,,,,,,,,,,,,,,,,,,,,,,,,,,,,,,,,,,,,,,,,,,,
,,KIND,7.731755,1,,,,,,stimuli/images/PICTURE_68.png,KIND,5edba672293f3b028b70eb25,09/03/1986,2020-09-02_12h27.03.927,proactive3.2,2020.1.2,Win32,60,5f47c0b9b035471e11593a5c,5f4f818e758a9c0398a28176,3,,,,,,candle,,,,,,,,,,,3,2,0,59,59,23,1,,,,,,,,,,,,,,,,,,,,,,,,,,,,,,,,,,,,,,,,,,,,,,,,,,,,,,,,,,,,,,,,,,,,,,
,,,,,,,,,,,,5edba672293f3b028b70eb25,09/03/1986,2020-09-02_12h27.03.927,proactive3.2,2020.1.2,Win32,60,5f47c0b9b035471e11593a5c,5f4f818e758a9c0398a28176,3,,,,,,,,,,,,,,,,,,,,,,,,0,0,0,2,1,stimuli/learn-block3.csv,,,,,,,,,,,,,,,,,,,,,,,,,,,,,,,,,,,,,,,,,,,,,,,,,,,,,,,,,,,,,,,,
,,,,,,,,,,stimuli/images/PICTURE_255.png,AREA,5edba672293f3b028b70eb25,09/03/1986,2020-09-02_12h27.03.927,proactive3.2,2020.1.2,Win32,60,5f47c0b9b035471e11593a5c,5f4f818e758a9c0398a28176,3,,,,,,shovel,,,,,,0,0,0,22,1,3,0,,,,,,,,,,,,,,,,,,,,,,,,,,,,,,,,,,,,,,,,,,,,,,,,,,,,,,,,,,,,,,,,,,,,,,,,,,,
,,,,,,,,,,stimuli/images/PICTURE_667.png,PLENTY,5edba672293f3b028b70eb25,09/03/1986,2020-09-02_12h27.03.927,proactive3.2,2020.1.2,Win32,60,5f47c0b9b035471e11593a5c,5f4f818e758a9c0398a28176,3,,,,,,daisy,,,,,,0,1,1,41,1,5,0,,,,,,,,,,,,,,,,,,,,,,,,,,,,,,,,,,,,,,,,,,,,,,,,,,,,,,,,,,,,,,,,,,,,,,,,,,,
,,,,,,,,,,stimuli/images/PICTURE_147.png,MOMENT,5edba672293f3b028b70eb25,09/03/1986,2020-09-02_12h27.03.927,proactive3.2,2020.1.2,Win32,60,5f47c0b9b035471e11593a5c,5f4f818e758a9c0398a28176,3,,,,,,hanger,,,,,,0,2,2,51,1,6,0,,,,,,,,,,,,,,,,,,,,,,,,,,,,,,,,,,,,,,,,,,,,,,,,,,,,,,,,,,,,,,,,,,,,,,,,,,,
,,,,,,,,,,stimuli/images/PICTURE_85.png,THING,5edba672293f3b028b70eb25,09/03/1986,2020-09-02_12h27.03.927,proactive3.2,2020.1.2,Win32,60,5f47c0b9b035471e11593a5c,5f4f818e758a9c0398a28176,3,,,,,,diamond,,,,,,0,3,3,15,1,2,0,,,,,,,,,,,,,,,,,,,,,,,,,,,,,,,,,,,,,,,,,,,,,,,,,,,,,,,,,,,,,,,,,,,,,,,,,,,
,,,,,,,,,,stimuli/images/PICTURE_453.png,PLENTY,5edba672293f3b028b70eb25,09/03/1986,2020-09-02_12h27.03.927,proactive3.2,2020.1.2,Win32,60,5f47c0b9b035471e11593a5c,5f4f818e758a9c0398a28176,3,,,,,,scissors,,,,,,0,4,4,56,1,6,0,,,,,,,,,,,,,,,,,,,,,,,,,,,,,,,,,,,,,,,,,,,,,,,,,,,,,,,,,,,,,,,,,,,,,,,,,,,
,,,,,,,,,,stimuli/images/PICTURE_248.png,DOZEN,5edba672293f3b028b70eb25,09/03/1986,2020-09-02_12h27.03.927,proactive3.2,2020.1.2,Win32,60,5f47c0b9b035471e11593a5c,5f4f818e758a9c0398a28176,3,,,,,,cart,,,,,,0,5,5,39,1,4,0,,,,,,,,,,,,,,,,,,,,,,,,,,,,,,,,,,,,,,,,,,,,,,,,,,,,,,,,,,,,,,,,,,,,,,,,,,,
,,,,,,,,,,stimuli/images/PICTURE_308.png,KIND,5edba672293f3b028b70eb25,09/03/1986,2020-09-02_12h27.03.927,proactive3.2,2020.1.2,Win32,60,5f47c0b9b035471e11593a5c,5f4f818e758a9c0398a28176,3,,,,,,dice,,,,,,0,6,6,54,1,6,0,,,,,,,,,,,,,,,,,,,,,,,,,,,,,,,,,,,,,,,,,,,,,,,,,,,,,,,,,,,,,,,,,,,,,,,,,,,
,,,,,,,,,,stimuli/images/PICTURE_667.png,BATH,5edba672293f3b028b70eb25,09/03/1986,2020-09-02_12h27.03.927,proactive3.2,2020.1.2,Win32,60,5f47c0b9b035471e11593a5c,5f4f818e758a9c0398a28176,3,,,,,,daisy,,,,,,0,7,7,4,1,1,0,,,,,,,,,,,,,,,,,,,,,,,,,,,,,,,,,,,,,,,,,,,,,,,,,,,,,,,,,,,,,,,,,,,,,,,,,,,
,,,,,,,,,,stimuli/images/PICTURE_160.png,FEET,5edba672293f3b028b70eb25,09/03/1986,2020-09-02_12h27.03.927,proactive3.2,2020.1.2,Win32,60,5f47c0b9b035471e11593a5c,5f4f818e758a9c0398a28176,3,,,,,,wheelbarrow,,,,,,0,8,8,58,1,6,0,,,,,,,,,,,,,,,,,,,,,,,,,,,,,,,,,,,,,,,,,,,,,,,,,,,,,,,,,,,,,,,,,,,,,,,,,,,
,,,,,,,,,,stimuli/images/PICTURE_677.png,MILE,5edba672293f3b028b70eb25,09/03/1986,2020-09-02_12h27.03.927,proactive3.2,2020.1.2,Win32,60,5f47c0b9b035471e11593a5c,5f4f818e758a9c0398a28176,3,,,,,,map,,,,,,0,9,9,30,1,4,0,,,,,,,,,,,,,,,,,,,,,,,,,,,,,,,,,,,,,,,,,,,,,,,,,,,,,,,,,,,,,,,,,,,,,,,,,,,
,,,,,,,,,,stimuli/images/PICTURE_380.png,DEATH,5edba672293f3b028b70eb25,09/03/1986,2020-09-02_12h27.03.927,proactive3.2,2020.1.2,Win32,60,5f47c0b9b035471e11593a5c,5f4f818e758a9c0398a28176,3,,,,,,gorilla,,,,,,0,10,10,49,1,5,0,,,,,,,,,,,,,,,,,,,,,,,,,,,,,,,,,,,,,,,,,,,,,,,,,,,,,,,,,,,,,,,,,,,,,,,,,,,
,,,,,,,,,,stimuli/images/PICTURE_356.png,DANGER,5edba672293f3b028b70eb25,09/03/1986,2020-09-02_12h27.03.927,proactive3.2,2020.1.2,Win32,60,5f47c0b9b035471e11593a5c,5f4f818e758a9c0398a28176,3,,,,,,pawn,,,,,,0,11,11,55,1,6,0,,,,,,,,,,,,,,,,,,,,,,,,,,,,,,,,,,,,,,,,,,,,,,,,,,,,,,,,,,,,,,,,,,,,,,,,,,,
,,,,,,,,,,stimuli/images/PICTURE_708.png,YARD,5edba672293f3b028b70eb25,09/03/1986,2020-09-02_12h27.03.927,proactive3.2,2020.1.2,Win32,60,5f47c0b9b035471e11593a5c,5f4f818e758a9c0398a28176,3,,,,,,monkey,,,,,,0,12,12,29,1,3,0,,,,,,,,,,,,,,,,,,,,,,,,,,,,,,,,,,,,,,,,,,,,,,,,,,,,,,,,,,,,,,,,,,,,,,,,,,,
,,,,,,,,,,stimuli/images/PICTURE_285.png,ADVICE,5edba672293f3b028b70eb25,09/03/1986,2020-09-02_12h27.03.927,proactive3.2,2020.1.2,Win32,60,5f47c0b9b035471e11593a5c,5f4f818e758a9c0398a28176,3,,,,,,carrot,,,,,,0,13,13,12,1,2,0,,,,,,,,,,,,,,,,,,,,,,,,,,,,,,,,,,,,,,,,,,,,,,,,,,,,,,,,,,,,,,,,,,,,,,,,,,,
,,,,,,,,,,stimuli/images/PICTURE_208.png,THING,5edba672293f3b028b70eb25,09/03/1986,2020-09-02_12h27.03.927,proactive3.2,2020.1.2,Win32,60,5f47c0b9b035471e11593a5c,5f4f818e758a9c0398a28176,3,,,,,,microphone,,,,,,0,14,14,47,1,5,0,,,,,,,,,,,,,,,,,,,,,,,,,,,,,,,,,,,,,,,,,,,,,,,,,,,,,,,,,,,,,,,,,,,,,,,,,,,
,,,,,,,,,,stimuli/images/PICTURE_215.png,PLENTY,5edba672293f3b028b70eb25,09/03/1986,2020-09-02_12h27.03.927,proactive3.2,2020.1.2,Win32,60,5f47c0b9b035471e11593a5c,5f4f818e758a9c0398a28176,3,,,,,,boot,,,,,,0,15,15,37,1,4,0,,,,,,,,,,,,,,,,,,,,,,,,,,,,,,,,,,,,,,,,,,,,,,,,,,,,,,,,,,,,,,,,,,,,,,,,,,,
,,,,,,,,,,stimuli/images/PICTURE_487.png,FLIGHT,5edba672293f3b028b70eb25,09/03/1986,2020-09-02_12h27.03.927,proactive3.2,2020.1.2,Win32,60,5f47c0b9b035471e11593a5c,5f4f818e758a9c0398a28176,3,,,,,,basket,,,,,,0,16,16,9,1,1,0,,,,,,,,,,,,,,,,,,,,,,,,,,,,,,,,,,,,,,,,,,,,,,,,,,,,,,,,,,,,,,,,,,,,,,,,,,,
,,,,,,,,,,stimuli/images/PICTURE_233.png,WOMEN,5edba672293f3b028b70eb25,09/03/1986,2020-09-02_12h27.03.927,proactive3.2,2020.1.2,Win32,60,5f47c0b9b035471e11593a5c,5f4f818e758a9c0398a28176,3,,,,,,salt,,,,,,0,17,17,38,1,4,0,,,,,,,,,,,,,,,,,,,,,,,,,,,,,,,,,,,,,,,,,,,,,,,,,,,,,,,,,,,,,,,,,,,,,,,,,,,
,,,,,,,,,,stimuli/images/PICTURE_469.png,LETTER,5edba672293f3b028b70eb25,09/03/1986,2020-09-02_12h27.03.927,proactive3.2,2020.1.2,Win32,60,5f47c0b9b035471e11593a5c,5f4f818e758a9c0398a28176,3,,,,,,stool,,,,,,0,18,18,42,1,5,0,,,,,,,,,,,,,,,,,,,,,,,,,,,,,,,,,,,,,,,,,,,,,,,,,,,,,,,,,,,,,,,,,,,,,,,,,,,
,,,,,,,,,,stimuli/images/PICTURE_123.png,ADVICE,5edba672293f3b028b70eb25,09/03/1986,2020-09-02_12h27.03.927,proactive3.2,2020.1.2,Win32,60,5f47c0b9b035471e11593a5c,5f4f818e758a9c0398a28176,3,,,,,,dart,,,,,,0,19,19,50,1,6,0,,,,,,,,,,,,,,,,,,,,,,,,,,,,,,,,,,,,,,,,,,,,,,,,,,,,,,,,,,,,,,,,,,,,,,,,,,,
,,,,,,,,,,stimuli/images/PICTURE_744.png,SYSTEM,5edba672293f3b028b70eb25,09/03/1986,2020-09-02_12h27.03.927,proactive3.2,2020.1.2,Win32,60,5f47c0b9b035471e11593a5c,5f4f818e758a9c0398a28176,3,,,,,,ring,,,,,,0,20,20,43,1,5,0,,,,,,,,,,,,,,,,,,,,,,,,,,,,,,,,,,,,,,,,,,,,,,,,,,,,,,,,,,,,,,,,,,,,,,,,,,,
,,,,,,,,,,stimuli/images/PICTURE_160.png,LEADER,5edba672293f3b028b70eb25,09/03/1986,2020-09-02_12h27.03.927,proactive3.2,2020.1.2,Win32,60,5f47c0b9b035471e11593a5c,5f4f818e758a9c0398a28176,3,,,,,,wheelbarrow,,,,,,0,21,21,3,1,1,0,,,,,,,,,,,,,,,,,,,,,,,,,,,,,,,,,,,,,,,,,,,,,,,,,,,,,,,,,,,,,,,,,,,,,,,,,,,
,,,,,,,,,,stimuli/images/PICTURE_348.png,SPEECH,5edba672293f3b028b70eb25,09/03/1986,2020-09-02_12h27.03.927,proactive3.2,2020.1.2,Win32,60,5f47c0b9b035471e11593a5c,5f4f818e758a9c0398a28176,3,,,,,,pepper,,,,,,0,22,22,20,1,3,0,,,,,,,,,,,,,,,,,,,,,,,,,,,,,,,,,,,,,,,,,,,,,,,,,,,,,,,,,,,,,,,,,,,,,,,,,,,
,,,,,,,,,,stimuli/images/PICTURE_504.png,BODY,5edba672293f3b028b70eb25,09/03/1986,2020-09-02_12h27.03.927,proactive3.2,2020.1.2,Win32,60,5f47c0b9b035471e11593a5c,5f4f818e758a9c0398a28176,3,,,,,,wheel,,,,,,0,23,23,8,1,1,0,,,,,,,,,,,,,,,,,,,,,,,,,,,,,,,,,,,,,,,,,,,,,,,,,,,,,,,,,,,,,,,,,,,,,,,,,,,
,,,,,,,,,,stimuli/images/PICTURE_208.png,LOTS,5edba672293f3b028b70eb25,09/03/1986,2020-09-02_12h27.03.927,proactive3.2,2020.1.2,Win32,60,5f47c0b9b035471e11593a5c,5f4f818e758a9c0398a28176,3,,,,,,microphone,,,,,,0,24,24,10,1,2,0,,,,,,,,,,,,,,,,,,,,,,,,,,,,,,,,,,,,,,,,,,,,,,,,,,,,,,,,,,,,,,,,,,,,,,,,,,,
,,,,,,,,,,stimuli/images/PICTURE_467.png,DEMON,5edba672293f3b028b70eb25,09/03/1986,2020-09-02_12h27.03.927,proactive3.2,2020.1.2,Win32,60,5f47c0b9b035471e11593a5c,5f4f818e758a9c0398a28176,3,,,,,,peg,,,,,,0,25,25,23,1,3,0,,,,,,,,,,,,,,,,,,,,,,,,,,,,,,,,,,,,,,,,,,,,,,,,,,,,,,,,,,,,,,,,,,,,,,,,,,,
,,,,,,,,,,stimuli/images/PICTURE_744.png,SAKE,5edba672293f3b028b70eb25,09/03/1986,2020-09-02_12h27.03.927,proactive3.2,2020.1.2,Win32,60,5f47c0b9b035471e11593a5c,5f4f818e758a9c0398a28176,3,,,,,,ring,,,,,,0,26,26,17,1,2,0,,,,,,,,,,,,,,,,,,,,,,,,,,,,,,,,,,,,,,,,,,,,,,,,,,,,,,,,,,,,,,,,,,,,,,,,,,,
,,,,,,,,,,stimuli/images/PICTURE_449.png,THING,5edba672293f3b028b70eb25,09/03/1986,2020-09-02_12h27.03.927,proactive3.2,2020.1.2,Win32,60,5f47c0b9b035471e11593a5c,5f4f818e758a9c0398a28176,3,,,,,,bench,,,,,,0,27,27,59,1,6,0,,,,,,,,,,,,,,,,,,,,,,,,,,,,,,,,,,,,,,,,,,,,,,,,,,,,,,,,,,,,,,,,,,,,,,,,,,,
,,,,,,,,,,stimuli/images/PICTURE_233.png,IDEAS,5edba672293f3b028b70eb25,09/03/1986,2020-09-02_12h27.03.927,proactive3.2,2020.1.2,Win32,60,5f47c0b9b035471e11593a5c,5f4f818e758a9c0398a28176,3,,,,,,salt,,,,,,0,28,28,28,1,3,0,,,,,,,,,,,,,,,,,,,,,,,,,,,,,,,,,,,,,,,,,,,,,,,,,,,,,,,,,,,,,,,,,,,,,,,,,,,
,,,,,,,,,,stimuli/images/PICTURE_509.png,PHOTO,5edba672293f3b028b70eb25,09/03/1986,2020-09-02_12h27.03.927,proactive3.2,2020.1.2,Win32,60,5f47c0b9b035471e11593a5c,5f4f818e758a9c0398a28176,3,,,,,,telephone,,,,,,0,29,29,21,1,3,0,,,,,,,,,,,,,,,,,,,,,,,,,,,,,,,,,,,,,,,,,,,,,,,,,,,,,,,,,,,,,,,,,,,,,,,,,,,
,,,,,,,,,,stimuli/images/PICTURE_708.png,CLIENT,5edba672293f3b028b70eb25,09/03/1986,2020-09-02_12h27.03.927,proactive3.2,2020.1.2,Win32,60,5f47c0b9b035471e11593a5c,5f4f818e758a9c0398a28176,3,,,,,,monkey,,,,,,0,30,30,5,1,1,0,,,,,,,,,,,,,,,,,,,,,,,,,,,,,,,,,,,,,,,,,,,,,,,,,,,,,,,,,,,,,,,,,,,,,,,,,,,
,,,,,,,,,,stimuli/images/PICTURE_308.png,ESTATE,5edba672293f3b028b70eb25,09/03/1986,2020-09-02_12h27.03.927,proactive3.2,2020.1.2,Win32,60,5f47c0b9b035471e11593a5c,5f4f818e758a9c0398a28176,3,,,,,,dice,,,,,,0,31,31,46,1,5,0,,,,,,,,,,,,,,,,,,,,,,,,,,,,,,,,,,,,,,,,,,,,,,,,,,,,,,,,,,,,,,,,,,,,,,,,,,,
,,,,,,,,,,stimuli/images/PICTURE_177.png,CARS,5edba672293f3b028b70eb25,09/03/1986,2020-09-02_12h27.03.927,proactive3.2,2020.1.2,Win32,60,5f47c0b9b035471e11593a5c,5f4f818e758a9c0398a28176,3,,,,,,mushroom,,,,,,0,32,32,35,1,4,0,,,,,,,,,,,,,,,,,,,,,,,,,,,,,,,,,,,,,,,,,,,,,,,,,,,,,,,,,,,,,,,,,,,,,,,,,,,
,,,,,,,,,,stimuli/images/PICTURE_708.png,PENNY,5edba672293f3b028b70eb25,09/03/1986,2020-09-02_12h27.03.927,proactive3.2,2020.1.2,Win32,60,5f47c0b9b035471e11593a5c,5f4f818e758a9c0398a28176,3,,,,,,monkey,,,,,,0,33,33,31,1,4,0,,,,,,,,,,,,,,,,,,,,,,,,,,,,,,,,,,,,,,,,,,,,,,,,,,,,,,,,,,,,,,,,,,,,,,,,,,,
,,,,,,,,,,stimuli/images/PICTURE_314.png,GODS,5edba672293f3b028b70eb25,09/03/1986,2020-09-02_12h27.03.927,proactive3.2,2020.1.2,Win32,60,5f47c0b9b035471e11593a5c,5f4f818e758a9c0398a28176,3,,,,,,perfume,,,,,,0,34,34,11,1,2,0,,,,,,,,,,,,,,,,,,,,,,,,,,,,,,,,,,,,,,,,,,,,,,,,,,,,,,,,,,,,,,,,,,,,,,,,,,,
,,,,,,,,,,stimuli/images/PICTURE_208.png,MONTH,5edba672293f3b028b70eb25,09/03/1986,2020-09-02_12h27.03.927,proactive3.2,2020.1.2,Win32,60,5f47c0b9b035471e11593a5c,5f4f818e758a9c0398a28176,3,,,,,,microphone,,,,,,0,35,35,53,1,6,0,,,,,,,,,,,,,,,,,,,,,,,,,,,,,,,,,,,,,,,,,,,,,,,,,,,,,,,,,,,,,,,,,,,,,,,,,,,
,,,,,,,,,,stimuli/images/PICTURE_203.png,ARTIST,5edba672293f3b028b70eb25,09/03/1986,2020-09-02_12h27.03.927,proactive3.2,2020.1.2,Win32,60,5f47c0b9b035471e11593a5c,5f4f818e758a9c0398a28176,3,,,,,,cap,,,,,,0,36,36,26,1,3,0,,,,,,,,,,,,,,,,,,,,,,,,,,,,,,,,,,,,,,,,,,,,,,,,,,,,,,,,,,,,,,,,,,,,,,,,,,,
,,,,,,,,,,stimuli/images/PICTURE_688.png,WOMEN,5edba672293f3b028b70eb25,09/03/1986,2020-09-02_12h27.03.927,proactive3.2,2020.1.2,Win32,60,5f47c0b9b035471e11593a5c,5f4f818e758a9c0398a28176,3,,,,,,runner,,,,,,0,37,37,14,1,2,0,,,,,,,,,,,,,,,,,,,,,,,,,,,,,,,,,,,,,,,,,,,,,,,,,,,,,,,,,,,,,,,,,,,,,,,,,,,
,,,,,,,,,,stimuli/images/PICTURE_654.png,VALLEY,5edba672293f3b028b70eb25,09/03/1986,2020-09-02_12h27.03.927,proactive3.2,2020.1.2,Win32,60,5f47c0b9b035471e11593a5c,5f4f818e758a9c0398a28176,3,,,,,,pencil,,,,,,0,38,38,1,1,1,0,,,,,,,,,,,,,,,,,,,,,,,,,,,,,,,,,,,,,,,,,,,,,,,,,,,,,,,,,,,,,,,,,,,,,,,,,,,
,,,,,,,,,,stimuli/images/PICTURE_491.png,ROOF,5edba672293f3b028b70eb25,09/03/1986,2020-09-02_12h27.03.927,proactive3.2,2020.1.2,Win32,60,5f47c0b9b035471e11593a5c,5f4f818e758a9c0398a28176,3,,,,,,rug,,,,,,0,39,39,24,1,3,0,,,,,,,,,,,,,,,,,,,,,,,,,,,,,,,,,,,,,,,,,,,,,,,,,,,,,,,,,,,,,,,,,,,,,,,,,,,
,,,,,,,,,,stimuli/images/PICTURE_488.png,STYLE,5edba672293f3b028b70eb25,09/03/1986,2020-09-02_12h27.03.927,proactive3.2,2020.1.2,Win32,60,5f47c0b9b035471e11593a5c,5f4f818e758a9c0398a28176,3,,,,,,sun,,,,,,0,40,40,33,1,4,0,,,,,,,,,,,,,,,,,,,,,,,,,,,,,,,,,,,,,,,,,,,,,,,,,,,,,,,,,,,,,,,,,,,,,,,,,,,
,,,,,,,,,,stimuli/images/PICTURE_692.png,MONTH,5edba672293f3b028b70eb25,09/03/1986,2020-09-02_12h27.03.927,proactive3.2,2020.1.2,Win32,60,5f47c0b9b035471e11593a5c,5f4f818e758a9c0398a28176,3,,,,,,cherry,,,,,,0,41,41,16,1,2,0,,,,,,,,,,,,,,,,,,,,,,,,,,,,,,,,,,,,,,,,,,,,,,,,,,,,,,,,,,,,,,,,,,,,,,,,,,,
,,,,,,,,,,stimuli/images/PICTURE_32.png,JUNGLE,5edba672293f3b028b70eb25,09/03/1986,2020-09-02_12h27.03.927,proactive3.2,2020.1.2,Win32,60,5f47c0b9b035471e11593a5c,5f4f818e758a9c0398a28176,3,,,,,,crown,,,,,,0,42,42,45,1,5,0,,,,,,,,,,,,,,,,,,,,,,,,,,,,,,,,,,,,,,,,,,,,,,,,,,,,,,,,,,,,,,,,,,,,,,,,,,,
,,,,,,,,,,stimuli/images/PICTURE_314.png,SAKE,5edba672293f3b028b70eb25,09/03/1986,2020-09-02_12h27.03.927,proactive3.2,2020.1.2,Win32,60,5f47c0b9b035471e11593a5c,5f4f818e758a9c0398a28176,3,,,,,,perfume,,,,,,0,43,43,7,1,1,0,,,,,,,,,,,,,,,,,,,,,,,,,,,,,,,,,,,,,,,,,,,,,,,,,,,,,,,,,,,,,,,,,,,,,,,,,,,
,,,,,,,,,,stimuli/images/PICTURE_311.png,FRIEND,5edba672293f3b028b70eb25,09/03/1986,2020-09-02_12h27.03.927,proactive3.2,2020.1.2,Win32,60,5f47c0b9b035471e11593a5c,5f4f818e758a9c0398a28176,3,,,,,,razor,,,,,,0,44,44,34,1,4,0,,,,,,,,,,,,,,,,,,,,,,,,,,,,,,,,,,,,,,,,,,,,,,,,,,,,,,,,,,,,,,,,,,,,,,,,,,,
,,,,,,,,,,stimuli/images/PICTURE_302.png,FAMILY,5edba672293f3b028b70eb25,09/03/1986,2020-09-02_12h27.03.927,proactive3.2,2020.1.2,Win32,60,5f47c0b9b035471e11593a5c,5f4f818e758a9c0398a28176,3,,,,,,taxi,,,,,,0,45,45,18,1,2,0,,,,,,,,,,,,,,,,,,,,,,,,,,,,,,,,,,,,,,,,,,,,,,,,,,,,,,,,,,,,,,,,,,,,,,,,,,,
,,,,,,,,,,stimuli/images/PICTURE_327.png,BEAUTY,5edba672293f3b028b70eb25,09/03/1986,2020-09-02_12h27.03.927,proactive3.2,2020.1.2,Win32,60,5f47c0b9b035471e11593a5c,5f4f818e758a9c0398a28176,3,,,,,,helmet,,,,,,0,46,46,48,1,5,0,,,,,,,,,,,,,,,,,,,,,,,,,,,,,,,,,,,,,,,,,,,,,,,,,,,,,,,,,,,,,,,,,,,,,,,,,,,
,,,,,,,,,,stimuli/images/PICTURE_470.png,CASINO,5edba672293f3b028b70eb25,09/03/1986,2020-09-02_12h27.03.927,proactive3.2,2020.1.2,Win32,60,5f47c0b9b035471e11593a5c,5f4f818e758a9c0398a28176,3,,,,,,motorbike,,,,,,0,47,47,36,1,4,0,,,,,,,,,,,,,,,,,,,,,,,,,,,,,,,,,,,,,,,,,,,,,,,,,,,,,,,,,,,,,,,,,,,,,,,,,,,
,,,,,,,,,,stimuli/images/PICTURE_339.png,PLENTY,5edba672293f3b028b70eb25,09/03/1986,2020-09-02_12h27.03.927,proactive3.2,2020.1.2,Win32,60,5f47c0b9b035471e11593a5c,5f4f818e758a9c0398a28176,3,,,,,,backpack,,,,,,0,48,48,0,1,1,0,,,,,,,,,,,,,,,,,,,,,,,,,,,,,,,,,,,,,,,,,,,,,,,,,,,,,,,,,,,,,,,,,,,,,,,,,,,
,,,,,,,,,,stimuli/images/PICTURE_68.png,MILE,5edba672293f3b028b70eb25,09/03/1986,2020-09-02_12h27.03.927,proactive3.2,2020.1.2,Win32,60,5f47c0b9b035471e11593a5c,5f4f818e758a9c0398a28176,3,,,,,,candle,,,,,,0,49,49,44,1,5,0,,,,,,,,,,,,,,,,,,,,,,,,,,,,,,,,,,,,,,,,,,,,,,,,,,,,,,,,,,,,,,,,,,,,,,,,,,,
,,,,,,,,,,stimuli/images/PICTURE_151.png,GIRL,5edba672293f3b028b70eb25,09/03/1986,2020-09-02_12h27.03.927,proactive3.2,2020.1.2,Win32,60,5f47c0b9b035471e11593a5c,5f4f818e758a9c0398a28176,3,,,,,,tray,,,,,,0,50,50,19,1,2,0,,,,,,,,,,,,,,,,,,,,,,,,,,,,,,,,,,,,,,,,,,,,,,,,,,,,,,,,,,,,,,,,,,,,,,,,,,,
,,,,,,,,,,stimuli/images/PICTURE_123.png,ADVICE,5edba672293f3b028b70eb25,09/03/1986,2020-09-02_12h27.03.927,proactive3.2,2020.1.2,Win32,60,5f47c0b9b035471e11593a5c,5f4f818e758a9c0398a28176,3,,,,,,dart,,,,,,0,51,51,40,1,5,0,,,,,,,,,,,,,,,,,,,,,,,,,,,,,,,,,,,,,,,,,,,,,,,,,,,,,,,,,,,,,,,,,,,,,,,,,,,
,,,,,,,,,,stimuli/images/PICTURE_491.png,WRITER,5edba672293f3b028b70eb25,09/03/1986,2020-09-02_12h27.03.927,proactive3.2,2020.1.2,Win32,60,5f47c0b9b035471e11593a5c,5f4f818e758a9c0398a28176,3,,,,,,rug,,,,,,0,52,52,57,1,6,0,,,,,,,,,,,,,,,,,,,,,,,,,,,,,,,,,,,,,,,,,,,,,,,,,,,,,,,,,,,,,,,,,,,,,,,,,,,
,,,,,,,,,,stimuli/images/PICTURE_380.png,PHOTO,5edba672293f3b028b70eb25,09/03/1986,2020-09-02_12h27.03.927,proactive3.2,2020.1.2,Win32,60,5f47c0b9b035471e11593a5c,5f4f818e758a9c0398a28176,3,,,,,,gorilla,,,,,,0,53,53,52,1,6,0,,,,,,,,,,,,,,,,,,,,,,,,,,,,,,,,,,,,,,,,,,,,,,,,,,,,,,,,,,,,,,,,,,,,,,,,,,,
,,,,,,,,,,stimuli/images/PICTURE_95.png,STYLE,5edba672293f3b028b70eb25,09/03/1986,2020-09-02_12h27.03.927,proactive3.2,2020.1.2,Win32,60,5f47c0b9b035471e11593a5c,5f4f818e758a9c0398a28176,3,,,,,,suitcase,,,,,,0,54,54,25,1,3,0,,,,,,,,,,,,,,,,,,,,,,,,,,,,,,,,,,,,,,,,,,,,,,,,,,,,,,,,,,,,,,,,,,,,,,,,,,,
,,,,,,,,,,stimuli/images/PICTURE_688.png,CASINO,5edba672293f3b028b70eb25,09/03/1986,2020-09-02_12h27.03.927,proactive3.2,2020.1.2,Win32,60,5f47c0b9b035471e11593a5c,5f4f818e758a9c0398a28176,3,,,,,,runner,,,,,,0,55,55,2,1,1,0,,,,,,,,,,,,,,,,,,,,,,,,,,,,,,,,,,,,,,,,,,,,,,,,,,,,,,,,,,,,,,,,,,,,,,,,,,,
,,,,,,,,,,stimuli/images/PICTURE_675.png,WEAPON,5edba672293f3b028b70eb25,09/03/1986,2020-09-02_12h27.03.927,proactive3.2,2020.1.2,Win32,60,5f47c0b9b035471e11593a5c,5f4f818e758a9c0398a28176,3,,,,,,windmill,,,,,,0,56,56,32,1,4,0,,,,,,,,,,,,,,,,,,,,,,,,,,,,,,,,,,,,,,,,,,,,,,,,,,,,,,,,,,,,,,,,,,,,,,,,,,,
,,,,,,,,,,stimuli/images/PICTURE_453.png,DUDE,5edba672293f3b028b70eb25,09/03/1986,2020-09-02_12h27.03.927,proactive3.2,2020.1.2,Win32,60,5f47c0b9b035471e11593a5c,5f4f818e758a9c0398a28176,3,,,,,,scissors,,,,,,0,57,57,27,1,3,0,,,,,,,,,,,,,,,,,,,,,,,,,,,,,,,,,,,,,,,,,,,,,,,,,,,,,,,,,,,,,,,,,,,,,,,,,,,
,,,,,,,,,,stimuli/images/PICTURE_469.png,ARTIST,5edba672293f3b028b70eb25,09/03/1986,2020-09-02_12h27.03.927,proactive3.2,2020.1.2,Win32,60,5f47c0b9b035471e11593a5c,5f4f818e758a9c0398a28176,3,,,,,,stool,,,,,,0,58,58,6,1,1,0,,,,,,,,,,,,,,,,,,,,,,,,,,,,,,,,,,,,,,,,,,,,,,,,,,,,,,,,,,,,,,,,,,,,,,,,,,,
,,?,0.000745,0,,,,,,stimuli/images/PICTURE_327.png,BEAUTY,5edba672293f3b028b70eb25,09/03/1986,2020-09-02_12h27.03.927,proactive3.2,2020.1.2,Win32,60,5f47c0b9b035471e11593a5c,5f4f818e758a9c0398a28176,3,,,,,,helmet,,,,,,,,,,,5,0,0,0,0,48,1,,,,,,,,,,,,,,,,,,,,,,,,,,,,,,,,,,,,,,,,,,,,,,,,,,,,,,,,,,,,,,,,,,,,,,
,,YARD,5.656025,1,,,,,,stimuli/images/PICTURE_708.png,YARD,5edba672293f3b028b70eb25,09/03/1986,2020-09-02_12h27.03.927,proactive3.2,2020.1.2,Win32,60,5f47c0b9b035471e11593a5c,5f4f818e758a9c0398a28176,3,,,,,,monkey,,,,,,,,,,,3,0,0,1,1,29,1,,,,,,,,,,,,,,,,,,,,,,,,,,,,,,,,,,,,,,,,,,,,,,,,,,,,,,,,,,,,,,,,,,,,,,
,,?,0.001165,0,,,,,,stimuli/images/PICTURE_667.png,BATH,5edba672293f3b028b70eb25,09/03/1986,2020-09-02_12h27.03.927,proactive3.2,2020.1.2,Win32,60,5f47c0b9b035471e11593a5c,5f4f818e758a9c0398a28176,3,,,,,,daisy,,,,,,,,,,,1,0,0,2,2,4,1,,,,,,,,,,,,,,,,,,,,,,,,,,,,,,,,,,,,,,,,,,,,,,,,,,,,,,,,,,,,,,,,,,,,,,
,,?,0.00087,0,,,,,,stimuli/images/PICTURE_380.png,PHOTO,5edba672293f3b028b70eb25,09/03/1986,2020-09-02_12h27.03.927,proactive3.2,2020.1.2,Win32,60,5f47c0b9b035471e11593a5c,5f4f818e758a9c0398a28176,3,,,,,,gorilla,,,,,,,,,,,6,0,0,3,3,52,1,,,,,,,,,,,,,,,,,,,,,,,,,,,,,,,,,,,,,,,,,,,,,,,,,,,,,,,,,,,,,,,,,,,,,,
,,?,0.000495,0,,,,,,stimuli/images/PICTURE_487.png,FLIGHT,5edba672293f3b028b70eb25,09/03/1986,2020-09-02_12h27.03.927,proactive3.2,2020.1.2,Win32,60,5f47c0b9b035471e11593a5c,5f4f818e758a9c0398a28176,3,,,,,,basket,,,,,,,,,,,1,0,0,4,4,9,1,,,,,,,,,,,,,,,,,,,,,,,,,,,,,,,,,,,,,,,,,,,,,,,,,,,,,,,,,,,,,,,,,,,,,,
,,?,0.000525,0,,,,,,stimuli/images/PICTURE_356.png,DANGER,5edba672293f3b028b70eb25,09/03/1986,2020-09-02_12h27.03.927,proactive3.2,2020.1.2,Win32,60,5f47c0b9b035471e11593a5c,5f4f818e758a9c0398a28176,3,,,,,,pawn,,,,,,,,,,,6,0,0,5,5,55,1,,,,,,,,,,,,,,,,,,,,,,,,,,,,,,,,,,,,,,,,,,,,,,,,,,,,,,,,,,,,,,,,,,,,,,
,,?,0.00044,0,,,,,,stimuli/images/PICTURE_302.png,FAMILY,5edba672293f3b028b70eb25,09/03/1986,2020-09-02_12h27.03.927,proactive3.2,2020.1.2,Win32,60,5f47c0b9b035471e11593a5c,5f4f818e758a9c0398a28176,3,,,,,,taxi,,,,,,,,,,,2,0,0,6,6,18,1,,,,,,,,,,,,,,,,,,,,,,,,,,,,,,,,,,,,,,,,,,,,,,,,,,,,,,,,,,,,,,,,,,,,,,
,,ARTIST,3.540135,1,,,,,,stimuli/images/PICTURE_203.png,ARTIST,5edba672293f3b028b70eb25,09/03/1986,2020-09-02_12h27.03.927,proactive3.2,2020.1.2,Win32,60,5f47c0b9b035471e11593a5c,5f4f818e758a9c0398a28176,3,,,,,,cap,,,,,,,,,,,3,0,0,7,7,26,1,,,,,,,,,,,,,,,,,,,,,,,,,,,,,,,,,,,,,,,,,,,,,,,,,,,,,,,,,,,,,,,,,,,,,,
,,?,0.00136,0,,,,,,stimuli/images/PICTURE_744.png,SAKE,5edba672293f3b028b70eb25,09/03/1986,2020-09-02_12h27.03.927,proactive3.2,2020.1.2,Win32,60,5f47c0b9b035471e11593a5c,5f4f818e758a9c0398a28176,3,,,,,,ring,,,,,,,,,,,2,0,0,8,8,17,1,,,,,,,,,,,,,,,,,,,,,,,,,,,,,,,,,,,,,,,,,,,,,,,,,,,,,,,,,,,,,,,,,,,,,,
,,?,0.000605,0,,,,,,stimuli/images/PICTURE_469.png,ARTIST,5edba672293f3b028b70eb25,09/03/1986,2020-09-02_12h27.03.927,proactive3.2,2020.1.2,Win32,60,5f47c0b9b035471e11593a5c,5f4f818e758a9c0398a28176,3,,,,,,stool,,,,,,,,,,,1,0,0,9,9,6,1,,,,,,,,,,,,,,,,,,,,,,,,,,,,,,,,,,,,,,,,,,,,,,,,,,,,,,,,,,,,,,,,,,,,,,
,,?,0.000395,0,,,,,,stimuli/images/PICTURE_488.png,STYLE,5edba672293f3b028b70eb25,09/03/1986,2020-09-02_12h27.03.927,proactive3.2,2020.1.2,Win32,60,5f47c0b9b035471e11593a5c,5f4f818e758a9c0398a28176,3,,,,,,sun,,,,,,,,,,,4,0,0,10,10,33,1,,,,,,,,,,,,,,,,,,,,,,,,,,,,,,,,,,,,,,,,,,,,,,,,,,,,,,,,,,,,,,,,,,,,,,
,,?,0.000375,0,,,,,,stimuli/images/PICTURE_308.png,KIND,5edba672293f3b028b70eb25,09/03/1986,2020-09-02_12h27.03.927,proactive3.2,2020.1.2,Win32,60,5f47c0b9b035471e11593a5c,5f4f818e758a9c0398a28176,3,,,,,,dice,,,,,,,,,,,6,0,0,11,11,54,1,,,,,,,,,,,,,,,,,,,,,,,,,,,,,,,,,,,,,,,,,,,,,,,,,,,,,,,,,,,,,,,,,,,,,,
,,?,0.00034,0,,,,,,stimuli/images/PICTURE_160.png,FEET,5edba672293f3b028b70eb25,09/03/1986,2020-09-02_12h27.03.927,proactive3.2,2020.1.2,Win32,60,5f47c0b9b035471e11593a5c,5f4f818e758a9c0398a28176,3,,,,,,wheelbarrow,,,,,,,,,,,6,0,0,12,12,58,1,,,,,,,,,,,,,,,,,,,,,,,,,,,,,,,,,,,,,,,,,,,,,,,,,,,,,,,,,,,,,,,,,,,,,,
,,?,0.000355,0,,,,,,stimuli/images/PICTURE_147.png,MOMENT,5edba672293f3b028b70eb25,09/03/1986,2020-09-02_12h27.03.927,proactive3.2,2020.1.2,Win32,60,5f47c0b9b035471e11593a5c,5f4f818e758a9c0398a28176,3,,,,,,hanger,,,,,,,,,,,6,0,0,13,13,51,1,,,,,,,,,,,,,,,,,,,,,,,,,,,,,,,,,,,,,,,,,,,,,,,,,,,,,,,,,,,,,,,,,,,,,,
,,?,0.00039,0,,,,,,stimuli/images/PICTURE_314.png,SAKE,5edba672293f3b028b70eb25,09/03/1986,2020-09-02_12h27.03.927,proactive3.2,2020.1.2,Win32,60,5f47c0b9b035471e11593a5c,5f4f818e758a9c0398a28176,3,,,,,,perfume,,,,,,,,,,,1,0,0,14,14,7,1,,,,,,,,,,,,,,,,,,,,,,,,,,,,,,,,,,,,,,,,,,,,,,,,,,,,,,,,,,,,,,,,,,,,,,
,,?,0.00039,0,,,,,,stimuli/images/PICTURE_380.png,DEATH,5edba672293f3b028b70eb25,09/03/1986,2020-09-02_12h27.03.927,proactive3.2,2020.1.2,Win32,60,5f47c0b9b035471e11593a5c,5f4f818e758a9c0398a28176,3,,,,,,gorilla,,,,,,,,,,,5,0,0,15,15,49,1,,,,,,,,,,,,,,,,,,,,,,,,,,,,,,,,,,,,,,,,,,,,,,,,,,,,,,,,,,,,,,,,,,,,,,
,,PHOTO,3.81922,1,,,,,,stimuli/images/PICTURE_509.png,PHOTO,5edba672293f3b028b70eb25,09/03/1986,2020-09-02_12h27.03.927,proactive3.2,2020.1.2,Win32,60,5f47c0b9b035471e11593a5c,5f4f818e758a9c0398a28176,3,,,,,,telephone,,,,,,,,,,,3,0,0,16,16,21,1,,,,,,,,,,,,,,,,,,,,,,,,,,,,,,,,,,,,,,,,,,,,,,,,,,,,,,,,,,,,,,,,,,,,,,
,,?,0.001145,0,,,,,,stimuli/images/PICTURE_177.png,CARS,5edba672293f3b028b70eb25,09/03/1986,2020-09-02_12h27.03.927,proactive3.2,2020.1.2,Win32,60,5f47c0b9b035471e11593a5c,5f4f818e758a9c0398a28176,3,,,,,,mushroom,,,,,,,,,,,4,0,0,17,17,35,1,,,,,,,,,,,,,,,,,,,,,,,,,,,,,,,,,,,,,,,,,,,,,,,,,,,,,,,,,,,,,,,,,,,,,,
,,?,0.000675,0,,,,,,stimuli/images/PICTURE_32.png,JUNGLE,5edba672293f3b028b70eb25,09/03/1986,2020-09-02_12h27.03.927,proactive3.2,2020.1.2,Win32,60,5f47c0b9b035471e11593a5c,5f4f818e758a9c0398a28176,3,,,,,,crown,,,,,,,,,,,5,0,0,18,18,45,1,,,,,,,,,,,,,,,,,,,,,,,,,,,,,,,,,,,,,,,,,,,,,,,,,,,,,,,,,,,,,,,,,,,,,,
,,?,0.000485,0,,,,,,stimuli/images/PICTURE_85.png,THING,5edba672293f3b028b70eb25,09/03/1986,2020-09-02_12h27.03.927,proactive3.2,2020.1.2,Win32,60,5f47c0b9b035471e11593a5c,5f4f818e758a9c0398a28176,3,,,,,,diamond,,,,,,,,,,,2,0,0,19,19,15,1,,,,,,,,,,,,,,,,,,,,,,,,,,,,,,,,,,,,,,,,,,,,,,,,,,,,,,,,,,,,,,,,,,,,,,
,,?,0.00048,0,,,,,,stimuli/images/PICTURE_311.png,FRIEND,5edba672293f3b028b70eb25,09/03/1986,2020-09-02_12h27.03.927,proactive3.2,2020.1.2,Win32,60,5f47c0b9b035471e11593a5c,5f4f818e758a9c0398a28176,3,,,,,,razor,,,,,,,,,,,4,0,0,20,20,34,1,,,,,,,,,,,,,,,,,,,,,,,,,,,,,,,,,,,,,,,,,,,,,,,,,,,,,,,,,,,,,,,,,,,,,,
,,?,0.0003,0,,,,,,stimuli/images/PICTURE_677.png,MILE,5edba672293f3b028b70eb25,09/03/1986,2020-09-02_12h27.03.927,proactive3.2,2020.1.2,Win32,60,5f47c0b9b035471e11593a5c,5f4f818e758a9c0398a28176,3,,,,,,map,,,,,,,,,,,4,0,0,21,21,30,1,,,,,,,,,,,,,,,,,,,,,,,,,,,,,,,,,,,,,,,,,,,,,,,,,,,,,,,,,,,,,,,,,,,,,,
,,?,0.000285,0,,,,,,stimuli/images/PICTURE_744.png,SYSTEM,5edba672293f3b028b70eb25,09/03/1986,2020-09-02_12h27.03.927,proactive3.2,2020.1.2,Win32,60,5f47c0b9b035471e11593a5c,5f4f818e758a9c0398a28176,3,,,,,,ring,,,,,,,,,,,5,0,0,22,22,43,1,,,,,,,,,,,,,,,,,,,,,,,,,,,,,,,,,,,,,,,,,,,,,,,,,,,,,,,,,,,,,,,,,,,,,,
,,?,0.00029,0,,,,,,stimuli/images/PICTURE_504.png,BODY,5edba672293f3b028b70eb25,09/03/1986,2020-09-02_12h27.03.927,proactive3.2,2020.1.2,Win32,60,5f47c0b9b035471e11593a5c,5f4f818e758a9c0398a28176,3,,,,,,wheel,,,,,,,,,,,1,0,0,23,23,8,1,,,,,,,,,,,,,,,,,,,,,,,,,,,,,,,,,,,,,,,,,,,,,,,,,,,,,,,,,,,,,,,,,,,,,,
,,?,0.000345,0,,,,,,stimuli/images/PICTURE_285.png,ADVICE,5edba672293f3b028b70eb25,09/03/1986,2020-09-02_12h27.03.927,proactive3.2,2020.1.2,Win32,60,5f47c0b9b035471e11593a5c,5f4f818e758a9c0398a28176,3,,,,,,carrot,,,,,,,,,,,2,0,0,24,24,12,1,,,,,,,,,,,,,,,,,,,,,,,,,,,,,,,,,,,,,,,,,,,,,,,,,,,,,,,,,,,,,,,,,,,,,,
,,STYLE,3.43824,1,,,,,,stimuli/images/PICTURE_95.png,STYLE,5edba672293f3b028b70eb25,09/03/1986,2020-09-02_12h27.03.927,proactive3.2,2020.1.2,Win32,60,5f47c0b9b035471e11593a5c,5f4f818e758a9c0398a28176,3,,,,,,suitcase,,,,,,,,,,,3,0,0,25,25,25,1,,,,,,,,,,,,,,,,,,,,,,,,,,,,,,,,,,,,,,,,,,,,,,,,,,,,,,,,,,,,,,,,,,,,,,
,,?,0.001195,0,,,,,,stimuli/images/PICTURE_688.png,CASINO,5edba672293f3b028b70eb25,09/03/1986,2020-09-02_12h27.03.927,proactive3.2,2020.1.2,Win32,60,5f47c0b9b035471e11593a5c,5f4f818e758a9c0398a28176,3,,,,,,runner,,,,,,,,,,,1,0,0,26,26,2,1,,,,,,,,,,,,,,,,,,,,,,,,,,,,,,,,,,,,,,,,,,,,,,,,,,,,,,,,,,,,,,,,,,,,,,
,,ROOF,3.795345,1,,,,,,stimuli/images/PICTURE_491.png,ROOF,5edba672293f3b028b70eb25,09/03/1986,2020-09-02_12h27.03.927,proactive3.2,2020.1.2,Win32,60,5f47c0b9b035471e11593a5c,5f4f818e758a9c0398a28176,3,,,,,,rug,,,,,,,,,,,3,0,0,27,27,24,1,,,,,,,,,,,,,,,,,,,,,,,,,,,,,,,,,,,,,,,,,,,,,,,,,,,,,,,,,,,,,,,,,,,,,,
,,AREA,3.01531,1,,,,,,stimuli/images/PICTURE_255.png,AREA,5edba672293f3b028b70eb25,09/03/1986,2020-09-02_12h27.03.927,proactive3.2,2020.1.2,Win32,60,5f47c0b9b035471e11593a5c,5f4f818e758a9c0398a28176,3,,,,,,shovel,,,,,,,,,,,3,0,0,28,28,22,1,,,,,,,,,,,,,,,,,,,,,,,,,,,,,,,,,,,,,,,,,,,,,,,,,,,,,,,,,,,,,,,,,,,,,,
,,?,0.001245,0,,,,,,stimuli/images/PICTURE_470.png,CASINO,5edba672293f3b028b70eb25,09/03/1986,2020-09-02_12h27.03.927,proactive3.2,2020.1.2,Win32,60,5f47c0b9b035471e11593a5c,5f4f818e758a9c0398a28176,3,,,,,,motorbike,,,,,,,,,,,4,0,0,29,29,36,1,,,,,,,,,,,,,,,,,,,,,,,,,,,,,,,,,,,,,,,,,,,,,,,,,,,,,,,,,,,,,,,,,,,,,,
,,?,0.00086,0,,,,,,stimuli/images/PICTURE_123.png,ADVICE,5edba672293f3b028b70eb25,09/03/1986,2020-09-02_12h27.03.927,proactive3.2,2020.1.2,Win32,60,5f47c0b9b035471e11593a5c,5f4f818e758a9c0398a28176,3,,,,,,dart,,,,,,,,,,,6,0,0,30,30,50,1,,,,,,,,,,,,,,,,,,,,,,,,,,,,,,,,,,,,,,,,,,,,,,,,,,,,,,,,,,,,,,,,,,,,,,
,,?,0.00051,0,,,,,,stimuli/images/PICTURE_208.png,MONTH,5edba672293f3b028b70eb25,09/03/1986,2020-09-02_12h27.03.927,proactive3.2,2020.1.2,Win32,60,5f47c0b9b035471e11593a5c,5f4f818e758a9c0398a28176,3,,,,,,microphone,,,,,,,,,,,6,0,0,31,31,53,1,,,,,,,,,,,,,,,,,,,,,,,,,,,,,,,,,,,,,,,,,,,,,,,,,,,,,,,,,,,,,,,,,,,,,,
,,?,0.000505,0,,,,,,stimuli/images/PICTURE_692.png,MONTH,5edba672293f3b028b70eb25,09/03/1986,2020-09-02_12h27.03.927,proactive3.2,2020.1.2,Win32,60,5f47c0b9b035471e11593a5c,5f4f818e758a9c0398a28176,3,,,,,,cherry,,,,,,,,,,,2,0,0,32,32,16,1,,,,,,,,,,,,,,,,,,,,,,,,,,,,,,,,,,,,,,,,,,,,,,,,,,,,,,,,,,,,,,,,,,,,,,
,,SPEECH,3.30773,1,,,,,,stimuli/images/PICTURE_348.png,SPEECH,5edba672293f3b028b70eb25,09/03/1986,2020-09-02_12h27.03.927,proactive3.2,2020.1.2,Win32,60,5f47c0b9b035471e11593a5c,5f4f818e758a9c0398a28176,3,,,,,,pepper,,,,,,,,,,,3,0,0,33,33,20,1,,,,,,,,,,,,,,,,,,,,,,,,,,,,,,,,,,,,,,,,,,,,,,,,,,,,,,,,,,,,,,,,,,,,,,
,,?,0.001595,0,,,,,,stimuli/images/PICTURE_449.png,THING,5edba672293f3b028b70eb25,09/03/1986,2020-09-02_12h27.03.927,proactive3.2,2020.1.2,Win32,60,5f47c0b9b035471e11593a5c,5f4f818e758a9c0398a28176,3,,,,,,bench,,,,,,,,,,,6,0,0,34,34,59,1,,,,,,,,,,,,,,,,,,,,,,,,,,,,,,,,,,,,,,,,,,,,,,,,,,,,,,,,,,,,,,,,,,,,,,
,,?,0.000855,0,,,,,,stimuli/images/PICTURE_708.png,PENNY,5edba672293f3b028b70eb25,09/03/1986,2020-09-02_12h27.03.927,proactive3.2,2020.1.2,Win32,60,5f47c0b9b035471e11593a5c,5f4f818e758a9c0398a28176,3,,,,,,monkey,,,,,,,,,,,4,0,0,35,35,31,1,,,,,,,,,,,,,,,,,,,,,,,,,,,,,,,,,,,,,,,,,,,,,,,,,,,,,,,,,,,,,,,,,,,,,,
,,IDEAS,4.293295,1,,,,,,stimuli/images/PICTURE_233.png,IDEAS,5edba672293f3b028b70eb25,09/03/1986,2020-09-02_12h27.03.927,proactive3.2,2020.1.2,Win32,60,5f47c0b9b035471e11593a5c,5f4f818e758a9c0398a28176,3,,,,,,salt,,,,,,,,,,,3,0,0,36,36,28,1,,,,,,,,,,,,,,,,,,,,,,,,,,,,,,,,,,,,,,,,,,,,,,,,,,,,,,,,,,,,,,,,,,,,,,
,,?,0.001345,0,,,,,,stimuli/images/PICTURE_491.png,WRITER,5edba672293f3b028b70eb25,09/03/1986,2020-09-02_12h27.03.927,proactive3.2,2020.1.2,Win32,60,5f47c0b9b035471e11593a5c,5f4f818e758a9c0398a28176,3,,,,,,rug,,,,,,,,,,,6,0,0,37,37,57,1,,,,,,,,,,,,,,,,,,,,,,,,,,,,,,,,,,,,,,,,,,,,,,,,,,,,,,,,,,,,,,,,,,,,,,
,,?,0.00074,0,,,,,,stimuli/images/PICTURE_68.png,MILE,5edba672293f3b028b70eb25,09/03/1986,2020-09-02_12h27.03.927,proactive3.2,2020.1.2,Win32,60,5f47c0b9b035471e11593a5c,5f4f818e758a9c0398a28176,3,,,,,,candle,,,,,,,,,,,5,0,0,38,38,44,1,,,,,,,,,,,,,,,,,,,,,,,,,,,,,,,,,,,,,,,,,,,,,,,,,,,,,,,,,,,,,,,,,,,,,,
,,DUDE,3.943775,1,,,,,,stimuli/images/PICTURE_453.png,DUDE,5edba672293f3b028b70eb25,09/03/1986,2020-09-02_12h27.03.927,proactive3.2,2020.1.2,Win32,60,5f47c0b9b035471e11593a5c,5f4f818e758a9c0398a28176,3,,,,,,scissors,,,,,,,,,,,3,0,0,39,39,27,1,,,,,,,,,,,,,,,,,,,,,,,,,,,,,,,,,,,,,,,,,,,,,,,,,,,,,,,,,,,,,,,,,,,,,,
,,?,0.001335,0,,,,,,stimuli/images/PICTURE_208.png,THING,5edba672293f3b028b70eb25,09/03/1986,2020-09-02_12h27.03.927,proactive3.2,2020.1.2,Win32,60,5f47c0b9b035471e11593a5c,5f4f818e758a9c0398a28176,3,,,,,,microphone,,,,,,,,,,,5,0,0,40,40,47,1,,,,,,,,,,,,,,,,,,,,,,,,,,,,,,,,,,,,,,,,,,,,,,,,,,,,,,,,,,,,,,,,,,,,,,
,,?,0.00091,0,,,,,,stimuli/images/PICTURE_215.png,PLENTY,5edba672293f3b028b70eb25,09/03/1986,2020-09-02_12h27.03.927,proactive3.2,2020.1.2,Win32,60,5f47c0b9b035471e11593a5c,5f4f818e758a9c0398a28176,3,,,,,,boot,,,,,,,,,,,4,0,0,41,41,37,1,,,,,,,,,,,,,,,,,,,,,,,,,,,,,,,,,,,,,,,,,,,,,,,,,,,,,,,,,,,,,,,,,,,,,,
,,?,0.000715,0,,,,,,stimuli/images/PICTURE_314.png,GODS,5edba672293f3b028b70eb25,09/03/1986,2020-09-02_12h27.03.927,proactive3.2,2020.1.2,Win32,60,5f47c0b9b035471e11593a5c,5f4f818e758a9c0398a28176,3,,,,,,perfume,,,,,,,,,,,2,0,0,42,42,11,1,,,,,,,,,,,,,,,,,,,,,,,,,,,,,,,,,,,,,,,,,,,,,,,,,,,,,,,,,,,,,,,,,,,,,,
,,?,0.00033,0,,,,,,stimuli/images/PICTURE_453.png,PLENTY,5edba672293f3b028b70eb25,09/03/1986,2020-09-02_12h27.03.927,proactive3.2,2020.1.2,Win32,60,5f47c0b9b035471e11593a5c,5f4f818e758a9c0398a28176,3,,,,,,scissors,,,,,,,,,,,6,0,0,43,43,56,1,,,,,,,,,,,,,,,,,,,,,,,,,,,,,,,,,,,,,,,,,,,,,,,,,,,,,,,,,,,,,,,,,,,,,,
,,?,0.00028,0,,,,,,stimuli/images/PICTURE_667.png,PLENTY,5edba672293f3b028b70eb25,09/03/1986,2020-09-02_12h27.03.927,proactive3.2,2020.1.2,Win32,60,5f47c0b9b035471e11593a5c,5f4f818e758a9c0398a28176,3,,,,,,daisy,,,,,,,,,,,5,0,0,44,44,41,1,,,,,,,,,,,,,,,,,,,,,,,,,,,,,,,,,,,,,,,,,,,,,,,,,,,,,,,,,,,,,,,,,,,,,,
,,?,0.000265,0,,,,,,stimuli/images/PICTURE_308.png,ESTATE,5edba672293f3b028b70eb25,09/03/1986,2020-09-02_12h27.03.927,proactive3.2,2020.1.2,Win32,60,5f47c0b9b035471e11593a5c,5f4f818e758a9c0398a28176,3,,,,,,dice,,,,,,,,,,,5,0,0,45,45,46,1,,,,,,,,,,,,,,,,,,,,,,,,,,,,,,,,,,,,,,,,,,,,,,,,,,,,,,,,,,,,,,,,,,,,,,
,,?,0.000285,0,,,,,,stimuli/images/PICTURE_311.png,BEAUTY,5edba672293f3b028b70eb25,09/03/1986,2020-09-02_12h27.03.927,proactive3.2,2020.1.2,Win32,60,5f47c0b9b035471e11593a5c,5f4f818e758a9c0398a28176,3,,,,,,razor,,,,,,,,,,,2,0,0,46,46,13,1,,,,,,,,,,,,,,,,,,,,,,,,,,,,,,,,,,,,,,,,,,,,,,,,,,,,,,,,,,,,,,,,,,,,,,
,,?,0.002205,0,,,,,,stimuli/images/PICTURE_469.png,LETTER,5edba672293f3b028b70eb25,09/03/1986,2020-09-02_12h27.03.927,proactive3.2,2020.1.2,Win32,60,5f47c0b9b035471e11593a5c,5f4f818e758a9c0398a28176,3,,,,,,stool,,,,,,,,,,,5,0,0,47,47,42,1,,,,,,,,,,,,,,,,,,,,,,,,,,,,,,,,,,,,,,,,,,,,,,,,,,,,,,,,,,,,,,,,,,,,,,
,,?,0.00034,0,,,,,,stimuli/images/PICTURE_708.png,CLIENT,5edba672293f3b028b70eb25,09/03/1986,2020-09-02_12h27.03.927,proactive3.2,2020.1.2,Win32,60,5f47c0b9b035471e11593a5c,5f4f818e758a9c0398a28176,3,,,,,,monkey,,,,,,,,,,,1,0,0,48,48,5,1,,,,,,,,,,,,,,,,,,,,,,,,,,,,,,,,,,,,,,,,,,,,,,,,,,,,,,,,,,,,,,,,,,,,,,
,,?,0.000525,0,,,,,,stimuli/images/PICTURE_160.png,LEADER,5edba672293f3b028b70eb25,09/03/1986,2020-09-02_12h27.03.927,proactive3.2,2020.1.2,Win32,60,5f47c0b9b035471e11593a5c,5f4f818e758a9c0398a28176,3,,,,,,wheelbarrow,,,,,,,,,,,1,0,0,49,49,3,1,,,,,,,,,,,,,,,,,,,,,,,,,,,,,,,,,,,,,,,,,,,,,,,,,,,,,,,,,,,,,,,,,,,,,,
,,?,0.00032,0,,,,,,stimuli/images/PICTURE_339.png,PLENTY,5edba672293f3b028b70eb25,09/03/1986,2020-09-02_12h27.03.927,proactive3.2,2020.1.2,Win32,60,5f47c0b9b035471e11593a5c,5f4f818e758a9c0398a28176,3,,,,,,backpack,,,,,,,,,,,1,0,0,50,50,0,1,,,,,,,,,,,,,,,,,,,,,,,,,,,,,,,,,,,,,,,,,,,,,,,,,,,,,,,,,,,,,,,,,,,,,,
,,?,0.000315,0,,,,,,stimuli/images/PICTURE_208.png,LOTS,5edba672293f3b028b70eb25,09/03/1986,2020-09-02_12h27.03.927,proactive3.2,2020.1.2,Win32,60,5f47c0b9b035471e11593a5c,5f4f818e758a9c0398a28176,3,,,,,,microphone,,,,,,,,,,,2,0,0,51,51,10,1,,,,,,,,,,,,,,,,,,,,,,,,,,,,,,,,,,,,,,,,,,,,,,,,,,,,,,,,,,,,,,,,,,,,,,
,,?,0.00046,0,,,,,,stimuli/images/PICTURE_151.png,GIRL,5edba672293f3b028b70eb25,09/03/1986,2020-09-02_12h27.03.927,proactive3.2,2020.1.2,Win32,60,5f47c0b9b035471e11593a5c,5f4f818e758a9c0398a28176,3,,,,,,tray,,,,,,,,,,,2,0,0,52,52,19,1,,,,,,,,,,,,,,,,,,,,,,,,,,,,,,,,,,,,,,,,,,,,,,,,,,,,,,,,,,,,,,,,,,,,,,
,,?,0.00033,0,,,,,,stimuli/images/PICTURE_675.png,WEAPON,5edba672293f3b028b70eb25,09/03/1986,2020-09-02_12h27.03.927,proactive3.2,2020.1.2,Win32,60,5f47c0b9b035471e11593a5c,5f4f818e758a9c0398a28176,3,,,,,,windmill,,,,,,,,,,,4,0,0,53,53,32,1,,,,,,,,,,,,,,,,,,,,,,,,,,,,,,,,,,,,,,,,,,,,,,,,,,,,,,,,,,,,,,,,,,,,,,
,,?,0.00027,0,,,,,,stimuli/images/PICTURE_688.png,WOMEN,5edba672293f3b028b70eb25,09/03/1986,2020-09-02_12h27.03.927,proactive3.2,2020.1.2,Win32,60,5f47c0b9b035471e11593a5c,5f4f818e758a9c0398a28176,3,,,,,,runner,,,,,,,,,,,2,0,0,54,54,14,1,,,,,,,,,,,,,,,,,,,,,,,,,,,,,,,,,,,,,,,,,,,,,,,,,,,,,,,,,,,,,,,,,,,,,,
,,DEMON,3.71077,1,,,,,,stimuli/images/PICTURE_467.png,DEMON,5edba672293f3b028b70eb25,09/03/1986,2020-09-02_12h27.03.927,proactive3.2,2020.1.2,Win32,60,5f47c0b9b035471e11593a5c,5f4f818e758a9c0398a28176,3,,,,,,peg,,,,,,,,,,,3,0,0,55,55,23,1,,,,,,,,,,,,,,,,,,,,,,,,,,,,,,,,,,,,,,,,,,,,,,,,,,,,,,,,,,,,,,,,,,,,,,
,,?,0.001225,0,,,,,,stimuli/images/PICTURE_248.png,DOZEN,5edba672293f3b028b70eb25,09/03/1986,2020-09-02_12h27.03.927,proactive3.2,2020.1.2,Win32,60,5f47c0b9b035471e11593a5c,5f4f818e758a9c0398a28176,3,,,,,,cart,,,,,,,,,,,4,0,0,56,56,39,1,,,,,,,,,,,,,,,,,,,,,,,,,,,,,,,,,,,,,,,,,,,,,,,,,,,,,,,,,,,,,,,,,,,,,,
,,?,0.00044,0,,,,,,stimuli/images/PICTURE_123.png,ADVICE,5edba672293f3b028b70eb25,09/03/1986,2020-09-02_12h27.03.927,proactive3.2,2020.1.2,Win32,60,5f47c0b9b035471e11593a5c,5f4f818e758a9c0398a28176,3,,,,,,dart,,,,,,,,,,,5,0,0,57,57,40,1,,,,,,,,,,,,,,,,,,,,,,,,,,,,,,,,,,,,,,,,,,,,,,,,,,,,,,,,,,,,,,,,,,,,,,
,,?,0.0004,0,,,,,,stimuli/images/PICTURE_654.png,VALLEY,5edba672293f3b028b70eb25,09/03/1986,2020-09-02_12h27.03.927,proactive3.2,2020.1.2,Win32,60,5f47c0b9b035471e11593a5c,5f4f818e758a9c0398a28176,3,,,,,,pencil,,,,,,,,,,,1,0,0,58,58,1,1,,,,,,,,,,,,,,,,,,,,,,,,,,,,,,,,,,,,,,,,,,,,,,,,,,,,,,,,,,,,,,,,,,,,,,
,,?,0.00032,0,,,,,,stimuli/images/PICTURE_233.png,WOMEN,5edba672293f3b028b70eb25,09/03/1986,2020-09-02_12h27.03.927,proactive3.2,2020.1.2,Win32,60,5f47c0b9b035471e11593a5c,5f4f818e758a9c0398a28176,3,,,,,,salt,,,,,,,,,,,4,0,0,59,59,38,1,,,,,,,,,,,,,,,,,,,,,,,,,,,,,,,,,,,,,,,,,,,,,,,,,,,,,,,,,,,,,,,,,,,,,,
,,,,,,,,,,,,5edba672293f3b028b70eb25,09/03/1986,2020-09-02_12h27.03.927,proactive3.2,2020.1.2,Win32,60,5f47c0b9b035471e11593a5c,5f4f818e758a9c0398a28176,3,,,,,,,,,,,,,,,,,,,,,,,,0,1,1,0,1,stimuli/learn-block1.csv,,,,,,,,,,,,,,,,,,,,,,,,,,,,,,,,,,,,,,,,,,,,,,,,,,,,,,,,,,,,,,,,
,,,,,,,,,,stimuli/images/PICTURE_504.png,ARTIST,5edba672293f3b028b70eb25,09/03/1986,2020-09-02_12h27.03.927,proactive3.2,2020.1.2,Win32,60,5f47c0b9b035471e11593a5c,5f4f818e758a9c0398a28176,3,,,,,,wheel,,,,,,0,0,0,49,1,5,1,,,,,,,,,,,,,,,,,,,,,,,,,,,,,,,,,,,,,,,,,,,,,,,,,,,,,,,,,,,,,,,,,,,,,,,,,,,
,,,,,,,,,,stimuli/images/PICTURE_667.png,RIVER,5edba672293f3b028b70eb25,09/03/1986,2020-09-02_12h27.03.927,proactive3.2,2020.1.2,Win32,60,5f47c0b9b035471e11593a5c,5f4f818e758a9c0398a28176,3,,,,,,daisy,,,,,,0,1,1,10,1,2,1,,,,,,,,,,,,,,,,,,,,,,,,,,,,,,,,,,,,,,,,,,,,,,,,,,,,,,,,,,,,,,,,,,,,,,,,,,,
,,,,,,,,,,stimuli/images/PICTURE_285.png,LIFE,5edba672293f3b028b70eb25,09/03/1986,2020-09-02_12h27.03.927,proactive3.2,2020.1.2,Win32,60,5f47c0b9b035471e11593a5c,5f4f818e758a9c0398a28176,3,,,,,,carrot,,,,,,0,2,2,33,1,4,1,,,,,,,,,,,,,,,,,,,,,,,,,,,,,,,,,,,,,,,,,,,,,,,,,,,,,,,,,,,,,,,,,,,,,,,,,,,
,,,,,,,,,,stimuli/images/PICTURE_339.png,CLIENT,5edba672293f3b028b70eb25,09/03/1986,2020-09-02_12h27.03.927,proactive3.2,2020.1.2,Win32,60,5f47c0b9b035471e11593a5c,5f4f818e758a9c0398a28176,3,,,,,,backpack,,,,,,0,3,3,11,1,2,1,,,,,,,,,,,,,,,,,,,,,,,,,,,,,,,,,,,,,,,,,,,,,,,,,,,,,,,,,,,,,,,,,,,,,,,,,,,
,,,,,,,,,,stimuli/images/PICTURE_308.png,FAMILY,5edba672293f3b028b70eb25,09/03/1986,2020-09-02_12h27.03.927,proactive3.2,2020.1.2,Win32,60,5f47c0b9b035471e11593a5c,5f4f818e758a9c0398a28176,3,,,,,,dice,,,,,,0,4,4,36,1,4,1,,,,,,,,,,,,,,,,,,,,,,,,,,,,,,,,,,,,,,,,,,,,,,,,,,,,,,,,,,,,,,,,,,,,,,,,,,,
,,,,,,,,,,stimuli/images/PICTURE_203.png,NIGHT,5edba672293f3b028b70eb25,09/03/1986,2020-09-02_12h27.03.927,proactive3.2,2020.1.2,Win32,60,5f47c0b9b035471e11593a5c,5f4f818e758a9c0398a28176,3,,,,,,cap,,,,,,0,5,5,2,1,1,1,,,,,,,,,,,,,,,,,,,,,,,,,,,,,,,,,,,,,,,,,,,,,,,,,,,,,,,,,,,,,,,,,,,,,,,,,,,
,,,,,,,,,,stimuli/images/PICTURE_403.png,RIVER,5edba672293f3b028b70eb25,09/03/1986,2020-09-02_12h27.03.927,proactive3.2,2020.1.2,Win32,60,5f47c0b9b035471e11593a5c,5f4f818e758a9c0398a28176,3,,,,,,cathedral,,,,,,0,6,6,40,1,5,1,,,,,,,,,,,,,,,,,,,,,,,,,,,,,,,,,,,,,,,,,,,,,,,,,,,,,,,,,,,,,,,,,,,,,,,,,,,
,,,,,,,,,,stimuli/images/PICTURE_564.png,BATH,5edba672293f3b028b70eb25,09/03/1986,2020-09-02_12h27.03.927,proactive3.2,2020.1.2,Win32,60,5f47c0b9b035471e11593a5c,5f4f818e758a9c0398a28176,3,,,,,,spoon,,,,,,0,7,7,26,1,3,1,,,,,,,,,,,,,,,,,,,,,,,,,,,,,,,,,,,,,,,,,,,,,,,,,,,,,,,,,,,,,,,,,,,,,,,,,,,
,,,,,,,,,,stimuli/images/PICTURE_491.png,GLASS,5edba672293f3b028b70eb25,09/03/1986,2020-09-02_12h27.03.927,proactive3.2,2020.1.2,Win32,60,5f47c0b9b035471e11593a5c,5f4f818e758a9c0398a28176,3,,,,,,rug,,,,,,0,8,8,14,1,2,1,,,,,,,,,,,,,,,,,,,,,,,,,,,,,,,,,,,,,,,,,,,,,,,,,,,,,,,,,,,,,,,,,,,,,,,,,,,
,,,,,,,,,,stimuli/images/PICTURE_744.png,WEAPON,5edba672293f3b028b70eb25,09/03/1986,2020-09-02_12h27.03.927,proactive3.2,2020.1.2,Win32,60,5f47c0b9b035471e11593a5c,5f4f818e758a9c0398a28176,3,,,,,,ring,,,,,,0,9,9,50,1,6,1,,,,,,,,,,,,,,,,,,,,,,,,,,,,,,,,,,,,,,,,,,,,,,,,,,,,,,,,,,,,,,,,,,,,,,,,,,,
,,,,,,,,,,stimuli/images/PICTURE_85.png,NATION,5edba672293f3b028b70eb25,09/03/1986,2020-09-02_12h27.03.927,proactive3.2,2020.1.2,Win32,60,5f47c0b9b035471e11593a5c,5f4f818e758a9c0398a28176,3,,,,,,diamond,,,,,,0,10,10,5,1,1,1,,,,,,,,,,,,,,,,,,,,,,,,,,,,,,,,,,,,,,,,,,,,,,,,,,,,,,,,,,,,,,,,,,,,,,,,,,,
,,,,,,,,,,stimuli/images/PICTURE_95.png,MILLER,5edba672293f3b028b70eb25,09/03/1986,2020-09-02_12h27.03.927,proactive3.2,2020.1.2,Win32,60,5f47c0b9b035471e11593a5c,5f4f818e758a9c0398a28176,3,,,,,,suitcase,,,,,,0,11,11,56,1,6,1,,,,,,,,,,,,,,,,,,,,,,,,,,,,,,,,,,,,,,,,,,,,,,,,,,,,,,,,,,,,,,,,,,,,,,,,,,,
,,,,,,,,,,stimuli/images/PICTURE_383.png,SERIES,5edba672293f3b028b70eb25,09/03/1986,2020-09-02_12h27.03.927,proactive3.2,2020.1.2,Win32,60,5f47c0b9b035471e11593a5c,5f4f818e758a9c0398a28176,3,,,,,,coin,,,,,,0,12,12,46,1,5,1,,,,,,,,,,,,,,,,,,,,,,,,,,,,,,,,,,,,,,,,,,,,,,,,,,,,,,,,,,,,,,,,,,,,,,,,,,,
,,,,,,,,,,stimuli/images/PICTURE_467.png,POLICY,5edba672293f3b028b70eb25,09/03/1986,2020-09-02_12h27.03.927,proactive3.2,2020.1.2,Win32,60,5f47c0b9b035471e11593a5c,5f4f818e758a9c0398a28176,3,,,,,,peg,,,,,,0,13,13,53,1,6,1,,,,,,,,,,,,,,,,,,,,,,,,,,,,,,,,,,,,,,,,,,,,,,,,,,,,,,,,,,,,,,,,,,,,,,,,,,,
,,,,,,,,,,stimuli/images/PICTURE_327.png,CASINO,5edba672293f3b028b70eb25,09/03/1986,2020-09-02_12h27.03.927,proactive3.2,2020.1.2,Win32,60,5f47c0b9b035471e11593a5c,5f4f818e758a9c0398a28176,3,,,,,,helmet,,,,,,0,14,14,20,1,3,1,,,,,,,,,,,,,,,,,,,,,,,,,,,,,,,,,,,,,,,,,,,,,,,,,,,,,,,,,,,,,,,,,,,,,,,,,,,
,,,,,,,,,,stimuli/images/PICTURE_504.png,COPS,5edba672293f3b028b70eb25,09/03/1986,2020-09-02_12h27.03.927,proactive3.2,2020.1.2,Win32,60,5f47c0b9b035471e11593a5c,5f4f818e758a9c0398a28176,3,,,,,,wheel,,,,,,0,15,15,52,1,6,1,,,,,,,,,,,,,,,,,,,,,,,,,,,,,,,,,,,,,,,,,,,,,,,,,,,,,,,,,,,,,,,,,,,,,,,,,,,
,,,,,,,,,,stimuli/images/PICTURE_491.png,RIVER,5edba672293f3b028b70eb25,09/03/1986,2020-09-02_12h27.03.927,proactive3.2,2020.1.2,Win32,60,5f47c0b9b035471e11593a5c,5f4f818e758a9c0398a28176,3,,,,,,rug,,,,,,0,16,16,6,1,1,1,,,,,,,,,,,,,,,,,,,,,,,,,,,,,,,,,,,,,,,,,,,,,,,,,,,,,,,,,,,,,,,,,,,,,,,,,,,
,,,,,,,,,,stimuli/images/PICTURE_42.png,BOYS,5edba672293f3b028b70eb25,09/03/1986,2020-09-02_12h27.03.927,proactive3.2,2020.1.2,Win32,60,5f47c0b9b035471e11593a5c,5f4f818e758a9c0398a28176,3,,,,,,pear,,,,,,0,17,17,55,1,6,1,,,,,,,,,,,,,,,,,,,,,,,,,,,,,,,,,,,,,,,,,,,,,,,,,,,,,,,,,,,,,,,,,,,,,,,,,,,
,,,,,,,,,,stimuli/images/PICTURE_750.png,HOTEL,5edba672293f3b028b70eb25,09/03/1986,2020-09-02_12h27.03.927,proactive3.2,2020.1.2,Win32,60,5f47c0b9b035471e11593a5c,5f4f818e758a9c0398a28176,3,,,,,,kettle,,,,,,0,18,18,27,1,3,1,,,,,,,,,,,,,,,,,,,,,,,,,,,,,,,,,,,,,,,,,,,,,,,,,,,,,,,,,,,,,,,,,,,,,,,,,,,
,,,,,,,,,,stimuli/images/PICTURE_147.png,WOMEN,5edba672293f3b028b70eb25,09/03/1986,2020-09-02_12h27.03.927,proactive3.2,2020.1.2,Win32,60,5f47c0b9b035471e11593a5c,5f4f818e758a9c0398a28176,3,,,,,,hanger,,,,,,0,19,19,7,1,1,1,,,,,,,,,,,,,,,,,,,,,,,,,,,,,,,,,,,,,,,,,,,,,,,,,,,,,,,,,,,,,,,,,,,,,,,,,,,
,,,,,,,,,,stimuli/images/PICTURE_403.png,WRITER,5edba672293f3b028b70eb25,09/03/1986,2020-09-02_12h27.03.927,proactive3.2,2020.1.2,Win32,60,5f47c0b9b035471e11593a5c,5f4f818e758a9c0398a28176,3,,,,,,cathedral,,,,,,0,20,20,31,1,4,1,,,,,,,,,,,,,,,,,,,,,,,,,,,,,,,,,,,,,,,,,,,,,,,,,,,,,,,,,,,,,,,,,,,,,,,,,,,
,,,,,,,,,,stimuli/images/PICTURE_685.png,PENNY,5edba672293f3b028b70eb25,09/03/1986,2020-09-02_12h27.03.927,proactive3.2,2020.1.2,Win32,60,5f47c0b9b035471e11593a5c,5f4f818e758a9c0398a28176,3,,,,,,goose,,,,,,0,21,21,4,1,1,1,,,,,,,,,,,,,,,,,,,,,,,,,,,,,,,,,,,,,,,,,,,,,,,,,,,,,,,,,,,,,,,,,,,,,,,,,,,
,,,,,,,,,,stimuli/images/PICTURE_340.png,LETTER,5edba672293f3b028b70eb25,09/03/1986,2020-09-02_12h27.03.927,proactive3.2,2020.1.2,Win32,60,5f47c0b9b035471e11593a5c,5f4f818e758a9c0398a28176,3,,,,,,mirror,,,,,,0,22,22,24,1,3,1,,,,,,,,,,,,,,,,,,,,,,,,,,,,,,,,,,,,,,,,,,,,,,,,,,,,,,,,,,,,,,,,,,,,,,,,,,,
,,,,,,,,,,stimuli/images/PICTURE_296.png,LIFE,5edba672293f3b028b70eb25,09/03/1986,2020-09-02_12h27.03.927,proactive3.2,2020.1.2,Win32,60,5f47c0b9b035471e11593a5c,5f4f818e758a9c0398a28176,3,,,,,,bolt,,,,,,0,23,23,57,1,6,1,,,,,,,,,,,,,,,,,,,,,,,,,,,,,,,,,,,,,,,,,,,,,,,,,,,,,,,,,,,,,,,,,,,,,,,,,,,
,,,,,,,,,,stimuli/images/PICTURE_405.png,PLENTY,5edba672293f3b028b70eb25,09/03/1986,2020-09-02_12h27.03.927,proactive3.2,2020.1.2,Win32,60,5f47c0b9b035471e11593a5c,5f4f818e758a9c0398a28176,3,,,,,,anchor,,,,,,0,24,24,23,1,3,1,,,,,,,,,,,,,,,,,,,,,,,,,,,,,,,,,,,,,,,,,,,,,,,,,,,,,,,,,,,,,,,,,,,,,,,,,,,
,,,,,,,,,,stimuli/images/PICTURE_68.png,MILE,5edba672293f3b028b70eb25,09/03/1986,2020-09-02_12h27.03.927,proactive3.2,2020.1.2,Win32,60,5f47c0b9b035471e11593a5c,5f4f818e758a9c0398a28176,3,,,,,,candle,,,,,,0,25,25,51,1,6,1,,,,,,,,,,,,,,,,,,,,,,,,,,,,,,,,,,,,,,,,,,,,,,,,,,,,,,,,,,,,,,,,,,,,,,,,,,,
,,,,,,,,,,stimuli/images/PICTURE_327.png,SERIES,5edba672293f3b028b70eb25,09/03/1986,2020-09-02_12h27.03.927,proactive3.2,2020.1.2,Win32,60,5f47c0b9b035471e11593a5c,5f4f818e758a9c0398a28176,3,,,,,,helmet,,,,,,0,26,26,3,1,1,1,,,,,,,,,,,,,,,,,,,,,,,,,,,,,,,,,,,,,,,,,,,,,,,,,,,,,,,,,,,,,,,,,,,,,,,,,,,
,,,,,,,,,,stimuli/images/PICTURE_675.png,SALE,5edba672293f3b028b70eb25,09/03/1986,2020-09-02_12h27.03.927,proactive3.2,2020.1.2,Win32,60,5f47c0b9b035471e11593a5c,5f4f818e758a9c0398a28176,3,,,,,,windmill,,,,,,0,27,27,47,1,5,1,,,,,,,,,,,,,,,,,,,,,,,,,,,,,,,,,,,,,,,,,,,,,,,,,,,,,,,,,,,,,,,,,,,,,,,,,,,
,,,,,,,,,,stimuli/images/PICTURE_654.png,MONTH,5edba672293f3b028b70eb25,09/03/1986,2020-09-02_12h27.03.927,proactive3.2,2020.1.2,Win32,60,5f47c0b9b035471e11593a5c,5f4f818e758a9c0398a28176,3,,,,,,pencil,,,,,,0,28,28,29,1,3,1,,,,,,,,,,,,,,,,,,,,,,,,,,,,,,,,,,,,,,,,,,,,,,,,,,,,,,,,,,,,,,,,,,,,,,,,,,,
,,,,,,,,,,stimuli/images/PICTURE_108.png,FLIGHT,5edba672293f3b028b70eb25,09/03/1986,2020-09-02_12h27.03.927,proactive3.2,2020.1.2,Win32,60,5f47c0b9b035471e11593a5c,5f4f818e758a9c0398a28176,3,,,,,,calendar,,,,,,0,29,29,59,1,6,1,,,,,,,,,,,,,,,,,,,,,,,,,,,,,,,,,,,,,,,,,,,,,,,,,,,,,,,,,,,,,,,,,,,,,,,,,,,
,,,,,,,,,,stimuli/images/PICTURE_208.png,SYSTEM,5edba672293f3b028b70eb25,09/03/1986,2020-09-02_12h27.03.927,proactive3.2,2020.1.2,Win32,60,5f47c0b9b035471e11593a5c,5f4f818e758a9c0398a28176,3,,,,,,microphone,,,,,,0,30,30,32,1,4,1,,,,,,,,,,,,,,,,,,,,,,,,,,,,,,,,,,,,,,,,,,,,,,,,,,,,,,,,,,,,,,,,,,,,,,,,,,,
,,,,,,,,,,stimuli/images/PICTURE_33.png,FRIEND,5edba672293f3b028b70eb25,09/03/1986,2020-09-02_12h27.03.927,proactive3.2,2020.1.2,Win32,60,5f47c0b9b035471e11593a5c,5f4f818e758a9c0398a28176,3,,,,,,frame,,,,,,0,31,31,8,1,1,1,,,,,,,,,,,,,,,,,,,,,,,,,,,,,,,,,,,,,,,,,,,,,,,,,,,,,,,,,,,,,,,,,,,,,,,,,,,
,,,,,,,,,,stimuli/images/PICTURE_655.png,TOILET,5edba672293f3b028b70eb25,09/03/1986,2020-09-02_12h27.03.927,proactive3.2,2020.1.2,Win32,60,5f47c0b9b035471e11593a5c,5f4f818e758a9c0398a28176,3,,,,,,megaphone,,,,,,0,32,32,12,1,2,1,,,,,,,,,,,,,,,,,,,,,,,,,,,,,,,,,,,,,,,,,,,,,,,,,,,,,,,,,,,,,,,,,,,,,,,,,,,
,,,,,,,,,,stimuli/images/PICTURE_449.png,DUDE,5edba672293f3b028b70eb25,09/03/1986,2020-09-02_12h27.03.927,proactive3.2,2020.1.2,Win32,60,5f47c0b9b035471e11593a5c,5f4f818e758a9c0398a28176,3,,,,,,bench,,,,,,0,33,33,17,1,2,1,,,,,,,,,,,,,,,,,,,,,,,,,,,,,,,,,,,,,,,,,,,,,,,,,,,,,,,,,,,,,,,,,,,,,,,,,,,
,,,,,,,,,,stimuli/images/PICTURE_95.png,BOYS,5edba672293f3b028b70eb25,09/03/1986,2020-09-02_12h27.03.927,proactive3.2,2020.1.2,Win32,60,5f47c0b9b035471e11593a5c,5f4f818e758a9c0398a28176,3,,,,,,suitcase,,,,,,0,34,34,1,1,1,1,,,,,,,,,,,,,,,,,,,,,,,,,,,,,,,,,,,,,,,,,,,,,,,,,,,,,,,,,,,,,,,,,,,,,,,,,,,
,,,,,,,,,,stimuli/images/PICTURE_297.png,RIVER,5edba672293f3b028b70eb25,09/03/1986,2020-09-02_12h27.03.927,proactive3.2,2020.1.2,Win32,60,5f47c0b9b035471e11593a5c,5f4f818e758a9c0398a28176,3,,,,,,aeroplane,,,,,,0,35,35,39,1,4,1,,,,,,,,,,,,,,,,,,,,,,,,,,,,,,,,,,,,,,,,,,,,,,,,,,,,,,,,,,,,,,,,,,,,,,,,,,,
,,,,,,,,,,stimuli/images/PICTURE_380.png,CANDY,5edba672293f3b028b70eb25,09/03/1986,2020-09-02_12h27.03.927,proactive3.2,2020.1.2,Win32,60,5f47c0b9b035471e11593a5c,5f4f818e758a9c0398a28176,3,,,,,,gorilla,,,,,,0,36,36,0,1,1,1,,,,,,,,,,,,,,,,,,,,,,,,,,,,,,,,,,,,,,,,,,,,,,,,,,,,,,,,,,,,,,,,,,,,,,,,,,,
,,,,,,,,,,stimuli/images/PICTURE_85.png,TOILET,5edba672293f3b028b70eb25,09/03/1986,2020-09-02_12h27.03.927,proactive3.2,2020.1.2,Win32,60,5f47c0b9b035471e11593a5c,5f4f818e758a9c0398a28176,3,,,,,,diamond,,,,,,0,37,37,48,1,5,1,,,,,,,,,,,,,,,,,,,,,,,,,,,,,,,,,,,,,,,,,,,,,,,,,,,,,,,,,,,,,,,,,,,,,,,,,,,
,,,,,,,,,,stimuli/images/PICTURE_405.png,YEAR,5edba672293f3b028b70eb25,09/03/1986,2020-09-02_12h27.03.927,proactive3.2,2020.1.2,Win32,60,5f47c0b9b035471e11593a5c,5f4f818e758a9c0398a28176,3,,,,,,anchor,,,,,,0,38,38,34,1,4,1,,,,,,,,,,,,,,,,,,,,,,,,,,,,,,,,,,,,,,,,,,,,,,,,,,,,,,,,,,,,,,,,,,,,,,,,,,,
,,,,,,,,,,stimuli/images/PICTURE_296.png,LOTS,5edba672293f3b028b70eb25,09/03/1986,2020-09-02_12h27.03.927,proactive3.2,2020.1.2,Win32,60,5f47c0b9b035471e11593a5c,5f4f818e758a9c0398a28176,3,,,,,,bolt,,,,,,0,39,39,9,1,1,1,,,,,,,,,,,,,,,,,,,,,,,,,,,,,,,,,,,,,,,,,,,,,,,,,,,,,,,,,,,,,,,,,,,,,,,,,,,
,,,,,,,,,,stimuli/images/PICTURE_57.png,MOMENT,5edba672293f3b028b70eb25,09/03/1986,2020-09-02_12h27.03.927,proactive3.2,2020.1.2,Win32,60,5f47c0b9b035471e11593a5c,5f4f818e758a9c0398a28176,3,,,,,,stamp,,,,,,0,40,40,37,1,4,1,,,,,,,,,,,,,,,,,,,,,,,,,,,,,,,,,,,,,,,,,,,,,,,,,,,,,,,,,,,,,,,,,,,,,,,,,,,
,,,,,,,,,,stimuli/images/PICTURE_340.png,VALLEY,5edba672293f3b028b70eb25,09/03/1986,2020-09-02_12h27.03.927,proactive3.2,2020.1.2,Win32,60,5f47c0b9b035471e11593a5c,5f4f818e758a9c0398a28176,3,,,,,,mirror,,,,,,0,41,41,54,1,6,1,,,,,,,,,,,,,,,,,,,,,,,,,,,,,,,,,,,,,,,,,,,,,,,,,,,,,,,,,,,,,,,,,,,,,,,,,,,
,,,,,,,,,,stimuli/images/PICTURE_32.png,KIND,5edba672293f3b028b70eb25,09/03/1986,2020-09-02_12h27.03.927,proactive3.2,2020.1.2,Win32,60,5f47c0b9b035471e11593a5c,5f4f818e758a9c0398a28176,3,,,,,,crown,,,,,,0,42,42,35,1,4,1,,,,,,,,,,,,,,,,,,,,,,,,,,,,,,,,,,,,,,,,,,,,,,,,,,,,,,,,,,,,,,,,,,,,,,,,,,,
,,,,,,,,,,stimuli/images/PICTURE_403.png,TOILET,5edba672293f3b028b70eb25,09/03/1986,2020-09-02_12h27.03.927,proactive3.2,2020.1.2,Win32,60,5f47c0b9b035471e11593a5c,5f4f818e758a9c0398a28176,3,,,,,,cathedral,,,,,,0,43,43,25,1,3,1,,,,,,,,,,,,,,,,,,,,,,,,,,,,,,,,,,,,,,,,,,,,,,,,,,,,,,,,,,,,,,,,,,,,,,,,,,,
,,,,,,,,,,stimuli/images/PICTURE_95.png,HONEY,5edba672293f3b028b70eb25,09/03/1986,2020-09-02_12h27.03.927,proactive3.2,2020.1.2,Win32,60,5f47c0b9b035471e11593a5c,5f4f818e758a9c0398a28176,3,,,,,,suitcase,,,,,,0,44,44,44,1,5,1,,,,,,,,,,,,,,,,,,,,,,,,,,,,,,,,,,,,,,,,,,,,,,,,,,,,,,,,,,,,,,,,,,,,,,,,,,,
,,,,,,,,,,stimuli/images/PICTURE_68.png,ROOF,5edba672293f3b028b70eb25,09/03/1986,2020-09-02_12h27.03.927,proactive3.2,2020.1.2,Win32,60,5f47c0b9b035471e11593a5c,5f4f818e758a9c0398a28176,3,,,,,,candle,,,,,,0,45,45,38,1,4,1,,,,,,,,,,,,,,,,,,,,,,,,,,,,,,,,,,,,,,,,,,,,,,,,,,,,,,,,,,,,,,,,,,,,,,,,,,,
,,,,,,,,,,stimuli/images/PICTURE_32.png,PILLS,5edba672293f3b028b70eb25,09/03/1986,2020-09-02_12h27.03.927,proactive3.2,2020.1.2,Win32,60,5f47c0b9b035471e11593a5c,5f4f818e758a9c0398a28176,3,,,,,,crown,,,,,,0,46,46,18,1,2,1,,,,,,,,,,,,,,,,,,,,,,,,,,,,,,,,,,,,,,,,,,,,,,,,,,,,,,,,,,,,,,,,,,,,,,,,,,,
,,,,,,,,,,stimuli/images/PICTURE_2.png,FLIGHT,5edba672293f3b028b70eb25,09/03/1986,2020-09-02_12h27.03.927,proactive3.2,2020.1.2,Win32,60,5f47c0b9b035471e11593a5c,5f4f818e758a9c0398a28176,3,,,,,,tyre,,,,,,0,47,47,15,1,2,1,,,,,,,,,,,,,,,,,,,,,,,,,,,,,,,,,,,,,,,,,,,,,,,,,,,,,,,,,,,,,,,,,,,,,,,,,,,
,,,,,,,,,,stimuli/images/PICTURE_383.png,WRITER,5edba672293f3b028b70eb25,09/03/1986,2020-09-02_12h27.03.927,proactive3.2,2020.1.2,Win32,60,5f47c0b9b035471e11593a5c,5f4f818e758a9c0398a28176,3,,,,,,coin,,,,,,0,48,48,28,1,3,1,,,,,,,,,,,,,,,,,,,,,,,,,,,,,,,,,,,,,,,,,,,,,,,,,,,,,,,,,,,,,,,,,,,,,,,,,,,
,,,,,,,,,,stimuli/images/PICTURE_487.png,GIRL,5edba672293f3b028b70eb25,09/03/1986,2020-09-02_12h27.03.927,proactive3.2,2020.1.2,Win32,60,5f47c0b9b035471e11593a5c,5f4f818e758a9c0398a28176,3,,,,,,basket,,,,,,0,49,49,45,1,5,1,,,,,,,,,,,,,,,,,,,,,,,,,,,,,,,,,,,,,,,,,,,,,,,,,,,,,,,,,,,,,,,,,,,,,,,,,,,
,,,,,,,,,,stimuli/images/PICTURE_203.png,GODS,5edba672293f3b028b70eb25,09/03/1986,2020-09-02_12h27.03.927,proactive3.2,2020.1.2,Win32,60,5f47c0b9b035471e11593a5c,5f4f818e758a9c0398a28176,3,,,,,,cap,,,,,,0,50,50,30,1,4,1,,,,,,,,,,,,,,,,,,,,,,,,,,,,,,,,,,,,,,,,,,,,,,,,,,,,,,,,,,,,,,,,,,,,,,,,,,,
,,,,,,,,,,stimuli/images/PICTURE_504.png,YEAR,5edba672293f3b028b70eb25,09/03/1986,2020-09-02_12h27.03.927,proactive3.2,2020.1.2,Win32,60,5f47c0b9b035471e11593a5c,5f4f818e758a9c0398a28176,3,,,,,,wheel,,,,,,0,51,51,13,1,2,1,,,,,,,,,,,,,,,,,,,,,,,,,,,,,,,,,,,,,,,,,,,,,,,,,,,,,,,,,,,,,,,,,,,,,,,,,,,
,,,,,,,,,,stimuli/images/PICTURE_147.png,YEAR,5edba672293f3b028b70eb25,09/03/1986,2020-09-02_12h27.03.927,proactive3.2,2020.1.2,Win32,60,5f47c0b9b035471e11593a5c,5f4f818e758a9c0398a28176,3,,,,,,hanger,,,,,,0,52,52,21,1,3,1,,,,,,,,,,,,,,,,,,,,,,,,,,,,,,,,,,,,,,,,,,,,,,,,,,,,,,,,,,,,,,,,,,,,,,,,,,,
,,,,,,,,,,stimuli/images/PICTURE_708.png,RECORD,5edba672293f3b028b70eb25,09/03/1986,2020-09-02_12h27.03.927,proactive3.2,2020.1.2,Win32,60,5f47c0b9b035471e11593a5c,5f4f818e758a9c0398a28176,3,,,,,,monkey,,,,,,0,53,53,58,1,6,1,,,,,,,,,,,,,,,,,,,,,,,,,,,,,,,,,,,,,,,,,,,,,,,,,,,,,,,,,,,,,,,,,,,,,,,,,,,
,,,,,,,,,,stimuli/images/PICTURE_677.png,APPLE,5edba672293f3b028b70eb25,09/03/1986,2020-09-02_12h27.03.927,proactive3.2,2020.1.2,Win32,60,5f47c0b9b035471e11593a5c,5f4f818e758a9c0398a28176,3,,,,,,map,,,,,,0,54,54,43,1,5,1,,,,,,,,,,,,,,,,,,,,,,,,,,,,,,,,,,,,,,,,,,,,,,,,,,,,,,,,,,,,,,,,,,,,,,,,,,,
,,,,,,,,,,stimuli/images/PICTURE_233.png,LOTS,5edba672293f3b028b70eb25,09/03/1986,2020-09-02_12h27.03.927,proactive3.2,2020.1.2,Win32,60,5f47c0b9b035471e11593a5c,5f4f818e758a9c0398a28176,3,,,,,,salt,,,,,,0,55,55,42,1,5,1,,,,,,,,,,,,,,,,,,,,,,,,,,,,,,,,,,,,,,,,,,,,,,,,,,,,,,,,,,,,,,,,,,,,,,,,,,,
,,,,,,,,,,stimuli/images/PICTURE_380.png,HONEY,5edba672293f3b028b70eb25,09/03/1986,2020-09-02_12h27.03.927,proactive3.2,2020.1.2,Win32,60,5f47c0b9b035471e11593a5c,5f4f818e758a9c0398a28176,3,,,,,,gorilla,,,,,,0,56,56,19,1,2,1,,,,,,,,,,,,,,,,,,,,,,,,,,,,,,,,,,,,,,,,,,,,,,,,,,,,,,,,,,,,,,,,,,,,,,,,,,,
,,,,,,,,,,stimuli/images/PICTURE_177.png,WRITER,5edba672293f3b028b70eb25,09/03/1986,2020-09-02_12h27.03.927,proactive3.2,2020.1.2,Win32,60,5f47c0b9b035471e11593a5c,5f4f818e758a9c0398a28176,3,,,,,,mushroom,,,,,,0,57,57,41,1,5,1,,,,,,,,,,,,,,,,,,,,,,,,,,,,,,,,,,,,,,,,,,,,,,,,,,,,,,,,,,,,,,,,,,,,,,,,,,,
,,,,,,,,,,stimuli/images/PICTURE_108.png,POLICY,5edba672293f3b028b70eb25,09/03/1986,2020-09-02_12h27.03.927,proactive3.2,2020.1.2,Win32,60,5f47c0b9b035471e11593a5c,5f4f818e758a9c0398a28176,3,,,,,,calendar,,,,,,0,58,58,22,1,3,1,,,,,,,,,,,,,,,,,,,,,,,,,,,,,,,,,,,,,,,,,,,,,,,,,,,,,,,,,,,,,,,,,,,,,,,,,,,
,,LETTER,4.524585,1,,,,,,stimuli/images/PICTURE_340.png,LETTER,5edba672293f3b028b70eb25,09/03/1986,2020-09-02_12h27.03.927,proactive3.2,2020.1.2,Win32,60,5f47c0b9b035471e11593a5c,5f4f818e758a9c0398a28176,3,,,,,,mirror,,,,,,,,,,,3,1,0,0,0,24,1,,,,,,,,,,,,,,,,,,,,,,,,,,,,,,,,,,,,,,,,,,,,,,,,,,,,,,,,,,,,,,,,,,,,,,
,,?,0.001375,0,,,,,,stimuli/images/PICTURE_449.png,DUDE,5edba672293f3b028b70eb25,09/03/1986,2020-09-02_12h27.03.927,proactive3.2,2020.1.2,Win32,60,5f47c0b9b035471e11593a5c,5f4f818e758a9c0398a28176,3,,,,,,bench,,,,,,,,,,,2,1,0,1,1,17,1,,,,,,,,,,,,,,,,,,,,,,,,,,,,,,,,,,,,,,,,,,,,,,,,,,,,,,,,,,,,,,,,,,,,,,
,,?,0.000535,0,,,,,,stimuli/images/PICTURE_95.png,MILLER,5edba672293f3b028b70eb25,09/03/1986,2020-09-02_12h27.03.927,proactive3.2,2020.1.2,Win32,60,5f47c0b9b035471e11593a5c,5f4f818e758a9c0398a28176,3,,,,,,suitcase,,,,,,,,,,,6,1,0,2,2,56,1,,,,,,,,,,,,,,,,,,,,,,,,,,,,,,,,,,,,,,,,,,,,,,,,,,,,,,,,,,,,,,,,,,,,,,
,,?,0.00057,0,,,,,,stimuli/images/PICTURE_405.png,YEAR,5edba672293f3b028b70eb25,09/03/1986,2020-09-02_12h27.03.927,proactive3.2,2020.1.2,Win32,60,5f47c0b9b035471e11593a5c,5f4f818e758a9c0398a28176,3,,,,,,anchor,,,,,,,,,,,4,1,0,3,3,34,1,,,,,,,,,,,,,,,,,,,,,,,,,,,,,,,,,,,,,,,,,,,,,,,,,,,,,,,,,,,,,,,,,,,,,,
,,?,0.00032,0,,,,,,stimuli/images/PICTURE_85.png,TOILET,5edba672293f3b028b70eb25,09/03/1986,2020-09-02_12h27.03.927,proactive3.2,2020.1.2,Win32,60,5f47c0b9b035471e11593a5c,5f4f818e758a9c0398a28176,3,,,,,,diamond,,,,,,,,,,,5,1,0,4,4,48,1,,,,,,,,,,,,,,,,,,,,,,,,,,,,,,,,,,,,,,,,,,,,,,,,,,,,,,,,,,,,,,,,,,,,,,
,,YEAR,2.708345,1,,,,,,stimuli/images/PICTURE_147.png,YEAR,5edba672293f3b028b70eb25,09/03/1986,2020-09-02_12h27.03.927,proactive3.2,2020.1.2,Win32,60,5f47c0b9b035471e11593a5c,5f4f818e758a9c0398a28176,3,,,,,,hanger,,,,,,,,,,,3,1,0,5,5,21,1,,,,,,,,,,,,,,,,,,,,,,,,,,,,,,,,,,,,,,,,,,,,,,,,,,,,,,,,,,,,,,,,,,,,,,
,,?,0.000975,0,,,,,,stimuli/images/PICTURE_491.png,GLASS,5edba672293f3b028b70eb25,09/03/1986,2020-09-02_12h27.03.927,proactive3.2,2020.1.2,Win32,60,5f47c0b9b035471e11593a5c,5f4f818e758a9c0398a28176,3,,,,,,rug,,,,,,,,,,,2,1,0,6,6,14,1,,,,,,,,,,,,,,,,,,,,,,,,,,,,,,,,,,,,,,,,,,,,,,,,,,,,,,,,,,,,,,,,,,,,,,
,,?,0.00044,0,,,,,,stimuli/images/PICTURE_504.png,COPS,5edba672293f3b028b70eb25,09/03/1986,2020-09-02_12h27.03.927,proactive3.2,2020.1.2,Win32,60,5f47c0b9b035471e11593a5c,5f4f818e758a9c0398a28176,3,,,,,,wheel,,,,,,,,,,,6,1,0,7,7,52,1,,,,,,,,,,,,,,,,,,,,,,,,,,,,,,,,,,,,,,,,,,,,,,,,,,,,,,,,,,,,,,,,,,,,,,
,,?,0.00041,0,,,,,,stimuli/images/PICTURE_2.png,FLIGHT,5edba672293f3b028b70eb25,09/03/1986,2020-09-02_12h27.03.927,proactive3.2,2020.1.2,Win32,60,5f47c0b9b035471e11593a5c,5f4f818e758a9c0398a28176,3,,,,,,tyre,,,,,,,,,,,2,1,0,8,8,15,1,,,,,,,,,,,,,,,,,,,,,,,,,,,,,,,,,,,,,,,,,,,,,,,,,,,,,,,,,,,,,,,,,,,,,,
,,?,0.000395,0,,,,,,stimuli/images/PICTURE_504.png,YEAR,5edba672293f3b028b70eb25,09/03/1986,2020-09-02_12h27.03.927,proactive3.2,2020.1.2,Win32,60,5f47c0b9b035471e11593a5c,5f4f818e758a9c0398a28176,3,,,,,,wheel,,,,,,,,,,,2,1,0,9,9,13,1,,,,,,,,,,,,,,,,,,,,,,,,,,,,,,,,,,,,,,,,,,,,,,,,,,,,,,,,,,,,,,,,,,,,,,
,,?,0.000315,0,,,,,,stimuli/images/PICTURE_68.png,ROOF,5edba672293f3b028b70eb25,09/03/1986,2020-09-02_12h27.03.927,proactive3.2,2020.1.2,Win32,60,5f47c0b9b035471e11593a5c,5f4f818e758a9c0398a28176,3,,,,,,candle,,,,,,,,,,,4,1,0,10,10,38,1,,,,,,,,,,,,,,,,,,,,,,,,,,,,,,,,,,,,,,,,,,,,,,,,,,,,,,,,,,,,,,,,,,,,,,
,,?,0.00036,0,,,,,,stimuli/images/PICTURE_403.png,WRITER,5edba672293f3b028b70eb25,09/03/1986,2020-09-02_12h27.03.927,proactive3.2,2020.1.2,Win32,60,5f47c0b9b035471e11593a5c,5f4f818e758a9c0398a28176,3,,,,,,cathedral,,,,,,,,,,,4,1,0,11,11,31,1,,,,,,,,,,,,,,,,,,,,,,,,,,,,,,,,,,,,,,,,,,,,,,,,,,,,,,,,,,,,,,,,,,,,,,
,,?,0.00145,0,,,,,,stimuli/images/PICTURE_675.png,SALE,5edba672293f3b028b70eb25,09/03/1986,2020-09-02_12h27.03.927,proactive3.2,2020.1.2,Win32,60,5f47c0b9b035471e11593a5c,5f4f818e758a9c0398a28176,3,,,,,,windmill,,,,,,,,,,,5,1,0,12,12,47,1,,,,,,,,,,,,,,,,,,,,,,,,,,,,,,,,,,,,,,,,,,,,,,,,,,,,,,,,,,,,,,,,,,,,,,
,,?,0.000385,0,,,,,,stimuli/images/PICTURE_233.png,LOTS,5edba672293f3b028b70eb25,09/03/1986,2020-09-02_12h27.03.927,proactive3.2,2020.1.2,Win32,60,5f47c0b9b035471e11593a5c,5f4f818e758a9c0398a28176,3,,,,,,salt,,,,,,,,,,,5,1,0,13,13,42,1,,,,,,,,,,,,,,,,,,,,,,,,,,,,,,,,,,,,,,,,,,,,,,,,,,,,,,,,,,,,,,,,,,,,,,
