consent_key.keys,consent_key.rt,recalled,recalled_rt,recall_acc,example_recall.thisRepN,example_recall.thisTrialN,example_recall.thisN,example_recall.thisIndex,example_recall.ran,file,word,participant,please enter your date of birth (dd/mm/yyyy),date,expName,psychopyVersion,OS,frameRate,STUDY_ID,SESSION_ID,list,prac_learn_study_loop.thisRepN,prac_learn_study_loop.thisTrialN,prac_learn_study_loop.thisN,prac_learn_study_loop.thisIndex,prac_learn_study_loop.ran,image,prac_learn_test_loop.thisRepN,prac_learn_test_loop.thisTrialN,prac_learn_test_loop.thisN,prac_learn_test_loop.thisIndex,prac_learn_test_loop.ran,learn_study_loop.thisRepN,learn_study_loop.thisTrialN,learn_study_loop.thisN,learn_study_loop.thisIndex,learn_study_loop.ran,list_no,block_no,learn_test_loop.thisRepN,learn_test_loop.thisTrialN,learn_test_loop.thisN,learn_test_loop.thisIndex,learn_test_loop.ran,learn_blocks.thisRepN,learn_blocks.thisTrialN,learn_blocks.thisN,learn_blocks.thisIndex,learn_blocks.ran,block_csv,key_resp_13.keys,key_resp_13.rt,learn_blocks_loop.thisRepN,learn_blocks_loop.thisTrialN,learn_blocks_loop.thisN,learn_blocks_loop.thisIndex,learn_blocks_loop.ran,final_learn_test.thisRepN,final_learn_test.thisTrialN,final_learn_test.thisN,final_learn_test.thisIndex,final_learn_test.ran,prac_wm_test_loop.thisRepN,prac_wm_test_loop.thisTrialN,prac_wm_test_loop.thisN,prac_wm_test_loop.thisIndex,prac_wm_test_loop.ran,wm_recalled1,wm_recall_rt1,wm_probed1,wm_recall_acc1,wm_recalled2,wm_recall_rt2,wm_probed2,wm_recall_acc2,wm_recalled3,wm_recall_rt3,wm_probed3,wm_recall_acc3,wm_recalled4,wm_recall_rt4,wm_probed4,wm_recall_acc4,prac_wm_trial_loop.thisRepN,prac_wm_trial_loop.thisTrialN,prac_wm_trial_loop.thisN,prac_wm_trial_loop.thisIndex,prac_wm_trial_loop.ran,word1,image1,file1,item_type1,word2,image2,file2,item_type2,word4,image4,file4,item_type4,word3,image3,file3,item_type3,wm_test_loop.thisRepN,wm_test_loop.thisTrialN,wm_test_loop.thisN,wm_test_loop.thisIndex,wm_test_loop.ran,wm_trial_loop.thisRepN,wm_trial_loop.thisTrialN,wm_trial_loop.thisN,wm_trial_loop.thisIndex,wm_trial_loop.ran
y,28.267955,TOUGH,4.38957,1,0,0,0,0,1,stimuli/images/PICTURE_747.png,TOUGH,5ee22888962eba660d273581,16/09/1991,2020-09-02_12h30.41.680,proactive3.2,2020.1.2,Win32,60,5f47c0b9b035471e11593a5c,5f4f8195d408d503a68ee210,3,,,,,,,,,,,,,,,,,,,,,,,,,,,,,,,,,,,,,,,,,,,,,,,,,,,,,,,,,,,,,,,,,,,,,,,,,,,,,,,,,,,,,,,,,,,,,
,,,,,,,,,,stimuli/images/PICTURE_727.png,CELL,5ee22888962eba660d273581,16/09/1991,2020-09-02_12h30.41.680,proactive3.2,2020.1.2,Win32,60,5f47c0b9b035471e11593a5c,5f4f8195d408d503a68ee210,3,0,0,0,1,1,hose,,,,,,,,,,,,,,,,,,,,,,,,,,,,,,,,,,,,,,,,,,,,,,,,,,,,,,,,,,,,,,,,,,,,,,,,,,,,,,,,,,,,,,,
,,,,,,,,,,stimuli/images/PICTURE_269.png,GENIUS,5ee22888962eba660d273581,16/09/1991,2020-09-02_12h30.41.680,proactive3.2,2020.1.2,Win32,60,5f47c0b9b035471e11593a5c,5f4f8195d408d503a68ee210,3,0,1,1,0,1,chameleon,,,,,,,,,,,,,,,,,,,,,,,,,,,,,,,,,,,,,,,,,,,,,,,,,,,,,,,,,,,,,,,,,,,,,,,,,,,,,,,,,,,,,,,
,,,,,,,,,,stimuli/images/PICTURE_697.png,KILLER,5ee22888962eba660d273581,16/09/1991,2020-09-02_12h30.41.680,proactive3.2,2020.1.2,Win32,60,5f47c0b9b035471e11593a5c,5f4f8195d408d503a68ee210,3,0,2,2,4,1,peach,,,,,,,,,,,,,,,,,,,,,,,,,,,,,,,,,,,,,,,,,,,,,,,,,,,,,,,,,,,,,,,,,,,,,,,,,,,,,,,,,,,,,,,
,,,,,,,,,,stimuli/images/PICTURE_658.png,DEVIL,5ee22888962eba660d273581,16/09/1991,2020-09-02_12h30.41.680,proactive3.2,2020.1.2,Win32,60,5f47c0b9b035471e11593a5c,5f4f8195d408d503a68ee210,3,0,3,3,3,1,crow,,,,,,,,,,,,,,,,,,,,,,,,,,,,,,,,,,,,,,,,,,,,,,,,,,,,,,,,,,,,,,,,,,,,,,,,,,,,,,,,,,,,,,,
,,KILLER,2.73239,1,,,,,,stimuli/images/PICTURE_697.png,KILLER,5ee22888962eba660d273581,16/09/1991,2020-09-02_12h30.41.680,proactive3.2,2020.1.2,Win32,60,5f47c0b9b035471e11593a5c,5f4f8195d408d503a68ee210,3,,,,,,peach,0,0,0,4,1,,,,,,,,,,,,,,,,,,,,,,,,,,,,,,,,,,,,,,,,,,,,,,,,,,,,,,,,,,,,,,,,,,,,,,,,,,,,,,,,,,
,,LOSS,2.04095,1,,,,,,stimuli/images/PICTURE_378.png,LOSS,5ee22888962eba660d273581,16/09/1991,2020-09-02_12h30.41.680,proactive3.2,2020.1.2,Win32,60,5f47c0b9b035471e11593a5c,5f4f8195d408d503a68ee210,3,,,,,,lobster,0,1,1,2,1,,,,,,,,,,,,,,,,,,,,,,,,,,,,,,,,,,,,,,,,,,,,,,,,,,,,,,,,,,,,,,,,,,,,,,,,,,,,,,,,,,
,,GENUIS,2.402865,0,,,,,,stimuli/images/PICTURE_269.png,GENIUS,5ee22888962eba660d273581,16/09/1991,2020-09-02_12h30.41.680,proactive3.2,2020.1.2,Win32,60,5f47c0b9b035471e11593a5c,5f4f8195d408d503a68ee210,3,,,,,,chameleon,0,2,2,0,1,,,,,,,,,,,,,,,,,,,,,,,,,,,,,,,,,,,,,,,,,,,,,,,,,,,,,,,,,,,,,,,,,,,,,,,,,,,,,,,,,,
,,CELL,3.555725,1,,,,,,stimuli/images/PICTURE_727.png,CELL,5ee22888962eba660d273581,16/09/1991,2020-09-02_12h30.41.680,proactive3.2,2020.1.2,Win32,60,5f47c0b9b035471e11593a5c,5f4f8195d408d503a68ee210,3,,,,,,hose,0,3,3,1,1,,,,,,,,,,,,,,,,,,,,,,,,,,,,,,,,,,,,,,,,,,,,,,,,,,,,,,,,,,,,,,,,,,,,,,,,,,,,,,,,,,
,,DEVIL,2.80605,1,,,,,,stimuli/images/PICTURE_658.png,DEVIL,5ee22888962eba660d273581,16/09/1991,2020-09-02_12h30.41.680,proactive3.2,2020.1.2,Win32,60,5f47c0b9b035471e11593a5c,5f4f8195d408d503a68ee210,3,,,,,,crow,0,4,4,3,1,,,,,,,,,,,,,,,,,,,,,,,,,,,,,,,,,,,,,,,,,,,,,,,,,,,,,,,,,,,,,,,,,,,,,,,,,,,,,,,,,,
,,,,,,,,,,stimuli/images/PICTURE_285.png,LIFE,5ee22888962eba660d273581,16/09/1991,2020-09-02_12h30.41.680,proactive3.2,2020.1.2,Win32,60,5f47c0b9b035471e11593a5c,5f4f8195d408d503a68ee210,3,,,,,,carrot,,,,,,0,0,0,33,1,4,1,,,,,,,,,,,,,,,,,,,,,,,,,,,,,,,,,,,,,,,,,,,,,,,,,,,,,,,,,,,,,,,,,,,,,,,,,,,
,,,,,,,,,,stimuli/images/PICTURE_95.png,BOYS,5ee22888962eba660d273581,16/09/1991,2020-09-02_12h30.41.680,proactive3.2,2020.1.2,Win32,60,5f47c0b9b035471e11593a5c,5f4f8195d408d503a68ee210,3,,,,,,suitcase,,,,,,0,1,1,1,1,1,1,,,,,,,,,,,,,,,,,,,,,,,,,,,,,,,,,,,,,,,,,,,,,,,,,,,,,,,,,,,,,,,,,,,,,,,,,,,
,,,,,,,,,,stimuli/images/PICTURE_405.png,PLENTY,5ee22888962eba660d273581,16/09/1991,2020-09-02_12h30.41.680,proactive3.2,2020.1.2,Win32,60,5f47c0b9b035471e11593a5c,5f4f8195d408d503a68ee210,3,,,,,,anchor,,,,,,0,2,2,23,1,3,1,,,,,,,,,,,,,,,,,,,,,,,,,,,,,,,,,,,,,,,,,,,,,,,,,,,,,,,,,,,,,,,,,,,,,,,,,,,
,,,,,,,,,,stimuli/images/PICTURE_32.png,PILLS,5ee22888962eba660d273581,16/09/1991,2020-09-02_12h30.41.680,proactive3.2,2020.1.2,Win32,60,5f47c0b9b035471e11593a5c,5f4f8195d408d503a68ee210,3,,,,,,crown,,,,,,0,3,3,18,1,2,1,,,,,,,,,,,,,,,,,,,,,,,,,,,,,,,,,,,,,,,,,,,,,,,,,,,,,,,,,,,,,,,,,,,,,,,,,,,
,,,,,,,,,,stimuli/images/PICTURE_339.png,CLIENT,5ee22888962eba660d273581,16/09/1991,2020-09-02_12h30.41.680,proactive3.2,2020.1.2,Win32,60,5f47c0b9b035471e11593a5c,5f4f8195d408d503a68ee210,3,,,,,,backpack,,,,,,0,4,4,11,1,2,1,,,,,,,,,,,,,,,,,,,,,,,,,,,,,,,,,,,,,,,,,,,,,,,,,,,,,,,,,,,,,,,,,,,,,,,,,,,
,,,,,,,,,,stimuli/images/PICTURE_57.png,MOMENT,5ee22888962eba660d273581,16/09/1991,2020-09-02_12h30.41.680,proactive3.2,2020.1.2,Win32,60,5f47c0b9b035471e11593a5c,5f4f8195d408d503a68ee210,3,,,,,,stamp,,,,,,0,5,5,37,1,4,1,,,,,,,,,,,,,,,,,,,,,,,,,,,,,,,,,,,,,,,,,,,,,,,,,,,,,,,,,,,,,,,,,,,,,,,,,,,
,,,,,,,,,,stimuli/images/PICTURE_467.png,POLICY,5ee22888962eba660d273581,16/09/1991,2020-09-02_12h30.41.680,proactive3.2,2020.1.2,Win32,60,5f47c0b9b035471e11593a5c,5f4f8195d408d503a68ee210,3,,,,,,peg,,,,,,0,6,6,53,1,6,1,,,,,,,,,,,,,,,,,,,,,,,,,,,,,,,,,,,,,,,,,,,,,,,,,,,,,,,,,,,,,,,,,,,,,,,,,,,
,,,,,,,,,,stimuli/images/PICTURE_449.png,DUDE,5ee22888962eba660d273581,16/09/1991,2020-09-02_12h30.41.680,proactive3.2,2020.1.2,Win32,60,5f47c0b9b035471e11593a5c,5f4f8195d408d503a68ee210,3,,,,,,bench,,,,,,0,7,7,17,1,2,1,,,,,,,,,,,,,,,,,,,,,,,,,,,,,,,,,,,,,,,,,,,,,,,,,,,,,,,,,,,,,,,,,,,,,,,,,,,
,,,,,,,,,,stimuli/images/PICTURE_85.png,NATION,5ee22888962eba660d273581,16/09/1991,2020-09-02_12h30.41.680,proactive3.2,2020.1.2,Win32,60,5f47c0b9b035471e11593a5c,5f4f8195d408d503a68ee210,3,,,,,,diamond,,,,,,0,8,8,5,1,1,1,,,,,,,,,,,,,,,,,,,,,,,,,,,,,,,,,,,,,,,,,,,,,,,,,,,,,,,,,,,,,,,,,,,,,,,,,,,
,,,,,,,,,,stimuli/images/PICTURE_108.png,POLICY,5ee22888962eba660d273581,16/09/1991,2020-09-02_12h30.41.680,proactive3.2,2020.1.2,Win32,60,5f47c0b9b035471e11593a5c,5f4f8195d408d503a68ee210,3,,,,,,calendar,,,,,,0,9,9,22,1,3,1,,,,,,,,,,,,,,,,,,,,,,,,,,,,,,,,,,,,,,,,,,,,,,,,,,,,,,,,,,,,,,,,,,,,,,,,,,,
,,,,,,,,,,stimuli/images/PICTURE_685.png,PENNY,5ee22888962eba660d273581,16/09/1991,2020-09-02_12h30.41.680,proactive3.2,2020.1.2,Win32,60,5f47c0b9b035471e11593a5c,5f4f8195d408d503a68ee210,3,,,,,,goose,,,,,,0,10,10,4,1,1,1,,,,,,,,,,,,,,,,,,,,,,,,,,,,,,,,,,,,,,,,,,,,,,,,,,,,,,,,,,,,,,,,,,,,,,,,,,,
,,,,,,,,,,stimuli/images/PICTURE_380.png,HONEY,5ee22888962eba660d273581,16/09/1991,2020-09-02_12h30.41.680,proactive3.2,2020.1.2,Win32,60,5f47c0b9b035471e11593a5c,5f4f8195d408d503a68ee210,3,,,,,,gorilla,,,,,,0,11,11,19,1,2,1,,,,,,,,,,,,,,,,,,,,,,,,,,,,,,,,,,,,,,,,,,,,,,,,,,,,,,,,,,,,,,,,,,,,,,,,,,,
,,,,,,,,,,stimuli/images/PICTURE_380.png,CANDY,5ee22888962eba660d273581,16/09/1991,2020-09-02_12h30.41.680,proactive3.2,2020.1.2,Win32,60,5f47c0b9b035471e11593a5c,5f4f8195d408d503a68ee210,3,,,,,,gorilla,,,,,,0,12,12,0,1,1,1,,,,,,,,,,,,,,,,,,,,,,,,,,,,,,,,,,,,,,,,,,,,,,,,,,,,,,,,,,,,,,,,,,,,,,,,,,,
,,,,,,,,,,stimuli/images/PICTURE_95.png,MILLER,5ee22888962eba660d273581,16/09/1991,2020-09-02_12h30.41.680,proactive3.2,2020.1.2,Win32,60,5f47c0b9b035471e11593a5c,5f4f8195d408d503a68ee210,3,,,,,,suitcase,,,,,,0,13,13,56,1,6,1,,,,,,,,,,,,,,,,,,,,,,,,,,,,,,,,,,,,,,,,,,,,,,,,,,,,,,,,,,,,,,,,,,,,,,,,,,,
,,,,,,,,,,stimuli/images/PICTURE_383.png,WRITER,5ee22888962eba660d273581,16/09/1991,2020-09-02_12h30.41.680,proactive3.2,2020.1.2,Win32,60,5f47c0b9b035471e11593a5c,5f4f8195d408d503a68ee210,3,,,,,,coin,,,,,,0,14,14,28,1,3,1,,,,,,,,,,,,,,,,,,,,,,,,,,,,,,,,,,,,,,,,,,,,,,,,,,,,,,,,,,,,,,,,,,,,,,,,,,,
,,,,,,,,,,stimuli/images/PICTURE_469.png,AGENT,5ee22888962eba660d273581,16/09/1991,2020-09-02_12h30.41.680,proactive3.2,2020.1.2,Win32,60,5f47c0b9b035471e11593a5c,5f4f8195d408d503a68ee210,3,,,,,,stool,,,,,,0,15,15,16,1,2,1,,,,,,,,,,,,,,,,,,,,,,,,,,,,,,,,,,,,,,,,,,,,,,,,,,,,,,,,,,,,,,,,,,,,,,,,,,,
,,,,,,,,,,stimuli/images/PICTURE_95.png,HONEY,5ee22888962eba660d273581,16/09/1991,2020-09-02_12h30.41.680,proactive3.2,2020.1.2,Win32,60,5f47c0b9b035471e11593a5c,5f4f8195d408d503a68ee210,3,,,,,,suitcase,,,,,,0,16,16,44,1,5,1,,,,,,,,,,,,,,,,,,,,,,,,,,,,,,,,,,,,,,,,,,,,,,,,,,,,,,,,,,,,,,,,,,,,,,,,,,,
,,,,,,,,,,stimuli/images/PICTURE_487.png,GIRL,5ee22888962eba660d273581,16/09/1991,2020-09-02_12h30.41.680,proactive3.2,2020.1.2,Win32,60,5f47c0b9b035471e11593a5c,5f4f8195d408d503a68ee210,3,,,,,,basket,,,,,,0,17,17,45,1,5,1,,,,,,,,,,,,,,,,,,,,,,,,,,,,,,,,,,,,,,,,,,,,,,,,,,,,,,,,,,,,,,,,,,,,,,,,,,,
,,,,,,,,,,stimuli/images/PICTURE_68.png,MILE,5ee22888962eba660d273581,16/09/1991,2020-09-02_12h30.41.680,proactive3.2,2020.1.2,Win32,60,5f47c0b9b035471e11593a5c,5f4f8195d408d503a68ee210,3,,,,,,candle,,,,,,0,18,18,51,1,6,1,,,,,,,,,,,,,,,,,,,,,,,,,,,,,,,,,,,,,,,,,,,,,,,,,,,,,,,,,,,,,,,,,,,,,,,,,,,
,,,,,,,,,,stimuli/images/PICTURE_85.png,TOILET,5ee22888962eba660d273581,16/09/1991,2020-09-02_12h30.41.680,proactive3.2,2020.1.2,Win32,60,5f47c0b9b035471e11593a5c,5f4f8195d408d503a68ee210,3,,,,,,diamond,,,,,,0,19,19,48,1,5,1,,,,,,,,,,,,,,,,,,,,,,,,,,,,,,,,,,,,,,,,,,,,,,,,,,,,,,,,,,,,,,,,,,,,,,,,,,,
,,,,,,,,,,stimuli/images/PICTURE_203.png,GODS,5ee22888962eba660d273581,16/09/1991,2020-09-02_12h30.41.680,proactive3.2,2020.1.2,Win32,60,5f47c0b9b035471e11593a5c,5f4f8195d408d503a68ee210,3,,,,,,cap,,,,,,0,20,20,30,1,4,1,,,,,,,,,,,,,,,,,,,,,,,,,,,,,,,,,,,,,,,,,,,,,,,,,,,,,,,,,,,,,,,,,,,,,,,,,,,
,,,,,,,,,,stimuli/images/PICTURE_340.png,VALLEY,5ee22888962eba660d273581,16/09/1991,2020-09-02_12h30.41.680,proactive3.2,2020.1.2,Win32,60,5f47c0b9b035471e11593a5c,5f4f8195d408d503a68ee210,3,,,,,,mirror,,,,,,0,21,21,54,1,6,1,,,,,,,,,,,,,,,,,,,,,,,,,,,,,,,,,,,,,,,,,,,,,,,,,,,,,,,,,,,,,,,,,,,,,,,,,,,
,,,,,,,,,,stimuli/images/PICTURE_308.png,FAMILY,5ee22888962eba660d273581,16/09/1991,2020-09-02_12h30.41.680,proactive3.2,2020.1.2,Win32,60,5f47c0b9b035471e11593a5c,5f4f8195d408d503a68ee210,3,,,,,,dice,,,,,,0,22,22,36,1,4,1,,,,,,,,,,,,,,,,,,,,,,,,,,,,,,,,,,,,,,,,,,,,,,,,,,,,,,,,,,,,,,,,,,,,,,,,,,,
,,,,,,,,,,stimuli/images/PICTURE_504.png,YEAR,5ee22888962eba660d273581,16/09/1991,2020-09-02_12h30.41.680,proactive3.2,2020.1.2,Win32,60,5f47c0b9b035471e11593a5c,5f4f8195d408d503a68ee210,3,,,,,,wheel,,,,,,0,23,23,13,1,2,1,,,,,,,,,,,,,,,,,,,,,,,,,,,,,,,,,,,,,,,,,,,,,,,,,,,,,,,,,,,,,,,,,,,,,,,,,,,
,,,,,,,,,,stimuli/images/PICTURE_208.png,SYSTEM,5ee22888962eba660d273581,16/09/1991,2020-09-02_12h30.41.680,proactive3.2,2020.1.2,Win32,60,5f47c0b9b035471e11593a5c,5f4f8195d408d503a68ee210,3,,,,,,microphone,,,,,,0,24,24,32,1,4,1,,,,,,,,,,,,,,,,,,,,,,,,,,,,,,,,,,,,,,,,,,,,,,,,,,,,,,,,,,,,,,,,,,,,,,,,,,,
,,,,,,,,,,stimuli/images/PICTURE_675.png,SALE,5ee22888962eba660d273581,16/09/1991,2020-09-02_12h30.41.680,proactive3.2,2020.1.2,Win32,60,5f47c0b9b035471e11593a5c,5f4f8195d408d503a68ee210,3,,,,,,windmill,,,,,,0,25,25,47,1,5,1,,,,,,,,,,,,,,,,,,,,,,,,,,,,,,,,,,,,,,,,,,,,,,,,,,,,,,,,,,,,,,,,,,,,,,,,,,,
,,,,,,,,,,stimuli/images/PICTURE_654.png,MONTH,5ee22888962eba660d273581,16/09/1991,2020-09-02_12h30.41.680,proactive3.2,2020.1.2,Win32,60,5f47c0b9b035471e11593a5c,5f4f8195d408d503a68ee210,3,,,,,,pencil,,,,,,0,26,26,29,1,3,1,,,,,,,,,,,,,,,,,,,,,,,,,,,,,,,,,,,,,,,,,,,,,,,,,,,,,,,,,,,,,,,,,,,,,,,,,,,
,,,,,,,,,,stimuli/images/PICTURE_667.png,RIVER,5ee22888962eba660d273581,16/09/1991,2020-09-02_12h30.41.680,proactive3.2,2020.1.2,Win32,60,5f47c0b9b035471e11593a5c,5f4f8195d408d503a68ee210,3,,,,,,daisy,,,,,,0,27,27,10,1,2,1,,,,,,,,,,,,,,,,,,,,,,,,,,,,,,,,,,,,,,,,,,,,,,,,,,,,,,,,,,,,,,,,,,,,,,,,,,,
,,,,,,,,,,stimuli/images/PICTURE_564.png,BATH,5ee22888962eba660d273581,16/09/1991,2020-09-02_12h30.41.680,proactive3.2,2020.1.2,Win32,60,5f47c0b9b035471e11593a5c,5f4f8195d408d503a68ee210,3,,,,,,spoon,,,,,,0,28,28,26,1,3,1,,,,,,,,,,,,,,,,,,,,,,,,,,,,,,,,,,,,,,,,,,,,,,,,,,,,,,,,,,,,,,,,,,,,,,,,,,,
,,,,,,,,,,stimuli/images/PICTURE_403.png,RIVER,5ee22888962eba660d273581,16/09/1991,2020-09-02_12h30.41.680,proactive3.2,2020.1.2,Win32,60,5f47c0b9b035471e11593a5c,5f4f8195d408d503a68ee210,3,,,,,,cathedral,,,,,,0,29,29,40,1,5,1,,,,,,,,,,,,,,,,,,,,,,,,,,,,,,,,,,,,,,,,,,,,,,,,,,,,,,,,,,,,,,,,,,,,,,,,,,,
,,,,,,,,,,stimuli/images/PICTURE_296.png,LIFE,5ee22888962eba660d273581,16/09/1991,2020-09-02_12h30.41.680,proactive3.2,2020.1.2,Win32,60,5f47c0b9b035471e11593a5c,5f4f8195d408d503a68ee210,3,,,,,,bolt,,,,,,0,30,30,57,1,6,1,,,,,,,,,,,,,,,,,,,,,,,,,,,,,,,,,,,,,,,,,,,,,,,,,,,,,,,,,,,,,,,,,,,,,,,,,,,
,,,,,,,,,,stimuli/images/PICTURE_327.png,SERIES,5ee22888962eba660d273581,16/09/1991,2020-09-02_12h30.41.680,proactive3.2,2020.1.2,Win32,60,5f47c0b9b035471e11593a5c,5f4f8195d408d503a68ee210,3,,,,,,helmet,,,,,,0,31,31,3,1,1,1,,,,,,,,,,,,,,,,,,,,,,,,,,,,,,,,,,,,,,,,,,,,,,,,,,,,,,,,,,,,,,,,,,,,,,,,,,,
,,,,,,,,,,stimuli/images/PICTURE_491.png,RIVER,5ee22888962eba660d273581,16/09/1991,2020-09-02_12h30.41.680,proactive3.2,2020.1.2,Win32,60,5f47c0b9b035471e11593a5c,5f4f8195d408d503a68ee210,3,,,,,,rug,,,,,,0,32,32,6,1,1,1,,,,,,,,,,,,,,,,,,,,,,,,,,,,,,,,,,,,,,,,,,,,,,,,,,,,,,,,,,,,,,,,,,,,,,,,,,,
,,,,,,,,,,stimuli/images/PICTURE_340.png,LETTER,5ee22888962eba660d273581,16/09/1991,2020-09-02_12h30.41.680,proactive3.2,2020.1.2,Win32,60,5f47c0b9b035471e11593a5c,5f4f8195d408d503a68ee210,3,,,,,,mirror,,,,,,0,33,33,24,1,3,1,,,,,,,,,,,,,,,,,,,,,,,,,,,,,,,,,,,,,,,,,,,,,,,,,,,,,,,,,,,,,,,,,,,,,,,,,,,
,,,,,,,,,,stimuli/images/PICTURE_147.png,YEAR,5ee22888962eba660d273581,16/09/1991,2020-09-02_12h30.41.680,proactive3.2,2020.1.2,Win32,60,5f47c0b9b035471e11593a5c,5f4f8195d408d503a68ee210,3,,,,,,hanger,,,,,,0,34,34,21,1,3,1,,,,,,,,,,,,,,,,,,,,,,,,,,,,,,,,,,,,,,,,,,,,,,,,,,,,,,,,,,,,,,,,,,,,,,,,,,,
,,,,,,,,,,stimuli/images/PICTURE_203.png,NIGHT,5ee22888962eba660d273581,16/09/1991,2020-09-02_12h30.41.680,proactive3.2,2020.1.2,Win32,60,5f47c0b9b035471e11593a5c,5f4f8195d408d503a68ee210,3,,,,,,cap,,,,,,0,35,35,2,1,1,1,,,,,,,,,,,,,,,,,,,,,,,,,,,,,,,,,,,,,,,,,,,,,,,,,,,,,,,,,,,,,,,,,,,,,,,,,,,
,,,,,,,,,,stimuli/images/PICTURE_108.png,FLIGHT,5ee22888962eba660d273581,16/09/1991,2020-09-02_12h30.41.680,proactive3.2,2020.1.2,Win32,60,5f47c0b9b035471e11593a5c,5f4f8195d408d503a68ee210,3,,,,,,calendar,,,,,,0,36,36,59,1,6,1,,,,,,,,,,,,,,,,,,,,,,,,,,,,,,,,,,,,,,,,,,,,,,,,,,,,,,,,,,,,,,,,,,,,,,,,,,,
,,,,,,,,,,stimuli/images/PICTURE_405.png,YEAR,5ee22888962eba660d273581,16/09/1991,2020-09-02_12h30.41.680,proactive3.2,2020.1.2,Win32,60,5f47c0b9b035471e11593a5c,5f4f8195d408d503a68ee210,3,,,,,,anchor,,,,,,0,37,37,34,1,4,1,,,,,,,,,,,,,,,,,,,,,,,,,,,,,,,,,,,,,,,,,,,,,,,,,,,,,,,,,,,,,,,,,,,,,,,,,,,
,,,,,,,,,,stimuli/images/PICTURE_383.png,SERIES,5ee22888962eba660d273581,16/09/1991,2020-09-02_12h30.41.680,proactive3.2,2020.1.2,Win32,60,5f47c0b9b035471e11593a5c,5f4f8195d408d503a68ee210,3,,,,,,coin,,,,,,0,38,38,46,1,5,1,,,,,,,,,,,,,,,,,,,,,,,,,,,,,,,,,,,,,,,,,,,,,,,,,,,,,,,,,,,,,,,,,,,,,,,,,,,
,,,,,,,,,,stimuli/images/PICTURE_327.png,CASINO,5ee22888962eba660d273581,16/09/1991,2020-09-02_12h30.41.680,proactive3.2,2020.1.2,Win32,60,5f47c0b9b035471e11593a5c,5f4f8195d408d503a68ee210,3,,,,,,helmet,,,,,,0,39,39,20,1,3,1,,,,,,,,,,,,,,,,,,,,,,,,,,,,,,,,,,,,,,,,,,,,,,,,,,,,,,,,,,,,,,,,,,,,,,,,,,,
,,,,,,,,,,stimuli/images/PICTURE_504.png,COPS,5ee22888962eba660d273581,16/09/1991,2020-09-02_12h30.41.680,proactive3.2,2020.1.2,Win32,60,5f47c0b9b035471e11593a5c,5f4f8195d408d503a68ee210,3,,,,,,wheel,,,,,,0,40,40,52,1,6,1,,,,,,,,,,,,,,,,,,,,,,,,,,,,,,,,,,,,,,,,,,,,,,,,,,,,,,,,,,,,,,,,,,,,,,,,,,,
,,,,,,,,,,stimuli/images/PICTURE_147.png,WOMEN,5ee22888962eba660d273581,16/09/1991,2020-09-02_12h30.41.680,proactive3.2,2020.1.2,Win32,60,5f47c0b9b035471e11593a5c,5f4f8195d408d503a68ee210,3,,,,,,hanger,,,,,,0,41,41,7,1,1,1,,,,,,,,,,,,,,,,,,,,,,,,,,,,,,,,,,,,,,,,,,,,,,,,,,,,,,,,,,,,,,,,,,,,,,,,,,,
,,,,,,,,,,stimuli/images/PICTURE_42.png,BOYS,5ee22888962eba660d273581,16/09/1991,2020-09-02_12h30.41.680,proactive3.2,2020.1.2,Win32,60,5f47c0b9b035471e11593a5c,5f4f8195d408d503a68ee210,3,,,,,,pear,,,,,,0,42,42,55,1,6,1,,,,,,,,,,,,,,,,,,,,,,,,,,,,,,,,,,,,,,,,,,,,,,,,,,,,,,,,,,,,,,,,,,,,,,,,,,,
,,,,,,,,,,stimuli/images/PICTURE_403.png,WRITER,5ee22888962eba660d273581,16/09/1991,2020-09-02_12h30.41.680,proactive3.2,2020.1.2,Win32,60,5f47c0b9b035471e11593a5c,5f4f8195d408d503a68ee210,3,,,,,,cathedral,,,,,,0,43,43,31,1,4,1,,,,,,,,,,,,,,,,,,,,,,,,,,,,,,,,,,,,,,,,,,,,,,,,,,,,,,,,,,,,,,,,,,,,,,,,,,,
,,,,,,,,,,stimuli/images/PICTURE_297.png,RIVER,5ee22888962eba660d273581,16/09/1991,2020-09-02_12h30.41.680,proactive3.2,2020.1.2,Win32,60,5f47c0b9b035471e11593a5c,5f4f8195d408d503a68ee210,3,,,,,,aeroplane,,,,,,0,44,44,39,1,4,1,,,,,,,,,,,,,,,,,,,,,,,,,,,,,,,,,,,,,,,,,,,,,,,,,,,,,,,,,,,,,,,,,,,,,,,,,,,
,,,,,,,,,,stimuli/images/PICTURE_68.png,ROOF,5ee22888962eba660d273581,16/09/1991,2020-09-02_12h30.41.680,proactive3.2,2020.1.2,Win32,60,5f47c0b9b035471e11593a5c,5f4f8195d408d503a68ee210,3,,,,,,candle,,,,,,0,45,45,38,1,4,1,,,,,,,,,,,,,,,,,,,,,,,,,,,,,,,,,,,,,,,,,,,,,,,,,,,,,,,,,,,,,,,,,,,,,,,,,,,
,,,,,,,,,,stimuli/images/PICTURE_504.png,ARTIST,5ee22888962eba660d273581,16/09/1991,2020-09-02_12h30.41.680,proactive3.2,2020.1.2,Win32,60,5f47c0b9b035471e11593a5c,5f4f8195d408d503a68ee210,3,,,,,,wheel,,,,,,0,46,46,49,1,5,1,,,,,,,,,,,,,,,,,,,,,,,,,,,,,,,,,,,,,,,,,,,,,,,,,,,,,,,,,,,,,,,,,,,,,,,,,,,
,,,,,,,,,,stimuli/images/PICTURE_677.png,APPLE,5ee22888962eba660d273581,16/09/1991,2020-09-02_12h30.41.680,proactive3.2,2020.1.2,Win32,60,5f47c0b9b035471e11593a5c,5f4f8195d408d503a68ee210,3,,,,,,map,,,,,,0,47,47,43,1,5,1,,,,,,,,,,,,,,,,,,,,,,,,,,,,,,,,,,,,,,,,,,,,,,,,,,,,,,,,,,,,,,,,,,,,,,,,,,,
,,,,,,,,,,stimuli/images/PICTURE_296.png,LOTS,5ee22888962eba660d273581,16/09/1991,2020-09-02_12h30.41.680,proactive3.2,2020.1.2,Win32,60,5f47c0b9b035471e11593a5c,5f4f8195d408d503a68ee210,3,,,,,,bolt,,,,,,0,48,48,9,1,1,1,,,,,,,,,,,,,,,,,,,,,,,,,,,,,,,,,,,,,,,,,,,,,,,,,,,,,,,,,,,,,,,,,,,,,,,,,,,
,,,,,,,,,,stimuli/images/PICTURE_708.png,RECORD,5ee22888962eba660d273581,16/09/1991,2020-09-02_12h30.41.680,proactive3.2,2020.1.2,Win32,60,5f47c0b9b035471e11593a5c,5f4f8195d408d503a68ee210,3,,,,,,monkey,,,,,,0,49,49,58,1,6,1,,,,,,,,,,,,,,,,,,,,,,,,,,,,,,,,,,,,,,,,,,,,,,,,,,,,,,,,,,,,,,,,,,,,,,,,,,,
,,,,,,,,,,stimuli/images/PICTURE_655.png,TOILET,5ee22888962eba660d273581,16/09/1991,2020-09-02_12h30.41.680,proactive3.2,2020.1.2,Win32,60,5f47c0b9b035471e11593a5c,5f4f8195d408d503a68ee210,3,,,,,,megaphone,,,,,,0,50,50,12,1,2,1,,,,,,,,,,,,,,,,,,,,,,,,,,,,,,,,,,,,,,,,,,,,,,,,,,,,,,,,,,,,,,,,,,,,,,,,,,,
,,,,,,,,,,stimuli/images/PICTURE_403.png,TOILET,5ee22888962eba660d273581,16/09/1991,2020-09-02_12h30.41.680,proactive3.2,2020.1.2,Win32,60,5f47c0b9b035471e11593a5c,5f4f8195d408d503a68ee210,3,,,,,,cathedral,,,,,,0,51,51,25,1,3,1,,,,,,,,,,,,,,,,,,,,,,,,,,,,,,,,,,,,,,,,,,,,,,,,,,,,,,,,,,,,,,,,,,,,,,,,,,,
,,,,,,,,,,stimuli/images/PICTURE_33.png,FRIEND,5ee22888962eba660d273581,16/09/1991,2020-09-02_12h30.41.680,proactive3.2,2020.1.2,Win32,60,5f47c0b9b035471e11593a5c,5f4f8195d408d503a68ee210,3,,,,,,frame,,,,,,0,52,52,8,1,1,1,,,,,,,,,,,,,,,,,,,,,,,,,,,,,,,,,,,,,,,,,,,,,,,,,,,,,,,,,,,,,,,,,,,,,,,,,,,
,,,,,,,,,,stimuli/images/PICTURE_32.png,KIND,5ee22888962eba660d273581,16/09/1991,2020-09-02_12h30.41.680,proactive3.2,2020.1.2,Win32,60,5f47c0b9b035471e11593a5c,5f4f8195d408d503a68ee210,3,,,,,,crown,,,,,,0,53,53,35,1,4,1,,,,,,,,,,,,,,,,,,,,,,,,,,,,,,,,,,,,,,,,,,,,,,,,,,,,,,,,,,,,,,,,,,,,,,,,,,,
,,,,,,,,,,stimuli/images/PICTURE_233.png,LOTS,5ee22888962eba660d273581,16/09/1991,2020-09-02_12h30.41.680,proactive3.2,2020.1.2,Win32,60,5f47c0b9b035471e11593a5c,5f4f8195d408d503a68ee210,3,,,,,,salt,,,,,,0,54,54,42,1,5,1,,,,,,,,,,,,,,,,,,,,,,,,,,,,,,,,,,,,,,,,,,,,,,,,,,,,,,,,,,,,,,,,,,,,,,,,,,,
,,,,,,,,,,stimuli/images/PICTURE_491.png,GLASS,5ee22888962eba660d273581,16/09/1991,2020-09-02_12h30.41.680,proactive3.2,2020.1.2,Win32,60,5f47c0b9b035471e11593a5c,5f4f8195d408d503a68ee210,3,,,,,,rug,,,,,,0,55,55,14,1,2,1,,,,,,,,,,,,,,,,,,,,,,,,,,,,,,,,,,,,,,,,,,,,,,,,,,,,,,,,,,,,,,,,,,,,,,,,,,,
,,,,,,,,,,stimuli/images/PICTURE_177.png,WRITER,5ee22888962eba660d273581,16/09/1991,2020-09-02_12h30.41.680,proactive3.2,2020.1.2,Win32,60,5f47c0b9b035471e11593a5c,5f4f8195d408d503a68ee210,3,,,,,,mushroom,,,,,,0,56,56,41,1,5,1,,,,,,,,,,,,,,,,,,,,,,,,,,,,,,,,,,,,,,,,,,,,,,,,,,,,,,,,,,,,,,,,,,,,,,,,,,,
,,,,,,,,,,stimuli/images/PICTURE_744.png,WEAPON,5ee22888962eba660d273581,16/09/1991,2020-09-02_12h30.41.680,proactive3.2,2020.1.2,Win32,60,5f47c0b9b035471e11593a5c,5f4f8195d408d503a68ee210,3,,,,,,ring,,,,,,0,57,57,50,1,6,1,,,,,,,,,,,,,,,,,,,,,,,,,,,,,,,,,,,,,,,,,,,,,,,,,,,,,,,,,,,,,,,,,,,,,,,,,,,
,,,,,,,,,,stimuli/images/PICTURE_2.png,FLIGHT,5ee22888962eba660d273581,16/09/1991,2020-09-02_12h30.41.680,proactive3.2,2020.1.2,Win32,60,5f47c0b9b035471e11593a5c,5f4f8195d408d503a68ee210,3,,,,,,tyre,,,,,,0,58,58,15,1,2,1,,,,,,,,,,,,,,,,,,,,,,,,,,,,,,,,,,,,,,,,,,,,,,,,,,,,,,,,,,,,,,,,,,,,,,,,,,,
,,?,0.00193,0,,,,,,stimuli/images/PICTURE_57.png,MOMENT,5ee22888962eba660d273581,16/09/1991,2020-09-02_12h30.41.680,proactive3.2,2020.1.2,Win32,60,5f47c0b9b035471e11593a5c,5f4f8195d408d503a68ee210,3,,,,,,stamp,,,,,,,,,,,4,1,0,0,0,37,1,,,,,,,,,,,,,,,,,,,,,,,,,,,,,,,,,,,,,,,,,,,,,,,,,,,,,,,,,,,,,,,,,,,,,,
,,?,0.00147,0,,,,,,stimuli/images/PICTURE_327.png,SERIES,5ee22888962eba660d273581,16/09/1991,2020-09-02_12h30.41.680,proactive3.2,2020.1.2,Win32,60,5f47c0b9b035471e11593a5c,5f4f8195d408d503a68ee210,3,,,,,,helmet,,,,,,,,,,,1,1,0,1,1,3,1,,,,,,,,,,,,,,,,,,,,,,,,,,,,,,,,,,,,,,,,,,,,,,,,,,,,,,,,,,,,,,,,,,,,,,
,,?,0.001325,0,,,,,,stimuli/images/PICTURE_487.png,GIRL,5ee22888962eba660d273581,16/09/1991,2020-09-02_12h30.41.680,proactive3.2,2020.1.2,Win32,60,5f47c0b9b035471e11593a5c,5f4f8195d408d503a68ee210,3,,,,,,basket,,,,,,,,,,,5,1,0,2,2,45,1,,,,,,,,,,,,,,,,,,,,,,,,,,,,,,,,,,,,,,,,,,,,,,,,,,,,,,,,,,,,,,,,,,,,,,
,,?,0.000975,0,,,,,,stimuli/images/PICTURE_285.png,LIFE,5ee22888962eba660d273581,16/09/1991,2020-09-02_12h30.41.680,proactive3.2,2020.1.2,Win32,60,5f47c0b9b035471e11593a5c,5f4f8195d408d503a68ee210,3,,,,,,carrot,,,,,,,,,,,4,1,0,3,3,33,1,,,,,,,,,,,,,,,,,,,,,,,,,,,,,,,,,,,,,,,,,,,,,,,,,,,,,,,,,,,,,,,,,,,,,,
,,?,0.000985,0,,,,,,stimuli/images/PICTURE_203.png,GODS,5ee22888962eba660d273581,16/09/1991,2020-09-02_12h30.41.680,proactive3.2,2020.1.2,Win32,60,5f47c0b9b035471e11593a5c,5f4f8195d408d503a68ee210,3,,,,,,cap,,,,,,,,,,,4,1,0,4,4,30,1,,,,,,,,,,,,,,,,,,,,,,,,,,,,,,,,,,,,,,,,,,,,,,,,,,,,,,,,,,,,,,,,,,,,,,
,,?,0.00105,0,,,,,,stimuli/images/PICTURE_677.png,APPLE,5ee22888962eba660d273581,16/09/1991,2020-09-02_12h30.41.680,proactive3.2,2020.1.2,Win32,60,5f47c0b9b035471e11593a5c,5f4f8195d408d503a68ee210,3,,,,,,map,,,,,,,,,,,5,1,0,5,5,43,1,,,,,,,,,,,,,,,,,,,,,,,,,,,,,,,,,,,,,,,,,,,,,,,,,,,,,,,,,,,,,,,,,,,,,,
,,?,0.001155,0,,,,,,stimuli/images/PICTURE_708.png,RECORD,5ee22888962eba660d273581,16/09/1991,2020-09-02_12h30.41.680,proactive3.2,2020.1.2,Win32,60,5f47c0b9b035471e11593a5c,5f4f8195d408d503a68ee210,3,,,,,,monkey,,,,,,,,,,,6,1,0,6,6,58,1,,,,,,,,,,,,,,,,,,,,,,,,,,,,,,,,,,,,,,,,,,,,,,,,,,,,,,,,,,,,,,,,,,,,,,
,,?,0.0025,0,,,,,,stimuli/images/PICTURE_68.png,MILE,5ee22888962eba660d273581,16/09/1991,2020-09-02_12h30.41.680,proactive3.2,2020.1.2,Win32,60,5f47c0b9b035471e11593a5c,5f4f8195d408d503a68ee210,3,,,,,,candle,,,,,,,,,,,6,1,0,7,7,51,1,,,,,,,,,,,,,,,,,,,,,,,,,,,,,,,,,,,,,,,,,,,,,,,,,,,,,,,,,,,,,,,,,,,,,,
,,YEAR,5.303965,0,,,,,,stimuli/images/PICTURE_403.png,TOILET,5ee22888962eba660d273581,16/09/1991,2020-09-02_12h30.41.680,proactive3.2,2020.1.2,Win32,60,5f47c0b9b035471e11593a5c,5f4f8195d408d503a68ee210,3,,,,,,cathedral,,,,,,,,,,,3,1,0,8,8,25,1,,,,,,,,,,,,,,,,,,,,,,,,,,,,,,,,,,,,,,,,,,,,,,,,,,,,,,,,,,,,,,,,,,,,,,
,,?,0.00189,0,,,,,,stimuli/images/PICTURE_504.png,YEAR,5ee22888962eba660d273581,16/09/1991,2020-09-02_12h30.41.680,proactive3.2,2020.1.2,Win32,60,5f47c0b9b035471e11593a5c,5f4f8195d408d503a68ee210,3,,,,,,wheel,,,,,,,,,,,2,1,0,9,9,13,1,,,,,,,,,,,,,,,,,,,,,,,,,,,,,,,,,,,,,,,,,,,,,,,,,,,,,,,,,,,,,,,,,,,,,,
,,?,0.0012,0,,,,,,stimuli/images/PICTURE_491.png,GLASS,5ee22888962eba660d273581,16/09/1991,2020-09-02_12h30.41.680,proactive3.2,2020.1.2,Win32,60,5f47c0b9b035471e11593a5c,5f4f8195d408d503a68ee210,3,,,,,,rug,,,,,,,,,,,2,1,0,10,10,14,1,,,,,,,,,,,,,,,,,,,,,,,,,,,,,,,,,,,,,,,,,,,,,,,,,,,,,,,,,,,,,,,,,,,,,,
,,?,0.00095,0,,,,,,stimuli/images/PICTURE_95.png,BOYS,5ee22888962eba660d273581,16/09/1991,2020-09-02_12h30.41.680,proactive3.2,2020.1.2,Win32,60,5f47c0b9b035471e11593a5c,5f4f8195d408d503a68ee210,3,,,,,,suitcase,,,,,,,,,,,1,1,0,11,11,1,1,,,,,,,,,,,,,,,,,,,,,,,,,,,,,,,,,,,,,,,,,,,,,,,,,,,,,,,,,,,,,,,,,,,,,,
,,?,0.00137,0,,,,,,stimuli/images/PICTURE_147.png,WOMEN,5ee22888962eba660d273581,16/09/1991,2020-09-02_12h30.41.680,proactive3.2,2020.1.2,Win32,60,5f47c0b9b035471e11593a5c,5f4f8195d408d503a68ee210,3,,,,,,hanger,,,,,,,,,,,1,1,0,12,12,7,1,,,,,,,,,,,,,,,,,,,,,,,,,,,,,,,,,,,,,,,,,,,,,,,,,,,,,,,,,,,,,,,,,,,,,,
,,?,0.00099,0,,,,,,stimuli/images/PICTURE_42.png,BOYS,5ee22888962eba660d273581,16/09/1991,2020-09-02_12h30.41.680,proactive3.2,2020.1.2,Win32,60,5f47c0b9b035471e11593a5c,5f4f8195d408d503a68ee210,3,,,,,,pear,,,,,,,,,,,6,1,0,13,13,55,1,,,,,,,,,,,,,,,,,,,,,,,,,,,,,,,,,,,,,,,,,,,,,,,,,,,,,,,,,,,,,,,,,,,,,,
,,?,0.00097,0,,,,,,stimuli/images/PICTURE_177.png,WRITER,5ee22888962eba660d273581,16/09/1991,2020-09-02_12h30.41.680,proactive3.2,2020.1.2,Win32,60,5f47c0b9b035471e11593a5c,5f4f8195d408d503a68ee210,3,,,,,,mushroom,,,,,,,,,,,5,1,0,14,14,41,1,,,,,,,,,,,,,,,,,,,,,,,,,,,,,,,,,,,,,,,,,,,,,,,,,,,,,,,,,,,,,,,,,,,,,,
,,CASINO,5.410685,1,,,,,,stimuli/images/PICTURE_327.png,CASINO,5ee22888962eba660d273581,16/09/1991,2020-09-02_12h30.41.680,proactive3.2,2020.1.2,Win32,60,5f47c0b9b035471e11593a5c,5f4f8195d408d503a68ee210,3,,,,,,helmet,,,,,,,,,,,3,1,0,15,15,20,1,,,,,,,,,,,,,,,,,,,,,,,,,,,,,,,,,,,,,,,,,,,,,,,,,,,,,,,,,,,,,,,,,,,,,,
,,HOTEL,2.40122,1,,,,,,stimuli/images/PICTURE_750.png,HOTEL,5ee22888962eba660d273581,16/09/1991,2020-09-02_12h30.41.680,proactive3.2,2020.1.2,Win32,60,5f47c0b9b035471e11593a5c,5f4f8195d408d503a68ee210,3,,,,,,kettle,,,,,,,,,,,3,1,0,16,16,27,1,,,,,,,,,,,,,,,,,,,,,,,,,,,,,,,,,,,,,,,,,,,,,,,,,,,,,,,,,,,,,,,,,,,,,,
,,YEAR,3.029085,1,,,,,,stimuli/images/PICTURE_147.png,YEAR,5ee22888962eba660d273581,16/09/1991,2020-09-02_12h30.41.680,proactive3.2,2020.1.2,Win32,60,5f47c0b9b035471e11593a5c,5f4f8195d408d503a68ee210,3,,,,,,hanger,,,,,,,,,,,3,1,0,17,17,21,1,,,,,,,,,,,,,,,,,,,,,,,,,,,,,,,,,,,,,,,,,,,,,,,,,,,,,,,,,,,,,,,,,,,,,,
,,?,0.00268,0,,,,,,stimuli/images/PICTURE_667.png,RIVER,5ee22888962eba660d273581,16/09/1991,2020-09-02_12h30.41.680,proactive3.2,2020.1.2,Win32,60,5f47c0b9b035471e11593a5c,5f4f8195d408d503a68ee210,3,,,,,,daisy,,,,,,,,,,,2,1,0,18,18,10,1,,,,,,,,,,,,,,,,,,,,,,,,,,,,,,,,,,,,,,,,,,,,,,,,,,,,,,,,,,,,,,,,,,,,,,
,,?,0.001595,0,,,,,,stimuli/images/PICTURE_32.png,KIND,5ee22888962eba660d273581,16/09/1991,2020-09-02_12h30.41.680,proactive3.2,2020.1.2,Win32,60,5f47c0b9b035471e11593a5c,5f4f8195d408d503a68ee210,3,,,,,,crown,,,,,,,,,,,4,1,0,19,19,35,1,,,,,,,,,,,,,,,,,,,,,,,,,,,,,,,,,,,,,,,,,,,,,,,,,,,,,,,,,,,,,,,,,,,,,,
,,?,0.000925,0,,,,,,stimuli/images/PICTURE_469.png,AGENT,5ee22888962eba660d273581,16/09/1991,2020-09-02_12h30.41.680,proactive3.2,2020.1.2,Win32,60,5f47c0b9b035471e11593a5c,5f4f8195d408d503a68ee210,3,,,,,,stool,,,,,,,,,,,2,1,0,20,20,16,1,,,,,,,,,,,,,,,,,,,,,,,,,,,,,,,,,,,,,,,,,,,,,,,,,,,,,,,,,,,,,,,,,,,,,,
,,?,0.00089,0,,,,,,stimuli/images/PICTURE_296.png,LIFE,5ee22888962eba660d273581,16/09/1991,2020-09-02_12h30.41.680,proactive3.2,2020.1.2,Win32,60,5f47c0b9b035471e11593a5c,5f4f8195d408d503a68ee210,3,,,,,,bolt,,,,,,,,,,,6,1,0,21,21,57,1,,,,,,,,,,,,,,,,,,,,,,,,,,,,,,,,,,,,,,,,,,,,,,,,,,,,,,,,,,,,,,,,,,,,,,
,,?,0.000895,0,,,,,,stimuli/images/PICTURE_2.png,FLIGHT,5ee22888962eba660d273581,16/09/1991,2020-09-02_12h30.41.680,proactive3.2,2020.1.2,Win32,60,5f47c0b9b035471e11593a5c,5f4f8195d408d503a68ee210,3,,,,,,tyre,,,,,,,,,,,2,1,0,22,22,15,1,,,,,,,,,,,,,,,,,,,,,,,,,,,,,,,,,,,,,,,,,,,,,,,,,,,,,,,,,,,,,,,,,,,,,,
,,?,0.00104,0,,,,,,stimuli/images/PICTURE_383.png,SERIES,5ee22888962eba660d273581,16/09/1991,2020-09-02_12h30.41.680,proactive3.2,2020.1.2,Win32,60,5f47c0b9b035471e11593a5c,5f4f8195d408d503a68ee210,3,,,,,,coin,,,,,,,,,,,5,1,0,23,23,46,1,,,,,,,,,,,,,,,,,,,,,,,,,,,,,,,,,,,,,,,,,,,,,,,,,,,,,,,,,,,,,,,,,,,,,,
,,POLICY,2.897125,1,,,,,,stimuli/images/PICTURE_108.png,POLICY,5ee22888962eba660d273581,16/09/1991,2020-09-02_12h30.41.680,proactive3.2,2020.1.2,Win32,60,5f47c0b9b035471e11593a5c,5f4f8195d408d503a68ee210,3,,,,,,calendar,,,,,,,,,,,3,1,0,24,24,22,1,,,,,,,,,,,,,,,,,,,,,,,,,,,,,,,,,,,,,,,,,,,,,,,,,,,,,,,,,,,,,,,,,,,,,,
,,WRITER,2.54265,1,,,,,,stimuli/images/PICTURE_383.png,WRITER,5ee22888962eba660d273581,16/09/1991,2020-09-02_12h30.41.680,proactive3.2,2020.1.2,Win32,60,5f47c0b9b035471e11593a5c,5f4f8195d408d503a68ee210,3,,,,,,coin,,,,,,,,,,,3,1,0,25,25,28,1,,,,,,,,,,,,,,,,,,,,,,,,,,,,,,,,,,,,,,,,,,,,,,,,,,,,,,,,,,,,,,,,,,,,,,
,,?,0.00187,0,,,,,,stimuli/images/PICTURE_339.png,CLIENT,5ee22888962eba660d273581,16/09/1991,2020-09-02_12h30.41.680,proactive3.2,2020.1.2,Win32,60,5f47c0b9b035471e11593a5c,5f4f8195d408d503a68ee210,3,,,,,,backpack,,,,,,,,,,,2,1,0,26,26,11,1,,,,,,,,,,,,,,,,,,,,,,,,,,,,,,,,,,,,,,,,,,,,,,,,,,,,,,,,,,,,,,,,,,,,,,
,,?,0.00409,0,,,,,,stimuli/images/PICTURE_467.png,POLICY,5ee22888962eba660d273581,16/09/1991,2020-09-02_12h30.41.680,proactive3.2,2020.1.2,Win32,60,5f47c0b9b035471e11593a5c,5f4f8195d408d503a68ee210,3,,,,,,peg,,,,,,,,,,,6,1,0,27,27,53,1,,,,,,,,,,,,,,,,,,,,,,,,,,,,,,,,,,,,,,,,,,,,,,,,,,,,,,,,,,,,,,,,,,,,,,
,,?,0.001145,0,,,,,,stimuli/images/PICTURE_655.png,TOILET,5ee22888962eba660d273581,16/09/1991,2020-09-02_12h30.41.680,proactive3.2,2020.1.2,Win32,60,5f47c0b9b035471e11593a5c,5f4f8195d408d503a68ee210,3,,,,,,megaphone,,,,,,,,,,,2,1,0,28,28,12,1,,,,,,,,,,,,,,,,,,,,,,,,,,,,,,,,,,,,,,,,,,,,,,,,,,,,,,,,,,,,,,,,,,,,,,
,,?,0.00112,0,,,,,,stimuli/images/PICTURE_208.png,SYSTEM,5ee22888962eba660d273581,16/09/1991,2020-09-02_12h30.41.680,proactive3.2,2020.1.2,Win32,60,5f47c0b9b035471e11593a5c,5f4f8195d408d503a68ee210,3,,,,,,microphone,,,,,,,,,,,4,1,0,29,29,32,1,,,,,,,,,,,,,,,,,,,,,,,,,,,,,,,,,,,,,,,,,,,,,,,,,,,,,,,,,,,,,,,,,,,,,,
,,?,0.000945,0,,,,,,stimuli/images/PICTURE_403.png,WRITER,5ee22888962eba660d273581,16/09/1991,2020-09-02_12h30.41.680,proactive3.2,2020.1.2,Win32,60,5f47c0b9b035471e11593a5c,5f4f8195d408d503a68ee210,3,,,,,,cathedral,,,,,,,,,,,4,1,0,30,30,31,1,,,,,,,,,,,,,,,,,,,,,,,,,,,,,,,,,,,,,,,,,,,,,,,,,,,,,,,,,,,,,,,,,,,,,,
,,?,0.000895,0,,,,,,stimuli/images/PICTURE_297.png,RIVER,5ee22888962eba660d273581,16/09/1991,2020-09-02_12h30.41.680,proactive3.2,2020.1.2,Win32,60,5f47c0b9b035471e11593a5c,5f4f8195d408d503a68ee210,3,,,,,,aeroplane,,,,,,,,,,,4,1,0,31,31,39,1,,,,,,,,,,,,,,,,,,,,,,,,,,,,,,,,,,,,,,,,,,,,,,,,,,,,,,,,,,,,,,,,,,,,,,
,,?,0.00096,0,,,,,,stimuli/images/PICTURE_85.png,NATION,5ee22888962eba660d273581,16/09/1991,2020-09-02_12h30.41.680,proactive3.2,2020.1.2,Win32,60,5f47c0b9b035471e11593a5c,5f4f8195d408d503a68ee210,3,,,,,,diamond,,,,,,,,,,,1,1,0,32,32,5,1,,,,,,,,,,,,,,,,,,,,,,,,,,,,,,,,,,,,,,,,,,,,,,,,,,,,,,,,,,,,,,,,,,,,,,
,,PENCIL,10.11405,0,,,,,,stimuli/images/PICTURE_340.png,LETTER,5ee22888962eba660d273581,16/09/1991,2020-09-02_12h30.41.680,proactive3.2,2020.1.2,Win32,60,5f47c0b9b035471e11593a5c,5f4f8195d408d503a68ee210,3,,,,,,mirror,,,,,,,,,,,3,1,0,33,33,24,1,,,,,,,,,,,,,,,,,,,,,,,,,,,,,,,,,,,,,,,,,,,,,,,,,,,,,,,,,,,,,,,,,,,,,,
,,STABLE,10.353315,0,,,,,,stimuli/images/PICTURE_405.png,PLENTY,5ee22888962eba660d273581,16/09/1991,2020-09-02_12h30.41.680,proactive3.2,2020.1.2,Win32,60,5f47c0b9b035471e11593a5c,5f4f8195d408d503a68ee210,3,,,,,,anchor,,,,,,,,,,,3,1,0,34,34,23,1,,,,,,,,,,,,,,,,,,,,,,,,,,,,,,,,,,,,,,,,,,,,,,,,,,,,,,,,,,,,,,,,,,,,,,
,,?,0.00195,0,,,,,,stimuli/images/PICTURE_233.png,LOTS,5ee22888962eba660d273581,16/09/1991,2020-09-02_12h30.41.680,proactive3.2,2020.1.2,Win32,60,5f47c0b9b035471e11593a5c,5f4f8195d408d503a68ee210,3,,,,,,salt,,,,,,,,,,,5,1,0,35,35,42,1,,,,,,,,,,,,,,,,,,,,,,,,,,,,,,,,,,,,,,,,,,,,,,,,,,,,,,,,,,,,,,,,,,,,,,
,,?,0.00144,0,,,,,,stimuli/images/PICTURE_33.png,FRIEND,5ee22888962eba660d273581,16/09/1991,2020-09-02_12h30.41.680,proactive3.2,2020.1.2,Win32,60,5f47c0b9b035471e11593a5c,5f4f8195d408d503a68ee210,3,,,,,,frame,,,,,,,,,,,1,1,0,36,36,8,1,,,,,,,,,,,,,,,,,,,,,,,,,,,,,,,,,,,,,,,,,,,,,,,,,,,,,,,,,,,,,,,,,,,,,,
,,?,0.00118,0,,,,,,stimuli/images/PICTURE_203.png,NIGHT,5ee22888962eba660d273581,16/09/1991,2020-09-02_12h30.41.680,proactive3.2,2020.1.2,Win32,60,5f47c0b9b035471e11593a5c,5f4f8195d408d503a68ee210,3,,,,,,cap,,,,,,,,,,,1,1,0,37,37,2,1,,,,,,,,,,,,,,,,,,,,,,,,,,,,,,,,,,,,,,,,,,,,,,,,,,,,,,,,,,,,,,,,,,,,,,
,,?,0.00083,0,,,,,,stimuli/images/PICTURE_675.png,SALE,5ee22888962eba660d273581,16/09/1991,2020-09-02_12h30.41.680,proactive3.2,2020.1.2,Win32,60,5f47c0b9b035471e11593a5c,5f4f8195d408d503a68ee210,3,,,,,,windmill,,,,,,,,,,,5,1,0,38,38,47,1,,,,,,,,,,,,,,,,,,,,,,,,,,,,,,,,,,,,,,,,,,,,,,,,,,,,,,,,,,,,,,,,,,,,,,
,,?,0.00085,0,,,,,,stimuli/images/PICTURE_449.png,DUDE,5ee22888962eba660d273581,16/09/1991,2020-09-02_12h30.41.680,proactive3.2,2020.1.2,Win32,60,5f47c0b9b035471e11593a5c,5f4f8195d408d503a68ee210,3,,,,,,bench,,,,,,,,,,,2,1,0,39,39,17,1,,,,,,,,,,,,,,,,,,,,,,,,,,,,,,,,,,,,,,,,,,,,,,,,,,,,,,,,,,,,,,,,,,,,,,
,,?,0.00094,0,,,,,,stimuli/images/PICTURE_380.png,HONEY,5ee22888962eba660d273581,16/09/1991,2020-09-02_12h30.41.680,proactive3.2,2020.1.2,Win32,60,5f47c0b9b035471e11593a5c,5f4f8195d408d503a68ee210,3,,,,,,gorilla,,,,,,,,,,,2,1,0,40,40,19,1,,,,,,,,,,,,,,,,,,,,,,,,,,,,,,,,,,,,,,,,,,,,,,,,,,,,,,,,,,,,,,,,,,,,,,
,,?,0.0008,0,,,,,,stimuli/images/PICTURE_405.png,YEAR,5ee22888962eba660d273581,16/09/1991,2020-09-02_12h30.41.680,proactive3.2,2020.1.2,Win32,60,5f47c0b9b035471e11593a5c,5f4f8195d408d503a68ee210,3,,,,,,anchor,,,,,,,,,,,4,1,0,41,41,34,1,,,,,,,,,,,,,,,,,,,,,,,,,,,,,,,,,,,,,,,,,,,,,,,,,,,,,,,,,,,,,,,,,,,,,,
,,?,0.00082,0,,,,,,stimuli/images/PICTURE_296.png,LOTS,5ee22888962eba660d273581,16/09/1991,2020-09-02_12h30.41.680,proactive3.2,2020.1.2,Win32,60,5f47c0b9b035471e11593a5c,5f4f8195d408d503a68ee210,3,,,,,,bolt,,,,,,,,,,,1,1,0,42,42,9,1,,,,,,,,,,,,,,,,,,,,,,,,,,,,,,,,,,,,,,,,,,,,,,,,,,,,,,,,,,,,,,,,,,,,,,
,,YEAR,8.950625,0,,,,,,stimuli/images/PICTURE_654.png,MONTH,5ee22888962eba660d273581,16/09/1991,2020-09-02_12h30.41.680,proactive3.2,2020.1.2,Win32,60,5f47c0b9b035471e11593a5c,5f4f8195d408d503a68ee210,3,,,,,,pencil,,,,,,,,,,,3,1,0,43,43,29,1,,,,,,,,,,,,,,,,,,,,,,,,,,,,,,,,,,,,,,,,,,,,,,,,,,,,,,,,,,,,,,,,,,,,,,
,,?,0.00211,0,,,,,,stimuli/images/PICTURE_68.png,ROOF,5ee22888962eba660d273581,16/09/1991,2020-09-02_12h30.41.680,proactive3.2,2020.1.2,Win32,60,5f47c0b9b035471e11593a5c,5f4f8195d408d503a68ee210,3,,,,,,candle,,,,,,,,,,,4,1,0,44,44,38,1,,,,,,,,,,,,,,,,,,,,,,,,,,,,,,,,,,,,,,,,,,,,,,,,,,,,,,,,,,,,,,,,,,,,,,
,,?,0.001385,0,,,,,,stimuli/images/PICTURE_308.png,FAMILY,5ee22888962eba660d273581,16/09/1991,2020-09-02_12h30.41.680,proactive3.2,2020.1.2,Win32,60,5f47c0b9b035471e11593a5c,5f4f8195d408d503a68ee210,3,,,,,,dice,,,,,,,,,,,4,1,0,45,45,36,1,,,,,,,,,,,,,,,,,,,,,,,,,,,,,,,,,,,,,,,,,,,,,,,,,,,,,,,,,,,,,,,,,,,,,,
,,?,0.00084,0,,,,,,stimuli/images/PICTURE_108.png,FLIGHT,5ee22888962eba660d273581,16/09/1991,2020-09-02_12h30.41.680,proactive3.2,2020.1.2,Win32,60,5f47c0b9b035471e11593a5c,5f4f8195d408d503a68ee210,3,,,,,,calendar,,,,,,,,,,,6,1,0,46,46,59,1,,,,,,,,,,,,,,,,,,,,,,,,,,,,,,,,,,,,,,,,,,,,,,,,,,,,,,,,,,,,,,,,,,,,,,
,,BATH,2.30897,1,,,,,,stimuli/images/PICTURE_564.png,BATH,5ee22888962eba660d273581,16/09/1991,2020-09-02_12h30.41.680,proactive3.2,2020.1.2,Win32,60,5f47c0b9b035471e11593a5c,5f4f8195d408d503a68ee210,3,,,,,,spoon,,,,,,,,,,,3,1,0,47,47,26,1,,,,,,,,,,,,,,,,,,,,,,,,,,,,,,,,,,,,,,,,,,,,,,,,,,,,,,,,,,,,,,,,,,,,,,
,,?,0.003885,0,,,,,,stimuli/images/PICTURE_504.png,COPS,5ee22888962eba660d273581,16/09/1991,2020-09-02_12h30.41.680,proactive3.2,2020.1.2,Win32,60,5f47c0b9b035471e11593a5c,5f4f8195d408d503a68ee210,3,,,,,,wheel,,,,,,,,,,,6,1,0,48,48,52,1,,,,,,,,,,,,,,,,,,,,,,,,,,,,,,,,,,,,,,,,,,,,,,,,,,,,,,,,,,,,,,,,,,,,,,
,,?,0.00133,0,,,,,,stimuli/images/PICTURE_95.png,MILLER,5ee22888962eba660d273581,16/09/1991,2020-09-02_12h30.41.680,proactive3.2,2020.1.2,Win32,60,5f47c0b9b035471e11593a5c,5f4f8195d408d503a68ee210,3,,,,,,suitcase,,,,,,,,,,,6,1,0,49,49,56,1,,,,,,,,,,,,,,,,,,,,,,,,,,,,,,,,,,,,,,,,,,,,,,,,,,,,,,,,,,,,,,,,,,,,,,
,,?,0.000975,0,,,,,,stimuli/images/PICTURE_504.png,ARTIST,5ee22888962eba660d273581,16/09/1991,2020-09-02_12h30.41.680,proactive3.2,2020.1.2,Win32,60,5f47c0b9b035471e11593a5c,5f4f8195d408d503a68ee210,3,,,,,,wheel,,,,,,,,,,,5,1,0,50,50,49,1,,,,,,,,,,,,,,,,,,,,,,,,,,,,,,,,,,,,,,,,,,,,,,,,,,,,,,,,,,,,,,,,,,,,,,
,,?,0.000875,0,,,,,,stimuli/images/PICTURE_491.png,RIVER,5ee22888962eba660d273581,16/09/1991,2020-09-02_12h30.41.680,proactive3.2,2020.1.2,Win32,60,5f47c0b9b035471e11593a5c,5f4f8195d408d503a68ee210,3,,,,,,rug,,,,,,,,,,,1,1,0,51,51,6,1,,,,,,,,,,,,,,,,,,,,,,,,,,,,,,,,,,,,,,,,,,,,,,,,,,,,,,,,,,,,,,,,,,,,,,
,,?,0.00079,0,,,,,,stimuli/images/PICTURE_685.png,PENNY,5ee22888962eba660d273581,16/09/1991,2020-09-02_12h30.41.680,proactive3.2,2020.1.2,Win32,60,5f47c0b9b035471e11593a5c,5f4f8195d408d503a68ee210,3,,,,,,goose,,,,,,,,,,,1,1,0,52,52,4,1,,,,,,,,,,,,,,,,,,,,,,,,,,,,,,,,,,,,,,,,,,,,,,,,,,,,,,,,,,,,,,,,,,,,,,
,,?,0.000905,0,,,,,,stimuli/images/PICTURE_340.png,VALLEY,5ee22888962eba660d273581,16/09/1991,2020-09-02_12h30.41.680,proactive3.2,2020.1.2,Win32,60,5f47c0b9b035471e11593a5c,5f4f8195d408d503a68ee210,3,,,,,,mirror,,,,,,,,,,,6,1,0,53,53,54,1,,,,,,,,,,,,,,,,,,,,,,,,,,,,,,,,,,,,,,,,,,,,,,,,,,,,,,,,,,,,,,,,,,,,,,
,,?,0.00101,0,,,,,,stimuli/images/PICTURE_32.png,PILLS,5ee22888962eba660d273581,16/09/1991,2020-09-02_12h30.41.680,proactive3.2,2020.1.2,Win32,60,5f47c0b9b035471e11593a5c,5f4f8195d408d503a68ee210,3,,,,,,crown,,,,,,,,,,,2,1,0,54,54,18,1,,,,,,,,,,,,,,,,,,,,,,,,,,,,,,,,,,,,,,,,,,,,,,,,,,,,,,,,,,,,,,,,,,,,,,
,,?,0.003505,0,,,,,,stimuli/images/PICTURE_85.png,TOILET,5ee22888962eba660d273581,16/09/1991,2020-09-02_12h30.41.680,proactive3.2,2020.1.2,Win32,60,5f47c0b9b035471e11593a5c,5f4f8195d408d503a68ee210,3,,,,,,diamond,,,,,,,,,,,5,1,0,55,55,48,1,,,,,,,,,,,,,,,,,,,,,,,,,,,,,,,,,,,,,,,,,,,,,,,,,,,,,,,,,,,,,,,,,,,,,,
,,?,0.00083,0,,,,,,stimuli/images/PICTURE_380.png,CANDY,5ee22888962eba660d273581,16/09/1991,2020-09-02_12h30.41.680,proactive3.2,2020.1.2,Win32,60,5f47c0b9b035471e11593a5c,5f4f8195d408d503a68ee210,3,,,,,,gorilla,,,,,,,,,,,1,1,0,56,56,0,1,,,,,,,,,,,,,,,,,,,,,,,,,,,,,,,,,,,,,,,,,,,,,,,,,,,,,,,,,,,,,,,,,,,,,,
,,?,0.000805,0,,,,,,stimuli/images/PICTURE_403.png,RIVER,5ee22888962eba660d273581,16/09/1991,2020-09-02_12h30.41.680,proactive3.2,2020.1.2,Win32,60,5f47c0b9b035471e11593a5c,5f4f8195d408d503a68ee210,3,,,,,,cathedral,,,,,,,,,,,5,1,0,57,57,40,1,,,,,,,,,,,,,,,,,,,,,,,,,,,,,,,,,,,,,,,,,,,,,,,,,,,,,,,,,,,,,,,,,,,,,,
,,?,0.00079,0,,,,,,stimuli/images/PICTURE_744.png,WEAPON,5ee22888962eba660d273581,16/09/1991,2020-09-02_12h30.41.680,proactive3.2,2020.1.2,Win32,60,5f47c0b9b035471e11593a5c,5f4f8195d408d503a68ee210,3,,,,,,ring,,,,,,,,,,,6,1,0,58,58,50,1,,,,,,,,,,,,,,,,,,,,,,,,,,,,,,,,,,,,,,,,,,,,,,,,,,,,,,,,,,,,,,,,,,,,,,
,,?,0.000885,0,,,,,,stimuli/images/PICTURE_95.png,HONEY,5ee22888962eba660d273581,16/09/1991,2020-09-02_12h30.41.680,proactive3.2,2020.1.2,Win32,60,5f47c0b9b035471e11593a5c,5f4f8195d408d503a68ee210,3,,,,,,suitcase,,,,,,,,,,,5,1,0,59,59,44,1,,,,,,,,,,,,,,,,,,,,,,,,,,,,,,,,,,,,,,,,,,,,,,,,,,,,,,,,,,,,,,,,,,,,,,
,,,,,,,,,,,,5ee22888962eba660d273581,16/09/1991,2020-09-02_12h30.41.680,proactive3.2,2020.1.2,Win32,60,5f47c0b9b035471e11593a5c,5f4f8195d408d503a68ee210,3,,,,,,,,,,,,,,,,,,,,,,,,0,0,0,1,1,stimuli/learn-block2.csv,,,,,,,,,,,,,,,,,,,,,,,,,,,,,,,,,,,,,,,,,,,,,,,,,,,,,,,,,,,,,,,,
,,,,,,,,,,stimuli/images/PICTURE_677.png,FAMILY,5ee22888962eba660d273581,16/09/1991,2020-09-02_12h30.41.680,proactive3.2,2020.1.2,Win32,60,5f47c0b9b035471e11593a5c,5f4f8195d408d503a68ee210,3,,,,,,map,,,,,,0,0,0,53,1,6,2,,,,,,,,,,,,,,,,,,,,,,,,,,,,,,,,,,,,,,,,,,,,,,,,,,,,,,,,,,,,,,,,,,,,,,,,,,,
,,,,,,,,,,stimuli/images/PICTURE_688.png,CLOCK,5ee22888962eba660d273581,16/09/1991,2020-09-02_12h30.41.680,proactive3.2,2020.1.2,Win32,60,5f47c0b9b035471e11593a5c,5f4f8195d408d503a68ee210,3,,,,,,runner,,,,,,0,1,1,42,1,5,2,,,,,,,,,,,,,,,,,,,,,,,,,,,,,,,,,,,,,,,,,,,,,,,,,,,,,,,,,,,,,,,,,,,,,,,,,,,
,,,,,,,,,,stimuli/images/PICTURE_68.png,KIND,5ee22888962eba660d273581,16/09/1991,2020-09-02_12h30.41.680,proactive3.2,2020.1.2,Win32,60,5f47c0b9b035471e11593a5c,5f4f8195d408d503a68ee210,3,,,,,,candle,,,,,,0,2,2,23,1,3,2,,,,,,,,,,,,,,,,,,,,,,,,,,,,,,,,,,,,,,,,,,,,,,,,,,,,,,,,,,,,,,,,,,,,,,,,,,,
,,,,,,,,,,stimuli/images/PICTURE_509.png,MILLER,5ee22888962eba660d273581,16/09/1991,2020-09-02_12h30.41.680,proactive3.2,2020.1.2,Win32,60,5f47c0b9b035471e11593a5c,5f4f8195d408d503a68ee210,3,,,,,,telephone,,,,,,0,3,3,49,1,5,2,,,,,,,,,,,,,,,,,,,,,,,,,,,,,,,,,,,,,,,,,,,,,,,,,,,,,,,,,,,,,,,,,,,,,,,,,,,
,,,,,,,,,,stimuli/images/PICTURE_93.png,GIRL,5ee22888962eba660d273581,16/09/1991,2020-09-02_12h30.41.680,proactive3.2,2020.1.2,Win32,60,5f47c0b9b035471e11593a5c,5f4f8195d408d503a68ee210,3,,,,,,skateboard,,,,,,0,4,4,31,1,4,2,,,,,,,,,,,,,,,,,,,,,,,,,,,,,,,,,,,,,,,,,,,,,,,,,,,,,,,,,,,,,,,,,,,,,,,,,,,
,,,,,,,,,,stimuli/images/PICTURE_654.png,YEAR,5ee22888962eba660d273581,16/09/1991,2020-09-02_12h30.41.680,proactive3.2,2020.1.2,Win32,60,5f47c0b9b035471e11593a5c,5f4f8195d408d503a68ee210,3,,,,,,pencil,,,,,,0,5,5,41,1,5,2,,,,,,,,,,,,,,,,,,,,,,,,,,,,,,,,,,,,,,,,,,,,,,,,,,,,,,,,,,,,,,,,,,,,,,,,,,,
,,,,,,,,,,stimuli/images/PICTURE_470.png,BEAUTY,5ee22888962eba660d273581,16/09/1991,2020-09-02_12h30.41.680,proactive3.2,2020.1.2,Win32,60,5f47c0b9b035471e11593a5c,5f4f8195d408d503a68ee210,3,,,,,,motorbike,,,,,,0,6,6,26,1,3,2,,,,,,,,,,,,,,,,,,,,,,,,,,,,,,,,,,,,,,,,,,,,,,,,,,,,,,,,,,,,,,,,,,,,,,,,,,,
,,,,,,,,,,stimuli/images/PICTURE_692.png,DUDE,5ee22888962eba660d273581,16/09/1991,2020-09-02_12h30.41.680,proactive3.2,2020.1.2,Win32,60,5f47c0b9b035471e11593a5c,5f4f8195d408d503a68ee210,3,,,,,,cherry,,,,,,0,7,7,47,1,5,2,,,,,,,,,,,,,,,,,,,,,,,,,,,,,,,,,,,,,,,,,,,,,,,,,,,,,,,,,,,,,,,,,,,,,,,,,,,
,,,,,,,,,,stimuli/images/PICTURE_487.png,POLICY,5ee22888962eba660d273581,16/09/1991,2020-09-02_12h30.41.680,proactive3.2,2020.1.2,Win32,60,5f47c0b9b035471e11593a5c,5f4f8195d408d503a68ee210,3,,,,,,basket,,,,,,0,8,8,34,1,4,2,,,,,,,,,,,,,,,,,,,,,,,,,,,,,,,,,,,,,,,,,,,,,,,,,,,,,,,,,,,,,,,,,,,,,,,,,,,
,,,,,,,,,,stimuli/images/PICTURE_2.png,YARD,5ee22888962eba660d273581,16/09/1991,2020-09-02_12h30.41.680,proactive3.2,2020.1.2,Win32,60,5f47c0b9b035471e11593a5c,5f4f8195d408d503a68ee210,3,,,,,,tyre,,,,,,0,9,9,55,1,6,2,,,,,,,,,,,,,,,,,,,,,,,,,,,,,,,,,,,,,,,,,,,,,,,,,,,,,,,,,,,,,,,,,,,,,,,,,,,
,,,,,,,,,,stimuli/images/PICTURE_160.png,HOTEL,5ee22888962eba660d273581,16/09/1991,2020-09-02_12h30.41.680,proactive3.2,2020.1.2,Win32,60,5f47c0b9b035471e11593a5c,5f4f8195d408d503a68ee210,3,,,,,,wheelbarrow,,,,,,0,10,10,16,1,2,2,,,,,,,,,,,,,,,,,,,,,,,,,,,,,,,,,,,,,,,,,,,,,,,,,,,,,,,,,,,,,,,,,,,,,,,,,,,
,,,,,,,,,,stimuli/images/PICTURE_297.png,BODY,5ee22888962eba660d273581,16/09/1991,2020-09-02_12h30.41.680,proactive3.2,2020.1.2,Win32,60,5f47c0b9b035471e11593a5c,5f4f8195d408d503a68ee210,3,,,,,,aeroplane,,,,,,0,11,11,51,1,6,2,,,,,,,,,,,,,,,,,,,,,,,,,,,,,,,,,,,,,,,,,,,,,,,,,,,,,,,,,,,,,,,,,,,,,,,,,,,
,,,,,,,,,,stimuli/images/PICTURE_655.png,SALE,5ee22888962eba660d273581,16/09/1991,2020-09-02_12h30.41.680,proactive3.2,2020.1.2,Win32,60,5f47c0b9b035471e11593a5c,5f4f8195d408d503a68ee210,3,,,,,,megaphone,,,,,,0,12,12,57,1,6,2,,,,,,,,,,,,,,,,,,,,,,,,,,,,,,,,,,,,,,,,,,,,,,,,,,,,,,,,,,,,,,,,,,,,,,,,,,,
,,,,,,,,,,stimuli/images/PICTURE_33.png,COPS,5ee22888962eba660d273581,16/09/1991,2020-09-02_12h30.41.680,proactive3.2,2020.1.2,Win32,60,5f47c0b9b035471e11593a5c,5f4f8195d408d503a68ee210,3,,,,,,frame,,,,,,0,13,13,29,1,3,2,,,,,,,,,,,,,,,,,,,,,,,,,,,,,,,,,,,,,,,,,,,,,,,,,,,,,,,,,,,,,,,,,,,,,,,,,,,
,,,,,,,,,,stimuli/images/PICTURE_215.png,LEADER,5ee22888962eba660d273581,16/09/1991,2020-09-02_12h30.41.680,proactive3.2,2020.1.2,Win32,60,5f47c0b9b035471e11593a5c,5f4f8195d408d503a68ee210,3,,,,,,boot,,,,,,0,14,14,43,1,5,2,,,,,,,,,,,,,,,,,,,,,,,,,,,,,,,,,,,,,,,,,,,,,,,,,,,,,,,,,,,,,,,,,,,,,,,,,,,
,,,,,,,,,,stimuli/images/PICTURE_215.png,BOYS,5ee22888962eba660d273581,16/09/1991,2020-09-02_12h30.41.680,proactive3.2,2020.1.2,Win32,60,5f47c0b9b035471e11593a5c,5f4f8195d408d503a68ee210,3,,,,,,boot,,,,,,0,15,15,24,1,3,2,,,,,,,,,,,,,,,,,,,,,,,,,,,,,,,,,,,,,,,,,,,,,,,,,,,,,,,,,,,,,,,,,,,,,,,,,,,
,,,,,,,,,,stimuli/images/PICTURE_654.png,COPS,5ee22888962eba660d273581,16/09/1991,2020-09-02_12h30.41.680,proactive3.2,2020.1.2,Win32,60,5f47c0b9b035471e11593a5c,5f4f8195d408d503a68ee210,3,,,,,,pencil,,,,,,0,16,16,10,1,2,2,,,,,,,,,,,,,,,,,,,,,,,,,,,,,,,,,,,,,,,,,,,,,,,,,,,,,,,,,,,,,,,,,,,,,,,,,,,
,,,,,,,,,,stimuli/images/PICTURE_314.png,SPEECH,5ee22888962eba660d273581,16/09/1991,2020-09-02_12h30.41.680,proactive3.2,2020.1.2,Win32,60,5f47c0b9b035471e11593a5c,5f4f8195d408d503a68ee210,3,,,,,,perfume,,,,,,0,17,17,35,1,4,2,,,,,,,,,,,,,,,,,,,,,,,,,,,,,,,,,,,,,,,,,,,,,,,,,,,,,,,,,,,,,,,,,,,,,,,,,,,
,,,,,,,,,,stimuli/images/PICTURE_215.png,FOOD,5ee22888962eba660d273581,16/09/1991,2020-09-02_12h30.41.680,proactive3.2,2020.1.2,Win32,60,5f47c0b9b035471e11593a5c,5f4f8195d408d503a68ee210,3,,,,,,boot,,,,,,0,18,18,5,1,1,2,,,,,,,,,,,,,,,,,,,,,,,,,,,,,,,,,,,,,,,,,,,,,,,,,,,,,,,,,,,,,,,,,,,,,,,,,,,
,,,,,,,,,,stimuli/images/PICTURE_348.png,DUDE,5ee22888962eba660d273581,16/09/1991,2020-09-02_12h30.41.680,proactive3.2,2020.1.2,Win32,60,5f47c0b9b035471e11593a5c,5f4f8195d408d503a68ee210,3,,,,,,pepper,,,,,,0,19,19,59,1,6,2,,,,,,,,,,,,,,,,,,,,,,,,,,,,,,,,,,,,,,,,,,,,,,,,,,,,,,,,,,,,,,,,,,,,,,,,,,,
,,,,,,,,,,stimuli/images/PICTURE_208.png,SPIRIT,5ee22888962eba660d273581,16/09/1991,2020-09-02_12h30.41.680,proactive3.2,2020.1.2,Win32,60,5f47c0b9b035471e11593a5c,5f4f8195d408d503a68ee210,3,,,,,,microphone,,,,,,0,20,20,28,1,3,2,,,,,,,,,,,,,,,,,,,,,,,,,,,,,,,,,,,,,,,,,,,,,,,,,,,,,,,,,,,,,,,,,,,,,,,,,,,
,,,,,,,,,,stimuli/images/PICTURE_177.png,HOUSE,5ee22888962eba660d273581,16/09/1991,2020-09-02_12h30.41.680,proactive3.2,2020.1.2,Win32,60,5f47c0b9b035471e11593a5c,5f4f8195d408d503a68ee210,3,,,,,,mushroom,,,,,,0,21,21,25,1,3,2,,,,,,,,,,,,,,,,,,,,,,,,,,,,,,,,,,,,,,,,,,,,,,,,,,,,,,,,,,,,,,,,,,,,,,,,,,,
,,,,,,,,,,stimuli/images/PICTURE_348.png,TOILET,5ee22888962eba660d273581,16/09/1991,2020-09-02_12h30.41.680,proactive3.2,2020.1.2,Win32,60,5f47c0b9b035471e11593a5c,5f4f8195d408d503a68ee210,3,,,,,,pepper,,,,,,0,22,22,4,1,1,2,,,,,,,,,,,,,,,,,,,,,,,,,,,,,,,,,,,,,,,,,,,,,,,,,,,,,,,,,,,,,,,,,,,,,,,,,,,
,,,,,,,,,,stimuli/images/PICTURE_285.png,WRITER,5ee22888962eba660d273581,16/09/1991,2020-09-02_12h30.41.680,proactive3.2,2020.1.2,Win32,60,5f47c0b9b035471e11593a5c,5f4f8195d408d503a68ee210,3,,,,,,carrot,,,,,,0,23,23,6,1,1,2,,,,,,,,,,,,,,,,,,,,,,,,,,,,,,,,,,,,,,,,,,,,,,,,,,,,,,,,,,,,,,,,,,,,,,,,,,,
,,,,,,,,,,stimuli/images/PICTURE_405.png,JUNGLE,5ee22888962eba660d273581,16/09/1991,2020-09-02_12h30.41.680,proactive3.2,2020.1.2,Win32,60,5f47c0b9b035471e11593a5c,5f4f8195d408d503a68ee210,3,,,,,,anchor,,,,,,0,24,24,58,1,6,2,,,,,,,,,,,,,,,,,,,,,,,,,,,,,,,,,,,,,,,,,,,,,,,,,,,,,,,,,,,,,,,,,,,,,,,,,,,
,,,,,,,,,,stimuli/images/PICTURE_285.png,PRINCE,5ee22888962eba660d273581,16/09/1991,2020-09-02_12h30.41.680,proactive3.2,2020.1.2,Win32,60,5f47c0b9b035471e11593a5c,5f4f8195d408d503a68ee210,3,,,,,,carrot,,,,,,0,25,25,20,1,3,2,,,,,,,,,,,,,,,,,,,,,,,,,,,,,,,,,,,,,,,,,,,,,,,,,,,,,,,,,,,,,,,,,,,,,,,,,,,
,,,,,,,,,,stimuli/images/PICTURE_147.png,LEADER,5ee22888962eba660d273581,16/09/1991,2020-09-02_12h30.41.680,proactive3.2,2020.1.2,Win32,60,5f47c0b9b035471e11593a5c,5f4f8195d408d503a68ee210,3,,,,,,hanger,,,,,,0,26,26,33,1,4,2,,,,,,,,,,,,,,,,,,,,,,,,,,,,,,,,,,,,,,,,,,,,,,,,,,,,,,,,,,,,,,,,,,,,,,,,,,,
,,,,,,,,,,stimuli/images/PICTURE_491.png,SERIES,5ee22888962eba660d273581,16/09/1991,2020-09-02_12h30.41.680,proactive3.2,2020.1.2,Win32,60,5f47c0b9b035471e11593a5c,5f4f8195d408d503a68ee210,3,,,,,,rug,,,,,,0,27,27,39,1,4,2,,,,,,,,,,,,,,,,,,,,,,,,,,,,,,,,,,,,,,,,,,,,,,,,,,,,,,,,,,,,,,,,,,,,,,,,,,,
,,,,,,,,,,stimuli/images/PICTURE_509.png,APPLE,5ee22888962eba660d273581,16/09/1991,2020-09-02_12h30.41.680,proactive3.2,2020.1.2,Win32,60,5f47c0b9b035471e11593a5c,5f4f8195d408d503a68ee210,3,,,,,,telephone,,,,,,0,28,28,38,1,4,2,,,,,,,,,,,,,,,,,,,,,,,,,,,,,,,,,,,,,,,,,,,,,,,,,,,,,,,,,,,,,,,,,,,,,,,,,,,
,,,,,,,,,,stimuli/images/PICTURE_311.png,TOILET,5ee22888962eba660d273581,16/09/1991,2020-09-02_12h30.41.680,proactive3.2,2020.1.2,Win32,60,5f47c0b9b035471e11593a5c,5f4f8195d408d503a68ee210,3,,,,,,razor,,,,,,0,29,29,54,1,6,2,,,,,,,,,,,,,,,,,,,,,,,,,,,,,,,,,,,,,,,,,,,,,,,,,,,,,,,,,,,,,,,,,,,,,,,,,,,
,,,,,,,,,,stimuli/images/PICTURE_453.png,FAMILY,5ee22888962eba660d273581,16/09/1991,2020-09-02_12h30.41.680,proactive3.2,2020.1.2,Win32,60,5f47c0b9b035471e11593a5c,5f4f8195d408d503a68ee210,3,,,,,,scissors,,,,,,0,30,30,48,1,5,2,,,,,,,,,,,,,,,,,,,,,,,,,,,,,,,,,,,,,,,,,,,,,,,,,,,,,,,,,,,,,,,,,,,,,,,,,,,
,,,,,,,,,,stimuli/images/PICTURE_470.png,MOMENT,5ee22888962eba660d273581,16/09/1991,2020-09-02_12h30.41.680,proactive3.2,2020.1.2,Win32,60,5f47c0b9b035471e11593a5c,5f4f8195d408d503a68ee210,3,,,,,,motorbike,,,,,,0,31,31,40,1,5,2,,,,,,,,,,,,,,,,,,,,,,,,,,,,,,,,,,,,,,,,,,,,,,,,,,,,,,,,,,,,,,,,,,,,,,,,,,,
,,,,,,,,,,stimuli/images/PICTURE_57.png,NATION,5ee22888962eba660d273581,16/09/1991,2020-09-02_12h30.41.680,proactive3.2,2020.1.2,Win32,60,5f47c0b9b035471e11593a5c,5f4f8195d408d503a68ee210,3,,,,,,stamp,,,,,,0,32,32,21,1,3,2,,,,,,,,,,,,,,,,,,,,,,,,,,,,,,,,,,,,,,,,,,,,,,,,,,,,,,,,,,,,,,,,,,,,,,,,,,,
,,,,,,,,,,stimuli/images/PICTURE_327.png,LEADER,5ee22888962eba660d273581,16/09/1991,2020-09-02_12h30.41.680,proactive3.2,2020.1.2,Win32,60,5f47c0b9b035471e11593a5c,5f4f8195d408d503a68ee210,3,,,,,,helmet,,,,,,0,33,33,17,1,2,2,,,,,,,,,,,,,,,,,,,,,,,,,,,,,,,,,,,,,,,,,,,,,,,,,,,,,,,,,,,,,,,,,,,,,,,,,,,
,,,,,,,,,,stimuli/images/PICTURE_403.png,FAMILY,5ee22888962eba660d273581,16/09/1991,2020-09-02_12h30.41.680,proactive3.2,2020.1.2,Win32,60,5f47c0b9b035471e11593a5c,5f4f8195d408d503a68ee210,3,,,,,,cathedral,,,,,,0,34,34,9,1,1,2,,,,,,,,,,,,,,,,,,,,,,,,,,,,,,,,,,,,,,,,,,,,,,,,,,,,,,,,,,,,,,,,,,,,,,,,,,,
,,,,,,,,,,stimuli/images/PICTURE_296.png,CLOCK,5ee22888962eba660d273581,16/09/1991,2020-09-02_12h30.41.680,proactive3.2,2020.1.2,Win32,60,5f47c0b9b035471e11593a5c,5f4f8195d408d503a68ee210,3,,,,,,bolt,,,,,,0,35,35,18,1,2,2,,,,,,,,,,,,,,,,,,,,,,,,,,,,,,,,,,,,,,,,,,,,,,,,,,,,,,,,,,,,,,,,,,,,,,,,,,,
,,,,,,,,,,stimuli/images/PICTURE_564.png,PLENTY,5ee22888962eba660d273581,16/09/1991,2020-09-02_12h30.41.680,proactive3.2,2020.1.2,Win32,60,5f47c0b9b035471e11593a5c,5f4f8195d408d503a68ee210,3,,,,,,spoon,,,,,,0,36,36,11,1,2,2,,,,,,,,,,,,,,,,,,,,,,,,,,,,,,,,,,,,,,,,,,,,,,,,,,,,,,,,,,,,,,,,,,,,,,,,,,,
,,,,,,,,,,stimuli/images/PICTURE_18.png,RIVER,5ee22888962eba660d273581,16/09/1991,2020-09-02_12h30.41.680,proactive3.2,2020.1.2,Win32,60,5f47c0b9b035471e11593a5c,5f4f8195d408d503a68ee210,3,,,,,,planet,,,,,,0,37,37,22,1,3,2,,,,,,,,,,,,,,,,,,,,,,,,,,,,,,,,,,,,,,,,,,,,,,,,,,,,,,,,,,,,,,,,,,,,,,,,,,,
,,,,,,,,,,stimuli/images/PICTURE_405.png,HOUSE,5ee22888962eba660d273581,16/09/1991,2020-09-02_12h30.41.680,proactive3.2,2020.1.2,Win32,60,5f47c0b9b035471e11593a5c,5f4f8195d408d503a68ee210,3,,,,,,anchor,,,,,,0,38,38,2,1,1,2,,,,,,,,,,,,,,,,,,,,,,,,,,,,,,,,,,,,,,,,,,,,,,,,,,,,,,,,,,,,,,,,,,,,,,,,,,,
,,,,,,,,,,stimuli/images/PICTURE_504.png,HOUSE,5ee22888962eba660d273581,16/09/1991,2020-09-02_12h30.41.680,proactive3.2,2020.1.2,Win32,60,5f47c0b9b035471e11593a5c,5f4f8195d408d503a68ee210,3,,,,,,wheel,,,,,,0,39,39,36,1,4,2,,,,,,,,,,,,,,,,,,,,,,,,,,,,,,,,,,,,,,,,,,,,,,,,,,,,,,,,,,,,,,,,,,,,,,,,,,,
,,,,,,,,,,stimuli/images/PICTURE_123.png,SALE,5ee22888962eba660d273581,16/09/1991,2020-09-02_12h30.41.680,proactive3.2,2020.1.2,Win32,60,5f47c0b9b035471e11593a5c,5f4f8195d408d503a68ee210,3,,,,,,dart,,,,,,0,40,40,8,1,1,2,,,,,,,,,,,,,,,,,,,,,,,,,,,,,,,,,,,,,,,,,,,,,,,,,,,,,,,,,,,,,,,,,,,,,,,,,,,
,,,,,,,,,,stimuli/images/PICTURE_750.png,POLICY,5ee22888962eba660d273581,16/09/1991,2020-09-02_12h30.41.680,proactive3.2,2020.1.2,Win32,60,5f47c0b9b035471e11593a5c,5f4f8195d408d503a68ee210,3,,,,,,kettle,,,,,,0,41,41,44,1,5,2,,,,,,,,,,,,,,,,,,,,,,,,,,,,,,,,,,,,,,,,,,,,,,,,,,,,,,,,,,,,,,,,,,,,,,,,,,,
,,,,,,,,,,stimuli/images/PICTURE_509.png,BATH,5ee22888962eba660d273581,16/09/1991,2020-09-02_12h30.41.680,proactive3.2,2020.1.2,Win32,60,5f47c0b9b035471e11593a5c,5f4f8195d408d503a68ee210,3,,,,,,telephone,,,,,,0,42,42,15,1,2,2,,,,,,,,,,,,,,,,,,,,,,,,,,,,,,,,,,,,,,,,,,,,,,,,,,,,,,,,,,,,,,,,,,,,,,,,,,,
,,,,,,,,,,stimuli/images/PICTURE_32.png,LETTER,5ee22888962eba660d273581,16/09/1991,2020-09-02_12h30.41.680,proactive3.2,2020.1.2,Win32,60,5f47c0b9b035471e11593a5c,5f4f8195d408d503a68ee210,3,,,,,,crown,,,,,,0,43,43,56,1,6,2,,,,,,,,,,,,,,,,,,,,,,,,,,,,,,,,,,,,,,,,,,,,,,,,,,,,,,,,,,,,,,,,,,,,,,,,,,,
,,,,,,,,,,stimuli/images/PICTURE_95.png,NIGHT,5ee22888962eba660d273581,16/09/1991,2020-09-02_12h30.41.680,proactive3.2,2020.1.2,Win32,60,5f47c0b9b035471e11593a5c,5f4f8195d408d503a68ee210,3,,,,,,suitcase,,,,,,0,44,44,37,1,4,2,,,,,,,,,,,,,,,,,,,,,,,,,,,,,,,,,,,,,,,,,,,,,,,,,,,,,,,,,,,,,,,,,,,,,,,,,,,
,,,,,,,,,,stimuli/images/PICTURE_57.png,CASINO,5ee22888962eba660d273581,16/09/1991,2020-09-02_12h30.41.680,proactive3.2,2020.1.2,Win32,60,5f47c0b9b035471e11593a5c,5f4f8195d408d503a68ee210,3,,,,,,stamp,,,,,,0,45,45,12,1,2,2,,,,,,,,,,,,,,,,,,,,,,,,,,,,,,,,,,,,,,,,,,,,,,,,,,,,,,,,,,,,,,,,,,,,,,,,,,,
,,,,,,,,,,stimuli/images/PICTURE_405.png,JUNGLE,5ee22888962eba660d273581,16/09/1991,2020-09-02_12h30.41.680,proactive3.2,2020.1.2,Win32,60,5f47c0b9b035471e11593a5c,5f4f8195d408d503a68ee210,3,,,,,,anchor,,,,,,0,46,46,13,1,2,2,,,,,,,,,,,,,,,,,,,,,,,,,,,,,,,,,,,,,,,,,,,,,,,,,,,,,,,,,,,,,,,,,,,,,,,,,,,
,,,,,,,,,,stimuli/images/PICTURE_356.png,CANDY,5ee22888962eba660d273581,16/09/1991,2020-09-02_12h30.41.680,proactive3.2,2020.1.2,Win32,60,5f47c0b9b035471e11593a5c,5f4f8195d408d503a68ee210,3,,,,,,pawn,,,,,,0,47,47,46,1,5,2,,,,,,,,,,,,,,,,,,,,,,,,,,,,,,,,,,,,,,,,,,,,,,,,,,,,,,,,,,,,,,,,,,,,,,,,,,,
,,,,,,,,,,stimuli/images/PICTURE_667.png,GLASS,5ee22888962eba660d273581,16/09/1991,2020-09-02_12h30.41.680,proactive3.2,2020.1.2,Win32,60,5f47c0b9b035471e11593a5c,5f4f8195d408d503a68ee210,3,,,,,,daisy,,,,,,0,48,48,27,1,3,2,,,,,,,,,,,,,,,,,,,,,,,,,,,,,,,,,,,,,,,,,,,,,,,,,,,,,,,,,,,,,,,,,,,,,,,,,,,
,,,,,,,,,,stimuli/images/PICTURE_141.png,CLIENT,5ee22888962eba660d273581,16/09/1991,2020-09-02_12h30.41.680,proactive3.2,2020.1.2,Win32,60,5f47c0b9b035471e11593a5c,5f4f8195d408d503a68ee210,3,,,,,,sunflower,,,,,,0,49,49,30,1,4,2,,,,,,,,,,,,,,,,,,,,,,,,,,,,,,,,,,,,,,,,,,,,,,,,,,,,,,,,,,,,,,,,,,,,,,,,,,,
,,,,,,,,,,stimuli/images/PICTURE_2.png,AREA,5ee22888962eba660d273581,16/09/1991,2020-09-02_12h30.41.680,proactive3.2,2020.1.2,Win32,60,5f47c0b9b035471e11593a5c,5f4f8195d408d503a68ee210,3,,,,,,tyre,,,,,,0,50,50,32,1,4,2,,,,,,,,,,,,,,,,,,,,,,,,,,,,,,,,,,,,,,,,,,,,,,,,,,,,,,,,,,,,,,,,,,,,,,,,,,,
,,,,,,,,,,stimuli/images/PICTURE_255.png,PENNY,5ee22888962eba660d273581,16/09/1991,2020-09-02_12h30.41.680,proactive3.2,2020.1.2,Win32,60,5f47c0b9b035471e11593a5c,5f4f8195d408d503a68ee210,3,,,,,,shovel,,,,,,0,51,51,19,1,2,2,,,,,,,,,,,,,,,,,,,,,,,,,,,,,,,,,,,,,,,,,,,,,,,,,,,,,,,,,,,,,,,,,,,,,,,,,,,
,,,,,,,,,,stimuli/images/PICTURE_452.png,COPS,5ee22888962eba660d273581,16/09/1991,2020-09-02_12h30.41.680,proactive3.2,2020.1.2,Win32,60,5f47c0b9b035471e11593a5c,5f4f8195d408d503a68ee210,3,,,,,,watch,,,,,,0,52,52,0,1,1,2,,,,,,,,,,,,,,,,,,,,,,,,,,,,,,,,,,,,,,,,,,,,,,,,,,,,,,,,,,,,,,,,,,,,,,,,,,,
,,,,,,,,,,stimuli/images/PICTURE_57.png,CANDY,5ee22888962eba660d273581,16/09/1991,2020-09-02_12h30.41.680,proactive3.2,2020.1.2,Win32,60,5f47c0b9b035471e11593a5c,5f4f8195d408d503a68ee210,3,,,,,,stamp,,,,,,0,53,53,52,1,6,2,,,,,,,,,,,,,,,,,,,,,,,,,,,,,,,,,,,,,,,,,,,,,,,,,,,,,,,,,,,,,,,,,,,,,,,,,,,
,,,,,,,,,,stimuli/images/PICTURE_487.png,ROOF,5ee22888962eba660d273581,16/09/1991,2020-09-02_12h30.41.680,proactive3.2,2020.1.2,Win32,60,5f47c0b9b035471e11593a5c,5f4f8195d408d503a68ee210,3,,,,,,basket,,,,,,0,54,54,50,1,6,2,,,,,,,,,,,,,,,,,,,,,,,,,,,,,,,,,,,,,,,,,,,,,,,,,,,,,,,,,,,,,,,,,,,,,,,,,,,
,,,,,,,,,,stimuli/images/PICTURE_677.png,PHOTO,5ee22888962eba660d273581,16/09/1991,2020-09-02_12h30.41.680,proactive3.2,2020.1.2,Win32,60,5f47c0b9b035471e11593a5c,5f4f8195d408d503a68ee210,3,,,,,,map,,,,,,0,55,55,14,1,2,2,,,,,,,,,,,,,,,,,,,,,,,,,,,,,,,,,,,,,,,,,,,,,,,,,,,,,,,,,,,,,,,,,,,,,,,,,,,
,,,,,,,,,,stimuli/images/PICTURE_2.png,JUNGLE,5ee22888962eba660d273581,16/09/1991,2020-09-02_12h30.41.680,proactive3.2,2020.1.2,Win32,60,5f47c0b9b035471e11593a5c,5f4f8195d408d503a68ee210,3,,,,,,tyre,,,,,,0,56,56,1,1,1,2,,,,,,,,,,,,,,,,,,,,,,,,,,,,,,,,,,,,,,,,,,,,,,,,,,,,,,,,,,,,,,,,,,,,,,,,,,,
,,,,,,,,,,stimuli/images/PICTURE_311.png,FLESH,5ee22888962eba660d273581,16/09/1991,2020-09-02_12h30.41.680,proactive3.2,2020.1.2,Win32,60,5f47c0b9b035471e11593a5c,5f4f8195d408d503a68ee210,3,,,,,,razor,,,,,,0,57,57,3,1,1,2,,,,,,,,,,,,,,,,,,,,,,,,,,,,,,,,,,,,,,,,,,,,,,,,,,,,,,,,,,,,,,,,,,,,,,,,,,,
,,,,,,,,,,stimuli/images/PICTURE_708.png,VALLEY,5ee22888962eba660d273581,16/09/1991,2020-09-02_12h30.41.680,proactive3.2,2020.1.2,Win32,60,5f47c0b9b035471e11593a5c,5f4f8195d408d503a68ee210,3,,,,,,monkey,,,,,,0,58,58,45,1,5,2,,,,,,,,,,,,,,,,,,,,,,,,,,,,,,,,,,,,,,,,,,,,,,,,,,,,,,,,,,,,,,,,,,,,,,,,,,,
,,BOYS,2.35045,1,,,,,,stimuli/images/PICTURE_215.png,BOYS,5ee22888962eba660d273581,16/09/1991,2020-09-02_12h30.41.680,proactive3.2,2020.1.2,Win32,60,5f47c0b9b035471e11593a5c,5f4f8195d408d503a68ee210,3,,,,,,boot,,,,,,,,,,,3,2,0,0,0,24,1,,,,,,,,,,,,,,,,,,,,,,,,,,,,,,,,,,,,,,,,,,,,,,,,,,,,,,,,,,,,,,,,,,,,,,
,,?,0.001985,0,,,,,,stimuli/images/PICTURE_692.png,DUDE,5ee22888962eba660d273581,16/09/1991,2020-09-02_12h30.41.680,proactive3.2,2020.1.2,Win32,60,5f47c0b9b035471e11593a5c,5f4f8195d408d503a68ee210,3,,,,,,cherry,,,,,,,,,,,5,2,0,1,1,47,1,,,,,,,,,,,,,,,,,,,,,,,,,,,,,,,,,,,,,,,,,,,,,,,,,,,,,,,,,,,,,,,,,,,,,,
,,?,0.00131,0,,,,,,stimuli/images/PICTURE_147.png,LEADER,5ee22888962eba660d273581,16/09/1991,2020-09-02_12h30.41.680,proactive3.2,2020.1.2,Win32,60,5f47c0b9b035471e11593a5c,5f4f8195d408d503a68ee210,3,,,,,,hanger,,,,,,,,,,,4,2,0,2,2,33,1,,,,,,,,,,,,,,,,,,,,,,,,,,,,,,,,,,,,,,,,,,,,,,,,,,,,,,,,,,,,,,,,,,,,,,
,,?,0.000975,0,,,,,,stimuli/images/PICTURE_654.png,YEAR,5ee22888962eba660d273581,16/09/1991,2020-09-02_12h30.41.680,proactive3.2,2020.1.2,Win32,60,5f47c0b9b035471e11593a5c,5f4f8195d408d503a68ee210,3,,,,,,pencil,,,,,,,,,,,5,2,0,3,3,41,1,,,,,,,,,,,,,,,,,,,,,,,,,,,,,,,,,,,,,,,,,,,,,,,,,,,,,,,,,,,,,,,,,,,,,,
,,?,0.000895,0,,,,,,stimuli/images/PICTURE_215.png,FOOD,5ee22888962eba660d273581,16/09/1991,2020-09-02_12h30.41.680,proactive3.2,2020.1.2,Win32,60,5f47c0b9b035471e11593a5c,5f4f8195d408d503a68ee210,3,,,,,,boot,,,,,,,,,,,1,2,0,4,4,5,1,,,,,,,,,,,,,,,,,,,,,,,,,,,,,,,,,,,,,,,,,,,,,,,,,,,,,,,,,,,,,,,,,,,,,,
,,?,0.000795,0,,,,,,stimuli/images/PICTURE_348.png,TOILET,5ee22888962eba660d273581,16/09/1991,2020-09-02_12h30.41.680,proactive3.2,2020.1.2,Win32,60,5f47c0b9b035471e11593a5c,5f4f8195d408d503a68ee210,3,,,,,,pepper,,,,,,,,,,,1,2,0,5,5,4,1,,,,,,,,,,,,,,,,,,,,,,,,,,,,,,,,,,,,,,,,,,,,,,,,,,,,,,,,,,,,,,,,,,,,,,
,,?,0.000955,0,,,,,,stimuli/images/PICTURE_491.png,SERIES,5ee22888962eba660d273581,16/09/1991,2020-09-02_12h30.41.680,proactive3.2,2020.1.2,Win32,60,5f47c0b9b035471e11593a5c,5f4f8195d408d503a68ee210,3,,,,,,rug,,,,,,,,,,,4,2,0,6,6,39,1,,,,,,,,,,,,,,,,,,,,,,,,,,,,,,,,,,,,,,,,,,,,,,,,,,,,,,,,,,,,,,,,,,,,,,
,,COPS,1.830485,1,,,,,,stimuli/images/PICTURE_33.png,COPS,5ee22888962eba660d273581,16/09/1991,2020-09-02_12h30.41.680,proactive3.2,2020.1.2,Win32,60,5f47c0b9b035471e11593a5c,5f4f8195d408d503a68ee210,3,,,,,,frame,,,,,,,,,,,3,2,0,7,7,29,1,,,,,,,,,,,,,,,,,,,,,,,,,,,,,,,,,,,,,,,,,,,,,,,,,,,,,,,,,,,,,,,,,,,,,,
,,?,0.002375,0,,,,,,stimuli/images/PICTURE_655.png,SALE,5ee22888962eba660d273581,16/09/1991,2020-09-02_12h30.41.680,proactive3.2,2020.1.2,Win32,60,5f47c0b9b035471e11593a5c,5f4f8195d408d503a68ee210,3,,,,,,megaphone,,,,,,,,,,,6,2,0,8,8,57,1,,,,,,,,,,,,,,,,,,,,,,,,,,,,,,,,,,,,,,,,,,,,,,,,,,,,,,,,,,,,,,,,,,,,,,
,,?,0.00131,0,,,,,,stimuli/images/PICTURE_296.png,CLOCK,5ee22888962eba660d273581,16/09/1991,2020-09-02_12h30.41.680,proactive3.2,2020.1.2,Win32,60,5f47c0b9b035471e11593a5c,5f4f8195d408d503a68ee210,3,,,,,,bolt,,,,,,,,,,,2,2,0,9,9,18,1,,,,,,,,,,,,,,,,,,,,,,,,,,,,,,,,,,,,,,,,,,,,,,,,,,,,,,,,,,,,,,,,,,,,,,
,,?,0.00082,0,,,,,,stimuli/images/PICTURE_348.png,DUDE,5ee22888962eba660d273581,16/09/1991,2020-09-02_12h30.41.680,proactive3.2,2020.1.2,Win32,60,5f47c0b9b035471e11593a5c,5f4f8195d408d503a68ee210,3,,,,,,pepper,,,,,,,,,,,6,2,0,10,10,59,1,,,,,,,,,,,,,,,,,,,,,,,,,,,,,,,,,,,,,,,,,,,,,,,,,,,,,,,,,,,,,,,,,,,,,,
,,?,0.000835,0,,,,,,stimuli/images/PICTURE_452.png,COPS,5ee22888962eba660d273581,16/09/1991,2020-09-02_12h30.41.680,proactive3.2,2020.1.2,Win32,60,5f47c0b9b035471e11593a5c,5f4f8195d408d503a68ee210,3,,,,,,watch,,,,,,,,,,,1,2,0,11,11,0,1,,,,,,,,,,,,,,,,,,,,,,,,,,,,,,,,,,,,,,,,,,,,,,,,,,,,,,,,,,,,,,,,,,,,,,
,,?,0.00079,0,,,,,,stimuli/images/PICTURE_285.png,WRITER,5ee22888962eba660d273581,16/09/1991,2020-09-02_12h30.41.680,proactive3.2,2020.1.2,Win32,60,5f47c0b9b035471e11593a5c,5f4f8195d408d503a68ee210,3,,,,,,carrot,,,,,,,,,,,1,2,0,12,12,6,1,,,,,,,,,,,,,,,,,,,,,,,,,,,,,,,,,,,,,,,,,,,,,,,,,,,,,,,,,,,,,,,,,,,,,,
,,?,0.00125,0,,,,,,stimuli/images/PICTURE_215.png,LEADER,5ee22888962eba660d273581,16/09/1991,2020-09-02_12h30.41.680,proactive3.2,2020.1.2,Win32,60,5f47c0b9b035471e11593a5c,5f4f8195d408d503a68ee210,3,,,,,,boot,,,,,,,,,,,5,2,0,13,13,43,1,,,,,,,,,,,,,,,,,,,,,,,,,,,,,,,,,,,,,,,,,,,,,,,,,,,,,,,,,,,,,,,,,,,,,,
,,?,0.00096,0,,,,,,stimuli/images/PICTURE_2.png,AREA,5ee22888962eba660d273581,16/09/1991,2020-09-02_12h30.41.680,proactive3.2,2020.1.2,Win32,60,5f47c0b9b035471e11593a5c,5f4f8195d408d503a68ee210,3,,,,,,tyre,,,,,,,,,,,4,2,0,14,14,32,1,,,,,,,,,,,,,,,,,,,,,,,,,,,,,,,,,,,,,,,,,,,,,,,,,,,,,,,,,,,,,,,,,,,,,,
,,HOUSE,1.775105,1,,,,,,stimuli/images/PICTURE_177.png,HOUSE,5ee22888962eba660d273581,16/09/1991,2020-09-02_12h30.41.680,proactive3.2,2020.1.2,Win32,60,5f47c0b9b035471e11593a5c,5f4f8195d408d503a68ee210,3,,,,,,mushroom,,,,,,,,,,,3,2,0,15,15,25,1,,,,,,,,,,,,,,,,,,,,,,,,,,,,,,,,,,,,,,,,,,,,,,,,,,,,,,,,,,,,,,,,,,,,,,
,,?,0.00231,0,,,,,,stimuli/images/PICTURE_405.png,JUNGLE,5ee22888962eba660d273581,16/09/1991,2020-09-02_12h30.41.680,proactive3.2,2020.1.2,Win32,60,5f47c0b9b035471e11593a5c,5f4f8195d408d503a68ee210,3,,,,,,anchor,,,,,,,,,,,2,2,0,16,16,13,1,,,,,,,,,,,,,,,,,,,,,,,,,,,,,,,,,,,,,,,,,,,,,,,,,,,,,,,,,,,,,,,,,,,,,,
,,?,0.001285,0,,,,,,stimuli/images/PICTURE_677.png,FAMILY,5ee22888962eba660d273581,16/09/1991,2020-09-02_12h30.41.680,proactive3.2,2020.1.2,Win32,60,5f47c0b9b035471e11593a5c,5f4f8195d408d503a68ee210,3,,,,,,map,,,,,,,,,,,6,2,0,17,17,53,1,,,,,,,,,,,,,,,,,,,,,,,,,,,,,,,,,,,,,,,,,,,,,,,,,,,,,,,,,,,,,,,,,,,,,,
,,?,0.00088,0,,,,,,stimuli/images/PICTURE_2.png,YARD,5ee22888962eba660d273581,16/09/1991,2020-09-02_12h30.41.680,proactive3.2,2020.1.2,Win32,60,5f47c0b9b035471e11593a5c,5f4f8195d408d503a68ee210,3,,,,,,tyre,,,,,,,,,,,6,2,0,18,18,55,1,,,,,,,,,,,,,,,,,,,,,,,,,,,,,,,,,,,,,,,,,,,,,,,,,,,,,,,,,,,,,,,,,,,,,,
,,?,0.0008,0,,,,,,stimuli/images/PICTURE_509.png,SHOTS,5ee22888962eba660d273581,16/09/1991,2020-09-02_12h30.41.680,proactive3.2,2020.1.2,Win32,60,5f47c0b9b035471e11593a5c,5f4f8195d408d503a68ee210,3,,,,,,telephone,,,,,,,,,,,1,2,0,19,19,7,1,,,,,,,,,,,,,,,,,,,,,,,,,,,,,,,,,,,,,,,,,,,,,,,,,,,,,,,,,,,,,,,,,,,,,,
,,?,0.000815,0,,,,,,stimuli/images/PICTURE_356.png,CANDY,5ee22888962eba660d273581,16/09/1991,2020-09-02_12h30.41.680,proactive3.2,2020.1.2,Win32,60,5f47c0b9b035471e11593a5c,5f4f8195d408d503a68ee210,3,,,,,,pawn,,,,,,,,,,,5,2,0,20,20,46,1,,,,,,,,,,,,,,,,,,,,,,,,,,,,,,,,,,,,,,,,,,,,,,,,,,,,,,,,,,,,,,,,,,,,,,
,,?,0.00106,0,,,,,,stimuli/images/PICTURE_141.png,CLIENT,5ee22888962eba660d273581,16/09/1991,2020-09-02_12h30.41.680,proactive3.2,2020.1.2,Win32,60,5f47c0b9b035471e11593a5c,5f4f8195d408d503a68ee210,3,,,,,,sunflower,,,,,,,,,,,4,2,0,21,21,30,1,,,,,,,,,,,,,,,,,,,,,,,,,,,,,,,,,,,,,,,,,,,,,,,,,,,,,,,,,,,,,,,,,,,,,,
,,?,0.001025,0,,,,,,stimuli/images/PICTURE_95.png,NIGHT,5ee22888962eba660d273581,16/09/1991,2020-09-02_12h30.41.680,proactive3.2,2020.1.2,Win32,60,5f47c0b9b035471e11593a5c,5f4f8195d408d503a68ee210,3,,,,,,suitcase,,,,,,,,,,,4,2,0,22,22,37,1,,,,,,,,,,,,,,,,,,,,,,,,,,,,,,,,,,,,,,,,,,,,,,,,,,,,,,,,,,,,,,,,,,,,,,
,,?,0.000785,0,,,,,,stimuli/images/PICTURE_509.png,MILLER,5ee22888962eba660d273581,16/09/1991,2020-09-02_12h30.41.680,proactive3.2,2020.1.2,Win32,60,5f47c0b9b035471e11593a5c,5f4f8195d408d503a68ee210,3,,,,,,telephone,,,,,,,,,,,5,2,0,23,23,49,1,,,,,,,,,,,,,,,,,,,,,,,,,,,,,,,,,,,,,,,,,,,,,,,,,,,,,,,,,,,,,,,,,,,,,,
,,?,0.000785,0,,,,,,stimuli/images/PICTURE_403.png,FAMILY,5ee22888962eba660d273581,16/09/1991,2020-09-02_12h30.41.680,proactive3.2,2020.1.2,Win32,60,5f47c0b9b035471e11593a5c,5f4f8195d408d503a68ee210,3,,,,,,cathedral,,,,,,,,,,,1,2,0,24,24,9,1,,,,,,,,,,,,,,,,,,,,,,,,,,,,,,,,,,,,,,,,,,,,,,,,,,,,,,,,,,,,,,,,,,,,,,
,,?,0.000805,0,,,,,,stimuli/images/PICTURE_708.png,VALLEY,5ee22888962eba660d273581,16/09/1991,2020-09-02_12h30.41.680,proactive3.2,2020.1.2,Win32,60,5f47c0b9b035471e11593a5c,5f4f8195d408d503a68ee210,3,,,,,,monkey,,,,,,,,,,,5,2,0,25,25,45,1,,,,,,,,,,,,,,,,,,,,,,,,,,,,,,,,,,,,,,,,,,,,,,,,,,,,,,,,,,,,,,,,,,,,,,
,,NATION,2.484065,1,,,,,,stimuli/images/PICTURE_57.png,NATION,5ee22888962eba660d273581,16/09/1991,2020-09-02_12h30.41.680,proactive3.2,2020.1.2,Win32,60,5f47c0b9b035471e11593a5c,5f4f8195d408d503a68ee210,3,,,,,,stamp,,,,,,,,,,,3,2,0,26,26,21,1,,,,,,,,,,,,,,,,,,,,,,,,,,,,,,,,,,,,,,,,,,,,,,,,,,,,,,,,,,,,,,,,,,,,,,
,,?,0.002265,0,,,,,,stimuli/images/PICTURE_504.png,HOUSE,5ee22888962eba660d273581,16/09/1991,2020-09-02_12h30.41.680,proactive3.2,2020.1.2,Win32,60,5f47c0b9b035471e11593a5c,5f4f8195d408d503a68ee210,3,,,,,,wheel,,,,,,,,,,,4,2,0,27,27,36,1,,,,,,,,,,,,,,,,,,,,,,,,,,,,,,,,,,,,,,,,,,,,,,,,,,,,,,,,,,,,,,,,,,,,,,
,,?,0.00129,0,,,,,,stimuli/images/PICTURE_160.png,HOTEL,5ee22888962eba660d273581,16/09/1991,2020-09-02_12h30.41.680,proactive3.2,2020.1.2,Win32,60,5f47c0b9b035471e11593a5c,5f4f8195d408d503a68ee210,3,,,,,,wheelbarrow,,,,,,,,,,,2,2,0,28,28,16,1,,,,,,,,,,,,,,,,,,,,,,,,,,,,,,,,,,,,,,,,,,,,,,,,,,,,,,,,,,,,,,,,,,,,,,
,,?,0.00086,0,,,,,,stimuli/images/PICTURE_487.png,ROOF,5ee22888962eba660d273581,16/09/1991,2020-09-02_12h30.41.680,proactive3.2,2020.1.2,Win32,60,5f47c0b9b035471e11593a5c,5f4f8195d408d503a68ee210,3,,,,,,basket,,,,,,,,,,,6,2,0,29,29,50,1,,,,,,,,,,,,,,,,,,,,,,,,,,,,,,,,,,,,,,,,,,,,,,,,,,,,,,,,,,,,,,,,,,,,,,
,,?,0.00082,0,,,,,,stimuli/images/PICTURE_255.png,PENNY,5ee22888962eba660d273581,16/09/1991,2020-09-02_12h30.41.680,proactive3.2,2020.1.2,Win32,60,5f47c0b9b035471e11593a5c,5f4f8195d408d503a68ee210,3,,,,,,shovel,,,,,,,,,,,2,2,0,30,30,19,1,,,,,,,,,,,,,,,,,,,,,,,,,,,,,,,,,,,,,,,,,,,,,,,,,,,,,,,,,,,,,,,,,,,,,,
,,?,0.000805,0,,,,,,stimuli/images/PICTURE_509.png,BATH,5ee22888962eba660d273581,16/09/1991,2020-09-02_12h30.41.680,proactive3.2,2020.1.2,Win32,60,5f47c0b9b035471e11593a5c,5f4f8195d408d503a68ee210,3,,,,,,telephone,,,,,,,,,,,2,2,0,31,31,15,1,,,,,,,,,,,,,,,,,,,,,,,,,,,,,,,,,,,,,,,,,,,,,,,,,,,,,,,,,,,,,,,,,,,,,,
,,?,0.00137,0,,,,,,stimuli/images/PICTURE_453.png,FAMILY,5ee22888962eba660d273581,16/09/1991,2020-09-02_12h30.41.680,proactive3.2,2020.1.2,Win32,60,5f47c0b9b035471e11593a5c,5f4f8195d408d503a68ee210,3,,,,,,scissors,,,,,,,,,,,5,2,0,32,32,48,1,,,,,,,,,,,,,,,,,,,,,,,,,,,,,,,,,,,,,,,,,,,,,,,,,,,,,,,,,,,,,,,,,,,,,,
,,?,0.000805,0,,,,,,stimuli/images/PICTURE_327.png,LEADER,5ee22888962eba660d273581,16/09/1991,2020-09-02_12h30.41.680,proactive3.2,2020.1.2,Win32,60,5f47c0b9b035471e11593a5c,5f4f8195d408d503a68ee210,3,,,,,,helmet,,,,,,,,,,,2,2,0,33,33,17,1,,,,,,,,,,,,,,,,,,,,,,,,,,,,,,,,,,,,,,,,,,,,,,,,,,,,,,,,,,,,,,,,,,,,,,
,,?,0.000805,0,,,,,,stimuli/images/PICTURE_688.png,CLOCK,5ee22888962eba660d273581,16/09/1991,2020-09-02_12h30.41.680,proactive3.2,2020.1.2,Win32,60,5f47c0b9b035471e11593a5c,5f4f8195d408d503a68ee210,3,,,,,,runner,,,,,,,,,,,5,2,0,34,34,42,1,,,,,,,,,,,,,,,,,,,,,,,,,,,,,,,,,,,,,,,,,,,,,,,,,,,,,,,,,,,,,,,,,,,,,,
,,?,0.000805,0,,,,,,stimuli/images/PICTURE_405.png,HOUSE,5ee22888962eba660d273581,16/09/1991,2020-09-02_12h30.41.680,proactive3.2,2020.1.2,Win32,60,5f47c0b9b035471e11593a5c,5f4f8195d408d503a68ee210,3,,,,,,anchor,,,,,,,,,,,1,2,0,35,35,2,1,,,,,,,,,,,,,,,,,,,,,,,,,,,,,,,,,,,,,,,,,,,,,,,,,,,,,,,,,,,,,,,,,,,,,,
,,?,0.0008,0,,,,,,stimuli/images/PICTURE_405.png,JUNGLE,5ee22888962eba660d273581,16/09/1991,2020-09-02_12h30.41.680,proactive3.2,2020.1.2,Win32,60,5f47c0b9b035471e11593a5c,5f4f8195d408d503a68ee210,3,,,,,,anchor,,,,,,,,,,,6,2,0,36,36,58,1,,,,,,,,,,,,,,,,,,,,,,,,,,,,,,,,,,,,,,,,,,,,,,,,,,,,,,,,,,,,,,,,,,,,,,
,,?,0.000975,0,,,,,,stimuli/images/PICTURE_509.png,APPLE,5ee22888962eba660d273581,16/09/1991,2020-09-02_12h30.41.680,proactive3.2,2020.1.2,Win32,60,5f47c0b9b035471e11593a5c,5f4f8195d408d503a68ee210,3,,,,,,telephone,,,,,,,,,,,4,2,0,37,37,38,1,,,,,,,,,,,,,,,,,,,,,,,,,,,,,,,,,,,,,,,,,,,,,,,,,,,,,,,,,,,,,,,,,,,,,,
,,RIVER,2.04345,1,,,,,,stimuli/images/PICTURE_18.png,RIVER,5ee22888962eba660d273581,16/09/1991,2020-09-02_12h30.41.680,proactive3.2,2020.1.2,Win32,60,5f47c0b9b035471e11593a5c,5f4f8195d408d503a68ee210,3,,,,,,planet,,,,,,,,,,,3,2,0,38,38,22,1,,,,,,,,,,,,,,,,,,,,,,,,,,,,,,,,,,,,,,,,,,,,,,,,,,,,,,,,,,,,,,,,,,,,,,
,,?,0.002615,0,,,,,,stimuli/images/PICTURE_123.png,SALE,5ee22888962eba660d273581,16/09/1991,2020-09-02_12h30.41.680,proactive3.2,2020.1.2,Win32,60,5f47c0b9b035471e11593a5c,5f4f8195d408d503a68ee210,3,,,,,,dart,,,,,,,,,,,1,2,0,39,39,8,1,,,,,,,,,,,,,,,,,,,,,,,,,,,,,,,,,,,,,,,,,,,,,,,,,,,,,,,,,,,,,,,,,,,,,,
,,?,0.001395,0,,,,,,stimuli/images/PICTURE_2.png,JUNGLE,5ee22888962eba660d273581,16/09/1991,2020-09-02_12h30.41.680,proactive3.2,2020.1.2,Win32,60,5f47c0b9b035471e11593a5c,5f4f8195d408d503a68ee210,3,,,,,,tyre,,,,,,,,,,,1,2,0,40,40,1,1,,,,,,,,,,,,,,,,,,,,,,,,,,,,,,,,,,,,,,,,,,,,,,,,,,,,,,,,,,,,,,,,,,,,,,
,,?,0.00102,0,,,,,,stimuli/images/PICTURE_297.png,BODY,5ee22888962eba660d273581,16/09/1991,2020-09-02_12h30.41.680,proactive3.2,2020.1.2,Win32,60,5f47c0b9b035471e11593a5c,5f4f8195d408d503a68ee210,3,,,,,,aeroplane,,,,,,,,,,,6,2,0,41,41,51,1,,,,,,,,,,,,,,,,,,,,,,,,,,,,,,,,,,,,,,,,,,,,,,,,,,,,,,,,,,,,,,,,,,,,,,
,,?,0.00085,0,,,,,,stimuli/images/PICTURE_314.png,SPEECH,5ee22888962eba660d273581,16/09/1991,2020-09-02_12h30.41.680,proactive3.2,2020.1.2,Win32,60,5f47c0b9b035471e11593a5c,5f4f8195d408d503a68ee210,3,,,,,,perfume,,,,,,,,,,,4,2,0,42,42,35,1,,,,,,,,,,,,,,,,,,,,,,,,,,,,,,,,,,,,,,,,,,,,,,,,,,,,,,,,,,,,,,,,,,,,,,
,,BEAUTY,3.475055,1,,,,,,stimuli/images/PICTURE_470.png,BEAUTY,5ee22888962eba660d273581,16/09/1991,2020-09-02_12h30.41.680,proactive3.2,2020.1.2,Win32,60,5f47c0b9b035471e11593a5c,5f4f8195d408d503a68ee210,3,,,,,,motorbike,,,,,,,,,,,3,2,0,43,43,26,1,,,,,,,,,,,,,,,,,,,,,,,,,,,,,,,,,,,,,,,,,,,,,,,,,,,,,,,,,,,,,,,,,,,,,,
,,STAR,8.656615,0,,,,,,stimuli/images/PICTURE_208.png,SPIRIT,5ee22888962eba660d273581,16/09/1991,2020-09-02_12h30.41.680,proactive3.2,2020.1.2,Win32,60,5f47c0b9b035471e11593a5c,5f4f8195d408d503a68ee210,3,,,,,,microphone,,,,,,,,,,,3,2,0,44,44,28,1,,,,,,,,,,,,,,,,,,,,,,,,,,,,,,,,,,,,,,,,,,,,,,,,,,,,,,,,,,,,,,,,,,,,,,
,,?,0.001855,0,,,,,,stimuli/images/PICTURE_487.png,POLICY,5ee22888962eba660d273581,16/09/1991,2020-09-02_12h30.41.680,proactive3.2,2020.1.2,Win32,60,5f47c0b9b035471e11593a5c,5f4f8195d408d503a68ee210,3,,,,,,basket,,,,,,,,,,,4,2,0,45,45,34,1,,,,,,,,,,,,,,,,,,,,,,,,,,,,,,,,,,,,,,,,,,,,,,,,,,,,,,,,,,,,,,,,,,,,,,
,,LEVEL,7.71859,0,,,,,,stimuli/images/PICTURE_667.png,GLASS,5ee22888962eba660d273581,16/09/1991,2020-09-02_12h30.41.680,proactive3.2,2020.1.2,Win32,60,5f47c0b9b035471e11593a5c,5f4f8195d408d503a68ee210,3,,,,,,daisy,,,,,,,,,,,3,2,0,46,46,27,1,,,,,,,,,,,,,,,,,,,,,,,,,,,,,,,,,,,,,,,,,,,,,,,,,,,,,,,,,,,,,,,,,,,,,,
,,?,0.002,0,,,,,,stimuli/images/PICTURE_677.png,PHOTO,5ee22888962eba660d273581,16/09/1991,2020-09-02_12h30.41.680,proactive3.2,2020.1.2,Win32,60,5f47c0b9b035471e11593a5c,5f4f8195d408d503a68ee210,3,,,,,,map,,,,,,,,,,,2,2,0,47,47,14,1,,,,,,,,,,,,,,,,,,,,,,,,,,,,,,,,,,,,,,,,,,,,,,,,,,,,,,,,,,,,,,,,,,,,,,
,,?,0.0015,0,,,,,,stimuli/images/PICTURE_654.png,COPS,5ee22888962eba660d273581,16/09/1991,2020-09-02_12h30.41.680,proactive3.2,2020.1.2,Win32,60,5f47c0b9b035471e11593a5c,5f4f8195d408d503a68ee210,3,,,,,,pencil,,,,,,,,,,,2,2,0,48,48,10,1,,,,,,,,,,,,,,,,,,,,,,,,,,,,,,,,,,,,,,,,,,,,,,,,,,,,,,,,,,,,,,,,,,,,,,
,,?,0.000795,0,,,,,,stimuli/images/PICTURE_750.png,POLICY,5ee22888962eba660d273581,16/09/1991,2020-09-02_12h30.41.680,proactive3.2,2020.1.2,Win32,60,5f47c0b9b035471e11593a5c,5f4f8195d408d503a68ee210,3,,,,,,kettle,,,,,,,,,,,5,2,0,49,49,44,1,,,,,,,,,,,,,,,,,,,,,,,,,,,,,,,,,,,,,,,,,,,,,,,,,,,,,,,,,,,,,,,,,,,,,,
,,?,0.000805,0,,,,,,stimuli/images/PICTURE_564.png,PLENTY,5ee22888962eba660d273581,16/09/1991,2020-09-02_12h30.41.680,proactive3.2,2020.1.2,Win32,60,5f47c0b9b035471e11593a5c,5f4f8195d408d503a68ee210,3,,,,,,spoon,,,,,,,,,,,2,2,0,50,50,11,1,,,,,,,,,,,,,,,,,,,,,,,,,,,,,,,,,,,,,,,,,,,,,,,,,,,,,,,,,,,,,,,,,,,,,,
,,?,0.00077,0,,,,,,stimuli/images/PICTURE_470.png,MOMENT,5ee22888962eba660d273581,16/09/1991,2020-09-02_12h30.41.680,proactive3.2,2020.1.2,Win32,60,5f47c0b9b035471e11593a5c,5f4f8195d408d503a68ee210,3,,,,,,motorbike,,,,,,,,,,,5,2,0,51,51,40,1,,,,,,,,,,,,,,,,,,,,,,,,,,,,,,,,,,,,,,,,,,,,,,,,,,,,,,,,,,,,,,,,,,,,,,
,,PRINCE,2.52194,1,,,,,,stimuli/images/PICTURE_285.png,PRINCE,5ee22888962eba660d273581,16/09/1991,2020-09-02_12h30.41.680,proactive3.2,2020.1.2,Win32,60,5f47c0b9b035471e11593a5c,5f4f8195d408d503a68ee210,3,,,,,,carrot,,,,,,,,,,,3,2,0,52,52,20,1,,,,,,,,,,,,,,,,,,,,,,,,,,,,,,,,,,,,,,,,,,,,,,,,,,,,,,,,,,,,,,,,,,,,,,
,,KIND,3.404605,1,,,,,,stimuli/images/PICTURE_68.png,KIND,5ee22888962eba660d273581,16/09/1991,2020-09-02_12h30.41.680,proactive3.2,2020.1.2,Win32,60,5f47c0b9b035471e11593a5c,5f4f8195d408d503a68ee210,3,,,,,,candle,,,,,,,,,,,3,2,0,53,53,23,1,,,,,,,,,,,,,,,,,,,,,,,,,,,,,,,,,,,,,,,,,,,,,,,,,,,,,,,,,,,,,,,,,,,,,,
,,?,0.00158,0,,,,,,stimuli/images/PICTURE_57.png,CASINO,5ee22888962eba660d273581,16/09/1991,2020-09-02_12h30.41.680,proactive3.2,2020.1.2,Win32,60,5f47c0b9b035471e11593a5c,5f4f8195d408d503a68ee210,3,,,,,,stamp,,,,,,,,,,,2,2,0,54,54,12,1,,,,,,,,,,,,,,,,,,,,,,,,,,,,,,,,,,,,,,,,,,,,,,,,,,,,,,,,,,,,,,,,,,,,,,
,,?,0.00112,0,,,,,,stimuli/images/PICTURE_57.png,CANDY,5ee22888962eba660d273581,16/09/1991,2020-09-02_12h30.41.680,proactive3.2,2020.1.2,Win32,60,5f47c0b9b035471e11593a5c,5f4f8195d408d503a68ee210,3,,,,,,stamp,,,,,,,,,,,6,2,0,55,55,52,1,,,,,,,,,,,,,,,,,,,,,,,,,,,,,,,,,,,,,,,,,,,,,,,,,,,,,,,,,,,,,,,,,,,,,,
,,?,0.000825,0,,,,,,stimuli/images/PICTURE_311.png,TOILET,5ee22888962eba660d273581,16/09/1991,2020-09-02_12h30.41.680,proactive3.2,2020.1.2,Win32,60,5f47c0b9b035471e11593a5c,5f4f8195d408d503a68ee210,3,,,,,,razor,,,,,,,,,,,6,2,0,56,56,54,1,,,,,,,,,,,,,,,,,,,,,,,,,,,,,,,,,,,,,,,,,,,,,,,,,,,,,,,,,,,,,,,,,,,,,,
,,?,0.001625,0,,,,,,stimuli/images/PICTURE_93.png,GIRL,5ee22888962eba660d273581,16/09/1991,2020-09-02_12h30.41.680,proactive3.2,2020.1.2,Win32,60,5f47c0b9b035471e11593a5c,5f4f8195d408d503a68ee210,3,,,,,,skateboard,,,,,,,,,,,4,2,0,57,57,31,1,,,,,,,,,,,,,,,,,,,,,,,,,,,,,,,,,,,,,,,,,,,,,,,,,,,,,,,,,,,,,,,,,,,,,,
,,?,0.00102,0,,,,,,stimuli/images/PICTURE_32.png,LETTER,5ee22888962eba660d273581,16/09/1991,2020-09-02_12h30.41.680,proactive3.2,2020.1.2,Win32,60,5f47c0b9b035471e11593a5c,5f4f8195d408d503a68ee210,3,,,,,,crown,,,,,,,,,,,6,2,0,58,58,56,1,,,,,,,,,,,,,,,,,,,,,,,,,,,,,,,,,,,,,,,,,,,,,,,,,,,,,,,,,,,,,,,,,,,,,,
,,?,0.000895,0,,,,,,stimuli/images/PICTURE_311.png,FLESH,5ee22888962eba660d273581,16/09/1991,2020-09-02_12h30.41.680,proactive3.2,2020.1.2,Win32,60,5f47c0b9b035471e11593a5c,5f4f8195d408d503a68ee210,3,,,,,,razor,,,,,,,,,,,1,2,0,59,59,3,1,,,,,,,,,,,,,,,,,,,,,,,,,,,,,,,,,,,,,,,,,,,,,,,,,,,,,,,,,,,,,,,,,,,,,,
,,,,,,,,,,,,5ee22888962eba660d273581,16/09/1991,2020-09-02_12h30.41.680,proactive3.2,2020.1.2,Win32,60,5f47c0b9b035471e11593a5c,5f4f8195d408d503a68ee210,3,,,,,,,,,,,,,,,,,,,,,,,,0,1,1,2,1,stimuli/learn-block3.csv,,,,,,,,,,,,,,,,,,,,,,,,,,,,,,,,,,,,,,,,,,,,,,,,,,,,,,,,,,,,,,,,
,,,,,,,,,,stimuli/images/PICTURE_203.png,ARTIST,5ee22888962eba660d273581,16/09/1991,2020-09-02_12h30.41.680,proactive3.2,2020.1.2,Win32,60,5f47c0b9b035471e11593a5c,5f4f8195d408d503a68ee210,3,,,,,,cap,,,,,,0,0,0,26,1,3,0,,,,,,,,,,,,,,,,,,,,,,,,,,,,,,,,,,,,,,,,,,,,,,,,,,,,,,,,,,,,,,,,,,,,,,,,,,,
,,,,,,,,,,stimuli/images/PICTURE_744.png,SAKE,5ee22888962eba660d273581,16/09/1991,2020-09-02_12h30.41.680,proactive3.2,2020.1.2,Win32,60,5f47c0b9b035471e11593a5c,5f4f8195d408d503a68ee210,3,,,,,,ring,,,,,,0,1,1,17,1,2,0,,,,,,,,,,,,,,,,,,,,,,,,,,,,,,,,,,,,,,,,,,,,,,,,,,,,,,,,,,,,,,,,,,,,,,,,,,,
,,,,,,,,,,stimuli/images/PICTURE_327.png,BEAUTY,5ee22888962eba660d273581,16/09/1991,2020-09-02_12h30.41.680,proactive3.2,2020.1.2,Win32,60,5f47c0b9b035471e11593a5c,5f4f8195d408d503a68ee210,3,,,,,,helmet,,,,,,0,2,2,48,1,5,0,,,,,,,,,,,,,,,,,,,,,,,,,,,,,,,,,,,,,,,,,,,,,,,,,,,,,,,,,,,,,,,,,,,,,,,,,,,
,,,,,,,,,,stimuli/images/PICTURE_380.png,PHOTO,5ee22888962eba660d273581,16/09/1991,2020-09-02_12h30.41.680,proactive3.2,2020.1.2,Win32,60,5f47c0b9b035471e11593a5c,5f4f8195d408d503a68ee210,3,,,,,,gorilla,,,,,,0,3,3,52,1,6,0,,,,,,,,,,,,,,,,,,,,,,,,,,,,,,,,,,,,,,,,,,,,,,,,,,,,,,,,,,,,,,,,,,,,,,,,,,,
,,,,,,,,,,stimuli/images/PICTURE_470.png,CASINO,5ee22888962eba660d273581,16/09/1991,2020-09-02_12h30.41.680,proactive3.2,2020.1.2,Win32,60,5f47c0b9b035471e11593a5c,5f4f8195d408d503a68ee210,3,,,,,,motorbike,,,,,,0,4,4,36,1,4,0,,,,,,,,,,,,,,,,,,,,,,,,,,,,,,,,,,,,,,,,,,,,,,,,,,,,,,,,,,,,,,,,,,,,,,,,,,,
,,,,,,,,,,stimuli/images/PICTURE_449.png,THING,5ee22888962eba660d273581,16/09/1991,2020-09-02_12h30.41.680,proactive3.2,2020.1.2,Win32,60,5f47c0b9b035471e11593a5c,5f4f8195d408d503a68ee210,3,,,,,,bench,,,,,,0,5,5,59,1,6,0,,,,,,,,,,,,,,,,,,,,,,,,,,,,,,,,,,,,,,,,,,,,,,,,,,,,,,,,,,,,,,,,,,,,,,,,,,,
,,,,,,,,,,stimuli/images/PICTURE_32.png,JUNGLE,5ee22888962eba660d273581,16/09/1991,2020-09-02_12h30.41.680,proactive3.2,2020.1.2,Win32,60,5f47c0b9b035471e11593a5c,5f4f8195d408d503a68ee210,3,,,,,,crown,,,,,,0,6,6,45,1,5,0,,,,,,,,,,,,,,,,,,,,,,,,,,,,,,,,,,,,,,,,,,,,,,,,,,,,,,,,,,,,,,,,,,,,,,,,,,,
,,,,,,,,,,stimuli/images/PICTURE_677.png,MILE,5ee22888962eba660d273581,16/09/1991,2020-09-02_12h30.41.680,proactive3.2,2020.1.2,Win32,60,5f47c0b9b035471e11593a5c,5f4f8195d408d503a68ee210,3,,,,,,map,,,,,,0,7,7,30,1,4,0,,,,,,,,,,,,,,,,,,,,,,,,,,,,,,,,,,,,,,,,,,,,,,,,,,,,,,,,,,,,,,,,,,,,,,,,,,,
,,,,,,,,,,stimuli/images/PICTURE_311.png,BEAUTY,5ee22888962eba660d273581,16/09/1991,2020-09-02_12h30.41.680,proactive3.2,2020.1.2,Win32,60,5f47c0b9b035471e11593a5c,5f4f8195d408d503a68ee210,3,,,,,,razor,,,,,,0,8,8,13,1,2,0,,,,,,,,,,,,,,,,,,,,,,,,,,,,,,,,,,,,,,,,,,,,,,,,,,,,,,,,,,,,,,,,,,,,,,,,,,,
,,,,,,,,,,stimuli/images/PICTURE_356.png,DANGER,5ee22888962eba660d273581,16/09/1991,2020-09-02_12h30.41.680,proactive3.2,2020.1.2,Win32,60,5f47c0b9b035471e11593a5c,5f4f8195d408d503a68ee210,3,,,,,,pawn,,,,,,0,9,9,55,1,6,0,,,,,,,,,,,,,,,,,,,,,,,,,,,,,,,,,,,,,,,,,,,,,,,,,,,,,,,,,,,,,,,,,,,,,,,,,,,
,,,,,,,,,,stimuli/images/PICTURE_708.png,PENNY,5ee22888962eba660d273581,16/09/1991,2020-09-02_12h30.41.680,proactive3.2,2020.1.2,Win32,60,5f47c0b9b035471e11593a5c,5f4f8195d408d503a68ee210,3,,,,,,monkey,,,,,,0,10,10,31,1,4,0,,,,,,,,,,,,,,,,,,,,,,,,,,,,,,,,,,,,,,,,,,,,,,,,,,,,,,,,,,,,,,,,,,,,,,,,,,,
,,,,,,,,,,stimuli/images/PICTURE_469.png,ARTIST,5ee22888962eba660d273581,16/09/1991,2020-09-02_12h30.41.680,proactive3.2,2020.1.2,Win32,60,5f47c0b9b035471e11593a5c,5f4f8195d408d503a68ee210,3,,,,,,stool,,,,,,0,11,11,6,1,1,0,,,,,,,,,,,,,,,,,,,,,,,,,,,,,,,,,,,,,,,,,,,,,,,,,,,,,,,,,,,,,,,,,,,,,,,,,,,
,,,,,,,,,,stimuli/images/PICTURE_509.png,PHOTO,5ee22888962eba660d273581,16/09/1991,2020-09-02_12h30.41.680,proactive3.2,2020.1.2,Win32,60,5f47c0b9b035471e11593a5c,5f4f8195d408d503a68ee210,3,,,,,,telephone,,,,,,0,12,12,21,1,3,0,,,,,,,,,,,,,,,,,,,,,,,,,,,,,,,,,,,,,,,,,,,,,,,,,,,,,,,,,,,,,,,,,,,,,,,,,,,
,,,,,,,,,,stimuli/images/PICTURE_708.png,CLIENT,5ee22888962eba660d273581,16/09/1991,2020-09-02_12h30.41.680,proactive3.2,2020.1.2,Win32,60,5f47c0b9b035471e11593a5c,5f4f8195d408d503a68ee210,3,,,,,,monkey,,,,,,0,13,13,5,1,1,0,,,,,,,,,,,,,,,,,,,,,,,,,,,,,,,,,,,,,,,,,,,,,,,,,,,,,,,,,,,,,,,,,,,,,,,,,,,
,,,,,,,,,,stimuli/images/PICTURE_491.png,WRITER,5ee22888962eba660d273581,16/09/1991,2020-09-02_12h30.41.680,proactive3.2,2020.1.2,Win32,60,5f47c0b9b035471e11593a5c,5f4f8195d408d503a68ee210,3,,,,,,rug,,,,,,0,14,14,57,1,6,0,,,,,,,,,,,,,,,,,,,,,,,,,,,,,,,,,,,,,,,,,,,,,,,,,,,,,,,,,,,,,,,,,,,,,,,,,,,
,,,,,,,,,,stimuli/images/PICTURE_314.png,SAKE,5ee22888962eba660d273581,16/09/1991,2020-09-02_12h30.41.680,proactive3.2,2020.1.2,Win32,60,5f47c0b9b035471e11593a5c,5f4f8195d408d503a68ee210,3,,,,,,perfume,,,,,,0,15,15,7,1,1,0,,,,,,,,,,,,,,,,,,,,,,,,,,,,,,,,,,,,,,,,,,,,,,,,,,,,,,,,,,,,,,,,,,,,,,,,,,,
,,,,,,,,,,stimuli/images/PICTURE_453.png,PLENTY,5ee22888962eba660d273581,16/09/1991,2020-09-02_12h30.41.680,proactive3.2,2020.1.2,Win32,60,5f47c0b9b035471e11593a5c,5f4f8195d408d503a68ee210,3,,,,,,scissors,,,,,,0,16,16,56,1,6,0,,,,,,,,,,,,,,,,,,,,,,,,,,,,,,,,,,,,,,,,,,,,,,,,,,,,,,,,,,,,,,,,,,,,,,,,,,,
,,,,,,,,,,stimuli/images/PICTURE_467.png,DEMON,5ee22888962eba660d273581,16/09/1991,2020-09-02_12h30.41.680,proactive3.2,2020.1.2,Win32,60,5f47c0b9b035471e11593a5c,5f4f8195d408d503a68ee210,3,,,,,,peg,,,,,,0,17,17,23,1,3,0,,,,,,,,,,,,,,,,,,,,,,,,,,,,,,,,,,,,,,,,,,,,,,,,,,,,,,,,,,,,,,,,,,,,,,,,,,,
,,,,,,,,,,stimuli/images/PICTURE_208.png,LOTS,5ee22888962eba660d273581,16/09/1991,2020-09-02_12h30.41.680,proactive3.2,2020.1.2,Win32,60,5f47c0b9b035471e11593a5c,5f4f8195d408d503a68ee210,3,,,,,,microphone,,,,,,0,18,18,10,1,2,0,,,,,,,,,,,,,,,,,,,,,,,,,,,,,,,,,,,,,,,,,,,,,,,,,,,,,,,,,,,,,,,,,,,,,,,,,,,
,,,,,,,,,,stimuli/images/PICTURE_160.png,FEET,5ee22888962eba660d273581,16/09/1991,2020-09-02_12h30.41.680,proactive3.2,2020.1.2,Win32,60,5f47c0b9b035471e11593a5c,5f4f8195d408d503a68ee210,3,,,,,,wheelbarrow,,,,,,0,19,19,58,1,6,0,,,,,,,,,,,,,,,,,,,,,,,,,,,,,,,,,,,,,,,,,,,,,,,,,,,,,,,,,,,,,,,,,,,,,,,,,,,
,,,,,,,,,,stimuli/images/PICTURE_667.png,BATH,5ee22888962eba660d273581,16/09/1991,2020-09-02_12h30.41.680,proactive3.2,2020.1.2,Win32,60,5f47c0b9b035471e11593a5c,5f4f8195d408d503a68ee210,3,,,,,,daisy,,,,,,0,20,20,4,1,1,0,,,,,,,,,,,,,,,,,,,,,,,,,,,,,,,,,,,,,,,,,,,,,,,,,,,,,,,,,,,,,,,,,,,,,,,,,,,
,,,,,,,,,,stimuli/images/PICTURE_248.png,DOZEN,5ee22888962eba660d273581,16/09/1991,2020-09-02_12h30.41.680,proactive3.2,2020.1.2,Win32,60,5f47c0b9b035471e11593a5c,5f4f8195d408d503a68ee210,3,,,,,,cart,,,,,,0,21,21,39,1,4,0,,,,,,,,,,,,,,,,,,,,,,,,,,,,,,,,,,,,,,,,,,,,,,,,,,,,,,,,,,,,,,,,,,,,,,,,,,,
,,,,,,,,,,stimuli/images/PICTURE_208.png,MONTH,5ee22888962eba660d273581,16/09/1991,2020-09-02_12h30.41.680,proactive3.2,2020.1.2,Win32,60,5f47c0b9b035471e11593a5c,5f4f8195d408d503a68ee210,3,,,,,,microphone,,,,,,0,22,22,53,1,6,0,,,,,,,,,,,,,,,,,,,,,,,,,,,,,,,,,,,,,,,,,,,,,,,,,,,,,,,,,,,,,,,,,,,,,,,,,,,
,,,,,,,,,,stimuli/images/PICTURE_208.png,THING,5ee22888962eba660d273581,16/09/1991,2020-09-02_12h30.41.680,proactive3.2,2020.1.2,Win32,60,5f47c0b9b035471e11593a5c,5f4f8195d408d503a68ee210,3,,,,,,microphone,,,,,,0,23,23,47,1,5,0,,,,,,,,,,,,,,,,,,,,,,,,,,,,,,,,,,,,,,,,,,,,,,,,,,,,,,,,,,,,,,,,,,,,,,,,,,,
,,,,,,,,,,stimuli/images/PICTURE_302.png,FAMILY,5ee22888962eba660d273581,16/09/1991,2020-09-02_12h30.41.680,proactive3.2,2020.1.2,Win32,60,5f47c0b9b035471e11593a5c,5f4f8195d408d503a68ee210,3,,,,,,taxi,,,,,,0,24,24,18,1,2,0,,,,,,,,,,,,,,,,,,,,,,,,,,,,,,,,,,,,,,,,,,,,,,,,,,,,,,,,,,,,,,,,,,,,,,,,,,,
,,,,,,,,,,stimuli/images/PICTURE_469.png,LETTER,5ee22888962eba660d273581,16/09/1991,2020-09-02_12h30.41.680,proactive3.2,2020.1.2,Win32,60,5f47c0b9b035471e11593a5c,5f4f8195d408d503a68ee210,3,,,,,,stool,,,,,,0,25,25,42,1,5,0,,,,,,,,,,,,,,,,,,,,,,,,,,,,,,,,,,,,,,,,,,,,,,,,,,,,,,,,,,,,,,,,,,,,,,,,,,,
,,,,,,,,,,stimuli/images/PICTURE_95.png,STYLE,5ee22888962eba660d273581,16/09/1991,2020-09-02_12h30.41.680,proactive3.2,2020.1.2,Win32,60,5f47c0b9b035471e11593a5c,5f4f8195d408d503a68ee210,3,,,,,,suitcase,,,,,,0,26,26,25,1,3,0,,,,,,,,,,,,,,,,,,,,,,,,,,,,,,,,,,,,,,,,,,,,,,,,,,,,,,,,,,,,,,,,,,,,,,,,,,,
,,,,,,,,,,stimuli/images/PICTURE_311.png,FRIEND,5ee22888962eba660d273581,16/09/1991,2020-09-02_12h30.41.680,proactive3.2,2020.1.2,Win32,60,5f47c0b9b035471e11593a5c,5f4f8195d408d503a68ee210,3,,,,,,razor,,,,,,0,27,27,34,1,4,0,,,,,,,,,,,,,,,,,,,,,,,,,,,,,,,,,,,,,,,,,,,,,,,,,,,,,,,,,,,,,,,,,,,,,,,,,,,
,,,,,,,,,,stimuli/images/PICTURE_123.png,ADVICE,5ee22888962eba660d273581,16/09/1991,2020-09-02_12h30.41.680,proactive3.2,2020.1.2,Win32,60,5f47c0b9b035471e11593a5c,5f4f8195d408d503a68ee210,3,,,,,,dart,,,,,,0,28,28,50,1,6,0,,,,,,,,,,,,,,,,,,,,,,,,,,,,,,,,,,,,,,,,,,,,,,,,,,,,,,,,,,,,,,,,,,,,,,,,,,,
,,,,,,,,,,stimuli/images/PICTURE_744.png,SYSTEM,5ee22888962eba660d273581,16/09/1991,2020-09-02_12h30.41.680,proactive3.2,2020.1.2,Win32,60,5f47c0b9b035471e11593a5c,5f4f8195d408d503a68ee210,3,,,,,,ring,,,,,,0,29,29,43,1,5,0,,,,,,,,,,,,,,,,,,,,,,,,,,,,,,,,,,,,,,,,,,,,,,,,,,,,,,,,,,,,,,,,,,,,,,,,,,,
,,,,,,,,,,stimuli/images/PICTURE_688.png,WOMEN,5ee22888962eba660d273581,16/09/1991,2020-09-02_12h30.41.680,proactive3.2,2020.1.2,Win32,60,5f47c0b9b035471e11593a5c,5f4f8195d408d503a68ee210,3,,,,,,runner,,,,,,0,30,30,14,1,2,0,,,,,,,,,,,,,,,,,,,,,,,,,,,,,,,,,,,,,,,,,,,,,,,,,,,,,,,,,,,,,,,,,,,,,,,,,,,
,,,,,,,,,,stimuli/images/PICTURE_160.png,LEADER,5ee22888962eba660d273581,16/09/1991,2020-09-02_12h30.41.680,proactive3.2,2020.1.2,Win32,60,5f47c0b9b035471e11593a5c,5f4f8195d408d503a68ee210,3,,,,,,wheelbarrow,,,,,,0,31,31,3,1,1,0,,,,,,,,,,,,,,,,,,,,,,,,,,,,,,,,,,,,,,,,,,,,,,,,,,,,,,,,,,,,,,,,,,,,,,,,,,,
,,,,,,,,,,stimuli/images/PICTURE_504.png,BODY,5ee22888962eba660d273581,16/09/1991,2020-09-02_12h30.41.680,proactive3.2,2020.1.2,Win32,60,5f47c0b9b035471e11593a5c,5f4f8195d408d503a68ee210,3,,,,,,wheel,,,,,,0,32,32,8,1,1,0,,,,,,,,,,,,,,,,,,,,,,,,,,,,,,,,,,,,,,,,,,,,,,,,,,,,,,,,,,,,,,,,,,,,,,,,,,,
,,,,,,,,,,stimuli/images/PICTURE_285.png,ADVICE,5ee22888962eba660d273581,16/09/1991,2020-09-02_12h30.41.680,proactive3.2,2020.1.2,Win32,60,5f47c0b9b035471e11593a5c,5f4f8195d408d503a68ee210,3,,,,,,carrot,,,,,,0,33,33,12,1,2,0,,,,,,,,,,,,,,,,,,,,,,,,,,,,,,,,,,,,,,,,,,,,,,,,,,,,,,,,,,,,,,,,,,,,,,,,,,,
,,,,,,,,,,stimuli/images/PICTURE_255.png,AREA,5ee22888962eba660d273581,16/09/1991,2020-09-02_12h30.41.680,proactive3.2,2020.1.2,Win32,60,5f47c0b9b035471e11593a5c,5f4f8195d408d503a68ee210,3,,,,,,shovel,,,,,,0,34,34,22,1,3,0,,,,,,,,,,,,,,,,,,,,,,,,,,,,,,,,,,,,,,,,,,,,,,,,,,,,,,,,,,,,,,,,,,,,,,,,,,,
,,,,,,,,,,stimuli/images/PICTURE_487.png,FLIGHT,5ee22888962eba660d273581,16/09/1991,2020-09-02_12h30.41.680,proactive3.2,2020.1.2,Win32,60,5f47c0b9b035471e11593a5c,5f4f8195d408d503a68ee210,3,,,,,,basket,,,,,,0,35,35,9,1,1,0,,,,,,,,,,,,,,,,,,,,,,,,,,,,,,,,,,,,,,,,,,,,,,,,,,,,,,,,,,,,,,,,,,,,,,,,,,,
,,,,,,,,,,stimuli/images/PICTURE_215.png,PLENTY,5ee22888962eba660d273581,16/09/1991,2020-09-02_12h30.41.680,proactive3.2,2020.1.2,Win32,60,5f47c0b9b035471e11593a5c,5f4f8195d408d503a68ee210,3,,,,,,boot,,,,,,0,36,36,37,1,4,0,,,,,,,,,,,,,,,,,,,,,,,,,,,,,,,,,,,,,,,,,,,,,,,,,,,,,,,,,,,,,,,,,,,,,,,,,,,
,,,,,,,,,,stimuli/images/PICTURE_177.png,CARS,5ee22888962eba660d273581,16/09/1991,2020-09-02_12h30.41.680,proactive3.2,2020.1.2,Win32,60,5f47c0b9b035471e11593a5c,5f4f8195d408d503a68ee210,3,,,,,,mushroom,,,,,,0,37,37,35,1,4,0,,,,,,,,,,,,,,,,,,,,,,,,,,,,,,,,,,,,,,,,,,,,,,,,,,,,,,,,,,,,,,,,,,,,,,,,,,,
,,,,,,,,,,stimuli/images/PICTURE_123.png,ADVICE,5ee22888962eba660d273581,16/09/1991,2020-09-02_12h30.41.680,proactive3.2,2020.1.2,Win32,60,5f47c0b9b035471e11593a5c,5f4f8195d408d503a68ee210,3,,,,,,dart,,,,,,0,38,38,40,1,5,0,,,,,,,,,,,,,,,,,,,,,,,,,,,,,,,,,,,,,,,,,,,,,,,,,,,,,,,,,,,,,,,,,,,,,,,,,,,
,,,,,,,,,,stimuli/images/PICTURE_151.png,GIRL,5ee22888962eba660d273581,16/09/1991,2020-09-02_12h30.41.680,proactive3.2,2020.1.2,Win32,60,5f47c0b9b035471e11593a5c,5f4f8195d408d503a68ee210,3,,,,,,tray,,,,,,0,39,39,19,1,2,0,,,,,,,,,,,,,,,,,,,,,,,,,,,,,,,,,,,,,,,,,,,,,,,,,,,,,,,,,,,,,,,,,,,,,,,,,,,
,,,,,,,,,,stimuli/images/PICTURE_68.png,MILE,5ee22888962eba660d273581,16/09/1991,2020-09-02_12h30.41.680,proactive3.2,2020.1.2,Win32,60,5f47c0b9b035471e11593a5c,5f4f8195d408d503a68ee210,3,,,,,,candle,,,,,,0,40,40,44,1,5,0,,,,,,,,,,,,,,,,,,,,,,,,,,,,,,,,,,,,,,,,,,,,,,,,,,,,,,,,,,,,,,,,,,,,,,,,,,,
,,,,,,,,,,stimuli/images/PICTURE_233.png,IDEAS,5ee22888962eba660d273581,16/09/1991,2020-09-02_12h30.41.680,proactive3.2,2020.1.2,Win32,60,5f47c0b9b035471e11593a5c,5f4f8195d408d503a68ee210,3,,,,,,salt,,,,,,0,41,41,28,1,3,0,,,,,,,,,,,,,,,,,,,,,,,,,,,,,,,,,,,,,,,,,,,,,,,,,,,,,,,,,,,,,,,,,,,,,,,,,,,
,,,,,,,,,,stimuli/images/PICTURE_85.png,THING,5ee22888962eba660d273581,16/09/1991,2020-09-02_12h30.41.680,proactive3.2,2020.1.2,Win32,60,5f47c0b9b035471e11593a5c,5f4f8195d408d503a68ee210,3,,,,,,diamond,,,,,,0,42,42,15,1,2,0,,,,,,,,,,,,,,,,,,,,,,,,,,,,,,,,,,,,,,,,,,,,,,,,,,,,,,,,,,,,,,,,,,,,,,,,,,,
,,,,,,,,,,stimuli/images/PICTURE_491.png,ROOF,5ee22888962eba660d273581,16/09/1991,2020-09-02_12h30.41.680,proactive3.2,2020.1.2,Win32,60,5f47c0b9b035471e11593a5c,5f4f8195d408d503a68ee210,3,,,,,,rug,,,,,,0,43,43,24,1,3,0,,,,,,,,,,,,,,,,,,,,,,,,,,,,,,,,,,,,,,,,,,,,,,,,,,,,,,,,,,,,,,,,,,,,,,,,,,,
,,,,,,,,,,stimuli/images/PICTURE_675.png,WEAPON,5ee22888962eba660d273581,16/09/1991,2020-09-02_12h30.41.680,proactive3.2,2020.1.2,Win32,60,5f47c0b9b035471e11593a5c,5f4f8195d408d503a68ee210,3,,,,,,windmill,,,,,,0,44,44,32,1,4,0,,,,,,,,,,,,,,,,,,,,,,,,,,,,,,,,,,,,,,,,,,,,,,,,,,,,,,,,,,,,,,,,,,,,,,,,,,,
,,,,,,,,,,stimuli/images/PICTURE_488.png,STYLE,5ee22888962eba660d273581,16/09/1991,2020-09-02_12h30.41.680,proactive3.2,2020.1.2,Win32,60,5f47c0b9b035471e11593a5c,5f4f8195d408d503a68ee210,3,,,,,,sun,,,,,,0,45,45,33,1,4,0,,,,,,,,,,,,,,,,,,,,,,,,,,,,,,,,,,,,,,,,,,,,,,,,,,,,,,,,,,,,,,,,,,,,,,,,,,,
,,,,,,,,,,stimuli/images/PICTURE_654.png,VALLEY,5ee22888962eba660d273581,16/09/1991,2020-09-02_12h30.41.680,proactive3.2,2020.1.2,Win32,60,5f47c0b9b035471e11593a5c,5f4f8195d408d503a68ee210,3,,,,,,pencil,,,,,,0,46,46,1,1,1,0,,,,,,,,,,,,,,,,,,,,,,,,,,,,,,,,,,,,,,,,,,,,,,,,,,,,,,,,,,,,,,,,,,,,,,,,,,,
,,,,,,,,,,stimuli/images/PICTURE_667.png,PLENTY,5ee22888962eba660d273581,16/09/1991,2020-09-02_12h30.41.680,proactive3.2,2020.1.2,Win32,60,5f47c0b9b035471e11593a5c,5f4f8195d408d503a68ee210,3,,,,,,daisy,,,,,,0,47,47,41,1,5,0,,,,,,,,,,,,,,,,,,,,,,,,,,,,,,,,,,,,,,,,,,,,,,,,,,,,,,,,,,,,,,,,,,,,,,,,,,,
,,,,,,,,,,stimuli/images/PICTURE_233.png,WOMEN,5ee22888962eba660d273581,16/09/1991,2020-09-02_12h30.41.680,proactive3.2,2020.1.2,Win32,60,5f47c0b9b035471e11593a5c,5f4f8195d408d503a68ee210,3,,,,,,salt,,,,,,0,48,48,38,1,4,0,,,,,,,,,,,,,,,,,,,,,,,,,,,,,,,,,,,,,,,,,,,,,,,,,,,,,,,,,,,,,,,,,,,,,,,,,,,
,,,,,,,,,,stimuli/images/PICTURE_147.png,MOMENT,5ee22888962eba660d273581,16/09/1991,2020-09-02_12h30.41.680,proactive3.2,2020.1.2,Win32,60,5f47c0b9b035471e11593a5c,5f4f8195d408d503a68ee210,3,,,,,,hanger,,,,,,0,49,49,51,1,6,0,,,,,,,,,,,,,,,,,,,,,,,,,,,,,,,,,,,,,,,,,,,,,,,,,,,,,,,,,,,,,,,,,,,,,,,,,,,
,,,,,,,,,,stimuli/images/PICTURE_314.png,GODS,5ee22888962eba660d273581,16/09/1991,2020-09-02_12h30.41.680,proactive3.2,2020.1.2,Win32,60,5f47c0b9b035471e11593a5c,5f4f8195d408d503a68ee210,3,,,,,,perfume,,,,,,0,50,50,11,1,2,0,,,,,,,,,,,,,,,,,,,,,,,,,,,,,,,,,,,,,,,,,,,,,,,,,,,,,,,,,,,,,,,,,,,,,,,,,,,
,,,,,,,,,,stimuli/images/PICTURE_308.png,ESTATE,5ee22888962eba660d273581,16/09/1991,2020-09-02_12h30.41.680,proactive3.2,2020.1.2,Win32,60,5f47c0b9b035471e11593a5c,5f4f8195d408d503a68ee210,3,,,,,,dice,,,,,,0,51,51,46,1,5,0,,,,,,,,,,,,,,,,,,,,,,,,,,,,,,,,,,,,,,,,,,,,,,,,,,,,,,,,,,,,,,,,,,,,,,,,,,,
,,,,,,,,,,stimuli/images/PICTURE_708.png,YARD,5ee22888962eba660d273581,16/09/1991,2020-09-02_12h30.41.680,proactive3.2,2020.1.2,Win32,60,5f47c0b9b035471e11593a5c,5f4f8195d408d503a68ee210,3,,,,,,monkey,,,,,,0,52,52,29,1,3,0,,,,,,,,,,,,,,,,,,,,,,,,,,,,,,,,,,,,,,,,,,,,,,,,,,,,,,,,,,,,,,,,,,,,,,,,,,,
,,,,,,,,,,stimuli/images/PICTURE_453.png,DUDE,5ee22888962eba660d273581,16/09/1991,2020-09-02_12h30.41.680,proactive3.2,2020.1.2,Win32,60,5f47c0b9b035471e11593a5c,5f4f8195d408d503a68ee210,3,,,,,,scissors,,,,,,0,53,53,27,1,3,0,,,,,,,,,,,,,,,,,,,,,,,,,,,,,,,,,,,,,,,,,,,,,,,,,,,,,,,,,,,,,,,,,,,,,,,,,,,
,,,,,,,,,,stimuli/images/PICTURE_348.png,SPEECH,5ee22888962eba660d273581,16/09/1991,2020-09-02_12h30.41.680,proactive3.2,2020.1.2,Win32,60,5f47c0b9b035471e11593a5c,5f4f8195d408d503a68ee210,3,,,,,,pepper,,,,,,0,54,54,20,1,3,0,,,,,,,,,,,,,,,,,,,,,,,,,,,,,,,,,,,,,,,,,,,,,,,,,,,,,,,,,,,,,,,,,,,,,,,,,,,
,,,,,,,,,,stimuli/images/PICTURE_308.png,KIND,5ee22888962eba660d273581,16/09/1991,2020-09-02_12h30.41.680,proactive3.2,2020.1.2,Win32,60,5f47c0b9b035471e11593a5c,5f4f8195d408d503a68ee210,3,,,,,,dice,,,,,,0,55,55,54,1,6,0,,,,,,,,,,,,,,,,,,,,,,,,,,,,,,,,,,,,,,,,,,,,,,,,,,,,,,,,,,,,,,,,,,,,,,,,,,,
,,,,,,,,,,stimuli/images/PICTURE_380.png,DEATH,5ee22888962eba660d273581,16/09/1991,2020-09-02_12h30.41.680,proactive3.2,2020.1.2,Win32,60,5f47c0b9b035471e11593a5c,5f4f8195d408d503a68ee210,3,,,,,,gorilla,,,,,,0,56,56,49,1,5,0,,,,,,,,,,,,,,,,,,,,,,,,,,,,,,,,,,,,,,,,,,,,,,,,,,,,,,,,,,,,,,,,,,,,,,,,,,,
,,,,,,,,,,stimuli/images/PICTURE_339.png,PLENTY,5ee22888962eba660d273581,16/09/1991,2020-09-02_12h30.41.680,proactive3.2,2020.1.2,Win32,60,5f47c0b9b035471e11593a5c,5f4f8195d408d503a68ee210,3,,,,,,backpack,,,,,,0,57,57,0,1,1,0,,,,,,,,,,,,,,,,,,,,,,,,,,,,,,,,,,,,,,,,,,,,,,,,,,,,,,,,,,,,,,,,,,,,,,,,,,,
,,,,,,,,,,stimuli/images/PICTURE_688.png,CASINO,5ee22888962eba660d273581,16/09/1991,2020-09-02_12h30.41.680,proactive3.2,2020.1.2,Win32,60,5f47c0b9b035471e11593a5c,5f4f8195d408d503a68ee210,3,,,,,,runner,,,,,,0,58,58,2,1,1,0,,,,,,,,,,,,,,,,,,,,,,,,,,,,,,,,,,,,,,,,,,,,,,,,,,,,,,,,,,,,,,,,,,,,,,,,,,,
,,?,0.0022,0,,,,,,stimuli/images/PICTURE_339.png,PLENTY,5ee22888962eba660d273581,16/09/1991,2020-09-02_12h30.41.680,proactive3.2,2020.1.2,Win32,60,5f47c0b9b035471e11593a5c,5f4f8195d408d503a68ee210,3,,,,,,backpack,,,,,,,,,,,1,0,0,0,0,0,1,,,,,,,,,,,,,,,,,,,,,,,,,,,,,,,,,,,,,,,,,,,,,,,,,,,,,,,,,,,,,,,,,,,,,,
,,?,0.001,0,,,,,,stimuli/images/PICTURE_380.png,PHOTO,5ee22888962eba660d273581,16/09/1991,2020-09-02_12h30.41.680,proactive3.2,2020.1.2,Win32,60,5f47c0b9b035471e11593a5c,5f4f8195d408d503a68ee210,3,,,,,,gorilla,,,,,,,,,,,6,0,0,1,1,52,1,,,,,,,,,,,,,,,,,,,,,,,,,,,,,,,,,,,,,,,,,,,,,,,,,,,,,,,,,,,,,,,,,,,,,,
,,?,0.00119,0,,,,,,stimuli/images/PICTURE_449.png,THING,5ee22888962eba660d273581,16/09/1991,2020-09-02_12h30.41.680,proactive3.2,2020.1.2,Win32,60,5f47c0b9b035471e11593a5c,5f4f8195d408d503a68ee210,3,,,,,,bench,,,,,,,,,,,6,0,0,2,2,59,1,,,,,,,,,,,,,,,,,,,,,,,,,,,,,,,,,,,,,,,,,,,,,,,,,,,,,,,,,,,,,,,,,,,,,,
,,?,0.00112,0,,,,,,stimuli/images/PICTURE_123.png,ADVICE,5ee22888962eba660d273581,16/09/1991,2020-09-02_12h30.41.680,proactive3.2,2020.1.2,Win32,60,5f47c0b9b035471e11593a5c,5f4f8195d408d503a68ee210,3,,,,,,dart,,,,,,,,,,,5,0,0,3,3,40,1,,,,,,,,,,,,,,,,,,,,,,,,,,,,,,,,,,,,,,,,,,,,,,,,,,,,,,,,,,,,,,,,,,,,,,
,,?,0.00177,0,,,,,,stimuli/images/PICTURE_68.png,MILE,5ee22888962eba660d273581,16/09/1991,2020-09-02_12h30.41.680,proactive3.2,2020.1.2,Win32,60,5f47c0b9b035471e11593a5c,5f4f8195d408d503a68ee210,3,,,,,,candle,,,,,,,,,,,5,0,0,4,4,44,1,,,,,,,,,,,,,,,,,,,,,,,,,,,,,,,,,,,,,,,,,,,,,,,,,,,,,,,,,,,,,,,,,,,,,,
,,?,0.001,0,,,,,,stimuli/images/PICTURE_177.png,CARS,5ee22888962eba660d273581,16/09/1991,2020-09-02_12h30.41.680,proactive3.2,2020.1.2,Win32,60,5f47c0b9b035471e11593a5c,5f4f8195d408d503a68ee210,3,,,,,,mushroom,,,,,,,,,,,4,0,0,5,5,35,1,,,,,,,,,,,,,,,,,,,,,,,,,,,,,,,,,,,,,,,,,,,,,,,,,,,,,,,,,,,,,,,,,,,,,,
,,?,0.000915,0,,,,,,stimuli/images/PICTURE_208.png,LOTS,5ee22888962eba660d273581,16/09/1991,2020-09-02_12h30.41.680,proactive3.2,2020.1.2,Win32,60,5f47c0b9b035471e11593a5c,5f4f8195d408d503a68ee210,3,,,,,,microphone,,,,,,,,,,,2,0,0,6,6,10,1,,,,,,,,,,,,,,,,,,,,,,,,,,,,,,,,,,,,,,,,,,,,,,,,,,,,,,,,,,,,,,,,,,,,,,
,,DUDE,2.15824,1,,,,,,stimuli/images/PICTURE_453.png,DUDE,5ee22888962eba660d273581,16/09/1991,2020-09-02_12h30.41.680,proactive3.2,2020.1.2,Win32,60,5f47c0b9b035471e11593a5c,5f4f8195d408d503a68ee210,3,,,,,,scissors,,,,,,,,,,,3,0,0,7,7,27,1,,,,,,,,,,,,,,,,,,,,,,,,,,,,,,,,,,,,,,,,,,,,,,,,,,,,,,,,,,,,,,,,,,,,,,
,,?,0.002775,0,,,,,,stimuli/images/PICTURE_311.png,FRIEND,5ee22888962eba660d273581,16/09/1991,2020-09-02_12h30.41.680,proactive3.2,2020.1.2,Win32,60,5f47c0b9b035471e11593a5c,5f4f8195d408d503a68ee210,3,,,,,,razor,,,,,,,,,,,4,0,0,8,8,34,1,,,,,,,,,,,,,,,,,,,,,,,,,,,,,,,,,,,,,,,,,,,,,,,,,,,,,,,,,,,,,,,,,,,,,,
,,?,0.001125,0,,,,,,stimuli/images/PICTURE_488.png,STYLE,5ee22888962eba660d273581,16/09/1991,2020-09-02_12h30.41.680,proactive3.2,2020.1.2,Win32,60,5f47c0b9b035471e11593a5c,5f4f8195d408d503a68ee210,3,,,,,,sun,,,,,,,,,,,4,0,0,9,9,33,1,,,,,,,,,,,,,,,,,,,,,,,,,,,,,,,,,,,,,,,,,,,,,,,,,,,,,,,,,,,,,,,,,,,,,,
,,?,0.00078,0,,,,,,stimuli/images/PICTURE_453.png,PLENTY,5ee22888962eba660d273581,16/09/1991,2020-09-02_12h30.41.680,proactive3.2,2020.1.2,Win32,60,5f47c0b9b035471e11593a5c,5f4f8195d408d503a68ee210,3,,,,,,scissors,,,,,,,,,,,6,0,0,10,10,56,1,,,,,,,,,,,,,,,,,,,,,,,,,,,,,,,,,,,,,,,,,,,,,,,,,,,,,,,,,,,,,,,,,,,,,,
,,?,0.00079,0,,,,,,stimuli/images/PICTURE_654.png,VALLEY,5ee22888962eba660d273581,16/09/1991,2020-09-02_12h30.41.680,proactive3.2,2020.1.2,Win32,60,5f47c0b9b035471e11593a5c,5f4f8195d408d503a68ee210,3,,,,,,pencil,,,,,,,,,,,1,0,0,11,11,1,1,,,,,,,,,,,,,,,,,,,,,,,,,,,,,,,,,,,,,,,,,,,,,,,,,,,,,,,,,,,,,,,,,,,,,,
,,?,0.0011,0,,,,,,stimuli/images/PICTURE_504.png,BODY,5ee22888962eba660d273581,16/09/1991,2020-09-02_12h30.41.680,proactive3.2,2020.1.2,Win32,60,5f47c0b9b035471e11593a5c,5f4f8195d408d503a68ee210,3,,,,,,wheel,,,,,,,,,,,1,0,0,12,12,8,1,,,,,,,,,,,,,,,,,,,,,,,,,,,,,,,,,,,,,,,,,,,,,,,,,,,,,,,,,,,,,,,,,,,,,,
,,?,0.00097,0,,,,,,stimuli/images/PICTURE_667.png,PLENTY,5ee22888962eba660d273581,16/09/1991,2020-09-02_12h30.41.680,proactive3.2,2020.1.2,Win32,60,5f47c0b9b035471e11593a5c,5f4f8195d408d503a68ee210,3,,,,,,daisy,,,,,,,,,,,5,0,0,13,13,41,1,,,,,,,,,,,,,,,,,,,,,,,,,,,,,,,,,,,,,,,,,,,,,,,,,,,,,,,,,,,,,,,,,,,,,,
