consent_key.keys,consent_key.rt,recalled,recalled_rt,recall_acc,example_recall.thisRepN,example_recall.thisTrialN,example_recall.thisN,example_recall.thisIndex,example_recall.ran,file,word,participant,please enter your date of birth (dd/mm/yyyy),date,expName,psychopyVersion,OS,frameRate,STUDY_ID,SESSION_ID,list,prac_learn_study_loop.thisRepN,prac_learn_study_loop.thisTrialN,prac_learn_study_loop.thisN,prac_learn_study_loop.thisIndex,prac_learn_study_loop.ran,image,prac_learn_test_loop.thisRepN,prac_learn_test_loop.thisTrialN,prac_learn_test_loop.thisN,prac_learn_test_loop.thisIndex,prac_learn_test_loop.ran,learn_study_loop.thisRepN,learn_study_loop.thisTrialN,learn_study_loop.thisN,learn_study_loop.thisIndex,learn_study_loop.ran,list_no,block_no,learn_test_loop.thisRepN,learn_test_loop.thisTrialN,learn_test_loop.thisN,learn_test_loop.thisIndex,learn_test_loop.ran,learn_blocks.thisRepN,learn_blocks.thisTrialN,learn_blocks.thisN,learn_blocks.thisIndex,learn_blocks.ran,block_csv,key_resp_13.keys,key_resp_13.rt,learn_blocks_loop.thisRepN,learn_blocks_loop.thisTrialN,learn_blocks_loop.thisN,learn_blocks_loop.thisIndex,learn_blocks_loop.ran,final_learn_test.thisRepN,final_learn_test.thisTrialN,final_learn_test.thisN,final_learn_test.thisIndex,final_learn_test.ran,prac_wm_test_loop.thisRepN,prac_wm_test_loop.thisTrialN,prac_wm_test_loop.thisN,prac_wm_test_loop.thisIndex,prac_wm_test_loop.ran,wm_recalled1,wm_recall_rt1,wm_probed1,wm_recall_acc1,wm_recalled2,wm_recall_rt2,wm_probed2,wm_recall_acc2,wm_recalled3,wm_recall_rt3,wm_probed3,wm_recall_acc3,wm_recalled4,wm_recall_rt4,wm_probed4,wm_recall_acc4,prac_wm_trial_loop.thisRepN,prac_wm_trial_loop.thisTrialN,prac_wm_trial_loop.thisN,prac_wm_trial_loop.thisIndex,prac_wm_trial_loop.ran,word1,image1,file1,item_type1,word2,image2,file2,item_type2,word4,image4,file4,item_type4,word3,image3,file3,item_type3,wm_test_loop.thisRepN,wm_test_loop.thisTrialN,wm_test_loop.thisN,wm_test_loop.thisIndex,wm_test_loop.ran,wm_trial_loop.thisRepN,wm_trial_loop.thisTrialN,wm_trial_loop.thisN,wm_trial_loop.thisIndex,wm_trial_loop.ran
y,98.832795,TOUGH,1.82023,1,0,0,0,0,1,stimuli/images/PICTURE_747.png,TOUGH,5ee278242f89ff153301cb37,13/06/1989,2020-08-27_15h41.09.301,proactive3.2,2020.1.2,Win32,60,5f47c0b9b035471e11593a5c,5f47c4ddf50c0e1df0d787a1,2,,,,,,,,,,,,,,,,,,,,,,,,,,,,,,,,,,,,,,,,,,,,,,,,,,,,,,,,,,,,,,,,,,,,,,,,,,,,,,,,,,,,,,,,,,,,,
,,,,,,,,,,stimuli/images/PICTURE_658.png,DEVIL,5ee278242f89ff153301cb37,13/06/1989,2020-08-27_15h41.09.301,proactive3.2,2020.1.2,Win32,60,5f47c0b9b035471e11593a5c,5f47c4ddf50c0e1df0d787a1,2,0,0,0,3,1,crow,,,,,,,,,,,,,,,,,,,,,,,,,,,,,,,,,,,,,,,,,,,,,,,,,,,,,,,,,,,,,,,,,,,,,,,,,,,,,,,,,,,,,,,
,,,,,,,,,,stimuli/images/PICTURE_697.png,KILLER,5ee278242f89ff153301cb37,13/06/1989,2020-08-27_15h41.09.301,proactive3.2,2020.1.2,Win32,60,5f47c0b9b035471e11593a5c,5f47c4ddf50c0e1df0d787a1,2,0,1,1,4,1,peach,,,,,,,,,,,,,,,,,,,,,,,,,,,,,,,,,,,,,,,,,,,,,,,,,,,,,,,,,,,,,,,,,,,,,,,,,,,,,,,,,,,,,,,
,,,,,,,,,,stimuli/images/PICTURE_378.png,LOSS,5ee278242f89ff153301cb37,13/06/1989,2020-08-27_15h41.09.301,proactive3.2,2020.1.2,Win32,60,5f47c0b9b035471e11593a5c,5f47c4ddf50c0e1df0d787a1,2,0,2,2,2,1,lobster,,,,,,,,,,,,,,,,,,,,,,,,,,,,,,,,,,,,,,,,,,,,,,,,,,,,,,,,,,,,,,,,,,,,,,,,,,,,,,,,,,,,,,,
,,,,,,,,,,stimuli/images/PICTURE_727.png,CELL,5ee278242f89ff153301cb37,13/06/1989,2020-08-27_15h41.09.301,proactive3.2,2020.1.2,Win32,60,5f47c0b9b035471e11593a5c,5f47c4ddf50c0e1df0d787a1,2,0,3,3,1,1,hose,,,,,,,,,,,,,,,,,,,,,,,,,,,,,,,,,,,,,,,,,,,,,,,,,,,,,,,,,,,,,,,,,,,,,,,,,,,,,,,,,,,,,,,
,,KILLER,3.24588,1,,,,,,stimuli/images/PICTURE_697.png,KILLER,5ee278242f89ff153301cb37,13/06/1989,2020-08-27_15h41.09.301,proactive3.2,2020.1.2,Win32,60,5f47c0b9b035471e11593a5c,5f47c4ddf50c0e1df0d787a1,2,,,,,,peach,0,0,0,4,1,,,,,,,,,,,,,,,,,,,,,,,,,,,,,,,,,,,,,,,,,,,,,,,,,,,,,,,,,,,,,,,,,,,,,,,,,,,,,,,,,,
,,LOSS,3.099295,1,,,,,,stimuli/images/PICTURE_378.png,LOSS,5ee278242f89ff153301cb37,13/06/1989,2020-08-27_15h41.09.301,proactive3.2,2020.1.2,Win32,60,5f47c0b9b035471e11593a5c,5f47c4ddf50c0e1df0d787a1,2,,,,,,lobster,0,1,1,2,1,,,,,,,,,,,,,,,,,,,,,,,,,,,,,,,,,,,,,,,,,,,,,,,,,,,,,,,,,,,,,,,,,,,,,,,,,,,,,,,,,,
,,CELL,1.51626,1,,,,,,stimuli/images/PICTURE_727.png,CELL,5ee278242f89ff153301cb37,13/06/1989,2020-08-27_15h41.09.301,proactive3.2,2020.1.2,Win32,60,5f47c0b9b035471e11593a5c,5f47c4ddf50c0e1df0d787a1,2,,,,,,hose,0,2,2,1,1,,,,,,,,,,,,,,,,,,,,,,,,,,,,,,,,,,,,,,,,,,,,,,,,,,,,,,,,,,,,,,,,,,,,,,,,,,,,,,,,,,
,,DEVIL,1.64881,1,,,,,,stimuli/images/PICTURE_658.png,DEVIL,5ee278242f89ff153301cb37,13/06/1989,2020-08-27_15h41.09.301,proactive3.2,2020.1.2,Win32,60,5f47c0b9b035471e11593a5c,5f47c4ddf50c0e1df0d787a1,2,,,,,,crow,0,3,3,3,1,,,,,,,,,,,,,,,,,,,,,,,,,,,,,,,,,,,,,,,,,,,,,,,,,,,,,,,,,,,,,,,,,,,,,,,,,,,,,,,,,,
,,GENIOUS,4.9498,0,,,,,,stimuli/images/PICTURE_269.png,GENIUS,5ee278242f89ff153301cb37,13/06/1989,2020-08-27_15h41.09.301,proactive3.2,2020.1.2,Win32,60,5f47c0b9b035471e11593a5c,5f47c4ddf50c0e1df0d787a1,2,,,,,,chameleon,0,4,4,0,1,,,,,,,,,,,,,,,,,,,,,,,,,,,,,,,,,,,,,,,,,,,,,,,,,,,,,,,,,,,,,,,,,,,,,,,,,,,,,,,,,,
,,,,,,,,,,stimuli/images/PICTURE_405.png,JUNGLE,5ee278242f89ff153301cb37,13/06/1989,2020-08-27_15h41.09.301,proactive3.2,2020.1.2,Win32,60,5f47c0b9b035471e11593a5c,5f47c4ddf50c0e1df0d787a1,2,,,,,,anchor,,,,,,0,0,0,13,1,2,2,,,,,,,,,,,,,,,,,,,,,,,,,,,,,,,,,,,,,,,,,,,,,,,,,,,,,,,,,,,,,,,,,,,,,,,,,,,
,,,,,,,,,,stimuli/images/PICTURE_356.png,CANDY,5ee278242f89ff153301cb37,13/06/1989,2020-08-27_15h41.09.301,proactive3.2,2020.1.2,Win32,60,5f47c0b9b035471e11593a5c,5f47c4ddf50c0e1df0d787a1,2,,,,,,pawn,,,,,,0,1,1,46,1,5,2,,,,,,,,,,,,,,,,,,,,,,,,,,,,,,,,,,,,,,,,,,,,,,,,,,,,,,,,,,,,,,,,,,,,,,,,,,,
,,,,,,,,,,stimuli/images/PICTURE_509.png,MILLER,5ee278242f89ff153301cb37,13/06/1989,2020-08-27_15h41.09.301,proactive3.2,2020.1.2,Win32,60,5f47c0b9b035471e11593a5c,5f47c4ddf50c0e1df0d787a1,2,,,,,,telephone,,,,,,0,2,2,49,1,5,2,,,,,,,,,,,,,,,,,,,,,,,,,,,,,,,,,,,,,,,,,,,,,,,,,,,,,,,,,,,,,,,,,,,,,,,,,,,
,,,,,,,,,,stimuli/images/PICTURE_403.png,FAMILY,5ee278242f89ff153301cb37,13/06/1989,2020-08-27_15h41.09.301,proactive3.2,2020.1.2,Win32,60,5f47c0b9b035471e11593a5c,5f47c4ddf50c0e1df0d787a1,2,,,,,,cathedral,,,,,,0,3,3,9,1,1,2,,,,,,,,,,,,,,,,,,,,,,,,,,,,,,,,,,,,,,,,,,,,,,,,,,,,,,,,,,,,,,,,,,,,,,,,,,,
,,,,,,,,,,stimuli/images/PICTURE_504.png,HOUSE,5ee278242f89ff153301cb37,13/06/1989,2020-08-27_15h41.09.301,proactive3.2,2020.1.2,Win32,60,5f47c0b9b035471e11593a5c,5f47c4ddf50c0e1df0d787a1,2,,,,,,wheel,,,,,,0,4,4,36,1,4,2,,,,,,,,,,,,,,,,,,,,,,,,,,,,,,,,,,,,,,,,,,,,,,,,,,,,,,,,,,,,,,,,,,,,,,,,,,,
,,,,,,,,,,stimuli/images/PICTURE_708.png,VALLEY,5ee278242f89ff153301cb37,13/06/1989,2020-08-27_15h41.09.301,proactive3.2,2020.1.2,Win32,60,5f47c0b9b035471e11593a5c,5f47c4ddf50c0e1df0d787a1,2,,,,,,monkey,,,,,,0,5,5,45,1,5,2,,,,,,,,,,,,,,,,,,,,,,,,,,,,,,,,,,,,,,,,,,,,,,,,,,,,,,,,,,,,,,,,,,,,,,,,,,,
,,,,,,,,,,stimuli/images/PICTURE_33.png,COPS,5ee278242f89ff153301cb37,13/06/1989,2020-08-27_15h41.09.301,proactive3.2,2020.1.2,Win32,60,5f47c0b9b035471e11593a5c,5f47c4ddf50c0e1df0d787a1,2,,,,,,frame,,,,,,0,6,6,29,1,3,2,,,,,,,,,,,,,,,,,,,,,,,,,,,,,,,,,,,,,,,,,,,,,,,,,,,,,,,,,,,,,,,,,,,,,,,,,,,
,,,,,,,,,,stimuli/images/PICTURE_93.png,GIRL,5ee278242f89ff153301cb37,13/06/1989,2020-08-27_15h41.09.301,proactive3.2,2020.1.2,Win32,60,5f47c0b9b035471e11593a5c,5f47c4ddf50c0e1df0d787a1,2,,,,,,skateboard,,,,,,0,7,7,31,1,4,2,,,,,,,,,,,,,,,,,,,,,,,,,,,,,,,,,,,,,,,,,,,,,,,,,,,,,,,,,,,,,,,,,,,,,,,,,,,
,,,,,,,,,,stimuli/images/PICTURE_509.png,APPLE,5ee278242f89ff153301cb37,13/06/1989,2020-08-27_15h41.09.301,proactive3.2,2020.1.2,Win32,60,5f47c0b9b035471e11593a5c,5f47c4ddf50c0e1df0d787a1,2,,,,,,telephone,,,,,,0,8,8,38,1,4,2,,,,,,,,,,,,,,,,,,,,,,,,,,,,,,,,,,,,,,,,,,,,,,,,,,,,,,,,,,,,,,,,,,,,,,,,,,,
,,,,,,,,,,stimuli/images/PICTURE_160.png,HOTEL,5ee278242f89ff153301cb37,13/06/1989,2020-08-27_15h41.09.301,proactive3.2,2020.1.2,Win32,60,5f47c0b9b035471e11593a5c,5f47c4ddf50c0e1df0d787a1,2,,,,,,wheelbarrow,,,,,,0,9,9,16,1,2,2,,,,,,,,,,,,,,,,,,,,,,,,,,,,,,,,,,,,,,,,,,,,,,,,,,,,,,,,,,,,,,,,,,,,,,,,,,,
,,,,,,,,,,stimuli/images/PICTURE_123.png,SALE,5ee278242f89ff153301cb37,13/06/1989,2020-08-27_15h41.09.301,proactive3.2,2020.1.2,Win32,60,5f47c0b9b035471e11593a5c,5f47c4ddf50c0e1df0d787a1,2,,,,,,dart,,,,,,0,10,10,8,1,1,2,,,,,,,,,,,,,,,,,,,,,,,,,,,,,,,,,,,,,,,,,,,,,,,,,,,,,,,,,,,,,,,,,,,,,,,,,,,
,,,,,,,,,,stimuli/images/PICTURE_177.png,HOUSE,5ee278242f89ff153301cb37,13/06/1989,2020-08-27_15h41.09.301,proactive3.2,2020.1.2,Win32,60,5f47c0b9b035471e11593a5c,5f47c4ddf50c0e1df0d787a1,2,,,,,,mushroom,,,,,,0,11,11,25,1,3,2,,,,,,,,,,,,,,,,,,,,,,,,,,,,,,,,,,,,,,,,,,,,,,,,,,,,,,,,,,,,,,,,,,,,,,,,,,,
,,,,,,,,,,stimuli/images/PICTURE_2.png,JUNGLE,5ee278242f89ff153301cb37,13/06/1989,2020-08-27_15h41.09.301,proactive3.2,2020.1.2,Win32,60,5f47c0b9b035471e11593a5c,5f47c4ddf50c0e1df0d787a1,2,,,,,,tyre,,,,,,0,12,12,1,1,1,2,,,,,,,,,,,,,,,,,,,,,,,,,,,,,,,,,,,,,,,,,,,,,,,,,,,,,,,,,,,,,,,,,,,,,,,,,,,
,,,,,,,,,,stimuli/images/PICTURE_564.png,PLENTY,5ee278242f89ff153301cb37,13/06/1989,2020-08-27_15h41.09.301,proactive3.2,2020.1.2,Win32,60,5f47c0b9b035471e11593a5c,5f47c4ddf50c0e1df0d787a1,2,,,,,,spoon,,,,,,0,13,13,11,1,2,2,,,,,,,,,,,,,,,,,,,,,,,,,,,,,,,,,,,,,,,,,,,,,,,,,,,,,,,,,,,,,,,,,,,,,,,,,,,
,,,,,,,,,,stimuli/images/PICTURE_348.png,TOILET,5ee278242f89ff153301cb37,13/06/1989,2020-08-27_15h41.09.301,proactive3.2,2020.1.2,Win32,60,5f47c0b9b035471e11593a5c,5f47c4ddf50c0e1df0d787a1,2,,,,,,pepper,,,,,,0,14,14,4,1,1,2,,,,,,,,,,,,,,,,,,,,,,,,,,,,,,,,,,,,,,,,,,,,,,,,,,,,,,,,,,,,,,,,,,,,,,,,,,,
,,,,,,,,,,stimuli/images/PICTURE_57.png,CASINO,5ee278242f89ff153301cb37,13/06/1989,2020-08-27_15h41.09.301,proactive3.2,2020.1.2,Win32,60,5f47c0b9b035471e11593a5c,5f47c4ddf50c0e1df0d787a1,2,,,,,,stamp,,,,,,0,15,15,12,1,2,2,,,,,,,,,,,,,,,,,,,,,,,,,,,,,,,,,,,,,,,,,,,,,,,,,,,,,,,,,,,,,,,,,,,,,,,,,,,
,,,,,,,,,,stimuli/images/PICTURE_405.png,JUNGLE,5ee278242f89ff153301cb37,13/06/1989,2020-08-27_15h41.09.301,proactive3.2,2020.1.2,Win32,60,5f47c0b9b035471e11593a5c,5f47c4ddf50c0e1df0d787a1,2,,,,,,anchor,,,,,,0,16,16,58,1,6,2,,,,,,,,,,,,,,,,,,,,,,,,,,,,,,,,,,,,,,,,,,,,,,,,,,,,,,,,,,,,,,,,,,,,,,,,,,,
,,,,,,,,,,stimuli/images/PICTURE_215.png,FOOD,5ee278242f89ff153301cb37,13/06/1989,2020-08-27_15h41.09.301,proactive3.2,2020.1.2,Win32,60,5f47c0b9b035471e11593a5c,5f47c4ddf50c0e1df0d787a1,2,,,,,,boot,,,,,,0,17,17,5,1,1,2,,,,,,,,,,,,,,,,,,,,,,,,,,,,,,,,,,,,,,,,,,,,,,,,,,,,,,,,,,,,,,,,,,,,,,,,,,,
,,,,,,,,,,stimuli/images/PICTURE_750.png,POLICY,5ee278242f89ff153301cb37,13/06/1989,2020-08-27_15h41.09.301,proactive3.2,2020.1.2,Win32,60,5f47c0b9b035471e11593a5c,5f47c4ddf50c0e1df0d787a1,2,,,,,,kettle,,,,,,0,18,18,44,1,5,2,,,,,,,,,,,,,,,,,,,,,,,,,,,,,,,,,,,,,,,,,,,,,,,,,,,,,,,,,,,,,,,,,,,,,,,,,,,
,,,,,,,,,,stimuli/images/PICTURE_255.png,PENNY,5ee278242f89ff153301cb37,13/06/1989,2020-08-27_15h41.09.301,proactive3.2,2020.1.2,Win32,60,5f47c0b9b035471e11593a5c,5f47c4ddf50c0e1df0d787a1,2,,,,,,shovel,,,,,,0,19,19,19,1,2,2,,,,,,,,,,,,,,,,,,,,,,,,,,,,,,,,,,,,,,,,,,,,,,,,,,,,,,,,,,,,,,,,,,,,,,,,,,,
,,,,,,,,,,stimuli/images/PICTURE_654.png,COPS,5ee278242f89ff153301cb37,13/06/1989,2020-08-27_15h41.09.301,proactive3.2,2020.1.2,Win32,60,5f47c0b9b035471e11593a5c,5f47c4ddf50c0e1df0d787a1,2,,,,,,pencil,,,,,,0,20,20,10,1,2,2,,,,,,,,,,,,,,,,,,,,,,,,,,,,,,,,,,,,,,,,,,,,,,,,,,,,,,,,,,,,,,,,,,,,,,,,,,,
,,,,,,,,,,stimuli/images/PICTURE_2.png,AREA,5ee278242f89ff153301cb37,13/06/1989,2020-08-27_15h41.09.301,proactive3.2,2020.1.2,Win32,60,5f47c0b9b035471e11593a5c,5f47c4ddf50c0e1df0d787a1,2,,,,,,tyre,,,,,,0,21,21,32,1,4,2,,,,,,,,,,,,,,,,,,,,,,,,,,,,,,,,,,,,,,,,,,,,,,,,,,,,,,,,,,,,,,,,,,,,,,,,,,,
,,,,,,,,,,stimuli/images/PICTURE_470.png,MOMENT,5ee278242f89ff153301cb37,13/06/1989,2020-08-27_15h41.09.301,proactive3.2,2020.1.2,Win32,60,5f47c0b9b035471e11593a5c,5f47c4ddf50c0e1df0d787a1,2,,,,,,motorbike,,,,,,0,22,22,40,1,5,2,,,,,,,,,,,,,,,,,,,,,,,,,,,,,,,,,,,,,,,,,,,,,,,,,,,,,,,,,,,,,,,,,,,,,,,,,,,
,,,,,,,,,,stimuli/images/PICTURE_327.png,LEADER,5ee278242f89ff153301cb37,13/06/1989,2020-08-27_15h41.09.301,proactive3.2,2020.1.2,Win32,60,5f47c0b9b035471e11593a5c,5f47c4ddf50c0e1df0d787a1,2,,,,,,helmet,,,,,,0,23,23,17,1,2,2,,,,,,,,,,,,,,,,,,,,,,,,,,,,,,,,,,,,,,,,,,,,,,,,,,,,,,,,,,,,,,,,,,,,,,,,,,,
,,,,,,,,,,stimuli/images/PICTURE_311.png,FLESH,5ee278242f89ff153301cb37,13/06/1989,2020-08-27_15h41.09.301,proactive3.2,2020.1.2,Win32,60,5f47c0b9b035471e11593a5c,5f47c4ddf50c0e1df0d787a1,2,,,,,,razor,,,,,,0,24,24,3,1,1,2,,,,,,,,,,,,,,,,,,,,,,,,,,,,,,,,,,,,,,,,,,,,,,,,,,,,,,,,,,,,,,,,,,,,,,,,,,,
,,,,,,,,,,stimuli/images/PICTURE_470.png,BEAUTY,5ee278242f89ff153301cb37,13/06/1989,2020-08-27_15h41.09.301,proactive3.2,2020.1.2,Win32,60,5f47c0b9b035471e11593a5c,5f47c4ddf50c0e1df0d787a1,2,,,,,,motorbike,,,,,,0,25,25,26,1,3,2,,,,,,,,,,,,,,,,,,,,,,,,,,,,,,,,,,,,,,,,,,,,,,,,,,,,,,,,,,,,,,,,,,,,,,,,,,,
,,,,,,,,,,stimuli/images/PICTURE_2.png,YARD,5ee278242f89ff153301cb37,13/06/1989,2020-08-27_15h41.09.301,proactive3.2,2020.1.2,Win32,60,5f47c0b9b035471e11593a5c,5f47c4ddf50c0e1df0d787a1,2,,,,,,tyre,,,,,,0,26,26,55,1,6,2,,,,,,,,,,,,,,,,,,,,,,,,,,,,,,,,,,,,,,,,,,,,,,,,,,,,,,,,,,,,,,,,,,,,,,,,,,,
,,,,,,,,,,stimuli/images/PICTURE_654.png,YEAR,5ee278242f89ff153301cb37,13/06/1989,2020-08-27_15h41.09.301,proactive3.2,2020.1.2,Win32,60,5f47c0b9b035471e11593a5c,5f47c4ddf50c0e1df0d787a1,2,,,,,,pencil,,,,,,0,27,27,41,1,5,2,,,,,,,,,,,,,,,,,,,,,,,,,,,,,,,,,,,,,,,,,,,,,,,,,,,,,,,,,,,,,,,,,,,,,,,,,,,
,,,,,,,,,,stimuli/images/PICTURE_405.png,HOUSE,5ee278242f89ff153301cb37,13/06/1989,2020-08-27_15h41.09.301,proactive3.2,2020.1.2,Win32,60,5f47c0b9b035471e11593a5c,5f47c4ddf50c0e1df0d787a1,2,,,,,,anchor,,,,,,0,28,28,2,1,1,2,,,,,,,,,,,,,,,,,,,,,,,,,,,,,,,,,,,,,,,,,,,,,,,,,,,,,,,,,,,,,,,,,,,,,,,,,,,
,,,,,,,,,,stimuli/images/PICTURE_215.png,LEADER,5ee278242f89ff153301cb37,13/06/1989,2020-08-27_15h41.09.301,proactive3.2,2020.1.2,Win32,60,5f47c0b9b035471e11593a5c,5f47c4ddf50c0e1df0d787a1,2,,,,,,boot,,,,,,0,29,29,43,1,5,2,,,,,,,,,,,,,,,,,,,,,,,,,,,,,,,,,,,,,,,,,,,,,,,,,,,,,,,,,,,,,,,,,,,,,,,,,,,
,,,,,,,,,,stimuli/images/PICTURE_285.png,WRITER,5ee278242f89ff153301cb37,13/06/1989,2020-08-27_15h41.09.301,proactive3.2,2020.1.2,Win32,60,5f47c0b9b035471e11593a5c,5f47c4ddf50c0e1df0d787a1,2,,,,,,carrot,,,,,,0,30,30,6,1,1,2,,,,,,,,,,,,,,,,,,,,,,,,,,,,,,,,,,,,,,,,,,,,,,,,,,,,,,,,,,,,,,,,,,,,,,,,,,,
,,,,,,,,,,stimuli/images/PICTURE_285.png,PRINCE,5ee278242f89ff153301cb37,13/06/1989,2020-08-27_15h41.09.301,proactive3.2,2020.1.2,Win32,60,5f47c0b9b035471e11593a5c,5f47c4ddf50c0e1df0d787a1,2,,,,,,carrot,,,,,,0,31,31,20,1,3,2,,,,,,,,,,,,,,,,,,,,,,,,,,,,,,,,,,,,,,,,,,,,,,,,,,,,,,,,,,,,,,,,,,,,,,,,,,,
,,,,,,,,,,stimuli/images/PICTURE_509.png,SHOTS,5ee278242f89ff153301cb37,13/06/1989,2020-08-27_15h41.09.301,proactive3.2,2020.1.2,Win32,60,5f47c0b9b035471e11593a5c,5f47c4ddf50c0e1df0d787a1,2,,,,,,telephone,,,,,,0,32,32,7,1,1,2,,,,,,,,,,,,,,,,,,,,,,,,,,,,,,,,,,,,,,,,,,,,,,,,,,,,,,,,,,,,,,,,,,,,,,,,,,,
,,,,,,,,,,stimuli/images/PICTURE_215.png,BOYS,5ee278242f89ff153301cb37,13/06/1989,2020-08-27_15h41.09.301,proactive3.2,2020.1.2,Win32,60,5f47c0b9b035471e11593a5c,5f47c4ddf50c0e1df0d787a1,2,,,,,,boot,,,,,,0,33,33,24,1,3,2,,,,,,,,,,,,,,,,,,,,,,,,,,,,,,,,,,,,,,,,,,,,,,,,,,,,,,,,,,,,,,,,,,,,,,,,,,,
,,,,,,,,,,stimuli/images/PICTURE_314.png,SPEECH,5ee278242f89ff153301cb37,13/06/1989,2020-08-27_15h41.09.301,proactive3.2,2020.1.2,Win32,60,5f47c0b9b035471e11593a5c,5f47c4ddf50c0e1df0d787a1,2,,,,,,perfume,,,,,,0,34,34,35,1,4,2,,,,,,,,,,,,,,,,,,,,,,,,,,,,,,,,,,,,,,,,,,,,,,,,,,,,,,,,,,,,,,,,,,,,,,,,,,,
,,,,,,,,,,stimuli/images/PICTURE_487.png,ROOF,5ee278242f89ff153301cb37,13/06/1989,2020-08-27_15h41.09.301,proactive3.2,2020.1.2,Win32,60,5f47c0b9b035471e11593a5c,5f47c4ddf50c0e1df0d787a1,2,,,,,,basket,,,,,,0,35,35,50,1,6,2,,,,,,,,,,,,,,,,,,,,,,,,,,,,,,,,,,,,,,,,,,,,,,,,,,,,,,,,,,,,,,,,,,,,,,,,,,,
,,,,,,,,,,stimuli/images/PICTURE_487.png,POLICY,5ee278242f89ff153301cb37,13/06/1989,2020-08-27_15h41.09.301,proactive3.2,2020.1.2,Win32,60,5f47c0b9b035471e11593a5c,5f47c4ddf50c0e1df0d787a1,2,,,,,,basket,,,,,,0,36,36,34,1,4,2,,,,,,,,,,,,,,,,,,,,,,,,,,,,,,,,,,,,,,,,,,,,,,,,,,,,,,,,,,,,,,,,,,,,,,,,,,,
,,,,,,,,,,stimuli/images/PICTURE_18.png,RIVER,5ee278242f89ff153301cb37,13/06/1989,2020-08-27_15h41.09.301,proactive3.2,2020.1.2,Win32,60,5f47c0b9b035471e11593a5c,5f47c4ddf50c0e1df0d787a1,2,,,,,,planet,,,,,,0,37,37,22,1,3,2,,,,,,,,,,,,,,,,,,,,,,,,,,,,,,,,,,,,,,,,,,,,,,,,,,,,,,,,,,,,,,,,,,,,,,,,,,,
,,,,,,,,,,stimuli/images/PICTURE_509.png,BATH,5ee278242f89ff153301cb37,13/06/1989,2020-08-27_15h41.09.301,proactive3.2,2020.1.2,Win32,60,5f47c0b9b035471e11593a5c,5f47c4ddf50c0e1df0d787a1,2,,,,,,telephone,,,,,,0,38,38,15,1,2,2,,,,,,,,,,,,,,,,,,,,,,,,,,,,,,,,,,,,,,,,,,,,,,,,,,,,,,,,,,,,,,,,,,,,,,,,,,,
,,,,,,,,,,stimuli/images/PICTURE_147.png,LEADER,5ee278242f89ff153301cb37,13/06/1989,2020-08-27_15h41.09.301,proactive3.2,2020.1.2,Win32,60,5f47c0b9b035471e11593a5c,5f47c4ddf50c0e1df0d787a1,2,,,,,,hanger,,,,,,0,39,39,33,1,4,2,,,,,,,,,,,,,,,,,,,,,,,,,,,,,,,,,,,,,,,,,,,,,,,,,,,,,,,,,,,,,,,,,,,,,,,,,,,
,,,,,,,,,,stimuli/images/PICTURE_692.png,DUDE,5ee278242f89ff153301cb37,13/06/1989,2020-08-27_15h41.09.301,proactive3.2,2020.1.2,Win32,60,5f47c0b9b035471e11593a5c,5f47c4ddf50c0e1df0d787a1,2,,,,,,cherry,,,,,,0,40,40,47,1,5,2,,,,,,,,,,,,,,,,,,,,,,,,,,,,,,,,,,,,,,,,,,,,,,,,,,,,,,,,,,,,,,,,,,,,,,,,,,,
,,,,,,,,,,stimuli/images/PICTURE_677.png,PHOTO,5ee278242f89ff153301cb37,13/06/1989,2020-08-27_15h41.09.301,proactive3.2,2020.1.2,Win32,60,5f47c0b9b035471e11593a5c,5f47c4ddf50c0e1df0d787a1,2,,,,,,map,,,,,,0,41,41,14,1,2,2,,,,,,,,,,,,,,,,,,,,,,,,,,,,,,,,,,,,,,,,,,,,,,,,,,,,,,,,,,,,,,,,,,,,,,,,,,,
,,,,,,,,,,stimuli/images/PICTURE_311.png,TOILET,5ee278242f89ff153301cb37,13/06/1989,2020-08-27_15h41.09.301,proactive3.2,2020.1.2,Win32,60,5f47c0b9b035471e11593a5c,5f47c4ddf50c0e1df0d787a1,2,,,,,,razor,,,,,,0,42,42,54,1,6,2,,,,,,,,,,,,,,,,,,,,,,,,,,,,,,,,,,,,,,,,,,,,,,,,,,,,,,,,,,,,,,,,,,,,,,,,,,,
,,,,,,,,,,stimuli/images/PICTURE_491.png,SERIES,5ee278242f89ff153301cb37,13/06/1989,2020-08-27_15h41.09.301,proactive3.2,2020.1.2,Win32,60,5f47c0b9b035471e11593a5c,5f47c4ddf50c0e1df0d787a1,2,,,,,,rug,,,,,,0,43,43,39,1,4,2,,,,,,,,,,,,,,,,,,,,,,,,,,,,,,,,,,,,,,,,,,,,,,,,,,,,,,,,,,,,,,,,,,,,,,,,,,,
,,,,,,,,,,stimuli/images/PICTURE_452.png,COPS,5ee278242f89ff153301cb37,13/06/1989,2020-08-27_15h41.09.301,proactive3.2,2020.1.2,Win32,60,5f47c0b9b035471e11593a5c,5f47c4ddf50c0e1df0d787a1,2,,,,,,watch,,,,,,0,44,44,0,1,1,2,,,,,,,,,,,,,,,,,,,,,,,,,,,,,,,,,,,,,,,,,,,,,,,,,,,,,,,,,,,,,,,,,,,,,,,,,,,
,,,,,,,,,,stimuli/images/PICTURE_667.png,GLASS,5ee278242f89ff153301cb37,13/06/1989,2020-08-27_15h41.09.301,proactive3.2,2020.1.2,Win32,60,5f47c0b9b035471e11593a5c,5f47c4ddf50c0e1df0d787a1,2,,,,,,daisy,,,,,,0,45,45,27,1,3,2,,,,,,,,,,,,,,,,,,,,,,,,,,,,,,,,,,,,,,,,,,,,,,,,,,,,,,,,,,,,,,,,,,,,,,,,,,,
,,,,,,,,,,stimuli/images/PICTURE_296.png,CLOCK,5ee278242f89ff153301cb37,13/06/1989,2020-08-27_15h41.09.301,proactive3.2,2020.1.2,Win32,60,5f47c0b9b035471e11593a5c,5f47c4ddf50c0e1df0d787a1,2,,,,,,bolt,,,,,,0,46,46,18,1,2,2,,,,,,,,,,,,,,,,,,,,,,,,,,,,,,,,,,,,,,,,,,,,,,,,,,,,,,,,,,,,,,,,,,,,,,,,,,,
,,,,,,,,,,stimuli/images/PICTURE_68.png,KIND,5ee278242f89ff153301cb37,13/06/1989,2020-08-27_15h41.09.301,proactive3.2,2020.1.2,Win32,60,5f47c0b9b035471e11593a5c,5f47c4ddf50c0e1df0d787a1,2,,,,,,candle,,,,,,0,47,47,23,1,3,2,,,,,,,,,,,,,,,,,,,,,,,,,,,,,,,,,,,,,,,,,,,,,,,,,,,,,,,,,,,,,,,,,,,,,,,,,,,
,,,,,,,,,,stimuli/images/PICTURE_677.png,FAMILY,5ee278242f89ff153301cb37,13/06/1989,2020-08-27_15h41.09.301,proactive3.2,2020.1.2,Win32,60,5f47c0b9b035471e11593a5c,5f47c4ddf50c0e1df0d787a1,2,,,,,,map,,,,,,0,48,48,53,1,6,2,,,,,,,,,,,,,,,,,,,,,,,,,,,,,,,,,,,,,,,,,,,,,,,,,,,,,,,,,,,,,,,,,,,,,,,,,,,
,,,,,,,,,,stimuli/images/PICTURE_57.png,NATION,5ee278242f89ff153301cb37,13/06/1989,2020-08-27_15h41.09.301,proactive3.2,2020.1.2,Win32,60,5f47c0b9b035471e11593a5c,5f47c4ddf50c0e1df0d787a1,2,,,,,,stamp,,,,,,0,49,49,21,1,3,2,,,,,,,,,,,,,,,,,,,,,,,,,,,,,,,,,,,,,,,,,,,,,,,,,,,,,,,,,,,,,,,,,,,,,,,,,,,
,,,,,,,,,,stimuli/images/PICTURE_32.png,LETTER,5ee278242f89ff153301cb37,13/06/1989,2020-08-27_15h41.09.301,proactive3.2,2020.1.2,Win32,60,5f47c0b9b035471e11593a5c,5f47c4ddf50c0e1df0d787a1,2,,,,,,crown,,,,,,0,50,50,56,1,6,2,,,,,,,,,,,,,,,,,,,,,,,,,,,,,,,,,,,,,,,,,,,,,,,,,,,,,,,,,,,,,,,,,,,,,,,,,,,
,,,,,,,,,,stimuli/images/PICTURE_57.png,CANDY,5ee278242f89ff153301cb37,13/06/1989,2020-08-27_15h41.09.301,proactive3.2,2020.1.2,Win32,60,5f47c0b9b035471e11593a5c,5f47c4ddf50c0e1df0d787a1,2,,,,,,stamp,,,,,,0,51,51,52,1,6,2,,,,,,,,,,,,,,,,,,,,,,,,,,,,,,,,,,,,,,,,,,,,,,,,,,,,,,,,,,,,,,,,,,,,,,,,,,,
,,,,,,,,,,stimuli/images/PICTURE_688.png,CLOCK,5ee278242f89ff153301cb37,13/06/1989,2020-08-27_15h41.09.301,proactive3.2,2020.1.2,Win32,60,5f47c0b9b035471e11593a5c,5f47c4ddf50c0e1df0d787a1,2,,,,,,runner,,,,,,0,52,52,42,1,5,2,,,,,,,,,,,,,,,,,,,,,,,,,,,,,,,,,,,,,,,,,,,,,,,,,,,,,,,,,,,,,,,,,,,,,,,,,,,
,,,,,,,,,,stimuli/images/PICTURE_453.png,FAMILY,5ee278242f89ff153301cb37,13/06/1989,2020-08-27_15h41.09.301,proactive3.2,2020.1.2,Win32,60,5f47c0b9b035471e11593a5c,5f47c4ddf50c0e1df0d787a1,2,,,,,,scissors,,,,,,0,53,53,48,1,5,2,,,,,,,,,,,,,,,,,,,,,,,,,,,,,,,,,,,,,,,,,,,,,,,,,,,,,,,,,,,,,,,,,,,,,,,,,,,
,,,,,,,,,,stimuli/images/PICTURE_141.png,CLIENT,5ee278242f89ff153301cb37,13/06/1989,2020-08-27_15h41.09.301,proactive3.2,2020.1.2,Win32,60,5f47c0b9b035471e11593a5c,5f47c4ddf50c0e1df0d787a1,2,,,,,,sunflower,,,,,,0,54,54,30,1,4,2,,,,,,,,,,,,,,,,,,,,,,,,,,,,,,,,,,,,,,,,,,,,,,,,,,,,,,,,,,,,,,,,,,,,,,,,,,,
,,,,,,,,,,stimuli/images/PICTURE_655.png,SALE,5ee278242f89ff153301cb37,13/06/1989,2020-08-27_15h41.09.301,proactive3.2,2020.1.2,Win32,60,5f47c0b9b035471e11593a5c,5f47c4ddf50c0e1df0d787a1,2,,,,,,megaphone,,,,,,0,55,55,57,1,6,2,,,,,,,,,,,,,,,,,,,,,,,,,,,,,,,,,,,,,,,,,,,,,,,,,,,,,,,,,,,,,,,,,,,,,,,,,,,
,,,,,,,,,,stimuli/images/PICTURE_95.png,NIGHT,5ee278242f89ff153301cb37,13/06/1989,2020-08-27_15h41.09.301,proactive3.2,2020.1.2,Win32,60,5f47c0b9b035471e11593a5c,5f47c4ddf50c0e1df0d787a1,2,,,,,,suitcase,,,,,,0,56,56,37,1,4,2,,,,,,,,,,,,,,,,,,,,,,,,,,,,,,,,,,,,,,,,,,,,,,,,,,,,,,,,,,,,,,,,,,,,,,,,,,,
,,,,,,,,,,stimuli/images/PICTURE_208.png,SPIRIT,5ee278242f89ff153301cb37,13/06/1989,2020-08-27_15h41.09.301,proactive3.2,2020.1.2,Win32,60,5f47c0b9b035471e11593a5c,5f47c4ddf50c0e1df0d787a1,2,,,,,,microphone,,,,,,0,57,57,28,1,3,2,,,,,,,,,,,,,,,,,,,,,,,,,,,,,,,,,,,,,,,,,,,,,,,,,,,,,,,,,,,,,,,,,,,,,,,,,,,
,,,,,,,,,,stimuli/images/PICTURE_297.png,BODY,5ee278242f89ff153301cb37,13/06/1989,2020-08-27_15h41.09.301,proactive3.2,2020.1.2,Win32,60,5f47c0b9b035471e11593a5c,5f47c4ddf50c0e1df0d787a1,2,,,,,,aeroplane,,,,,,0,58,58,51,1,6,2,,,,,,,,,,,,,,,,,,,,,,,,,,,,,,,,,,,,,,,,,,,,,,,,,,,,,,,,,,,,,,,,,,,,,,,,,,,
,,?,0.00421,0,,,,,,stimuli/images/PICTURE_667.png,GLASS,5ee278242f89ff153301cb37,13/06/1989,2020-08-27_15h41.09.301,proactive3.2,2020.1.2,Win32,60,5f47c0b9b035471e11593a5c,5f47c4ddf50c0e1df0d787a1,2,,,,,,daisy,,,,,,,,,,,3,2,0,0,0,27,1,,,,,,,,,,,,,,,,,,,,,,,,,,,,,,,,,,,,,,,,,,,,,,,,,,,,,,,,,,,,,,,,,,,,,,
,,PENNY,5.67661,0,,,,,,stimuli/images/PICTURE_654.png,COPS,5ee278242f89ff153301cb37,13/06/1989,2020-08-27_15h41.09.301,proactive3.2,2020.1.2,Win32,60,5f47c0b9b035471e11593a5c,5f47c4ddf50c0e1df0d787a1,2,,,,,,pencil,,,,,,,,,,,2,2,0,1,1,10,1,,,,,,,,,,,,,,,,,,,,,,,,,,,,,,,,,,,,,,,,,,,,,,,,,,,,,,,,,,,,,,,,,,,,,,
,,?,0.002055,0,,,,,,stimuli/images/PICTURE_215.png,FOOD,5ee278242f89ff153301cb37,13/06/1989,2020-08-27_15h41.09.301,proactive3.2,2020.1.2,Win32,60,5f47c0b9b035471e11593a5c,5f47c4ddf50c0e1df0d787a1,2,,,,,,boot,,,,,,,,,,,1,2,0,2,2,5,1,,,,,,,,,,,,,,,,,,,,,,,,,,,,,,,,,,,,,,,,,,,,,,,,,,,,,,,,,,,,,,,,,,,,,,
,,?,0.001955,0,,,,,,stimuli/images/PICTURE_692.png,DUDE,5ee278242f89ff153301cb37,13/06/1989,2020-08-27_15h41.09.301,proactive3.2,2020.1.2,Win32,60,5f47c0b9b035471e11593a5c,5f47c4ddf50c0e1df0d787a1,2,,,,,,cherry,,,,,,,,,,,5,2,0,3,3,47,1,,,,,,,,,,,,,,,,,,,,,,,,,,,,,,,,,,,,,,,,,,,,,,,,,,,,,,,,,,,,,,,,,,,,,,
,,?,0.001625,0,,,,,,stimuli/images/PICTURE_504.png,HOUSE,5ee278242f89ff153301cb37,13/06/1989,2020-08-27_15h41.09.301,proactive3.2,2020.1.2,Win32,60,5f47c0b9b035471e11593a5c,5f47c4ddf50c0e1df0d787a1,2,,,,,,wheel,,,,,,,,,,,4,2,0,4,4,36,1,,,,,,,,,,,,,,,,,,,,,,,,,,,,,,,,,,,,,,,,,,,,,,,,,,,,,,,,,,,,,,,,,,,,,,
,,?,0.00206,0,,,,,,stimuli/images/PICTURE_2.png,JUNGLE,5ee278242f89ff153301cb37,13/06/1989,2020-08-27_15h41.09.301,proactive3.2,2020.1.2,Win32,60,5f47c0b9b035471e11593a5c,5f47c4ddf50c0e1df0d787a1,2,,,,,,tyre,,,,,,,,,,,1,2,0,5,5,1,1,,,,,,,,,,,,,,,,,,,,,,,,,,,,,,,,,,,,,,,,,,,,,,,,,,,,,,,,,,,,,,,,,,,,,,
,,?,0.00163,0,,,,,,stimuli/images/PICTURE_403.png,FAMILY,5ee278242f89ff153301cb37,13/06/1989,2020-08-27_15h41.09.301,proactive3.2,2020.1.2,Win32,60,5f47c0b9b035471e11593a5c,5f47c4ddf50c0e1df0d787a1,2,,,,,,cathedral,,,,,,,,,,,1,2,0,6,6,9,1,,,,,,,,,,,,,,,,,,,,,,,,,,,,,,,,,,,,,,,,,,,,,,,,,,,,,,,,,,,,,,,,,,,,,,
,,JUNGLE,1.78971,1,,,,,,stimuli/images/PICTURE_405.png,JUNGLE,5ee278242f89ff153301cb37,13/06/1989,2020-08-27_15h41.09.301,proactive3.2,2020.1.2,Win32,60,5f47c0b9b035471e11593a5c,5f47c4ddf50c0e1df0d787a1,2,,,,,,anchor,,,,,,,,,,,2,2,0,7,7,13,1,,,,,,,,,,,,,,,,,,,,,,,,,,,,,,,,,,,,,,,,,,,,,,,,,,,,,,,,,,,,,,,,,,,,,,
,,?,0.001945,0,,,,,,stimuli/images/PICTURE_348.png,TOILET,5ee278242f89ff153301cb37,13/06/1989,2020-08-27_15h41.09.301,proactive3.2,2020.1.2,Win32,60,5f47c0b9b035471e11593a5c,5f47c4ddf50c0e1df0d787a1,2,,,,,,pepper,,,,,,,,,,,1,2,0,8,8,4,1,,,,,,,,,,,,,,,,,,,,,,,,,,,,,,,,,,,,,,,,,,,,,,,,,,,,,,,,,,,,,,,,,,,,,,
,,HOTEL,2.527145,1,,,,,,stimuli/images/PICTURE_160.png,HOTEL,5ee278242f89ff153301cb37,13/06/1989,2020-08-27_15h41.09.301,proactive3.2,2020.1.2,Win32,60,5f47c0b9b035471e11593a5c,5f47c4ddf50c0e1df0d787a1,2,,,,,,wheelbarrow,,,,,,,,,,,2,2,0,9,9,16,1,,,,,,,,,,,,,,,,,,,,,,,,,,,,,,,,,,,,,,,,,,,,,,,,,,,,,,,,,,,,,,,,,,,,,,
,,?,0.00259,0,,,,,,stimuli/images/PICTURE_68.png,KIND,5ee278242f89ff153301cb37,13/06/1989,2020-08-27_15h41.09.301,proactive3.2,2020.1.2,Win32,60,5f47c0b9b035471e11593a5c,5f47c4ddf50c0e1df0d787a1,2,,,,,,candle,,,,,,,,,,,3,2,0,10,10,23,1,,,,,,,,,,,,,,,,,,,,,,,,,,,,,,,,,,,,,,,,,,,,,,,,,,,,,,,,,,,,,,,,,,,,,,
,,?,0.00288,0,,,,,,stimuli/images/PICTURE_509.png,SHOTS,5ee278242f89ff153301cb37,13/06/1989,2020-08-27_15h41.09.301,proactive3.2,2020.1.2,Win32,60,5f47c0b9b035471e11593a5c,5f47c4ddf50c0e1df0d787a1,2,,,,,,telephone,,,,,,,,,,,1,2,0,11,11,7,1,,,,,,,,,,,,,,,,,,,,,,,,,,,,,,,,,,,,,,,,,,,,,,,,,,,,,,,,,,,,,,,,,,,,,,
,,?,0.003115,0,,,,,,stimuli/images/PICTURE_123.png,SALE,5ee278242f89ff153301cb37,13/06/1989,2020-08-27_15h41.09.301,proactive3.2,2020.1.2,Win32,60,5f47c0b9b035471e11593a5c,5f47c4ddf50c0e1df0d787a1,2,,,,,,dart,,,,,,,,,,,1,2,0,12,12,8,1,,,,,,,,,,,,,,,,,,,,,,,,,,,,,,,,,,,,,,,,,,,,,,,,,,,,,,,,,,,,,,,,,,,,,,
,,?,0.003125,0,,,,,,stimuli/images/PICTURE_405.png,HOUSE,5ee278242f89ff153301cb37,13/06/1989,2020-08-27_15h41.09.301,proactive3.2,2020.1.2,Win32,60,5f47c0b9b035471e11593a5c,5f47c4ddf50c0e1df0d787a1,2,,,,,,anchor,,,,,,,,,,,1,2,0,13,13,2,1,,,,,,,,,,,,,,,,,,,,,,,,,,,,,,,,,,,,,,,,,,,,,,,,,,,,,,,,,,,,,,,,,,,,,,
,,CASINO,10.335505,0,,,,,,stimuli/images/PICTURE_509.png,BATH,5ee278242f89ff153301cb37,13/06/1989,2020-08-27_15h41.09.301,proactive3.2,2020.1.2,Win32,60,5f47c0b9b035471e11593a5c,5f47c4ddf50c0e1df0d787a1,2,,,,,,telephone,,,,,,,,,,,2,2,0,14,14,15,1,,,,,,,,,,,,,,,,,,,,,,,,,,,,,,,,,,,,,,,,,,,,,,,,,,,,,,,,,,,,,,,,,,,,,,
,,?,0.002405,0,,,,,,stimuli/images/PICTURE_215.png,LEADER,5ee278242f89ff153301cb37,13/06/1989,2020-08-27_15h41.09.301,proactive3.2,2020.1.2,Win32,60,5f47c0b9b035471e11593a5c,5f47c4ddf50c0e1df0d787a1,2,,,,,,boot,,,,,,,,,,,5,2,0,15,15,43,1,,,,,,,,,,,,,,,,,,,,,,,,,,,,,,,,,,,,,,,,,,,,,,,,,,,,,,,,,,,,,,,,,,,,,,
,,?,0.001835,0,,,,,,stimuli/images/PICTURE_405.png,JUNGLE,5ee278242f89ff153301cb37,13/06/1989,2020-08-27_15h41.09.301,proactive3.2,2020.1.2,Win32,60,5f47c0b9b035471e11593a5c,5f47c4ddf50c0e1df0d787a1,2,,,,,,anchor,,,,,,,,,,,6,2,0,16,16,58,1,,,,,,,,,,,,,,,,,,,,,,,,,,,,,,,,,,,,,,,,,,,,,,,,,,,,,,,,,,,,,,,,,,,,,,
,,?,0.001805,0,,,,,,stimuli/images/PICTURE_470.png,BEAUTY,5ee278242f89ff153301cb37,13/06/1989,2020-08-27_15h41.09.301,proactive3.2,2020.1.2,Win32,60,5f47c0b9b035471e11593a5c,5f47c4ddf50c0e1df0d787a1,2,,,,,,motorbike,,,,,,,,,,,3,2,0,17,17,26,1,,,,,,,,,,,,,,,,,,,,,,,,,,,,,,,,,,,,,,,,,,,,,,,,,,,,,,,,,,,,,,,,,,,,,,
,,?,0.001615,0,,,,,,stimuli/images/PICTURE_509.png,MILLER,5ee278242f89ff153301cb37,13/06/1989,2020-08-27_15h41.09.301,proactive3.2,2020.1.2,Win32,60,5f47c0b9b035471e11593a5c,5f47c4ddf50c0e1df0d787a1,2,,,,,,telephone,,,,,,,,,,,5,2,0,18,18,49,1,,,,,,,,,,,,,,,,,,,,,,,,,,,,,,,,,,,,,,,,,,,,,,,,,,,,,,,,,,,,,,,,,,,,,,
,,?,0.00153,0,,,,,,stimuli/images/PICTURE_147.png,LEADER,5ee278242f89ff153301cb37,13/06/1989,2020-08-27_15h41.09.301,proactive3.2,2020.1.2,Win32,60,5f47c0b9b035471e11593a5c,5f47c4ddf50c0e1df0d787a1,2,,,,,,hanger,,,,,,,,,,,4,2,0,19,19,33,1,,,,,,,,,,,,,,,,,,,,,,,,,,,,,,,,,,,,,,,,,,,,,,,,,,,,,,,,,,,,,,,,,,,,,,
,,PENNY,3.373425,0,,,,,,stimuli/images/PICTURE_327.png,LEADER,5ee278242f89ff153301cb37,13/06/1989,2020-08-27_15h41.09.301,proactive3.2,2020.1.2,Win32,60,5f47c0b9b035471e11593a5c,5f47c4ddf50c0e1df0d787a1,2,,,,,,helmet,,,,,,,,,,,2,2,0,20,20,17,1,,,,,,,,,,,,,,,,,,,,,,,,,,,,,,,,,,,,,,,,,,,,,,,,,,,,,,,,,,,,,,,,,,,,,,
,,?,0.0015,0,,,,,,stimuli/images/PICTURE_311.png,FLESH,5ee278242f89ff153301cb37,13/06/1989,2020-08-27_15h41.09.301,proactive3.2,2020.1.2,Win32,60,5f47c0b9b035471e11593a5c,5f47c4ddf50c0e1df0d787a1,2,,,,,,razor,,,,,,,,,,,1,2,0,21,21,3,1,,,,,,,,,,,,,,,,,,,,,,,,,,,,,,,,,,,,,,,,,,,,,,,,,,,,,,,,,,,,,,,,,,,,,,
,,PENNY,5.794915,1,,,,,,stimuli/images/PICTURE_255.png,PENNY,5ee278242f89ff153301cb37,13/06/1989,2020-08-27_15h41.09.301,proactive3.2,2020.1.2,Win32,60,5f47c0b9b035471e11593a5c,5f47c4ddf50c0e1df0d787a1,2,,,,,,shovel,,,,,,,,,,,2,2,0,22,22,19,1,,,,,,,,,,,,,,,,,,,,,,,,,,,,,,,,,,,,,,,,,,,,,,,,,,,,,,,,,,,,,,,,,,,,,,
,,?,0.001685,0,,,,,,stimuli/images/PICTURE_487.png,ROOF,5ee278242f89ff153301cb37,13/06/1989,2020-08-27_15h41.09.301,proactive3.2,2020.1.2,Win32,60,5f47c0b9b035471e11593a5c,5f47c4ddf50c0e1df0d787a1,2,,,,,,basket,,,,,,,,,,,6,2,0,23,23,50,1,,,,,,,,,,,,,,,,,,,,,,,,,,,,,,,,,,,,,,,,,,,,,,,,,,,,,,,,,,,,,,,,,,,,,,
,,CLOCK,1.97802,1,,,,,,stimuli/images/PICTURE_296.png,CLOCK,5ee278242f89ff153301cb37,13/06/1989,2020-08-27_15h41.09.301,proactive3.2,2020.1.2,Win32,60,5f47c0b9b035471e11593a5c,5f47c4ddf50c0e1df0d787a1,2,,,,,,bolt,,,,,,,,,,,2,2,0,24,24,18,1,,,,,,,,,,,,,,,,,,,,,,,,,,,,,,,,,,,,,,,,,,,,,,,,,,,,,,,,,,,,,,,,,,,,,,
,,?,0.001585,0,,,,,,stimuli/images/PICTURE_470.png,MOMENT,5ee278242f89ff153301cb37,13/06/1989,2020-08-27_15h41.09.301,proactive3.2,2020.1.2,Win32,60,5f47c0b9b035471e11593a5c,5f47c4ddf50c0e1df0d787a1,2,,,,,,motorbike,,,,,,,,,,,5,2,0,25,25,40,1,,,,,,,,,,,,,,,,,,,,,,,,,,,,,,,,,,,,,,,,,,,,,,,,,,,,,,,,,,,,,,,,,,,,,,
,,?,0.001595,0,,,,,,stimuli/images/PICTURE_57.png,NATION,5ee278242f89ff153301cb37,13/06/1989,2020-08-27_15h41.09.301,proactive3.2,2020.1.2,Win32,60,5f47c0b9b035471e11593a5c,5f47c4ddf50c0e1df0d787a1,2,,,,,,stamp,,,,,,,,,,,3,2,0,26,26,21,1,,,,,,,,,,,,,,,,,,,,,,,,,,,,,,,,,,,,,,,,,,,,,,,,,,,,,,,,,,,,,,,,,,,,,,
,,?,0.00195,0,,,,,,stimuli/images/PICTURE_509.png,APPLE,5ee278242f89ff153301cb37,13/06/1989,2020-08-27_15h41.09.301,proactive3.2,2020.1.2,Win32,60,5f47c0b9b035471e11593a5c,5f47c4ddf50c0e1df0d787a1,2,,,,,,telephone,,,,,,,,,,,4,2,0,27,27,38,1,,,,,,,,,,,,,,,,,,,,,,,,,,,,,,,,,,,,,,,,,,,,,,,,,,,,,,,,,,,,,,,,,,,,,,
,,?,0.002735,0,,,,,,stimuli/images/PICTURE_311.png,TOILET,5ee278242f89ff153301cb37,13/06/1989,2020-08-27_15h41.09.301,proactive3.2,2020.1.2,Win32,60,5f47c0b9b035471e11593a5c,5f47c4ddf50c0e1df0d787a1,2,,,,,,razor,,,,,,,,,,,6,2,0,28,28,54,1,,,,,,,,,,,,,,,,,,,,,,,,,,,,,,,,,,,,,,,,,,,,,,,,,,,,,,,,,,,,,,,,,,,,,,
,,?,0.002345,0,,,,,,stimuli/images/PICTURE_491.png,SERIES,5ee278242f89ff153301cb37,13/06/1989,2020-08-27_15h41.09.301,proactive3.2,2020.1.2,Win32,60,5f47c0b9b035471e11593a5c,5f47c4ddf50c0e1df0d787a1,2,,,,,,rug,,,,,,,,,,,4,2,0,29,29,39,1,,,,,,,,,,,,,,,,,,,,,,,,,,,,,,,,,,,,,,,,,,,,,,,,,,,,,,,,,,,,,,,,,,,,,,
,,?,0.001845,0,,,,,,stimuli/images/PICTURE_654.png,YEAR,5ee278242f89ff153301cb37,13/06/1989,2020-08-27_15h41.09.301,proactive3.2,2020.1.2,Win32,60,5f47c0b9b035471e11593a5c,5f47c4ddf50c0e1df0d787a1,2,,,,,,pencil,,,,,,,,,,,5,2,0,30,30,41,1,,,,,,,,,,,,,,,,,,,,,,,,,,,,,,,,,,,,,,,,,,,,,,,,,,,,,,,,,,,,,,,,,,,,,,
,,?,0.001495,0,,,,,,stimuli/images/PICTURE_348.png,DUDE,5ee278242f89ff153301cb37,13/06/1989,2020-08-27_15h41.09.301,proactive3.2,2020.1.2,Win32,60,5f47c0b9b035471e11593a5c,5f47c4ddf50c0e1df0d787a1,2,,,,,,pepper,,,,,,,,,,,6,2,0,31,31,59,1,,,,,,,,,,,,,,,,,,,,,,,,,,,,,,,,,,,,,,,,,,,,,,,,,,,,,,,,,,,,,,,,,,,,,,
,,?,0.00184,0,,,,,,stimuli/images/PICTURE_177.png,HOUSE,5ee278242f89ff153301cb37,13/06/1989,2020-08-27_15h41.09.301,proactive3.2,2020.1.2,Win32,60,5f47c0b9b035471e11593a5c,5f47c4ddf50c0e1df0d787a1,2,,,,,,mushroom,,,,,,,,,,,3,2,0,32,32,25,1,,,,,,,,,,,,,,,,,,,,,,,,,,,,,,,,,,,,,,,,,,,,,,,,,,,,,,,,,,,,,,,,,,,,,,
,,?,0.003,0,,,,,,stimuli/images/PICTURE_95.png,NIGHT,5ee278242f89ff153301cb37,13/06/1989,2020-08-27_15h41.09.301,proactive3.2,2020.1.2,Win32,60,5f47c0b9b035471e11593a5c,5f47c4ddf50c0e1df0d787a1,2,,,,,,suitcase,,,,,,,,,,,4,2,0,33,33,37,1,,,,,,,,,,,,,,,,,,,,,,,,,,,,,,,,,,,,,,,,,,,,,,,,,,,,,,,,,,,,,,,,,,,,,,
,,?,0.00211,0,,,,,,stimuli/images/PICTURE_452.png,COPS,5ee278242f89ff153301cb37,13/06/1989,2020-08-27_15h41.09.301,proactive3.2,2020.1.2,Win32,60,5f47c0b9b035471e11593a5c,5f47c4ddf50c0e1df0d787a1,2,,,,,,watch,,,,,,,,,,,1,2,0,34,34,0,1,,,,,,,,,,,,,,,,,,,,,,,,,,,,,,,,,,,,,,,,,,,,,,,,,,,,,,,,,,,,,,,,,,,,,,
,,?,0.001915,0,,,,,,stimuli/images/PICTURE_708.png,VALLEY,5ee278242f89ff153301cb37,13/06/1989,2020-08-27_15h41.09.301,proactive3.2,2020.1.2,Win32,60,5f47c0b9b035471e11593a5c,5f47c4ddf50c0e1df0d787a1,2,,,,,,monkey,,,,,,,,,,,5,2,0,35,35,45,1,,,,,,,,,,,,,,,,,,,,,,,,,,,,,,,,,,,,,,,,,,,,,,,,,,,,,,,,,,,,,,,,,,,,,,
,,?,0.002065,0,,,,,,stimuli/images/PICTURE_93.png,GIRL,5ee278242f89ff153301cb37,13/06/1989,2020-08-27_15h41.09.301,proactive3.2,2020.1.2,Win32,60,5f47c0b9b035471e11593a5c,5f47c4ddf50c0e1df0d787a1,2,,,,,,skateboard,,,,,,,,,,,4,2,0,36,36,31,1,,,,,,,,,,,,,,,,,,,,,,,,,,,,,,,,,,,,,,,,,,,,,,,,,,,,,,,,,,,,,,,,,,,,,,
,,?,0.00196,0,,,,,,stimuli/images/PICTURE_32.png,LETTER,5ee278242f89ff153301cb37,13/06/1989,2020-08-27_15h41.09.301,proactive3.2,2020.1.2,Win32,60,5f47c0b9b035471e11593a5c,5f47c4ddf50c0e1df0d787a1,2,,,,,,crown,,,,,,,,,,,6,2,0,37,37,56,1,,,,,,,,,,,,,,,,,,,,,,,,,,,,,,,,,,,,,,,,,,,,,,,,,,,,,,,,,,,,,,,,,,,,,,
,,?,0.001965,0,,,,,,stimuli/images/PICTURE_57.png,CANDY,5ee278242f89ff153301cb37,13/06/1989,2020-08-27_15h41.09.301,proactive3.2,2020.1.2,Win32,60,5f47c0b9b035471e11593a5c,5f47c4ddf50c0e1df0d787a1,2,,,,,,stamp,,,,,,,,,,,6,2,0,38,38,52,1,,,,,,,,,,,,,,,,,,,,,,,,,,,,,,,,,,,,,,,,,,,,,,,,,,,,,,,,,,,,,,,,,,,,,,
,,?,0.002035,0,,,,,,stimuli/images/PICTURE_297.png,BODY,5ee278242f89ff153301cb37,13/06/1989,2020-08-27_15h41.09.301,proactive3.2,2020.1.2,Win32,60,5f47c0b9b035471e11593a5c,5f47c4ddf50c0e1df0d787a1,2,,,,,,aeroplane,,,,,,,,,,,6,2,0,39,39,51,1,,,,,,,,,,,,,,,,,,,,,,,,,,,,,,,,,,,,,,,,,,,,,,,,,,,,,,,,,,,,,,,,,,,,,,
,,?,0.002045,0,,,,,,stimuli/images/PICTURE_487.png,POLICY,5ee278242f89ff153301cb37,13/06/1989,2020-08-27_15h41.09.301,proactive3.2,2020.1.2,Win32,60,5f47c0b9b035471e11593a5c,5f47c4ddf50c0e1df0d787a1,2,,,,,,basket,,,,,,,,,,,4,2,0,40,40,34,1,,,,,,,,,,,,,,,,,,,,,,,,,,,,,,,,,,,,,,,,,,,,,,,,,,,,,,,,,,,,,,,,,,,,,,
,,?,0.002025,0,,,,,,stimuli/images/PICTURE_208.png,SPIRIT,5ee278242f89ff153301cb37,13/06/1989,2020-08-27_15h41.09.301,proactive3.2,2020.1.2,Win32,60,5f47c0b9b035471e11593a5c,5f47c4ddf50c0e1df0d787a1,2,,,,,,microphone,,,,,,,,,,,3,2,0,41,41,28,1,,,,,,,,,,,,,,,,,,,,,,,,,,,,,,,,,,,,,,,,,,,,,,,,,,,,,,,,,,,,,,,,,,,,,,
,,?,0.00247,0,,,,,,stimuli/images/PICTURE_2.png,AREA,5ee278242f89ff153301cb37,13/06/1989,2020-08-27_15h41.09.301,proactive3.2,2020.1.2,Win32,60,5f47c0b9b035471e11593a5c,5f47c4ddf50c0e1df0d787a1,2,,,,,,tyre,,,,,,,,,,,4,2,0,42,42,32,1,,,,,,,,,,,,,,,,,,,,,,,,,,,,,,,,,,,,,,,,,,,,,,,,,,,,,,,,,,,,,,,,,,,,,,
,,?,0.002195,0,,,,,,stimuli/images/PICTURE_655.png,SALE,5ee278242f89ff153301cb37,13/06/1989,2020-08-27_15h41.09.301,proactive3.2,2020.1.2,Win32,60,5f47c0b9b035471e11593a5c,5f47c4ddf50c0e1df0d787a1,2,,,,,,megaphone,,,,,,,,,,,6,2,0,43,43,57,1,,,,,,,,,,,,,,,,,,,,,,,,,,,,,,,,,,,,,,,,,,,,,,,,,,,,,,,,,,,,,,,,,,,,,,
,,?,0.002425,0,,,,,,stimuli/images/PICTURE_314.png,SPEECH,5ee278242f89ff153301cb37,13/06/1989,2020-08-27_15h41.09.301,proactive3.2,2020.1.2,Win32,60,5f47c0b9b035471e11593a5c,5f47c4ddf50c0e1df0d787a1,2,,,,,,perfume,,,,,,,,,,,4,2,0,44,44,35,1,,,,,,,,,,,,,,,,,,,,,,,,,,,,,,,,,,,,,,,,,,,,,,,,,,,,,,,,,,,,,,,,,,,,,,
,,?,0.001995,0,,,,,,stimuli/images/PICTURE_453.png,FAMILY,5ee278242f89ff153301cb37,13/06/1989,2020-08-27_15h41.09.301,proactive3.2,2020.1.2,Win32,60,5f47c0b9b035471e11593a5c,5f47c4ddf50c0e1df0d787a1,2,,,,,,scissors,,,,,,,,,,,5,2,0,45,45,48,1,,,,,,,,,,,,,,,,,,,,,,,,,,,,,,,,,,,,,,,,,,,,,,,,,,,,,,,,,,,,,,,,,,,,,,
,,?,0.002215,0,,,,,,stimuli/images/PICTURE_2.png,YARD,5ee278242f89ff153301cb37,13/06/1989,2020-08-27_15h41.09.301,proactive3.2,2020.1.2,Win32,60,5f47c0b9b035471e11593a5c,5f47c4ddf50c0e1df0d787a1,2,,,,,,tyre,,,,,,,,,,,6,2,0,46,46,55,1,,,,,,,,,,,,,,,,,,,,,,,,,,,,,,,,,,,,,,,,,,,,,,,,,,,,,,,,,,,,,,,,,,,,,,
,,?,0.002,0,,,,,,stimuli/images/PICTURE_285.png,PRINCE,5ee278242f89ff153301cb37,13/06/1989,2020-08-27_15h41.09.301,proactive3.2,2020.1.2,Win32,60,5f47c0b9b035471e11593a5c,5f47c4ddf50c0e1df0d787a1,2,,,,,,carrot,,,,,,,,,,,3,2,0,47,47,20,1,,,,,,,,,,,,,,,,,,,,,,,,,,,,,,,,,,,,,,,,,,,,,,,,,,,,,,,,,,,,,,,,,,,,,,
,,?,0.00186,0,,,,,,stimuli/images/PICTURE_141.png,CLIENT,5ee278242f89ff153301cb37,13/06/1989,2020-08-27_15h41.09.301,proactive3.2,2020.1.2,Win32,60,5f47c0b9b035471e11593a5c,5f47c4ddf50c0e1df0d787a1,2,,,,,,sunflower,,,,,,,,,,,4,2,0,48,48,30,1,,,,,,,,,,,,,,,,,,,,,,,,,,,,,,,,,,,,,,,,,,,,,,,,,,,,,,,,,,,,,,,,,,,,,,
,,CASINO,3.43728,1,,,,,,stimuli/images/PICTURE_57.png,CASINO,5ee278242f89ff153301cb37,13/06/1989,2020-08-27_15h41.09.301,proactive3.2,2020.1.2,Win32,60,5f47c0b9b035471e11593a5c,5f47c4ddf50c0e1df0d787a1,2,,,,,,stamp,,,,,,,,,,,2,2,0,49,49,12,1,,,,,,,,,,,,,,,,,,,,,,,,,,,,,,,,,,,,,,,,,,,,,,,,,,,,,,,,,,,,,,,,,,,,,,
,,?,0.00181,0,,,,,,stimuli/images/PICTURE_215.png,BOYS,5ee278242f89ff153301cb37,13/06/1989,2020-08-27_15h41.09.301,proactive3.2,2020.1.2,Win32,60,5f47c0b9b035471e11593a5c,5f47c4ddf50c0e1df0d787a1,2,,,,,,boot,,,,,,,,,,,3,2,0,50,50,24,1,,,,,,,,,,,,,,,,,,,,,,,,,,,,,,,,,,,,,,,,,,,,,,,,,,,,,,,,,,,,,,,,,,,,,,
,,?,0.001595,0,,,,,,stimuli/images/PICTURE_750.png,POLICY,5ee278242f89ff153301cb37,13/06/1989,2020-08-27_15h41.09.301,proactive3.2,2020.1.2,Win32,60,5f47c0b9b035471e11593a5c,5f47c4ddf50c0e1df0d787a1,2,,,,,,kettle,,,,,,,,,,,5,2,0,51,51,44,1,,,,,,,,,,,,,,,,,,,,,,,,,,,,,,,,,,,,,,,,,,,,,,,,,,,,,,,,,,,,,,,,,,,,,,
,,COPS,4.50708,0,,,,,,stimuli/images/PICTURE_564.png,PLENTY,5ee278242f89ff153301cb37,13/06/1989,2020-08-27_15h41.09.301,proactive3.2,2020.1.2,Win32,60,5f47c0b9b035471e11593a5c,5f47c4ddf50c0e1df0d787a1,2,,,,,,spoon,,,,,,,,,,,2,2,0,52,52,11,1,,,,,,,,,,,,,,,,,,,,,,,,,,,,,,,,,,,,,,,,,,,,,,,,,,,,,,,,,,,,,,,,,,,,,,
,,PHOTO,3.14746,1,,,,,,stimuli/images/PICTURE_677.png,PHOTO,5ee278242f89ff153301cb37,13/06/1989,2020-08-27_15h41.09.301,proactive3.2,2020.1.2,Win32,60,5f47c0b9b035471e11593a5c,5f47c4ddf50c0e1df0d787a1,2,,,,,,map,,,,,,,,,,,2,2,0,53,53,14,1,,,,,,,,,,,,,,,,,,,,,,,,,,,,,,,,,,,,,,,,,,,,,,,,,,,,,,,,,,,,,,,,,,,,,,
,,?,0.00206,0,,,,,,stimuli/images/PICTURE_33.png,COPS,5ee278242f89ff153301cb37,13/06/1989,2020-08-27_15h41.09.301,proactive3.2,2020.1.2,Win32,60,5f47c0b9b035471e11593a5c,5f47c4ddf50c0e1df0d787a1,2,,,,,,frame,,,,,,,,,,,3,2,0,54,54,29,1,,,,,,,,,,,,,,,,,,,,,,,,,,,,,,,,,,,,,,,,,,,,,,,,,,,,,,,,,,,,,,,,,,,,,,
,,?,0.002215,0,,,,,,stimuli/images/PICTURE_18.png,RIVER,5ee278242f89ff153301cb37,13/06/1989,2020-08-27_15h41.09.301,proactive3.2,2020.1.2,Win32,60,5f47c0b9b035471e11593a5c,5f47c4ddf50c0e1df0d787a1,2,,,,,,planet,,,,,,,,,,,3,2,0,55,55,22,1,,,,,,,,,,,,,,,,,,,,,,,,,,,,,,,,,,,,,,,,,,,,,,,,,,,,,,,,,,,,,,,,,,,,,,
,,?,0.002025,0,,,,,,stimuli/images/PICTURE_688.png,CLOCK,5ee278242f89ff153301cb37,13/06/1989,2020-08-27_15h41.09.301,proactive3.2,2020.1.2,Win32,60,5f47c0b9b035471e11593a5c,5f47c4ddf50c0e1df0d787a1,2,,,,,,runner,,,,,,,,,,,5,2,0,56,56,42,1,,,,,,,,,,,,,,,,,,,,,,,,,,,,,,,,,,,,,,,,,,,,,,,,,,,,,,,,,,,,,,,,,,,,,,
,,?,0.00313,0,,,,,,stimuli/images/PICTURE_677.png,FAMILY,5ee278242f89ff153301cb37,13/06/1989,2020-08-27_15h41.09.301,proactive3.2,2020.1.2,Win32,60,5f47c0b9b035471e11593a5c,5f47c4ddf50c0e1df0d787a1,2,,,,,,map,,,,,,,,,,,6,2,0,57,57,53,1,,,,,,,,,,,,,,,,,,,,,,,,,,,,,,,,,,,,,,,,,,,,,,,,,,,,,,,,,,,,,,,,,,,,,,
,,?,0.00231,0,,,,,,stimuli/images/PICTURE_285.png,WRITER,5ee278242f89ff153301cb37,13/06/1989,2020-08-27_15h41.09.301,proactive3.2,2020.1.2,Win32,60,5f47c0b9b035471e11593a5c,5f47c4ddf50c0e1df0d787a1,2,,,,,,carrot,,,,,,,,,,,1,2,0,58,58,6,1,,,,,,,,,,,,,,,,,,,,,,,,,,,,,,,,,,,,,,,,,,,,,,,,,,,,,,,,,,,,,,,,,,,,,,
,,?,0.002625,0,,,,,,stimuli/images/PICTURE_356.png,CANDY,5ee278242f89ff153301cb37,13/06/1989,2020-08-27_15h41.09.301,proactive3.2,2020.1.2,Win32,60,5f47c0b9b035471e11593a5c,5f47c4ddf50c0e1df0d787a1,2,,,,,,pawn,,,,,,,,,,,5,2,0,59,59,46,1,,,,,,,,,,,,,,,,,,,,,,,,,,,,,,,,,,,,,,,,,,,,,,,,,,,,,,,,,,,,,,,,,,,,,,
,,,,,,,,,,,,5ee278242f89ff153301cb37,13/06/1989,2020-08-27_15h41.09.301,proactive3.2,2020.1.2,Win32,60,5f47c0b9b035471e11593a5c,5f47c4ddf50c0e1df0d787a1,2,,,,,,,,,,,,,,,,,,,,,,,,0,0,0,2,1,stimuli/learn-block3.csv,,,,,,,,,,,,,,,,,,,,,,,,,,,,,,,,,,,,,,,,,,,,,,,,,,,,,,,,,,,,,,,,
,,,,,,,,,,stimuli/images/PICTURE_160.png,FEET,5ee278242f89ff153301cb37,13/06/1989,2020-08-27_15h41.09.301,proactive3.2,2020.1.2,Win32,60,5f47c0b9b035471e11593a5c,5f47c4ddf50c0e1df0d787a1,2,,,,,,wheelbarrow,,,,,,0,0,0,58,1,6,0,,,,,,,,,,,,,,,,,,,,,,,,,,,,,,,,,,,,,,,,,,,,,,,,,,,,,,,,,,,,,,,,,,,,,,,,,,,
,,,,,,,,,,stimuli/images/PICTURE_688.png,CASINO,5ee278242f89ff153301cb37,13/06/1989,2020-08-27_15h41.09.301,proactive3.2,2020.1.2,Win32,60,5f47c0b9b035471e11593a5c,5f47c4ddf50c0e1df0d787a1,2,,,,,,runner,,,,,,0,1,1,2,1,1,0,,,,,,,,,,,,,,,,,,,,,,,,,,,,,,,,,,,,,,,,,,,,,,,,,,,,,,,,,,,,,,,,,,,,,,,,,,,
,,,,,,,,,,stimuli/images/PICTURE_208.png,LOTS,5ee278242f89ff153301cb37,13/06/1989,2020-08-27_15h41.09.301,proactive3.2,2020.1.2,Win32,60,5f47c0b9b035471e11593a5c,5f47c4ddf50c0e1df0d787a1,2,,,,,,microphone,,,,,,0,2,2,10,1,2,0,,,,,,,,,,,,,,,,,,,,,,,,,,,,,,,,,,,,,,,,,,,,,,,,,,,,,,,,,,,,,,,,,,,,,,,,,,,
,,,,,,,,,,stimuli/images/PICTURE_356.png,DANGER,5ee278242f89ff153301cb37,13/06/1989,2020-08-27_15h41.09.301,proactive3.2,2020.1.2,Win32,60,5f47c0b9b035471e11593a5c,5f47c4ddf50c0e1df0d787a1,2,,,,,,pawn,,,,,,0,3,3,55,1,6,0,,,,,,,,,,,,,,,,,,,,,,,,,,,,,,,,,,,,,,,,,,,,,,,,,,,,,,,,,,,,,,,,,,,,,,,,,,,
,,,,,,,,,,stimuli/images/PICTURE_327.png,BEAUTY,5ee278242f89ff153301cb37,13/06/1989,2020-08-27_15h41.09.301,proactive3.2,2020.1.2,Win32,60,5f47c0b9b035471e11593a5c,5f47c4ddf50c0e1df0d787a1,2,,,,,,helmet,,,,,,0,4,4,48,1,5,0,,,,,,,,,,,,,,,,,,,,,,,,,,,,,,,,,,,,,,,,,,,,,,,,,,,,,,,,,,,,,,,,,,,,,,,,,,,
,,,,,,,,,,stimuli/images/PICTURE_314.png,GODS,5ee278242f89ff153301cb37,13/06/1989,2020-08-27_15h41.09.301,proactive3.2,2020.1.2,Win32,60,5f47c0b9b035471e11593a5c,5f47c4ddf50c0e1df0d787a1,2,,,,,,perfume,,,,,,0,5,5,11,1,2,0,,,,,,,,,,,,,,,,,,,,,,,,,,,,,,,,,,,,,,,,,,,,,,,,,,,,,,,,,,,,,,,,,,,,,,,,,,,
,,,,,,,,,,stimuli/images/PICTURE_449.png,THING,5ee278242f89ff153301cb37,13/06/1989,2020-08-27_15h41.09.301,proactive3.2,2020.1.2,Win32,60,5f47c0b9b035471e11593a5c,5f47c4ddf50c0e1df0d787a1,2,,,,,,bench,,,,,,0,6,6,59,1,6,0,,,,,,,,,,,,,,,,,,,,,,,,,,,,,,,,,,,,,,,,,,,,,,,,,,,,,,,,,,,,,,,,,,,,,,,,,,,
,,,,,,,,,,stimuli/images/PICTURE_160.png,LEADER,5ee278242f89ff153301cb37,13/06/1989,2020-08-27_15h41.09.301,proactive3.2,2020.1.2,Win32,60,5f47c0b9b035471e11593a5c,5f47c4ddf50c0e1df0d787a1,2,,,,,,wheelbarrow,,,,,,0,7,7,3,1,1,0,,,,,,,,,,,,,,,,,,,,,,,,,,,,,,,,,,,,,,,,,,,,,,,,,,,,,,,,,,,,,,,,,,,,,,,,,,,
,,,,,,,,,,stimuli/images/PICTURE_453.png,DUDE,5ee278242f89ff153301cb37,13/06/1989,2020-08-27_15h41.09.301,proactive3.2,2020.1.2,Win32,60,5f47c0b9b035471e11593a5c,5f47c4ddf50c0e1df0d787a1,2,,,,,,scissors,,,,,,0,8,8,27,1,3,0,,,,,,,,,,,,,,,,,,,,,,,,,,,,,,,,,,,,,,,,,,,,,,,,,,,,,,,,,,,,,,,,,,,,,,,,,,,
,,,,,,,,,,stimuli/images/PICTURE_248.png,DOZEN,5ee278242f89ff153301cb37,13/06/1989,2020-08-27_15h41.09.301,proactive3.2,2020.1.2,Win32,60,5f47c0b9b035471e11593a5c,5f47c4ddf50c0e1df0d787a1,2,,,,,,cart,,,,,,0,9,9,39,1,4,0,,,,,,,,,,,,,,,,,,,,,,,,,,,,,,,,,,,,,,,,,,,,,,,,,,,,,,,,,,,,,,,,,,,,,,,,,,,
,,,,,,,,,,stimuli/images/PICTURE_151.png,GIRL,5ee278242f89ff153301cb37,13/06/1989,2020-08-27_15h41.09.301,proactive3.2,2020.1.2,Win32,60,5f47c0b9b035471e11593a5c,5f47c4ddf50c0e1df0d787a1,2,,,,,,tray,,,,,,0,10,10,19,1,2,0,,,,,,,,,,,,,,,,,,,,,,,,,,,,,,,,,,,,,,,,,,,,,,,,,,,,,,,,,,,,,,,,,,,,,,,,,,,
,,,,,,,,,,stimuli/images/PICTURE_380.png,DEATH,5ee278242f89ff153301cb37,13/06/1989,2020-08-27_15h41.09.301,proactive3.2,2020.1.2,Win32,60,5f47c0b9b035471e11593a5c,5f47c4ddf50c0e1df0d787a1,2,,,,,,gorilla,,,,,,0,11,11,49,1,5,0,,,,,,,,,,,,,,,,,,,,,,,,,,,,,,,,,,,,,,,,,,,,,,,,,,,,,,,,,,,,,,,,,,,,,,,,,,,
,,,,,,,,,,stimuli/images/PICTURE_654.png,VALLEY,5ee278242f89ff153301cb37,13/06/1989,2020-08-27_15h41.09.301,proactive3.2,2020.1.2,Win32,60,5f47c0b9b035471e11593a5c,5f47c4ddf50c0e1df0d787a1,2,,,,,,pencil,,,,,,0,12,12,1,1,1,0,,,,,,,,,,,,,,,,,,,,,,,,,,,,,,,,,,,,,,,,,,,,,,,,,,,,,,,,,,,,,,,,,,,,,,,,,,,
,,,,,,,,,,stimuli/images/PICTURE_203.png,ARTIST,5ee278242f89ff153301cb37,13/06/1989,2020-08-27_15h41.09.301,proactive3.2,2020.1.2,Win32,60,5f47c0b9b035471e11593a5c,5f47c4ddf50c0e1df0d787a1,2,,,,,,cap,,,,,,0,13,13,26,1,3,0,,,,,,,,,,,,,,,,,,,,,,,,,,,,,,,,,,,,,,,,,,,,,,,,,,,,,,,,,,,,,,,,,,,,,,,,,,,
,,,,,,,,,,stimuli/images/PICTURE_467.png,DEMON,5ee278242f89ff153301cb37,13/06/1989,2020-08-27_15h41.09.301,proactive3.2,2020.1.2,Win32,60,5f47c0b9b035471e11593a5c,5f47c4ddf50c0e1df0d787a1,2,,,,,,peg,,,,,,0,14,14,23,1,3,0,,,,,,,,,,,,,,,,,,,,,,,,,,,,,,,,,,,,,,,,,,,,,,,,,,,,,,,,,,,,,,,,,,,,,,,,,,,
,,,,,,,,,,stimuli/images/PICTURE_208.png,THING,5ee278242f89ff153301cb37,13/06/1989,2020-08-27_15h41.09.301,proactive3.2,2020.1.2,Win32,60,5f47c0b9b035471e11593a5c,5f47c4ddf50c0e1df0d787a1,2,,,,,,microphone,,,,,,0,15,15,47,1,5,0,,,,,,,,,,,,,,,,,,,,,,,,,,,,,,,,,,,,,,,,,,,,,,,,,,,,,,,,,,,,,,,,,,,,,,,,,,,
,,,,,,,,,,stimuli/images/PICTURE_380.png,PHOTO,5ee278242f89ff153301cb37,13/06/1989,2020-08-27_15h41.09.301,proactive3.2,2020.1.2,Win32,60,5f47c0b9b035471e11593a5c,5f47c4ddf50c0e1df0d787a1,2,,,,,,gorilla,,,,,,0,16,16,52,1,6,0,,,,,,,,,,,,,,,,,,,,,,,,,,,,,,,,,,,,,,,,,,,,,,,,,,,,,,,,,,,,,,,,,,,,,,,,,,,
,,,,,,,,,,stimuli/images/PICTURE_208.png,MONTH,5ee278242f89ff153301cb37,13/06/1989,2020-08-27_15h41.09.301,proactive3.2,2020.1.2,Win32,60,5f47c0b9b035471e11593a5c,5f47c4ddf50c0e1df0d787a1,2,,,,,,microphone,,,,,,0,17,17,53,1,6,0,,,,,,,,,,,,,,,,,,,,,,,,,,,,,,,,,,,,,,,,,,,,,,,,,,,,,,,,,,,,,,,,,,,,,,,,,,,
,,,,,,,,,,stimuli/images/PICTURE_95.png,STYLE,5ee278242f89ff153301cb37,13/06/1989,2020-08-27_15h41.09.301,proactive3.2,2020.1.2,Win32,60,5f47c0b9b035471e11593a5c,5f47c4ddf50c0e1df0d787a1,2,,,,,,suitcase,,,,,,0,18,18,25,1,3,0,,,,,,,,,,,,,,,,,,,,,,,,,,,,,,,,,,,,,,,,,,,,,,,,,,,,,,,,,,,,,,,,,,,,,,,,,,,
,,,,,,,,,,stimuli/images/PICTURE_314.png,SAKE,5ee278242f89ff153301cb37,13/06/1989,2020-08-27_15h41.09.301,proactive3.2,2020.1.2,Win32,60,5f47c0b9b035471e11593a5c,5f47c4ddf50c0e1df0d787a1,2,,,,,,perfume,,,,,,0,19,19,7,1,1,0,,,,,,,,,,,,,,,,,,,,,,,,,,,,,,,,,,,,,,,,,,,,,,,,,,,,,,,,,,,,,,,,,,,,,,,,,,,
,,,,,,,,,,stimuli/images/PICTURE_504.png,BODY,5ee278242f89ff153301cb37,13/06/1989,2020-08-27_15h41.09.301,proactive3.2,2020.1.2,Win32,60,5f47c0b9b035471e11593a5c,5f47c4ddf50c0e1df0d787a1,2,,,,,,wheel,,,,,,0,20,20,8,1,1,0,,,,,,,,,,,,,,,,,,,,,,,,,,,,,,,,,,,,,,,,,,,,,,,,,,,,,,,,,,,,,,,,,,,,,,,,,,,
,,,,,,,,,,stimuli/images/PICTURE_491.png,WRITER,5ee278242f89ff153301cb37,13/06/1989,2020-08-27_15h41.09.301,proactive3.2,2020.1.2,Win32,60,5f47c0b9b035471e11593a5c,5f47c4ddf50c0e1df0d787a1,2,,,,,,rug,,,,,,0,21,21,57,1,6,0,,,,,,,,,,,,,,,,,,,,,,,,,,,,,,,,,,,,,,,,,,,,,,,,,,,,,,,,,,,,,,,,,,,,,,,,,,,
,,,,,,,,,,stimuli/images/PICTURE_488.png,STYLE,5ee278242f89ff153301cb37,13/06/1989,2020-08-27_15h41.09.301,proactive3.2,2020.1.2,Win32,60,5f47c0b9b035471e11593a5c,5f47c4ddf50c0e1df0d787a1,2,,,,,,sun,,,,,,0,22,22,33,1,4,0,,,,,,,,,,,,,,,,,,,,,,,,,,,,,,,,,,,,,,,,,,,,,,,,,,,,,,,,,,,,,,,,,,,,,,,,,,,
,,,,,,,,,,stimuli/images/PICTURE_123.png,ADVICE,5ee278242f89ff153301cb37,13/06/1989,2020-08-27_15h41.09.301,proactive3.2,2020.1.2,Win32,60,5f47c0b9b035471e11593a5c,5f47c4ddf50c0e1df0d787a1,2,,,,,,dart,,,,,,0,23,23,40,1,5,0,,,,,,,,,,,,,,,,,,,,,,,,,,,,,,,,,,,,,,,,,,,,,,,,,,,,,,,,,,,,,,,,,,,,,,,,,,,
,,,,,,,,,,stimuli/images/PICTURE_469.png,ARTIST,5ee278242f89ff153301cb37,13/06/1989,2020-08-27_15h41.09.301,proactive3.2,2020.1.2,Win32,60,5f47c0b9b035471e11593a5c,5f47c4ddf50c0e1df0d787a1,2,,,,,,stool,,,,,,0,24,24,6,1,1,0,,,,,,,,,,,,,,,,,,,,,,,,,,,,,,,,,,,,,,,,,,,,,,,,,,,,,,,,,,,,,,,,,,,,,,,,,,,
,,,,,,,,,,stimuli/images/PICTURE_308.png,ESTATE,5ee278242f89ff153301cb37,13/06/1989,2020-08-27_15h41.09.301,proactive3.2,2020.1.2,Win32,60,5f47c0b9b035471e11593a5c,5f47c4ddf50c0e1df0d787a1,2,,,,,,dice,,,,,,0,25,25,46,1,5,0,,,,,,,,,,,,,,,,,,,,,,,,,,,,,,,,,,,,,,,,,,,,,,,,,,,,,,,,,,,,,,,,,,,,,,,,,,,
,,,,,,,,,,stimuli/images/PICTURE_491.png,ROOF,5ee278242f89ff153301cb37,13/06/1989,2020-08-27_15h41.09.301,proactive3.2,2020.1.2,Win32,60,5f47c0b9b035471e11593a5c,5f47c4ddf50c0e1df0d787a1,2,,,,,,rug,,,,,,0,26,26,24,1,3,0,,,,,,,,,,,,,,,,,,,,,,,,,,,,,,,,,,,,,,,,,,,,,,,,,,,,,,,,,,,,,,,,,,,,,,,,,,,
,,,,,,,,,,stimuli/images/PICTURE_677.png,MILE,5ee278242f89ff153301cb37,13/06/1989,2020-08-27_15h41.09.301,proactive3.2,2020.1.2,Win32,60,5f47c0b9b035471e11593a5c,5f47c4ddf50c0e1df0d787a1,2,,,,,,map,,,,,,0,27,27,30,1,4,0,,,,,,,,,,,,,,,,,,,,,,,,,,,,,,,,,,,,,,,,,,,,,,,,,,,,,,,,,,,,,,,,,,,,,,,,,,,
,,,,,,,,,,stimuli/images/PICTURE_255.png,AREA,5ee278242f89ff153301cb37,13/06/1989,2020-08-27_15h41.09.301,proactive3.2,2020.1.2,Win32,60,5f47c0b9b035471e11593a5c,5f47c4ddf50c0e1df0d787a1,2,,,,,,shovel,,,,,,0,28,28,22,1,3,0,,,,,,,,,,,,,,,,,,,,,,,,,,,,,,,,,,,,,,,,,,,,,,,,,,,,,,,,,,,,,,,,,,,,,,,,,,,
,,,,,,,,,,stimuli/images/PICTURE_453.png,PLENTY,5ee278242f89ff153301cb37,13/06/1989,2020-08-27_15h41.09.301,proactive3.2,2020.1.2,Win32,60,5f47c0b9b035471e11593a5c,5f47c4ddf50c0e1df0d787a1,2,,,,,,scissors,,,,,,0,29,29,56,1,6,0,,,,,,,,,,,,,,,,,,,,,,,,,,,,,,,,,,,,,,,,,,,,,,,,,,,,,,,,,,,,,,,,,,,,,,,,,,,
,,,,,,,,,,stimuli/images/PICTURE_469.png,LETTER,5ee278242f89ff153301cb37,13/06/1989,2020-08-27_15h41.09.301,proactive3.2,2020.1.2,Win32,60,5f47c0b9b035471e11593a5c,5f47c4ddf50c0e1df0d787a1,2,,,,,,stool,,,,,,0,30,30,42,1,5,0,,,,,,,,,,,,,,,,,,,,,,,,,,,,,,,,,,,,,,,,,,,,,,,,,,,,,,,,,,,,,,,,,,,,,,,,,,,
,,,,,,,,,,stimuli/images/PICTURE_708.png,CLIENT,5ee278242f89ff153301cb37,13/06/1989,2020-08-27_15h41.09.301,proactive3.2,2020.1.2,Win32,60,5f47c0b9b035471e11593a5c,5f47c4ddf50c0e1df0d787a1,2,,,,,,monkey,,,,,,0,31,31,5,1,1,0,,,,,,,,,,,,,,,,,,,,,,,,,,,,,,,,,,,,,,,,,,,,,,,,,,,,,,,,,,,,,,,,,,,,,,,,,,,
,,,,,,,,,,stimuli/images/PICTURE_302.png,FAMILY,5ee278242f89ff153301cb37,13/06/1989,2020-08-27_15h41.09.301,proactive3.2,2020.1.2,Win32,60,5f47c0b9b035471e11593a5c,5f47c4ddf50c0e1df0d787a1,2,,,,,,taxi,,,,,,0,32,32,18,1,2,0,,,,,,,,,,,,,,,,,,,,,,,,,,,,,,,,,,,,,,,,,,,,,,,,,,,,,,,,,,,,,,,,,,,,,,,,,,,
,,,,,,,,,,stimuli/images/PICTURE_308.png,KIND,5ee278242f89ff153301cb37,13/06/1989,2020-08-27_15h41.09.301,proactive3.2,2020.1.2,Win32,60,5f47c0b9b035471e11593a5c,5f47c4ddf50c0e1df0d787a1,2,,,,,,dice,,,,,,0,33,33,54,1,6,0,,,,,,,,,,,,,,,,,,,,,,,,,,,,,,,,,,,,,,,,,,,,,,,,,,,,,,,,,,,,,,,,,,,,,,,,,,,
,,,,,,,,,,stimuli/images/PICTURE_233.png,IDEAS,5ee278242f89ff153301cb37,13/06/1989,2020-08-27_15h41.09.301,proactive3.2,2020.1.2,Win32,60,5f47c0b9b035471e11593a5c,5f47c4ddf50c0e1df0d787a1,2,,,,,,salt,,,,,,0,34,34,28,1,3,0,,,,,,,,,,,,,,,,,,,,,,,,,,,,,,,,,,,,,,,,,,,,,,,,,,,,,,,,,,,,,,,,,,,,,,,,,,,
,,,,,,,,,,stimuli/images/PICTURE_147.png,MOMENT,5ee278242f89ff153301cb37,13/06/1989,2020-08-27_15h41.09.301,proactive3.2,2020.1.2,Win32,60,5f47c0b9b035471e11593a5c,5f47c4ddf50c0e1df0d787a1,2,,,,,,hanger,,,,,,0,35,35,51,1,6,0,,,,,,,,,,,,,,,,,,,,,,,,,,,,,,,,,,,,,,,,,,,,,,,,,,,,,,,,,,,,,,,,,,,,,,,,,,,
,,,,,,,,,,stimuli/images/PICTURE_285.png,ADVICE,5ee278242f89ff153301cb37,13/06/1989,2020-08-27_15h41.09.301,proactive3.2,2020.1.2,Win32,60,5f47c0b9b035471e11593a5c,5f47c4ddf50c0e1df0d787a1,2,,,,,,carrot,,,,,,0,36,36,12,1,2,0,,,,,,,,,,,,,,,,,,,,,,,,,,,,,,,,,,,,,,,,,,,,,,,,,,,,,,,,,,,,,,,,,,,,,,,,,,,
,,,,,,,,,,stimuli/images/PICTURE_32.png,JUNGLE,5ee278242f89ff153301cb37,13/06/1989,2020-08-27_15h41.09.301,proactive3.2,2020.1.2,Win32,60,5f47c0b9b035471e11593a5c,5f47c4ddf50c0e1df0d787a1,2,,,,,,crown,,,,,,0,37,37,45,1,5,0,,,,,,,,,,,,,,,,,,,,,,,,,,,,,,,,,,,,,,,,,,,,,,,,,,,,,,,,,,,,,,,,,,,,,,,,,,,
,,,,,,,,,,stimuli/images/PICTURE_233.png,WOMEN,5ee278242f89ff153301cb37,13/06/1989,2020-08-27_15h41.09.301,proactive3.2,2020.1.2,Win32,60,5f47c0b9b035471e11593a5c,5f47c4ddf50c0e1df0d787a1,2,,,,,,salt,,,,,,0,38,38,38,1,4,0,,,,,,,,,,,,,,,,,,,,,,,,,,,,,,,,,,,,,,,,,,,,,,,,,,,,,,,,,,,,,,,,,,,,,,,,,,,
,,,,,,,,,,stimuli/images/PICTURE_667.png,PLENTY,5ee278242f89ff153301cb37,13/06/1989,2020-08-27_15h41.09.301,proactive3.2,2020.1.2,Win32,60,5f47c0b9b035471e11593a5c,5f47c4ddf50c0e1df0d787a1,2,,,,,,daisy,,,,,,0,39,39,41,1,5,0,,,,,,,,,,,,,,,,,,,,,,,,,,,,,,,,,,,,,,,,,,,,,,,,,,,,,,,,,,,,,,,,,,,,,,,,,,,
,,,,,,,,,,stimuli/images/PICTURE_311.png,FRIEND,5ee278242f89ff153301cb37,13/06/1989,2020-08-27_15h41.09.301,proactive3.2,2020.1.2,Win32,60,5f47c0b9b035471e11593a5c,5f47c4ddf50c0e1df0d787a1,2,,,,,,razor,,,,,,0,40,40,34,1,4,0,,,,,,,,,,,,,,,,,,,,,,,,,,,,,,,,,,,,,,,,,,,,,,,,,,,,,,,,,,,,,,,,,,,,,,,,,,,
,,,,,,,,,,stimuli/images/PICTURE_744.png,SYSTEM,5ee278242f89ff153301cb37,13/06/1989,2020-08-27_15h41.09.301,proactive3.2,2020.1.2,Win32,60,5f47c0b9b035471e11593a5c,5f47c4ddf50c0e1df0d787a1,2,,,,,,ring,,,,,,0,41,41,43,1,5,0,,,,,,,,,,,,,,,,,,,,,,,,,,,,,,,,,,,,,,,,,,,,,,,,,,,,,,,,,,,,,,,,,,,,,,,,,,,
,,,,,,,,,,stimuli/images/PICTURE_708.png,PENNY,5ee278242f89ff153301cb37,13/06/1989,2020-08-27_15h41.09.301,proactive3.2,2020.1.2,Win32,60,5f47c0b9b035471e11593a5c,5f47c4ddf50c0e1df0d787a1,2,,,,,,monkey,,,,,,0,42,42,31,1,4,0,,,,,,,,,,,,,,,,,,,,,,,,,,,,,,,,,,,,,,,,,,,,,,,,,,,,,,,,,,,,,,,,,,,,,,,,,,,
,,,,,,,,,,stimuli/images/PICTURE_177.png,CARS,5ee278242f89ff153301cb37,13/06/1989,2020-08-27_15h41.09.301,proactive3.2,2020.1.2,Win32,60,5f47c0b9b035471e11593a5c,5f47c4ddf50c0e1df0d787a1,2,,,,,,mushroom,,,,,,0,43,43,35,1,4,0,,,,,,,,,,,,,,,,,,,,,,,,,,,,,,,,,,,,,,,,,,,,,,,,,,,,,,,,,,,,,,,,,,,,,,,,,,,
,,,,,,,,,,stimuli/images/PICTURE_744.png,SAKE,5ee278242f89ff153301cb37,13/06/1989,2020-08-27_15h41.09.301,proactive3.2,2020.1.2,Win32,60,5f47c0b9b035471e11593a5c,5f47c4ddf50c0e1df0d787a1,2,,,,,,ring,,,,,,0,44,44,17,1,2,0,,,,,,,,,,,,,,,,,,,,,,,,,,,,,,,,,,,,,,,,,,,,,,,,,,,,,,,,,,,,,,,,,,,,,,,,,,,
,,,,,,,,,,stimuli/images/PICTURE_311.png,BEAUTY,5ee278242f89ff153301cb37,13/06/1989,2020-08-27_15h41.09.301,proactive3.2,2020.1.2,Win32,60,5f47c0b9b035471e11593a5c,5f47c4ddf50c0e1df0d787a1,2,,,,,,razor,,,,,,0,45,45,13,1,2,0,,,,,,,,,,,,,,,,,,,,,,,,,,,,,,,,,,,,,,,,,,,,,,,,,,,,,,,,,,,,,,,,,,,,,,,,,,,
,,,,,,,,,,stimuli/images/PICTURE_348.png,SPEECH,5ee278242f89ff153301cb37,13/06/1989,2020-08-27_15h41.09.301,proactive3.2,2020.1.2,Win32,60,5f47c0b9b035471e11593a5c,5f47c4ddf50c0e1df0d787a1,2,,,,,,pepper,,,,,,0,46,46,20,1,3,0,,,,,,,,,,,,,,,,,,,,,,,,,,,,,,,,,,,,,,,,,,,,,,,,,,,,,,,,,,,,,,,,,,,,,,,,,,,
,,,,,,,,,,stimuli/images/PICTURE_667.png,BATH,5ee278242f89ff153301cb37,13/06/1989,2020-08-27_15h41.09.301,proactive3.2,2020.1.2,Win32,60,5f47c0b9b035471e11593a5c,5f47c4ddf50c0e1df0d787a1,2,,,,,,daisy,,,,,,0,47,47,4,1,1,0,,,,,,,,,,,,,,,,,,,,,,,,,,,,,,,,,,,,,,,,,,,,,,,,,,,,,,,,,,,,,,,,,,,,,,,,,,,
,,,,,,,,,,stimuli/images/PICTURE_708.png,YARD,5ee278242f89ff153301cb37,13/06/1989,2020-08-27_15h41.09.301,proactive3.2,2020.1.2,Win32,60,5f47c0b9b035471e11593a5c,5f47c4ddf50c0e1df0d787a1,2,,,,,,monkey,,,,,,0,48,48,29,1,3,0,,,,,,,,,,,,,,,,,,,,,,,,,,,,,,,,,,,,,,,,,,,,,,,,,,,,,,,,,,,,,,,,,,,,,,,,,,,
,,,,,,,,,,stimuli/images/PICTURE_215.png,PLENTY,5ee278242f89ff153301cb37,13/06/1989,2020-08-27_15h41.09.301,proactive3.2,2020.1.2,Win32,60,5f47c0b9b035471e11593a5c,5f47c4ddf50c0e1df0d787a1,2,,,,,,boot,,,,,,0,49,49,37,1,4,0,,,,,,,,,,,,,,,,,,,,,,,,,,,,,,,,,,,,,,,,,,,,,,,,,,,,,,,,,,,,,,,,,,,,,,,,,,,
,,,,,,,,,,stimuli/images/PICTURE_470.png,CASINO,5ee278242f89ff153301cb37,13/06/1989,2020-08-27_15h41.09.301,proactive3.2,2020.1.2,Win32,60,5f47c0b9b035471e11593a5c,5f47c4ddf50c0e1df0d787a1,2,,,,,,motorbike,,,,,,0,50,50,36,1,4,0,,,,,,,,,,,,,,,,,,,,,,,,,,,,,,,,,,,,,,,,,,,,,,,,,,,,,,,,,,,,,,,,,,,,,,,,,,,
,,,,,,,,,,stimuli/images/PICTURE_339.png,PLENTY,5ee278242f89ff153301cb37,13/06/1989,2020-08-27_15h41.09.301,proactive3.2,2020.1.2,Win32,60,5f47c0b9b035471e11593a5c,5f47c4ddf50c0e1df0d787a1,2,,,,,,backpack,,,,,,0,51,51,0,1,1,0,,,,,,,,,,,,,,,,,,,,,,,,,,,,,,,,,,,,,,,,,,,,,,,,,,,,,,,,,,,,,,,,,,,,,,,,,,,
,,,,,,,,,,stimuli/images/PICTURE_675.png,WEAPON,5ee278242f89ff153301cb37,13/06/1989,2020-08-27_15h41.09.301,proactive3.2,2020.1.2,Win32,60,5f47c0b9b035471e11593a5c,5f47c4ddf50c0e1df0d787a1,2,,,,,,windmill,,,,,,0,52,52,32,1,4,0,,,,,,,,,,,,,,,,,,,,,,,,,,,,,,,,,,,,,,,,,,,,,,,,,,,,,,,,,,,,,,,,,,,,,,,,,,,
,,,,,,,,,,stimuli/images/PICTURE_509.png,PHOTO,5ee278242f89ff153301cb37,13/06/1989,2020-08-27_15h41.09.301,proactive3.2,2020.1.2,Win32,60,5f47c0b9b035471e11593a5c,5f47c4ddf50c0e1df0d787a1,2,,,,,,telephone,,,,,,0,53,53,21,1,3,0,,,,,,,,,,,,,,,,,,,,,,,,,,,,,,,,,,,,,,,,,,,,,,,,,,,,,,,,,,,,,,,,,,,,,,,,,,,
,,,,,,,,,,stimuli/images/PICTURE_123.png,ADVICE,5ee278242f89ff153301cb37,13/06/1989,2020-08-27_15h41.09.301,proactive3.2,2020.1.2,Win32,60,5f47c0b9b035471e11593a5c,5f47c4ddf50c0e1df0d787a1,2,,,,,,dart,,,,,,0,54,54,50,1,6,0,,,,,,,,,,,,,,,,,,,,,,,,,,,,,,,,,,,,,,,,,,,,,,,,,,,,,,,,,,,,,,,,,,,,,,,,,,,
,,,,,,,,,,stimuli/images/PICTURE_692.png,MONTH,5ee278242f89ff153301cb37,13/06/1989,2020-08-27_15h41.09.301,proactive3.2,2020.1.2,Win32,60,5f47c0b9b035471e11593a5c,5f47c4ddf50c0e1df0d787a1,2,,,,,,cherry,,,,,,0,55,55,16,1,2,0,,,,,,,,,,,,,,,,,,,,,,,,,,,,,,,,,,,,,,,,,,,,,,,,,,,,,,,,,,,,,,,,,,,,,,,,,,,
,,,,,,,,,,stimuli/images/PICTURE_68.png,MILE,5ee278242f89ff153301cb37,13/06/1989,2020-08-27_15h41.09.301,proactive3.2,2020.1.2,Win32,60,5f47c0b9b035471e11593a5c,5f47c4ddf50c0e1df0d787a1,2,,,,,,candle,,,,,,0,56,56,44,1,5,0,,,,,,,,,,,,,,,,,,,,,,,,,,,,,,,,,,,,,,,,,,,,,,,,,,,,,,,,,,,,,,,,,,,,,,,,,,,
,,,,,,,,,,stimuli/images/PICTURE_688.png,WOMEN,5ee278242f89ff153301cb37,13/06/1989,2020-08-27_15h41.09.301,proactive3.2,2020.1.2,Win32,60,5f47c0b9b035471e11593a5c,5f47c4ddf50c0e1df0d787a1,2,,,,,,runner,,,,,,0,57,57,14,1,2,0,,,,,,,,,,,,,,,,,,,,,,,,,,,,,,,,,,,,,,,,,,,,,,,,,,,,,,,,,,,,,,,,,,,,,,,,,,,
,,,,,,,,,,stimuli/images/PICTURE_487.png,FLIGHT,5ee278242f89ff153301cb37,13/06/1989,2020-08-27_15h41.09.301,proactive3.2,2020.1.2,Win32,60,5f47c0b9b035471e11593a5c,5f47c4ddf50c0e1df0d787a1,2,,,,,,basket,,,,,,0,58,58,9,1,1,0,,,,,,,,,,,,,,,,,,,,,,,,,,,,,,,,,,,,,,,,,,,,,,,,,,,,,,,,,,,,,,,,,,,,,,,,,,,
,,?,0.00185,0,,,,,,stimuli/images/PICTURE_308.png,KIND,5ee278242f89ff153301cb37,13/06/1989,2020-08-27_15h41.09.301,proactive3.2,2020.1.2,Win32,60,5f47c0b9b035471e11593a5c,5f47c4ddf50c0e1df0d787a1,2,,,,,,dice,,,,,,,,,,,6,0,0,0,0,54,1,,,,,,,,,,,,,,,,,,,,,,,,,,,,,,,,,,,,,,,,,,,,,,,,,,,,,,,,,,,,,,,,,,,,,,
,,?,0.00152,0,,,,,,stimuli/images/PICTURE_177.png,CARS,5ee278242f89ff153301cb37,13/06/1989,2020-08-27_15h41.09.301,proactive3.2,2020.1.2,Win32,60,5f47c0b9b035471e11593a5c,5f47c4ddf50c0e1df0d787a1,2,,,,,,mushroom,,,,,,,,,,,4,0,0,1,1,35,1,,,,,,,,,,,,,,,,,,,,,,,,,,,,,,,,,,,,,,,,,,,,,,,,,,,,,,,,,,,,,,,,,,,,,,
,,?,0.001585,0,,,,,,stimuli/images/PICTURE_667.png,BATH,5ee278242f89ff153301cb37,13/06/1989,2020-08-27_15h41.09.301,proactive3.2,2020.1.2,Win32,60,5f47c0b9b035471e11593a5c,5f47c4ddf50c0e1df0d787a1,2,,,,,,daisy,,,,,,,,,,,1,0,0,2,2,4,1,,,,,,,,,,,,,,,,,,,,,,,,,,,,,,,,,,,,,,,,,,,,,,,,,,,,,,,,,,,,,,,,,,,,,,
,,?,0.00149,0,,,,,,stimuli/images/PICTURE_123.png,ADVICE,5ee278242f89ff153301cb37,13/06/1989,2020-08-27_15h41.09.301,proactive3.2,2020.1.2,Win32,60,5f47c0b9b035471e11593a5c,5f47c4ddf50c0e1df0d787a1,2,,,,,,dart,,,,,,,,,,,6,0,0,3,3,50,1,,,,,,,,,,,,,,,,,,,,,,,,,,,,,,,,,,,,,,,,,,,,,,,,,,,,,,,,,,,,,,,,,,,,,,
,,?,0.001305,0,,,,,,stimuli/images/PICTURE_311.png,FRIEND,5ee278242f89ff153301cb37,13/06/1989,2020-08-27_15h41.09.301,proactive3.2,2020.1.2,Win32,60,5f47c0b9b035471e11593a5c,5f47c4ddf50c0e1df0d787a1,2,,,,,,razor,,,,,,,,,,,4,0,0,4,4,34,1,,,,,,,,,,,,,,,,,,,,,,,,,,,,,,,,,,,,,,,,,,,,,,,,,,,,,,,,,,,,,,,,,,,,,,
,,?,0.001295,0,,,,,,stimuli/images/PICTURE_487.png,FLIGHT,5ee278242f89ff153301cb37,13/06/1989,2020-08-27_15h41.09.301,proactive3.2,2020.1.2,Win32,60,5f47c0b9b035471e11593a5c,5f47c4ddf50c0e1df0d787a1,2,,,,,,basket,,,,,,,,,,,1,0,0,5,5,9,1,,,,,,,,,,,,,,,,,,,,,,,,,,,,,,,,,,,,,,,,,,,,,,,,,,,,,,,,,,,,,,,,,,,,,,
,,?,0.00125,0,,,,,,stimuli/images/PICTURE_203.png,ARTIST,5ee278242f89ff153301cb37,13/06/1989,2020-08-27_15h41.09.301,proactive3.2,2020.1.2,Win32,60,5f47c0b9b035471e11593a5c,5f47c4ddf50c0e1df0d787a1,2,,,,,,cap,,,,,,,,,,,3,0,0,6,6,26,1,,,,,,,,,,,,,,,,,,,,,,,,,,,,,,,,,,,,,,,,,,,,,,,,,,,,,,,,,,,,,,,,,,,,,,
,,?,15.02008,0,,,,,,stimuli/images/PICTURE_285.png,ADVICE,5ee278242f89ff153301cb37,13/06/1989,2020-08-27_15h41.09.301,proactive3.2,2020.1.2,Win32,60,5f47c0b9b035471e11593a5c,5f47c4ddf50c0e1df0d787a1,2,,,,,,carrot,,,,,,,,,,,2,0,0,7,7,12,1,,,,,,,,,,,,,,,,,,,,,,,,,,,,,,,,,,,,,,,,,,,,,,,,,,,,,,,,,,,,,,,,,,,,,,
,,?,0.001385,0,,,,,,stimuli/images/PICTURE_654.png,VALLEY,5ee278242f89ff153301cb37,13/06/1989,2020-08-27_15h41.09.301,proactive3.2,2020.1.2,Win32,60,5f47c0b9b035471e11593a5c,5f47c4ddf50c0e1df0d787a1,2,,,,,,pencil,,,,,,,,,,,1,0,0,8,8,1,1,,,,,,,,,,,,,,,,,,,,,,,,,,,,,,,,,,,,,,,,,,,,,,,,,,,,,,,,,,,,,,,,,,,,,,
,,?,0.001285,0,,,,,,stimuli/images/PICTURE_504.png,BODY,5ee278242f89ff153301cb37,13/06/1989,2020-08-27_15h41.09.301,proactive3.2,2020.1.2,Win32,60,5f47c0b9b035471e11593a5c,5f47c4ddf50c0e1df0d787a1,2,,,,,,wheel,,,,,,,,,,,1,0,0,9,9,8,1,,,,,,,,,,,,,,,,,,,,,,,,,,,,,,,,,,,,,,,,,,,,,,,,,,,,,,,,,,,,,,,,,,,,,,
,,?,0.00134,0,,,,,,stimuli/images/PICTURE_160.png,LEADER,5ee278242f89ff153301cb37,13/06/1989,2020-08-27_15h41.09.301,proactive3.2,2020.1.2,Win32,60,5f47c0b9b035471e11593a5c,5f47c4ddf50c0e1df0d787a1,2,,,,,,wheelbarrow,,,,,,,,,,,1,0,0,10,10,3,1,,,,,,,,,,,,,,,,,,,,,,,,,,,,,,,,,,,,,,,,,,,,,,,,,,,,,,,,,,,,,,,,,,,,,,
,,?,0.00128,0,,,,,,stimuli/images/PICTURE_339.png,PLENTY,5ee278242f89ff153301cb37,13/06/1989,2020-08-27_15h41.09.301,proactive3.2,2020.1.2,Win32,60,5f47c0b9b035471e11593a5c,5f47c4ddf50c0e1df0d787a1,2,,,,,,backpack,,,,,,,,,,,1,0,0,11,11,0,1,,,,,,,,,,,,,,,,,,,,,,,,,,,,,,,,,,,,,,,,,,,,,,,,,,,,,,,,,,,,,,,,,,,,,,
,,?,0.00202,0,,,,,,stimuli/images/PICTURE_123.png,ADVICE,5ee278242f89ff153301cb37,13/06/1989,2020-08-27_15h41.09.301,proactive3.2,2020.1.2,Win32,60,5f47c0b9b035471e11593a5c,5f47c4ddf50c0e1df0d787a1,2,,,,,,dart,,,,,,,,,,,5,0,0,12,12,40,1,,,,,,,,,,,,,,,,,,,,,,,,,,,,,,,,,,,,,,,,,,,,,,,,,,,,,,,,,,,,,,,,,,,,,,
,,?,0.00146,0,,,,,,stimuli/images/PICTURE_208.png,THING,5ee278242f89ff153301cb37,13/06/1989,2020-08-27_15h41.09.301,proactive3.2,2020.1.2,Win32,60,5f47c0b9b035471e11593a5c,5f47c4ddf50c0e1df0d787a1,2,,,,,,microphone,,,,,,,,,,,5,0,0,13,13,47,1,,,,,,,,,,,,,,,,,,,,,,,,,,,,,,,,,,,,,,,,,,,,,,,,,,,,,,,,,,,,,,,,,,,,,,
,,GOD,9.095025,0,,,,,,stimuli/images/PICTURE_744.png,SAKE,5ee278242f89ff153301cb37,13/06/1989,2020-08-27_15h41.09.301,proactive3.2,2020.1.2,Win32,60,5f47c0b9b035471e11593a5c,5f47c4ddf50c0e1df0d787a1,2,,,,,,ring,,,,,,,,,,,2,0,0,14,14,17,1,,,,,,,,,,,,,,,,,,,,,,,,,,,,,,,,,,,,,,,,,,,,,,,,,,,,,,,,,,,,,,,,,,,,,,
,,?,0.00139,0,,,,,,stimuli/images/PICTURE_327.png,BEAUTY,5ee278242f89ff153301cb37,13/06/1989,2020-08-27_15h41.09.301,proactive3.2,2020.1.2,Win32,60,5f47c0b9b035471e11593a5c,5f47c4ddf50c0e1df0d787a1,2,,,,,,helmet,,,,,,,,,,,5,0,0,15,15,48,1,,,,,,,,,,,,,,,,,,,,,,,,,,,,,,,,,,,,,,,,,,,,,,,,,,,,,,,,,,,,,,,,,,,,,,
,,?,0.001215,0,,,,,,stimuli/images/PICTURE_667.png,PLENTY,5ee278242f89ff153301cb37,13/06/1989,2020-08-27_15h41.09.301,proactive3.2,2020.1.2,Win32,60,5f47c0b9b035471e11593a5c,5f47c4ddf50c0e1df0d787a1,2,,,,,,daisy,,,,,,,,,,,5,0,0,16,16,41,1,,,,,,,,,,,,,,,,,,,,,,,,,,,,,,,,,,,,,,,,,,,,,,,,,,,,,,,,,,,,,,,,,,,,,,
,,?,0.00124,0,,,,,,stimuli/images/PICTURE_491.png,ROOF,5ee278242f89ff153301cb37,13/06/1989,2020-08-27_15h41.09.301,proactive3.2,2020.1.2,Win32,60,5f47c0b9b035471e11593a5c,5f47c4ddf50c0e1df0d787a1,2,,,,,,rug,,,,,,,,,,,3,0,0,17,17,24,1,,,,,,,,,,,,,,,,,,,,,,,,,,,,,,,,,,,,,,,,,,,,,,,,,,,,,,,,,,,,,,,,,,,,,,
,,GOD,4.95452,0,,,,,,stimuli/images/PICTURE_314.png,GODS,5ee278242f89ff153301cb37,13/06/1989,2020-08-27_15h41.09.301,proactive3.2,2020.1.2,Win32,60,5f47c0b9b035471e11593a5c,5f47c4ddf50c0e1df0d787a1,2,,,,,,perfume,,,,,,,,,,,2,0,0,18,18,11,1,,,,,,,,,,,,,,,,,,,,,,,,,,,,,,,,,,,,,,,,,,,,,,,,,,,,,,,,,,,,,,,,,,,,,,
,,WOMEN,4.215615,0,,,,,,stimuli/images/PICTURE_151.png,GIRL,5ee278242f89ff153301cb37,13/06/1989,2020-08-27_15h41.09.301,proactive3.2,2020.1.2,Win32,60,5f47c0b9b035471e11593a5c,5f47c4ddf50c0e1df0d787a1,2,,,,,,tray,,,,,,,,,,,2,0,0,19,19,19,1,,,,,,,,,,,,,,,,,,,,,,,,,,,,,,,,,,,,,,,,,,,,,,,,,,,,,,,,,,,,,,,,,,,,,,
,,?,0.00143,0,,,,,,stimuli/images/PICTURE_32.png,JUNGLE,5ee278242f89ff153301cb37,13/06/1989,2020-08-27_15h41.09.301,proactive3.2,2020.1.2,Win32,60,5f47c0b9b035471e11593a5c,5f47c4ddf50c0e1df0d787a1,2,,,,,,crown,,,,,,,,,,,5,0,0,20,20,45,1,,,,,,,,,,,,,,,,,,,,,,,,,,,,,,,,,,,,,,,,,,,,,,,,,,,,,,,,,,,,,,,,,,,,,,
,,FAMILY,1.89536,1,,,,,,stimuli/images/PICTURE_302.png,FAMILY,5ee278242f89ff153301cb37,13/06/1989,2020-08-27_15h41.09.301,proactive3.2,2020.1.2,Win32,60,5f47c0b9b035471e11593a5c,5f47c4ddf50c0e1df0d787a1,2,,,,,,taxi,,,,,,,,,,,2,0,0,21,21,18,1,,,,,,,,,,,,,,,,,,,,,,,,,,,,,,,,,,,,,,,,,,,,,,,,,,,,,,,,,,,,,,,,,,,,,,
,,?,0.001345,0,,,,,,stimuli/images/PICTURE_453.png,DUDE,5ee278242f89ff153301cb37,13/06/1989,2020-08-27_15h41.09.301,proactive3.2,2020.1.2,Win32,60,5f47c0b9b035471e11593a5c,5f47c4ddf50c0e1df0d787a1,2,,,,,,scissors,,,,,,,,,,,3,0,0,22,22,27,1,,,,,,,,,,,,,,,,,,,,,,,,,,,,,,,,,,,,,,,,,,,,,,,,,,,,,,,,,,,,,,,,,,,,,,
,,?,0.00131,0,,,,,,stimuli/images/PICTURE_744.png,SYSTEM,5ee278242f89ff153301cb37,13/06/1989,2020-08-27_15h41.09.301,proactive3.2,2020.1.2,Win32,60,5f47c0b9b035471e11593a5c,5f47c4ddf50c0e1df0d787a1,2,,,,,,ring,,,,,,,,,,,5,0,0,23,23,43,1,,,,,,,,,,,,,,,,,,,,,,,,,,,,,,,,,,,,,,,,,,,,,,,,,,,,,,,,,,,,,,,,,,,,,,
,,?,0.001195,0,,,,,,stimuli/images/PICTURE_467.png,DEMON,5ee278242f89ff153301cb37,13/06/1989,2020-08-27_15h41.09.301,proactive3.2,2020.1.2,Win32,60,5f47c0b9b035471e11593a5c,5f47c4ddf50c0e1df0d787a1,2,,,,,,peg,,,,,,,,,,,3,0,0,24,24,23,1,,,,,,,,,,,,,,,,,,,,,,,,,,,,,,,,,,,,,,,,,,,,,,,,,,,,,,,,,,,,,,,,,,,,,,
,,?,0.0012,0,,,,,,stimuli/images/PICTURE_449.png,THING,5ee278242f89ff153301cb37,13/06/1989,2020-08-27_15h41.09.301,proactive3.2,2020.1.2,Win32,60,5f47c0b9b035471e11593a5c,5f47c4ddf50c0e1df0d787a1,2,,,,,,bench,,,,,,,,,,,6,0,0,25,25,59,1,,,,,,,,,,,,,,,,,,,,,,,,,,,,,,,,,,,,,,,,,,,,,,,,,,,,,,,,,,,,,,,,,,,,,,
,,?,0.001825,0,,,,,,stimuli/images/PICTURE_469.png,LETTER,5ee278242f89ff153301cb37,13/06/1989,2020-08-27_15h41.09.301,proactive3.2,2020.1.2,Win32,60,5f47c0b9b035471e11593a5c,5f47c4ddf50c0e1df0d787a1,2,,,,,,stool,,,,,,,,,,,5,0,0,26,26,42,1,,,,,,,,,,,,,,,,,,,,,,,,,,,,,,,,,,,,,,,,,,,,,,,,,,,,,,,,,,,,,,,,,,,,,,
,,?,0.00147,0,,,,,,stimuli/images/PICTURE_248.png,DOZEN,5ee278242f89ff153301cb37,13/06/1989,2020-08-27_15h41.09.301,proactive3.2,2020.1.2,Win32,60,5f47c0b9b035471e11593a5c,5f47c4ddf50c0e1df0d787a1,2,,,,,,cart,,,,,,,,,,,4,0,0,27,27,39,1,,,,,,,,,,,,,,,,,,,,,,,,,,,,,,,,,,,,,,,,,,,,,,,,,,,,,,,,,,,,,,,,,,,,,,
,,?,0.0015,0,,,,,,stimuli/images/PICTURE_215.png,PLENTY,5ee278242f89ff153301cb37,13/06/1989,2020-08-27_15h41.09.301,proactive3.2,2020.1.2,Win32,60,5f47c0b9b035471e11593a5c,5f47c4ddf50c0e1df0d787a1,2,,,,,,boot,,,,,,,,,,,4,0,0,28,28,37,1,,,,,,,,,,,,,,,,,,,,,,,,,,,,,,,,,,,,,,,,,,,,,,,,,,,,,,,,,,,,,,,,,,,,,,
,,?,0.00162,0,,,,,,stimuli/images/PICTURE_308.png,ESTATE,5ee278242f89ff153301cb37,13/06/1989,2020-08-27_15h41.09.301,proactive3.2,2020.1.2,Win32,60,5f47c0b9b035471e11593a5c,5f47c4ddf50c0e1df0d787a1,2,,,,,,dice,,,,,,,,,,,5,0,0,29,29,46,1,,,,,,,,,,,,,,,,,,,,,,,,,,,,,,,,,,,,,,,,,,,,,,,,,,,,,,,,,,,,,,,,,,,,,,
,,?,0.00129,0,,,,,,stimuli/images/PICTURE_255.png,AREA,5ee278242f89ff153301cb37,13/06/1989,2020-08-27_15h41.09.301,proactive3.2,2020.1.2,Win32,60,5f47c0b9b035471e11593a5c,5f47c4ddf50c0e1df0d787a1,2,,,,,,shovel,,,,,,,,,,,3,0,0,30,30,22,1,,,,,,,,,,,,,,,,,,,,,,,,,,,,,,,,,,,,,,,,,,,,,,,,,,,,,,,,,,,,,,,,,,,,,,
,,BEAUTY,1.83264,1,,,,,,stimuli/images/PICTURE_311.png,BEAUTY,5ee278242f89ff153301cb37,13/06/1989,2020-08-27_15h41.09.301,proactive3.2,2020.1.2,Win32,60,5f47c0b9b035471e11593a5c,5f47c4ddf50c0e1df0d787a1,2,,,,,,razor,,,,,,,,,,,2,0,0,31,31,13,1,,,,,,,,,,,,,,,,,,,,,,,,,,,,,,,,,,,,,,,,,,,,,,,,,,,,,,,,,,,,,,,,,,,,,,
,,?,0.00144,0,,,,,,stimuli/images/PICTURE_488.png,STYLE,5ee278242f89ff153301cb37,13/06/1989,2020-08-27_15h41.09.301,proactive3.2,2020.1.2,Win32,60,5f47c0b9b035471e11593a5c,5f47c4ddf50c0e1df0d787a1,2,,,,,,sun,,,,,,,,,,,4,0,0,32,32,33,1,,,,,,,,,,,,,,,,,,,,,,,,,,,,,,,,,,,,,,,,,,,,,,,,,,,,,,,,,,,,,,,,,,,,,,
,,?,0.00132,0,,,,,,stimuli/images/PICTURE_68.png,MILE,5ee278242f89ff153301cb37,13/06/1989,2020-08-27_15h41.09.301,proactive3.2,2020.1.2,Win32,60,5f47c0b9b035471e11593a5c,5f47c4ddf50c0e1df0d787a1,2,,,,,,candle,,,,,,,,,,,5,0,0,33,33,44,1,,,,,,,,,,,,,,,,,,,,,,,,,,,,,,,,,,,,,,,,,,,,,,,,,,,,,,,,,,,,,,,,,,,,,,
,,?,0.00121,0,,,,,,stimuli/images/PICTURE_708.png,PENNY,5ee278242f89ff153301cb37,13/06/1989,2020-08-27_15h41.09.301,proactive3.2,2020.1.2,Win32,60,5f47c0b9b035471e11593a5c,5f47c4ddf50c0e1df0d787a1,2,,,,,,monkey,,,,,,,,,,,4,0,0,34,34,31,1,,,,,,,,,,,,,,,,,,,,,,,,,,,,,,,,,,,,,,,,,,,,,,,,,,,,,,,,,,,,,,,,,,,,,,
,,?,0.001525,0,,,,,,stimuli/images/PICTURE_160.png,FEET,5ee278242f89ff153301cb37,13/06/1989,2020-08-27_15h41.09.301,proactive3.2,2020.1.2,Win32,60,5f47c0b9b035471e11593a5c,5f47c4ddf50c0e1df0d787a1,2,,,,,,wheelbarrow,,,,,,,,,,,6,0,0,35,35,58,1,,,,,,,,,,,,,,,,,,,,,,,,,,,,,,,,,,,,,,,,,,,,,,,,,,,,,,,,,,,,,,,,,,,,,,
,,?,0.002,0,,,,,,stimuli/images/PICTURE_453.png,PLENTY,5ee278242f89ff153301cb37,13/06/1989,2020-08-27_15h41.09.301,proactive3.2,2020.1.2,Win32,60,5f47c0b9b035471e11593a5c,5f47c4ddf50c0e1df0d787a1,2,,,,,,scissors,,,,,,,,,,,6,0,0,36,36,56,1,,,,,,,,,,,,,,,,,,,,,,,,,,,,,,,,,,,,,,,,,,,,,,,,,,,,,,,,,,,,,,,,,,,,,,
,,?,0.00128,0,,,,,,stimuli/images/PICTURE_470.png,CASINO,5ee278242f89ff153301cb37,13/06/1989,2020-08-27_15h41.09.301,proactive3.2,2020.1.2,Win32,60,5f47c0b9b035471e11593a5c,5f47c4ddf50c0e1df0d787a1,2,,,,,,motorbike,,,,,,,,,,,4,0,0,37,37,36,1,,,,,,,,,,,,,,,,,,,,,,,,,,,,,,,,,,,,,,,,,,,,,,,,,,,,,,,,,,,,,,,,,,,,,,
,,RING,3.54385,0,,,,,,stimuli/images/PICTURE_85.png,THING,5ee278242f89ff153301cb37,13/06/1989,2020-08-27_15h41.09.301,proactive3.2,2020.1.2,Win32,60,5f47c0b9b035471e11593a5c,5f47c4ddf50c0e1df0d787a1,2,,,,,,diamond,,,,,,,,,,,2,0,0,38,38,15,1,,,,,,,,,,,,,,,,,,,,,,,,,,,,,,,,,,,,,,,,,,,,,,,,,,,,,,,,,,,,,,,,,,,,,,
,,?,0.001435,0,,,,,,stimuli/images/PICTURE_233.png,IDEAS,5ee278242f89ff153301cb37,13/06/1989,2020-08-27_15h41.09.301,proactive3.2,2020.1.2,Win32,60,5f47c0b9b035471e11593a5c,5f47c4ddf50c0e1df0d787a1,2,,,,,,salt,,,,,,,,,,,3,0,0,39,39,28,1,,,,,,,,,,,,,,,,,,,,,,,,,,,,,,,,,,,,,,,,,,,,,,,,,,,,,,,,,,,,,,,,,,,,,,
,,?,0.001645,0,,,,,,stimuli/images/PICTURE_677.png,MILE,5ee278242f89ff153301cb37,13/06/1989,2020-08-27_15h41.09.301,proactive3.2,2020.1.2,Win32,60,5f47c0b9b035471e11593a5c,5f47c4ddf50c0e1df0d787a1,2,,,,,,map,,,,,,,,,,,4,0,0,40,40,30,1,,,,,,,,,,,,,,,,,,,,,,,,,,,,,,,,,,,,,,,,,,,,,,,,,,,,,,,,,,,,,,,,,,,,,,
,,?,0.001555,0,,,,,,stimuli/images/PICTURE_708.png,YARD,5ee278242f89ff153301cb37,13/06/1989,2020-08-27_15h41.09.301,proactive3.2,2020.1.2,Win32,60,5f47c0b9b035471e11593a5c,5f47c4ddf50c0e1df0d787a1,2,,,,,,monkey,,,,,,,,,,,3,0,0,41,41,29,1,,,,,,,,,,,,,,,,,,,,,,,,,,,,,,,,,,,,,,,,,,,,,,,,,,,,,,,,,,,,,,,,,,,,,,
,,?,0.00133,0,,,,,,stimuli/images/PICTURE_314.png,SAKE,5ee278242f89ff153301cb37,13/06/1989,2020-08-27_15h41.09.301,proactive3.2,2020.1.2,Win32,60,5f47c0b9b035471e11593a5c,5f47c4ddf50c0e1df0d787a1,2,,,,,,perfume,,,,,,,,,,,1,0,0,42,42,7,1,,,,,,,,,,,,,,,,,,,,,,,,,,,,,,,,,,,,,,,,,,,,,,,,,,,,,,,,,,,,,,,,,,,,,,
,,LOTS,3.616495,1,,,,,,stimuli/images/PICTURE_208.png,LOTS,5ee278242f89ff153301cb37,13/06/1989,2020-08-27_15h41.09.301,proactive3.2,2020.1.2,Win32,60,5f47c0b9b035471e11593a5c,5f47c4ddf50c0e1df0d787a1,2,,,,,,microphone,,,,,,,,,,,2,0,0,43,43,10,1,,,,,,,,,,,,,,,,,,,,,,,,,,,,,,,,,,,,,,,,,,,,,,,,,,,,,,,,,,,,,,,,,,,,,,
,,?,0.001345,0,,,,,,stimuli/images/PICTURE_509.png,PHOTO,5ee278242f89ff153301cb37,13/06/1989,2020-08-27_15h41.09.301,proactive3.2,2020.1.2,Win32,60,5f47c0b9b035471e11593a5c,5f47c4ddf50c0e1df0d787a1,2,,,,,,telephone,,,,,,,,,,,3,0,0,44,44,21,1,,,,,,,,,,,,,,,,,,,,,,,,,,,,,,,,,,,,,,,,,,,,,,,,,,,,,,,,,,,,,,,,,,,,,,
,,?,0.00129,0,,,,,,stimuli/images/PICTURE_208.png,MONTH,5ee278242f89ff153301cb37,13/06/1989,2020-08-27_15h41.09.301,proactive3.2,2020.1.2,Win32,60,5f47c0b9b035471e11593a5c,5f47c4ddf50c0e1df0d787a1,2,,,,,,microphone,,,,,,,,,,,6,0,0,45,45,53,1,,,,,,,,,,,,,,,,,,,,,,,,,,,,,,,,,,,,,,,,,,,,,,,,,,,,,,,,,,,,,,,,,,,,,,
,,?,0.001285,0,,,,,,stimuli/images/PICTURE_356.png,DANGER,5ee278242f89ff153301cb37,13/06/1989,2020-08-27_15h41.09.301,proactive3.2,2020.1.2,Win32,60,5f47c0b9b035471e11593a5c,5f47c4ddf50c0e1df0d787a1,2,,,,,,pawn,,,,,,,,,,,6,0,0,46,46,55,1,,,,,,,,,,,,,,,,,,,,,,,,,,,,,,,,,,,,,,,,,,,,,,,,,,,,,,,,,,,,,,,,,,,,,,
,,?,0.001655,0,,,,,,stimuli/images/PICTURE_688.png,CASINO,5ee278242f89ff153301cb37,13/06/1989,2020-08-27_15h41.09.301,proactive3.2,2020.1.2,Win32,60,5f47c0b9b035471e11593a5c,5f47c4ddf50c0e1df0d787a1,2,,,,,,runner,,,,,,,,,,,1,0,0,47,47,2,1,,,,,,,,,,,,,,,,,,,,,,,,,,,,,,,,,,,,,,,,,,,,,,,,,,,,,,,,,,,,,,,,,,,,,,
,,?,0.001815,0,,,,,,stimuli/images/PICTURE_380.png,DEATH,5ee278242f89ff153301cb37,13/06/1989,2020-08-27_15h41.09.301,proactive3.2,2020.1.2,Win32,60,5f47c0b9b035471e11593a5c,5f47c4ddf50c0e1df0d787a1,2,,,,,,gorilla,,,,,,,,,,,5,0,0,48,48,49,1,,,,,,,,,,,,,,,,,,,,,,,,,,,,,,,,,,,,,,,,,,,,,,,,,,,,,,,,,,,,,,,,,,,,,,
,,?,0.00141,0,,,,,,stimuli/images/PICTURE_147.png,MOMENT,5ee278242f89ff153301cb37,13/06/1989,2020-08-27_15h41.09.301,proactive3.2,2020.1.2,Win32,60,5f47c0b9b035471e11593a5c,5f47c4ddf50c0e1df0d787a1,2,,,,,,hanger,,,,,,,,,,,6,0,0,49,49,51,1,,,,,,,,,,,,,,,,,,,,,,,,,,,,,,,,,,,,,,,,,,,,,,,,,,,,,,,,,,,,,,,,,,,,,,
,,WOMAN,2.060825,0,,,,,,stimuli/images/PICTURE_688.png,WOMEN,5ee278242f89ff153301cb37,13/06/1989,2020-08-27_15h41.09.301,proactive3.2,2020.1.2,Win32,60,5f47c0b9b035471e11593a5c,5f47c4ddf50c0e1df0d787a1,2,,,,,,runner,,,,,,,,,,,2,0,0,50,50,14,1,,,,,,,,,,,,,,,,,,,,,,,,,,,,,,,,,,,,,,,,,,,,,,,,,,,,,,,,,,,,,,,,,,,,,,
,,?,0.001415,0,,,,,,stimuli/images/PICTURE_95.png,STYLE,5ee278242f89ff153301cb37,13/06/1989,2020-08-27_15h41.09.301,proactive3.2,2020.1.2,Win32,60,5f47c0b9b035471e11593a5c,5f47c4ddf50c0e1df0d787a1,2,,,,,,suitcase,,,,,,,,,,,3,0,0,51,51,25,1,,,,,,,,,,,,,,,,,,,,,,,,,,,,,,,,,,,,,,,,,,,,,,,,,,,,,,,,,,,,,,,,,,,,,,
,,?,0.001295,0,,,,,,stimuli/images/PICTURE_491.png,WRITER,5ee278242f89ff153301cb37,13/06/1989,2020-08-27_15h41.09.301,proactive3.2,2020.1.2,Win32,60,5f47c0b9b035471e11593a5c,5f47c4ddf50c0e1df0d787a1,2,,,,,,rug,,,,,,,,,,,6,0,0,52,52,57,1,,,,,,,,,,,,,,,,,,,,,,,,,,,,,,,,,,,,,,,,,,,,,,,,,,,,,,,,,,,,,,,,,,,,,,
,,?,0.00141,0,,,,,,stimuli/images/PICTURE_469.png,ARTIST,5ee278242f89ff153301cb37,13/06/1989,2020-08-27_15h41.09.301,proactive3.2,2020.1.2,Win32,60,5f47c0b9b035471e11593a5c,5f47c4ddf50c0e1df0d787a1,2,,,,,,stool,,,,,,,,,,,1,0,0,53,53,6,1,,,,,,,,,,,,,,,,,,,,,,,,,,,,,,,,,,,,,,,,,,,,,,,,,,,,,,,,,,,,,,,,,,,,,,
,,?,0.00129,0,,,,,,stimuli/images/PICTURE_233.png,WOMEN,5ee278242f89ff153301cb37,13/06/1989,2020-08-27_15h41.09.301,proactive3.2,2020.1.2,Win32,60,5f47c0b9b035471e11593a5c,5f47c4ddf50c0e1df0d787a1,2,,,,,,salt,,,,,,,,,,,4,0,0,54,54,38,1,,,,,,,,,,,,,,,,,,,,,,,,,,,,,,,,,,,,,,,,,,,,,,,,,,,,,,,,,,,,,,,,,,,,,,
,,WOMAN,10.434525,0,,,,,,stimuli/images/PICTURE_692.png,MONTH,5ee278242f89ff153301cb37,13/06/1989,2020-08-27_15h41.09.301,proactive3.2,2020.1.2,Win32,60,5f47c0b9b035471e11593a5c,5f47c4ddf50c0e1df0d787a1,2,,,,,,cherry,,,,,,,,,,,2,0,0,55,55,16,1,,,,,,,,,,,,,,,,,,,,,,,,,,,,,,,,,,,,,,,,,,,,,,,,,,,,,,,,,,,,,,,,,,,,,,
,,?,0.001335,0,,,,,,stimuli/images/PICTURE_675.png,WEAPON,5ee278242f89ff153301cb37,13/06/1989,2020-08-27_15h41.09.301,proactive3.2,2020.1.2,Win32,60,5f47c0b9b035471e11593a5c,5f47c4ddf50c0e1df0d787a1,2,,,,,,windmill,,,,,,,,,,,4,0,0,56,56,32,1,,,,,,,,,,,,,,,,,,,,,,,,,,,,,,,,,,,,,,,,,,,,,,,,,,,,,,,,,,,,,,,,,,,,,,
,,?,0.00123,0,,,,,,stimuli/images/PICTURE_708.png,CLIENT,5ee278242f89ff153301cb37,13/06/1989,2020-08-27_15h41.09.301,proactive3.2,2020.1.2,Win32,60,5f47c0b9b035471e11593a5c,5f47c4ddf50c0e1df0d787a1,2,,,,,,monkey,,,,,,,,,,,1,0,0,57,57,5,1,,,,,,,,,,,,,,,,,,,,,,,,,,,,,,,,,,,,,,,,,,,,,,,,,,,,,,,,,,,,,,,,,,,,,,
,,?,0.001395,0,,,,,,stimuli/images/PICTURE_380.png,PHOTO,5ee278242f89ff153301cb37,13/06/1989,2020-08-27_15h41.09.301,proactive3.2,2020.1.2,Win32,60,5f47c0b9b035471e11593a5c,5f47c4ddf50c0e1df0d787a1,2,,,,,,gorilla,,,,,,,,,,,6,0,0,58,58,52,1,,,,,,,,,,,,,,,,,,,,,,,,,,,,,,,,,,,,,,,,,,,,,,,,,,,,,,,,,,,,,,,,,,,,,,
,,?,0.001205,0,,,,,,stimuli/images/PICTURE_348.png,SPEECH,5ee278242f89ff153301cb37,13/06/1989,2020-08-27_15h41.09.301,proactive3.2,2020.1.2,Win32,60,5f47c0b9b035471e11593a5c,5f47c4ddf50c0e1df0d787a1,2,,,,,,pepper,,,,,,,,,,,3,0,0,59,59,20,1,,,,,,,,,,,,,,,,,,,,,,,,,,,,,,,,,,,,,,,,,,,,,,,,,,,,,,,,,,,,,,,,,,,,,,
,,,,,,,,,,,,5ee278242f89ff153301cb37,13/06/1989,2020-08-27_15h41.09.301,proactive3.2,2020.1.2,Win32,60,5f47c0b9b035471e11593a5c,5f47c4ddf50c0e1df0d787a1,2,,,,,,,,,,,,,,,,,,,,,,,,0,1,1,0,1,stimuli/learn-block1.csv,,,,,,,,,,,,,,,,,,,,,,,,,,,,,,,,,,,,,,,,,,,,,,,,,,,,,,,,,,,,,,,,
,,,,,,,,,,stimuli/images/PICTURE_339.png,CLIENT,5ee278242f89ff153301cb37,13/06/1989,2020-08-27_15h41.09.301,proactive3.2,2020.1.2,Win32,60,5f47c0b9b035471e11593a5c,5f47c4ddf50c0e1df0d787a1,2,,,,,,backpack,,,,,,0,0,0,11,1,2,1,,,,,,,,,,,,,,,,,,,,,,,,,,,,,,,,,,,,,,,,,,,,,,,,,,,,,,,,,,,,,,,,,,,,,,,,,,,
,,,,,,,,,,stimuli/images/PICTURE_744.png,WEAPON,5ee278242f89ff153301cb37,13/06/1989,2020-08-27_15h41.09.301,proactive3.2,2020.1.2,Win32,60,5f47c0b9b035471e11593a5c,5f47c4ddf50c0e1df0d787a1,2,,,,,,ring,,,,,,0,1,1,50,1,6,1,,,,,,,,,,,,,,,,,,,,,,,,,,,,,,,,,,,,,,,,,,,,,,,,,,,,,,,,,,,,,,,,,,,,,,,,,,,
,,,,,,,,,,stimuli/images/PICTURE_380.png,CANDY,5ee278242f89ff153301cb37,13/06/1989,2020-08-27_15h41.09.301,proactive3.2,2020.1.2,Win32,60,5f47c0b9b035471e11593a5c,5f47c4ddf50c0e1df0d787a1,2,,,,,,gorilla,,,,,,0,2,2,0,1,1,1,,,,,,,,,,,,,,,,,,,,,,,,,,,,,,,,,,,,,,,,,,,,,,,,,,,,,,,,,,,,,,,,,,,,,,,,,,,
,,,,,,,,,,stimuli/images/PICTURE_147.png,WOMEN,5ee278242f89ff153301cb37,13/06/1989,2020-08-27_15h41.09.301,proactive3.2,2020.1.2,Win32,60,5f47c0b9b035471e11593a5c,5f47c4ddf50c0e1df0d787a1,2,,,,,,hanger,,,,,,0,3,3,7,1,1,1,,,,,,,,,,,,,,,,,,,,,,,,,,,,,,,,,,,,,,,,,,,,,,,,,,,,,,,,,,,,,,,,,,,,,,,,,,,
,,,,,,,,,,stimuli/images/PICTURE_297.png,RIVER,5ee278242f89ff153301cb37,13/06/1989,2020-08-27_15h41.09.301,proactive3.2,2020.1.2,Win32,60,5f47c0b9b035471e11593a5c,5f47c4ddf50c0e1df0d787a1,2,,,,,,aeroplane,,,,,,0,4,4,39,1,4,1,,,,,,,,,,,,,,,,,,,,,,,,,,,,,,,,,,,,,,,,,,,,,,,,,,,,,,,,,,,,,,,,,,,,,,,,,,,
,,,,,,,,,,stimuli/images/PICTURE_2.png,FLIGHT,5ee278242f89ff153301cb37,13/06/1989,2020-08-27_15h41.09.301,proactive3.2,2020.1.2,Win32,60,5f47c0b9b035471e11593a5c,5f47c4ddf50c0e1df0d787a1,2,,,,,,tyre,,,,,,0,5,5,15,1,2,1,,,,,,,,,,,,,,,,,,,,,,,,,,,,,,,,,,,,,,,,,,,,,,,,,,,,,,,,,,,,,,,,,,,,,,,,,,,
,,,,,,,,,,stimuli/images/PICTURE_327.png,CASINO,5ee278242f89ff153301cb37,13/06/1989,2020-08-27_15h41.09.301,proactive3.2,2020.1.2,Win32,60,5f47c0b9b035471e11593a5c,5f47c4ddf50c0e1df0d787a1,2,,,,,,helmet,,,,,,0,6,6,20,1,3,1,,,,,,,,,,,,,,,,,,,,,,,,,,,,,,,,,,,,,,,,,,,,,,,,,,,,,,,,,,,,,,,,,,,,,,,,,,,
,,,,,,,,,,stimuli/images/PICTURE_469.png,AGENT,5ee278242f89ff153301cb37,13/06/1989,2020-08-27_15h41.09.301,proactive3.2,2020.1.2,Win32,60,5f47c0b9b035471e11593a5c,5f47c4ddf50c0e1df0d787a1,2,,,,,,stool,,,,,,0,7,7,16,1,2,1,,,,,,,,,,,,,,,,,,,,,,,,,,,,,,,,,,,,,,,,,,,,,,,,,,,,,,,,,,,,,,,,,,,,,,,,,,,
,,,,,,,,,,stimuli/images/PICTURE_405.png,PLENTY,5ee278242f89ff153301cb37,13/06/1989,2020-08-27_15h41.09.301,proactive3.2,2020.1.2,Win32,60,5f47c0b9b035471e11593a5c,5f47c4ddf50c0e1df0d787a1,2,,,,,,anchor,,,,,,0,8,8,23,1,3,1,,,,,,,,,,,,,,,,,,,,,,,,,,,,,,,,,,,,,,,,,,,,,,,,,,,,,,,,,,,,,,,,,,,,,,,,,,,
,,,,,,,,,,stimuli/images/PICTURE_380.png,HONEY,5ee278242f89ff153301cb37,13/06/1989,2020-08-27_15h41.09.301,proactive3.2,2020.1.2,Win32,60,5f47c0b9b035471e11593a5c,5f47c4ddf50c0e1df0d787a1,2,,,,,,gorilla,,,,,,0,9,9,19,1,2,1,,,,,,,,,,,,,,,,,,,,,,,,,,,,,,,,,,,,,,,,,,,,,,,,,,,,,,,,,,,,,,,,,,,,,,,,,,,
,,,,,,,,,,stimuli/images/PICTURE_42.png,BOYS,5ee278242f89ff153301cb37,13/06/1989,2020-08-27_15h41.09.301,proactive3.2,2020.1.2,Win32,60,5f47c0b9b035471e11593a5c,5f47c4ddf50c0e1df0d787a1,2,,,,,,pear,,,,,,0,10,10,55,1,6,1,,,,,,,,,,,,,,,,,,,,,,,,,,,,,,,,,,,,,,,,,,,,,,,,,,,,,,,,,,,,,,,,,,,,,,,,,,,
,,,,,,,,,,stimuli/images/PICTURE_177.png,WRITER,5ee278242f89ff153301cb37,13/06/1989,2020-08-27_15h41.09.301,proactive3.2,2020.1.2,Win32,60,5f47c0b9b035471e11593a5c,5f47c4ddf50c0e1df0d787a1,2,,,,,,mushroom,,,,,,0,11,11,41,1,5,1,,,,,,,,,,,,,,,,,,,,,,,,,,,,,,,,,,,,,,,,,,,,,,,,,,,,,,,,,,,,,,,,,,,,,,,,,,,
,,,,,,,,,,stimuli/images/PICTURE_85.png,NATION,5ee278242f89ff153301cb37,13/06/1989,2020-08-27_15h41.09.301,proactive3.2,2020.1.2,Win32,60,5f47c0b9b035471e11593a5c,5f47c4ddf50c0e1df0d787a1,2,,,,,,diamond,,,,,,0,12,12,5,1,1,1,,,,,,,,,,,,,,,,,,,,,,,,,,,,,,,,,,,,,,,,,,,,,,,,,,,,,,,,,,,,,,,,,,,,,,,,,,,
,,,,,,,,,,stimuli/images/PICTURE_340.png,LETTER,5ee278242f89ff153301cb37,13/06/1989,2020-08-27_15h41.09.301,proactive3.2,2020.1.2,Win32,60,5f47c0b9b035471e11593a5c,5f47c4ddf50c0e1df0d787a1,2,,,,,,mirror,,,,,,0,13,13,24,1,3,1,,,,,,,,,,,,,,,,,,,,,,,,,,,,,,,,,,,,,,,,,,,,,,,,,,,,,,,,,,,,,,,,,,,,,,,,,,,
,,,,,,,,,,stimuli/images/PICTURE_708.png,RECORD,5ee278242f89ff153301cb37,13/06/1989,2020-08-27_15h41.09.301,proactive3.2,2020.1.2,Win32,60,5f47c0b9b035471e11593a5c,5f47c4ddf50c0e1df0d787a1,2,,,,,,monkey,,,,,,0,14,14,58,1,6,1,,,,,,,,,,,,,,,,,,,,,,,,,,,,,,,,,,,,,,,,,,,,,,,,,,,,,,,,,,,,,,,,,,,,,,,,,,,
,,,,,,,,,,stimuli/images/PICTURE_327.png,SERIES,5ee278242f89ff153301cb37,13/06/1989,2020-08-27_15h41.09.301,proactive3.2,2020.1.2,Win32,60,5f47c0b9b035471e11593a5c,5f47c4ddf50c0e1df0d787a1,2,,,,,,helmet,,,,,,0,15,15,3,1,1,1,,,,,,,,,,,,,,,,,,,,,,,,,,,,,,,,,,,,,,,,,,,,,,,,,,,,,,,,,,,,,,,,,,,,,,,,,,,
,,,,,,,,,,stimuli/images/PICTURE_95.png,MILLER,5ee278242f89ff153301cb37,13/06/1989,2020-08-27_15h41.09.301,proactive3.2,2020.1.2,Win32,60,5f47c0b9b035471e11593a5c,5f47c4ddf50c0e1df0d787a1,2,,,,,,suitcase,,,,,,0,16,16,56,1,6,1,,,,,,,,,,,,,,,,,,,,,,,,,,,,,,,,,,,,,,,,,,,,,,,,,,,,,,,,,,,,,,,,,,,,,,,,,,,
,,,,,,,,,,stimuli/images/PICTURE_85.png,TOILET,5ee278242f89ff153301cb37,13/06/1989,2020-08-27_15h41.09.301,proactive3.2,2020.1.2,Win32,60,5f47c0b9b035471e11593a5c,5f47c4ddf50c0e1df0d787a1,2,,,,,,diamond,,,,,,0,17,17,48,1,5,1,,,,,,,,,,,,,,,,,,,,,,,,,,,,,,,,,,,,,,,,,,,,,,,,,,,,,,,,,,,,,,,,,,,,,,,,,,,
,,,,,,,,,,stimuli/images/PICTURE_108.png,POLICY,5ee278242f89ff153301cb37,13/06/1989,2020-08-27_15h41.09.301,proactive3.2,2020.1.2,Win32,60,5f47c0b9b035471e11593a5c,5f47c4ddf50c0e1df0d787a1,2,,,,,,calendar,,,,,,0,18,18,22,1,3,1,,,,,,,,,,,,,,,,,,,,,,,,,,,,,,,,,,,,,,,,,,,,,,,,,,,,,,,,,,,,,,,,,,,,,,,,,,,
,,,,,,,,,,stimuli/images/PICTURE_564.png,BATH,5ee278242f89ff153301cb37,13/06/1989,2020-08-27_15h41.09.301,proactive3.2,2020.1.2,Win32,60,5f47c0b9b035471e11593a5c,5f47c4ddf50c0e1df0d787a1,2,,,,,,spoon,,,,,,0,19,19,26,1,3,1,,,,,,,,,,,,,,,,,,,,,,,,,,,,,,,,,,,,,,,,,,,,,,,,,,,,,,,,,,,,,,,,,,,,,,,,,,,
,,,,,,,,,,stimuli/images/PICTURE_32.png,PILLS,5ee278242f89ff153301cb37,13/06/1989,2020-08-27_15h41.09.301,proactive3.2,2020.1.2,Win32,60,5f47c0b9b035471e11593a5c,5f47c4ddf50c0e1df0d787a1,2,,,,,,crown,,,,,,0,20,20,18,1,2,1,,,,,,,,,,,,,,,,,,,,,,,,,,,,,,,,,,,,,,,,,,,,,,,,,,,,,,,,,,,,,,,,,,,,,,,,,,,
,,,,,,,,,,stimuli/images/PICTURE_296.png,LOTS,5ee278242f89ff153301cb37,13/06/1989,2020-08-27_15h41.09.301,proactive3.2,2020.1.2,Win32,60,5f47c0b9b035471e11593a5c,5f47c4ddf50c0e1df0d787a1,2,,,,,,bolt,,,,,,0,21,21,9,1,1,1,,,,,,,,,,,,,,,,,,,,,,,,,,,,,,,,,,,,,,,,,,,,,,,,,,,,,,,,,,,,,,,,,,,,,,,,,,,
,,,,,,,,,,stimuli/images/PICTURE_675.png,SALE,5ee278242f89ff153301cb37,13/06/1989,2020-08-27_15h41.09.301,proactive3.2,2020.1.2,Win32,60,5f47c0b9b035471e11593a5c,5f47c4ddf50c0e1df0d787a1,2,,,,,,windmill,,,,,,0,22,22,47,1,5,1,,,,,,,,,,,,,,,,,,,,,,,,,,,,,,,,,,,,,,,,,,,,,,,,,,,,,,,,,,,,,,,,,,,,,,,,,,,
,,,,,,,,,,stimuli/images/PICTURE_308.png,FAMILY,5ee278242f89ff153301cb37,13/06/1989,2020-08-27_15h41.09.301,proactive3.2,2020.1.2,Win32,60,5f47c0b9b035471e11593a5c,5f47c4ddf50c0e1df0d787a1,2,,,,,,dice,,,,,,0,23,23,36,1,4,1,,,,,,,,,,,,,,,,,,,,,,,,,,,,,,,,,,,,,,,,,,,,,,,,,,,,,,,,,,,,,,,,,,,,,,,,,,,
,,,,,,,,,,stimuli/images/PICTURE_654.png,MONTH,5ee278242f89ff153301cb37,13/06/1989,2020-08-27_15h41.09.301,proactive3.2,2020.1.2,Win32,60,5f47c0b9b035471e11593a5c,5f47c4ddf50c0e1df0d787a1,2,,,,,,pencil,,,,,,0,24,24,29,1,3,1,,,,,,,,,,,,,,,,,,,,,,,,,,,,,,,,,,,,,,,,,,,,,,,,,,,,,,,,,,,,,,,,,,,,,,,,,,,
,,,,,,,,,,stimuli/images/PICTURE_750.png,HOTEL,5ee278242f89ff153301cb37,13/06/1989,2020-08-27_15h41.09.301,proactive3.2,2020.1.2,Win32,60,5f47c0b9b035471e11593a5c,5f47c4ddf50c0e1df0d787a1,2,,,,,,kettle,,,,,,0,25,25,27,1,3,1,,,,,,,,,,,,,,,,,,,,,,,,,,,,,,,,,,,,,,,,,,,,,,,,,,,,,,,,,,,,,,,,,,,,,,,,,,,
,,,,,,,,,,stimuli/images/PICTURE_403.png,TOILET,5ee278242f89ff153301cb37,13/06/1989,2020-08-27_15h41.09.301,proactive3.2,2020.1.2,Win32,60,5f47c0b9b035471e11593a5c,5f47c4ddf50c0e1df0d787a1,2,,,,,,cathedral,,,,,,0,26,26,25,1,3,1,,,,,,,,,,,,,,,,,,,,,,,,,,,,,,,,,,,,,,,,,,,,,,,,,,,,,,,,,,,,,,,,,,,,,,,,,,,
,,,,,,,,,,stimuli/images/PICTURE_95.png,BOYS,5ee278242f89ff153301cb37,13/06/1989,2020-08-27_15h41.09.301,proactive3.2,2020.1.2,Win32,60,5f47c0b9b035471e11593a5c,5f47c4ddf50c0e1df0d787a1,2,,,,,,suitcase,,,,,,0,27,27,1,1,1,1,,,,,,,,,,,,,,,,,,,,,,,,,,,,,,,,,,,,,,,,,,,,,,,,,,,,,,,,,,,,,,,,,,,,,,,,,,,
,,,,,,,,,,stimuli/images/PICTURE_68.png,ROOF,5ee278242f89ff153301cb37,13/06/1989,2020-08-27_15h41.09.301,proactive3.2,2020.1.2,Win32,60,5f47c0b9b035471e11593a5c,5f47c4ddf50c0e1df0d787a1,2,,,,,,candle,,,,,,0,28,28,38,1,4,1,,,,,,,,,,,,,,,,,,,,,,,,,,,,,,,,,,,,,,,,,,,,,,,,,,,,,,,,,,,,,,,,,,,,,,,,,,,
,,,,,,,,,,stimuli/images/PICTURE_340.png,VALLEY,5ee278242f89ff153301cb37,13/06/1989,2020-08-27_15h41.09.301,proactive3.2,2020.1.2,Win32,60,5f47c0b9b035471e11593a5c,5f47c4ddf50c0e1df0d787a1,2,,,,,,mirror,,,,,,0,29,29,54,1,6,1,,,,,,,,,,,,,,,,,,,,,,,,,,,,,,,,,,,,,,,,,,,,,,,,,,,,,,,,,,,,,,,,,,,,,,,,,,,
,,,,,,,,,,stimuli/images/PICTURE_32.png,KIND,5ee278242f89ff153301cb37,13/06/1989,2020-08-27_15h41.09.301,proactive3.2,2020.1.2,Win32,60,5f47c0b9b035471e11593a5c,5f47c4ddf50c0e1df0d787a1,2,,,,,,crown,,,,,,0,30,30,35,1,4,1,,,,,,,,,,,,,,,,,,,,,,,,,,,,,,,,,,,,,,,,,,,,,,,,,,,,,,,,,,,,,,,,,,,,,,,,,,,
,,,,,,,,,,stimuli/images/PICTURE_296.png,LIFE,5ee278242f89ff153301cb37,13/06/1989,2020-08-27_15h41.09.301,proactive3.2,2020.1.2,Win32,60,5f47c0b9b035471e11593a5c,5f47c4ddf50c0e1df0d787a1,2,,,,,,bolt,,,,,,0,31,31,57,1,6,1,,,,,,,,,,,,,,,,,,,,,,,,,,,,,,,,,,,,,,,,,,,,,,,,,,,,,,,,,,,,,,,,,,,,,,,,,,,
,,,,,,,,,,stimuli/images/PICTURE_147.png,YEAR,5ee278242f89ff153301cb37,13/06/1989,2020-08-27_15h41.09.301,proactive3.2,2020.1.2,Win32,60,5f47c0b9b035471e11593a5c,5f47c4ddf50c0e1df0d787a1,2,,,,,,hanger,,,,,,0,32,32,21,1,3,1,,,,,,,,,,,,,,,,,,,,,,,,,,,,,,,,,,,,,,,,,,,,,,,,,,,,,,,,,,,,,,,,,,,,,,,,,,,
,,,,,,,,,,stimuli/images/PICTURE_504.png,COPS,5ee278242f89ff153301cb37,13/06/1989,2020-08-27_15h41.09.301,proactive3.2,2020.1.2,Win32,60,5f47c0b9b035471e11593a5c,5f47c4ddf50c0e1df0d787a1,2,,,,,,wheel,,,,,,0,33,33,52,1,6,1,,,,,,,,,,,,,,,,,,,,,,,,,,,,,,,,,,,,,,,,,,,,,,,,,,,,,,,,,,,,,,,,,,,,,,,,,,,
,,,,,,,,,,stimuli/images/PICTURE_677.png,APPLE,5ee278242f89ff153301cb37,13/06/1989,2020-08-27_15h41.09.301,proactive3.2,2020.1.2,Win32,60,5f47c0b9b035471e11593a5c,5f47c4ddf50c0e1df0d787a1,2,,,,,,map,,,,,,0,34,34,43,1,5,1,,,,,,,,,,,,,,,,,,,,,,,,,,,,,,,,,,,,,,,,,,,,,,,,,,,,,,,,,,,,,,,,,,,,,,,,,,,
,,,,,,,,,,stimuli/images/PICTURE_208.png,SYSTEM,5ee278242f89ff153301cb37,13/06/1989,2020-08-27_15h41.09.301,proactive3.2,2020.1.2,Win32,60,5f47c0b9b035471e11593a5c,5f47c4ddf50c0e1df0d787a1,2,,,,,,microphone,,,,,,0,35,35,32,1,4,1,,,,,,,,,,,,,,,,,,,,,,,,,,,,,,,,,,,,,,,,,,,,,,,,,,,,,,,,,,,,,,,,,,,,,,,,,,,
,,,,,,,,,,stimuli/images/PICTURE_405.png,YEAR,5ee278242f89ff153301cb37,13/06/1989,2020-08-27_15h41.09.301,proactive3.2,2020.1.2,Win32,60,5f47c0b9b035471e11593a5c,5f47c4ddf50c0e1df0d787a1,2,,,,,,anchor,,,,,,0,36,36,34,1,4,1,,,,,,,,,,,,,,,,,,,,,,,,,,,,,,,,,,,,,,,,,,,,,,,,,,,,,,,,,,,,,,,,,,,,,,,,,,,
,,,,,,,,,,stimuli/images/PICTURE_685.png,PENNY,5ee278242f89ff153301cb37,13/06/1989,2020-08-27_15h41.09.301,proactive3.2,2020.1.2,Win32,60,5f47c0b9b035471e11593a5c,5f47c4ddf50c0e1df0d787a1,2,,,,,,goose,,,,,,0,37,37,4,1,1,1,,,,,,,,,,,,,,,,,,,,,,,,,,,,,,,,,,,,,,,,,,,,,,,,,,,,,,,,,,,,,,,,,,,,,,,,,,,
,,,,,,,,,,stimuli/images/PICTURE_57.png,MOMENT,5ee278242f89ff153301cb37,13/06/1989,2020-08-27_15h41.09.301,proactive3.2,2020.1.2,Win32,60,5f47c0b9b035471e11593a5c,5f47c4ddf50c0e1df0d787a1,2,,,,,,stamp,,,,,,0,38,38,37,1,4,1,,,,,,,,,,,,,,,,,,,,,,,,,,,,,,,,,,,,,,,,,,,,,,,,,,,,,,,,,,,,,,,,,,,,,,,,,,,
,,,,,,,,,,stimuli/images/PICTURE_68.png,MILE,5ee278242f89ff153301cb37,13/06/1989,2020-08-27_15h41.09.301,proactive3.2,2020.1.2,Win32,60,5f47c0b9b035471e11593a5c,5f47c4ddf50c0e1df0d787a1,2,,,,,,candle,,,,,,0,39,39,51,1,6,1,,,,,,,,,,,,,,,,,,,,,,,,,,,,,,,,,,,,,,,,,,,,,,,,,,,,,,,,,,,,,,,,,,,,,,,,,,,
,,,,,,,,,,stimuli/images/PICTURE_491.png,RIVER,5ee278242f89ff153301cb37,13/06/1989,2020-08-27_15h41.09.301,proactive3.2,2020.1.2,Win32,60,5f47c0b9b035471e11593a5c,5f47c4ddf50c0e1df0d787a1,2,,,,,,rug,,,,,,0,40,40,6,1,1,1,,,,,,,,,,,,,,,,,,,,,,,,,,,,,,,,,,,,,,,,,,,,,,,,,,,,,,,,,,,,,,,,,,,,,,,,,,,
,,,,,,,,,,stimuli/images/PICTURE_667.png,RIVER,5ee278242f89ff153301cb37,13/06/1989,2020-08-27_15h41.09.301,proactive3.2,2020.1.2,Win32,60,5f47c0b9b035471e11593a5c,5f47c4ddf50c0e1df0d787a1,2,,,,,,daisy,,,,,,0,41,41,10,1,2,1,,,,,,,,,,,,,,,,,,,,,,,,,,,,,,,,,,,,,,,,,,,,,,,,,,,,,,,,,,,,,,,,,,,,,,,,,,,
,,,,,,,,,,stimuli/images/PICTURE_95.png,HONEY,5ee278242f89ff153301cb37,13/06/1989,2020-08-27_15h41.09.301,proactive3.2,2020.1.2,Win32,60,5f47c0b9b035471e11593a5c,5f47c4ddf50c0e1df0d787a1,2,,,,,,suitcase,,,,,,0,42,42,44,1,5,1,,,,,,,,,,,,,,,,,,,,,,,,,,,,,,,,,,,,,,,,,,,,,,,,,,,,,,,,,,,,,,,,,,,,,,,,,,,
,,,,,,,,,,stimuli/images/PICTURE_285.png,LIFE,5ee278242f89ff153301cb37,13/06/1989,2020-08-27_15h41.09.301,proactive3.2,2020.1.2,Win32,60,5f47c0b9b035471e11593a5c,5f47c4ddf50c0e1df0d787a1,2,,,,,,carrot,,,,,,0,43,43,33,1,4,1,,,,,,,,,,,,,,,,,,,,,,,,,,,,,,,,,,,,,,,,,,,,,,,,,,,,,,,,,,,,,,,,,,,,,,,,,,,
,,,,,,,,,,stimuli/images/PICTURE_487.png,GIRL,5ee278242f89ff153301cb37,13/06/1989,2020-08-27_15h41.09.301,proactive3.2,2020.1.2,Win32,60,5f47c0b9b035471e11593a5c,5f47c4ddf50c0e1df0d787a1,2,,,,,,basket,,,,,,0,44,44,45,1,5,1,,,,,,,,,,,,,,,,,,,,,,,,,,,,,,,,,,,,,,,,,,,,,,,,,,,,,,,,,,,,,,,,,,,,,,,,,,,
,,,,,,,,,,stimuli/images/PICTURE_233.png,LOTS,5ee278242f89ff153301cb37,13/06/1989,2020-08-27_15h41.09.301,proactive3.2,2020.1.2,Win32,60,5f47c0b9b035471e11593a5c,5f47c4ddf50c0e1df0d787a1,2,,,,,,salt,,,,,,0,45,45,42,1,5,1,,,,,,,,,,,,,,,,,,,,,,,,,,,,,,,,,,,,,,,,,,,,,,,,,,,,,,,,,,,,,,,,,,,,,,,,,,,
,,,,,,,,,,stimuli/images/PICTURE_403.png,WRITER,5ee278242f89ff153301cb37,13/06/1989,2020-08-27_15h41.09.301,proactive3.2,2020.1.2,Win32,60,5f47c0b9b035471e11593a5c,5f47c4ddf50c0e1df0d787a1,2,,,,,,cathedral,,,,,,0,46,46,31,1,4,1,,,,,,,,,,,,,,,,,,,,,,,,,,,,,,,,,,,,,,,,,,,,,,,,,,,,,,,,,,,,,,,,,,,,,,,,,,,
,,,,,,,,,,stimuli/images/PICTURE_467.png,POLICY,5ee278242f89ff153301cb37,13/06/1989,2020-08-27_15h41.09.301,proactive3.2,2020.1.2,Win32,60,5f47c0b9b035471e11593a5c,5f47c4ddf50c0e1df0d787a1,2,,,,,,peg,,,,,,0,47,47,53,1,6,1,,,,,,,,,,,,,,,,,,,,,,,,,,,,,,,,,,,,,,,,,,,,,,,,,,,,,,,,,,,,,,,,,,,,,,,,,,,
,,,,,,,,,,stimuli/images/PICTURE_655.png,TOILET,5ee278242f89ff153301cb37,13/06/1989,2020-08-27_15h41.09.301,proactive3.2,2020.1.2,Win32,60,5f47c0b9b035471e11593a5c,5f47c4ddf50c0e1df0d787a1,2,,,,,,megaphone,,,,,,0,48,48,12,1,2,1,,,,,,,,,,,,,,,,,,,,,,,,,,,,,,,,,,,,,,,,,,,,,,,,,,,,,,,,,,,,,,,,,,,,,,,,,,,
,,,,,,,,,,stimuli/images/PICTURE_491.png,GLASS,5ee278242f89ff153301cb37,13/06/1989,2020-08-27_15h41.09.301,proactive3.2,2020.1.2,Win32,60,5f47c0b9b035471e11593a5c,5f47c4ddf50c0e1df0d787a1,2,,,,,,rug,,,,,,0,49,49,14,1,2,1,,,,,,,,,,,,,,,,,,,,,,,,,,,,,,,,,,,,,,,,,,,,,,,,,,,,,,,,,,,,,,,,,,,,,,,,,,,
,,,,,,,,,,stimuli/images/PICTURE_203.png,GODS,5ee278242f89ff153301cb37,13/06/1989,2020-08-27_15h41.09.301,proactive3.2,2020.1.2,Win32,60,5f47c0b9b035471e11593a5c,5f47c4ddf50c0e1df0d787a1,2,,,,,,cap,,,,,,0,50,50,30,1,4,1,,,,,,,,,,,,,,,,,,,,,,,,,,,,,,,,,,,,,,,,,,,,,,,,,,,,,,,,,,,,,,,,,,,,,,,,,,,
,,,,,,,,,,stimuli/images/PICTURE_504.png,YEAR,5ee278242f89ff153301cb37,13/06/1989,2020-08-27_15h41.09.301,proactive3.2,2020.1.2,Win32,60,5f47c0b9b035471e11593a5c,5f47c4ddf50c0e1df0d787a1,2,,,,,,wheel,,,,,,0,51,51,13,1,2,1,,,,,,,,,,,,,,,,,,,,,,,,,,,,,,,,,,,,,,,,,,,,,,,,,,,,,,,,,,,,,,,,,,,,,,,,,,,
,,,,,,,,,,stimuli/images/PICTURE_108.png,FLIGHT,5ee278242f89ff153301cb37,13/06/1989,2020-08-27_15h41.09.301,proactive3.2,2020.1.2,Win32,60,5f47c0b9b035471e11593a5c,5f47c4ddf50c0e1df0d787a1,2,,,,,,calendar,,,,,,0,52,52,59,1,6,1,,,,,,,,,,,,,,,,,,,,,,,,,,,,,,,,,,,,,,,,,,,,,,,,,,,,,,,,,,,,,,,,,,,,,,,,,,,
,,,,,,,,,,stimuli/images/PICTURE_449.png,DUDE,5ee278242f89ff153301cb37,13/06/1989,2020-08-27_15h41.09.301,proactive3.2,2020.1.2,Win32,60,5f47c0b9b035471e11593a5c,5f47c4ddf50c0e1df0d787a1,2,,,,,,bench,,,,,,0,53,53,17,1,2,1,,,,,,,,,,,,,,,,,,,,,,,,,,,,,,,,,,,,,,,,,,,,,,,,,,,,,,,,,,,,,,,,,,,,,,,,,,,
,,,,,,,,,,stimuli/images/PICTURE_403.png,RIVER,5ee278242f89ff153301cb37,13/06/1989,2020-08-27_15h41.09.301,proactive3.2,2020.1.2,Win32,60,5f47c0b9b035471e11593a5c,5f47c4ddf50c0e1df0d787a1,2,,,,,,cathedral,,,,,,0,54,54,40,1,5,1,,,,,,,,,,,,,,,,,,,,,,,,,,,,,,,,,,,,,,,,,,,,,,,,,,,,,,,,,,,,,,,,,,,,,,,,,,,
,,,,,,,,,,stimuli/images/PICTURE_33.png,FRIEND,5ee278242f89ff153301cb37,13/06/1989,2020-08-27_15h41.09.301,proactive3.2,2020.1.2,Win32,60,5f47c0b9b035471e11593a5c,5f47c4ddf50c0e1df0d787a1,2,,,,,,frame,,,,,,0,55,55,8,1,1,1,,,,,,,,,,,,,,,,,,,,,,,,,,,,,,,,,,,,,,,,,,,,,,,,,,,,,,,,,,,,,,,,,,,,,,,,,,,
,,,,,,,,,,stimuli/images/PICTURE_504.png,ARTIST,5ee278242f89ff153301cb37,13/06/1989,2020-08-27_15h41.09.301,proactive3.2,2020.1.2,Win32,60,5f47c0b9b035471e11593a5c,5f47c4ddf50c0e1df0d787a1,2,,,,,,wheel,,,,,,0,56,56,49,1,5,1,,,,,,,,,,,,,,,,,,,,,,,,,,,,,,,,,,,,,,,,,,,,,,,,,,,,,,,,,,,,,,,,,,,,,,,,,,,
,,,,,,,,,,stimuli/images/PICTURE_383.png,WRITER,5ee278242f89ff153301cb37,13/06/1989,2020-08-27_15h41.09.301,proactive3.2,2020.1.2,Win32,60,5f47c0b9b035471e11593a5c,5f47c4ddf50c0e1df0d787a1,2,,,,,,coin,,,,,,0,57,57,28,1,3,1,,,,,,,,,,,,,,,,,,,,,,,,,,,,,,,,,,,,,,,,,,,,,,,,,,,,,,,,,,,,,,,,,,,,,,,,,,,
,,,,,,,,,,stimuli/images/PICTURE_383.png,SERIES,5ee278242f89ff153301cb37,13/06/1989,2020-08-27_15h41.09.301,proactive3.2,2020.1.2,Win32,60,5f47c0b9b035471e11593a5c,5f47c4ddf50c0e1df0d787a1,2,,,,,,coin,,,,,,0,58,58,46,1,5,1,,,,,,,,,,,,,,,,,,,,,,,,,,,,,,,,,,,,,,,,,,,,,,,,,,,,,,,,,,,,,,,,,,,,,,,,,,,
,,?,0.00192,0,,,,,,stimuli/images/PICTURE_491.png,RIVER,5ee278242f89ff153301cb37,13/06/1989,2020-08-27_15h41.09.301,proactive3.2,2020.1.2,Win32,60,5f47c0b9b035471e11593a5c,5f47c4ddf50c0e1df0d787a1,2,,,,,,rug,,,,,,,,,,,1,1,0,0,0,6,1,,,,,,,,,,,,,,,,,,,,,,,,,,,,,,,,,,,,,,,,,,,,,,,,,,,,,,,,,,,,,,,,,,,,,,
,,?,0.00154,0,,,,,,stimuli/images/PICTURE_108.png,FLIGHT,5ee278242f89ff153301cb37,13/06/1989,2020-08-27_15h41.09.301,proactive3.2,2020.1.2,Win32,60,5f47c0b9b035471e11593a5c,5f47c4ddf50c0e1df0d787a1,2,,,,,,calendar,,,,,,,,,,,6,1,0,1,1,59,1,,,,,,,,,,,,,,,,,,,,,,,,,,,,,,,,,,,,,,,,,,,,,,,,,,,,,,,,,,,,,,,,,,,,,,
,,HONEY,4.32991,1,,,,,,stimuli/images/PICTURE_380.png,HONEY,5ee278242f89ff153301cb37,13/06/1989,2020-08-27_15h41.09.301,proactive3.2,2020.1.2,Win32,60,5f47c0b9b035471e11593a5c,5f47c4ddf50c0e1df0d787a1,2,,,,,,gorilla,,,,,,,,,,,2,1,0,2,2,19,1,,,,,,,,,,,,,,,,,,,,,,,,,,,,,,,,,,,,,,,,,,,,,,,,,,,,,,,,,,,,,,,,,,,,,,
,,?,0.001415,0,,,,,,stimuli/images/PICTURE_203.png,NIGHT,5ee278242f89ff153301cb37,13/06/1989,2020-08-27_15h41.09.301,proactive3.2,2020.1.2,Win32,60,5f47c0b9b035471e11593a5c,5f47c4ddf50c0e1df0d787a1,2,,,,,,cap,,,,,,,,,,,1,1,0,3,3,2,1,,,,,,,,,,,,,,,,,,,,,,,,,,,,,,,,,,,,,,,,,,,,,,,,,,,,,,,,,,,,,,,,,,,,,,
,,?,0.001405,0,,,,,,stimuli/images/PICTURE_380.png,CANDY,5ee278242f89ff153301cb37,13/06/1989,2020-08-27_15h41.09.301,proactive3.2,2020.1.2,Win32,60,5f47c0b9b035471e11593a5c,5f47c4ddf50c0e1df0d787a1,2,,,,,,gorilla,,,,,,,,,,,1,1,0,4,4,0,1,,,,,,,,,,,,,,,,,,,,,,,,,,,,,,,,,,,,,,,,,,,,,,,,,,,,,,,,,,,,,,,,,,,,,,
,,?,0.001385,0,,,,,,stimuli/images/PICTURE_383.png,SERIES,5ee278242f89ff153301cb37,13/06/1989,2020-08-27_15h41.09.301,proactive3.2,2020.1.2,Win32,60,5f47c0b9b035471e11593a5c,5f47c4ddf50c0e1df0d787a1,2,,,,,,coin,,,,,,,,,,,5,1,0,5,5,46,1,,,,,,,,,,,,,,,,,,,,,,,,,,,,,,,,,,,,,,,,,,,,,,,,,,,,,,,,,,,,,,,,,,,,,,
,,?,0.00144,0,,,,,,stimuli/images/PICTURE_504.png,COPS,5ee278242f89ff153301cb37,13/06/1989,2020-08-27_15h41.09.301,proactive3.2,2020.1.2,Win32,60,5f47c0b9b035471e11593a5c,5f47c4ddf50c0e1df0d787a1,2,,,,,,wheel,,,,,,,,,,,6,1,0,6,6,52,1,,,,,,,,,,,,,,,,,,,,,,,,,,,,,,,,,,,,,,,,,,,,,,,,,,,,,,,,,,,,,,,,,,,,,,
,,?,0.0021,0,,,,,,stimuli/images/PICTURE_467.png,POLICY,5ee278242f89ff153301cb37,13/06/1989,2020-08-27_15h41.09.301,proactive3.2,2020.1.2,Win32,60,5f47c0b9b035471e11593a5c,5f47c4ddf50c0e1df0d787a1,2,,,,,,peg,,,,,,,,,,,6,1,0,7,7,53,1,,,,,,,,,,,,,,,,,,,,,,,,,,,,,,,,,,,,,,,,,,,,,,,,,,,,,,,,,,,,,,,,,,,,,,
,,?,0.00121,0,,,,,,stimuli/images/PICTURE_403.png,TOILET,5ee278242f89ff153301cb37,13/06/1989,2020-08-27_15h41.09.301,proactive3.2,2020.1.2,Win32,60,5f47c0b9b035471e11593a5c,5f47c4ddf50c0e1df0d787a1,2,,,,,,cathedral,,,,,,,,,,,3,1,0,8,8,25,1,,,,,,,,,,,,,,,,,,,,,,,,,,,,,,,,,,,,,,,,,,,,,,,,,,,,,,,,,,,,,,,,,,,,,,
,,?,0.001435,0,,,,,,stimuli/images/PICTURE_405.png,PLENTY,5ee278242f89ff153301cb37,13/06/1989,2020-08-27_15h41.09.301,proactive3.2,2020.1.2,Win32,60,5f47c0b9b035471e11593a5c,5f47c4ddf50c0e1df0d787a1,2,,,,,,anchor,,,,,,,,,,,3,1,0,9,9,23,1,,,,,,,,,,,,,,,,,,,,,,,,,,,,,,,,,,,,,,,,,,,,,,,,,,,,,,,,,,,,,,,,,,,,,,
,,?,0.001295,0,,,,,,stimuli/images/PICTURE_285.png,LIFE,5ee278242f89ff153301cb37,13/06/1989,2020-08-27_15h41.09.301,proactive3.2,2020.1.2,Win32,60,5f47c0b9b035471e11593a5c,5f47c4ddf50c0e1df0d787a1,2,,,,,,carrot,,,,,,,,,,,4,1,0,10,10,33,1,,,,,,,,,,,,,,,,,,,,,,,,,,,,,,,,,,,,,,,,,,,,,,,,,,,,,,,,,,,,,,,,,,,,,,
,,?,0.001415,0,,,,,,stimuli/images/PICTURE_403.png,RIVER,5ee278242f89ff153301cb37,13/06/1989,2020-08-27_15h41.09.301,proactive3.2,2020.1.2,Win32,60,5f47c0b9b035471e11593a5c,5f47c4ddf50c0e1df0d787a1,2,,,,,,cathedral,,,,,,,,,,,5,1,0,11,11,40,1,,,,,,,,,,,,,,,,,,,,,,,,,,,,,,,,,,,,,,,,,,,,,,,,,,,,,,,,,,,,,,,,,,,,,,
,,?,0.00151,0,,,,,,stimuli/images/PICTURE_203.png,GODS,5ee278242f89ff153301cb37,13/06/1989,2020-08-27_15h41.09.301,proactive3.2,2020.1.2,Win32,60,5f47c0b9b035471e11593a5c,5f47c4ddf50c0e1df0d787a1,2,,,,,,cap,,,,,,,,,,,4,1,0,12,12,30,1,,,,,,,,,,,,,,,,,,,,,,,,,,,,,,,,,,,,,,,,,,,,,,,,,,,,,,,,,,,,,,,,,,,,,,
,,?,0.00138,0,,,,,,stimuli/images/PICTURE_564.png,BATH,5ee278242f89ff153301cb37,13/06/1989,2020-08-27_15h41.09.301,proactive3.2,2020.1.2,Win32,60,5f47c0b9b035471e11593a5c,5f47c4ddf50c0e1df0d787a1,2,,,,,,spoon,,,,,,,,,,,3,1,0,13,13,26,1,,,,,,,,,,,,,,,,,,,,,,,,,,,,,,,,,,,,,,,,,,,,,,,,,,,,,,,,,,,,,,,,,,,,,,
