consent_key.keys,consent_key.rt,recalled,recalled_rt,recall_acc,example_recall.thisRepN,example_recall.thisTrialN,example_recall.thisN,example_recall.thisIndex,example_recall.ran,file,word,participant,please enter your date of birth (dd/mm/yyyy),date,expName,psychopyVersion,OS,frameRate,STUDY_ID,SESSION_ID,list,prac_learn_study_loop.thisRepN,prac_learn_study_loop.thisTrialN,prac_learn_study_loop.thisN,prac_learn_study_loop.thisIndex,prac_learn_study_loop.ran,image,prac_learn_test_loop.thisRepN,prac_learn_test_loop.thisTrialN,prac_learn_test_loop.thisN,prac_learn_test_loop.thisIndex,prac_learn_test_loop.ran,learn_study_loop.thisRepN,learn_study_loop.thisTrialN,learn_study_loop.thisN,learn_study_loop.thisIndex,learn_study_loop.ran,list_no,block_no,learn_test_loop.thisRepN,learn_test_loop.thisTrialN,learn_test_loop.thisN,learn_test_loop.thisIndex,learn_test_loop.ran,learn_blocks.thisRepN,learn_blocks.thisTrialN,learn_blocks.thisN,learn_blocks.thisIndex,learn_blocks.ran,block_csv,key_resp_13.keys,key_resp_13.rt,learn_blocks_loop.thisRepN,learn_blocks_loop.thisTrialN,learn_blocks_loop.thisN,learn_blocks_loop.thisIndex,learn_blocks_loop.ran,final_learn_test.thisRepN,final_learn_test.thisTrialN,final_learn_test.thisN,final_learn_test.thisIndex,final_learn_test.ran,prac_wm_test_loop.thisRepN,prac_wm_test_loop.thisTrialN,prac_wm_test_loop.thisN,prac_wm_test_loop.thisIndex,prac_wm_test_loop.ran,wm_recalled1,wm_recall_rt1,wm_probed1,wm_recall_acc1,wm_recalled2,wm_recall_rt2,wm_probed2,wm_recall_acc2,wm_recalled3,wm_recall_rt3,wm_probed3,wm_recall_acc3,wm_recalled4,wm_recall_rt4,wm_probed4,wm_recall_acc4,prac_wm_trial_loop.thisRepN,prac_wm_trial_loop.thisTrialN,prac_wm_trial_loop.thisN,prac_wm_trial_loop.thisIndex,prac_wm_trial_loop.ran,word1,image1,file1,item_type1,word2,image2,file2,item_type2,word4,image4,file4,item_type4,word3,image3,file3,item_type3,wm_test_loop.thisRepN,wm_test_loop.thisTrialN,wm_test_loop.thisN,wm_test_loop.thisIndex,wm_test_loop.ran,wm_trial_loop.thisRepN,wm_trial_loop.thisTrialN,wm_trial_loop.thisN,wm_trial_loop.thisIndex,wm_trial_loop.ran
y,33.473,TOUGH,12.732,1,0,0,0,0,1,stimuli/images/PICTURE_747.png,TOUGH,5ee98d107b7e63000b9e42b9,06/07/1953,2020-09-12_15h30.36.330,proactive3.2,2020.1.2,MacIntel,60,5f5adea66120081ea0f57a61,5f5c5c5c10ec4844c05129c3,5,,,,,,,,,,,,,,,,,,,,,,,,,,,,,,,,,,,,,,,,,,,,,,,,,,,,,,,,,,,,,,,,,,,,,,,,,,,,,,,,,,,,,,,,,,,,,
,,,,,,,,,,stimuli/images/PICTURE_378.png,LOSS,5ee98d107b7e63000b9e42b9,06/07/1953,2020-09-12_15h30.36.330,proactive3.2,2020.1.2,MacIntel,60,5f5adea66120081ea0f57a61,5f5c5c5c10ec4844c05129c3,5,0,0,0,2,1,lobster,,,,,,,,,,,,,,,,,,,,,,,,,,,,,,,,,,,,,,,,,,,,,,,,,,,,,,,,,,,,,,,,,,,,,,,,,,,,,,,,,,,,,,,
,,,,,,,,,,stimuli/images/PICTURE_269.png,GENIUS,5ee98d107b7e63000b9e42b9,06/07/1953,2020-09-12_15h30.36.330,proactive3.2,2020.1.2,MacIntel,60,5f5adea66120081ea0f57a61,5f5c5c5c10ec4844c05129c3,5,0,1,1,0,1,chameleon,,,,,,,,,,,,,,,,,,,,,,,,,,,,,,,,,,,,,,,,,,,,,,,,,,,,,,,,,,,,,,,,,,,,,,,,,,,,,,,,,,,,,,,
,,,,,,,,,,stimuli/images/PICTURE_658.png,DEVIL,5ee98d107b7e63000b9e42b9,06/07/1953,2020-09-12_15h30.36.330,proactive3.2,2020.1.2,MacIntel,60,5f5adea66120081ea0f57a61,5f5c5c5c10ec4844c05129c3,5,0,2,2,3,1,crow,,,,,,,,,,,,,,,,,,,,,,,,,,,,,,,,,,,,,,,,,,,,,,,,,,,,,,,,,,,,,,,,,,,,,,,,,,,,,,,,,,,,,,,
,,,,,,,,,,stimuli/images/PICTURE_697.png,KILLER,5ee98d107b7e63000b9e42b9,06/07/1953,2020-09-12_15h30.36.330,proactive3.2,2020.1.2,MacIntel,60,5f5adea66120081ea0f57a61,5f5c5c5c10ec4844c05129c3,5,0,3,3,4,1,peach,,,,,,,,,,,,,,,,,,,,,,,,,,,,,,,,,,,,,,,,,,,,,,,,,,,,,,,,,,,,,,,,,,,,,,,,,,,,,,,,,,,,,,,
,,DEVIL,4.808,0,,,,,,stimuli/images/PICTURE_269.png,GENIUS,5ee98d107b7e63000b9e42b9,06/07/1953,2020-09-12_15h30.36.330,proactive3.2,2020.1.2,MacIntel,60,5f5adea66120081ea0f57a61,5f5c5c5c10ec4844c05129c3,5,,,,,,chameleon,0,0,0,0,1,,,,,,,,,,,,,,,,,,,,,,,,,,,,,,,,,,,,,,,,,,,,,,,,,,,,,,,,,,,,,,,,,,,,,,,,,,,,,,,,,,
,,LOSS,3.1,1,,,,,,stimuli/images/PICTURE_378.png,LOSS,5ee98d107b7e63000b9e42b9,06/07/1953,2020-09-12_15h30.36.330,proactive3.2,2020.1.2,MacIntel,60,5f5adea66120081ea0f57a61,5f5c5c5c10ec4844c05129c3,5,,,,,,lobster,0,1,1,2,1,,,,,,,,,,,,,,,,,,,,,,,,,,,,,,,,,,,,,,,,,,,,,,,,,,,,,,,,,,,,,,,,,,,,,,,,,,,,,,,,,,
,,CELL,2.067,1,,,,,,stimuli/images/PICTURE_727.png,CELL,5ee98d107b7e63000b9e42b9,06/07/1953,2020-09-12_15h30.36.330,proactive3.2,2020.1.2,MacIntel,60,5f5adea66120081ea0f57a61,5f5c5c5c10ec4844c05129c3,5,,,,,,hose,0,2,2,1,1,,,,,,,,,,,,,,,,,,,,,,,,,,,,,,,,,,,,,,,,,,,,,,,,,,,,,,,,,,,,,,,,,,,,,,,,,,,,,,,,,,
,,DEVIL,11.034,0,,,,,,stimuli/images/PICTURE_697.png,KILLER,5ee98d107b7e63000b9e42b9,06/07/1953,2020-09-12_15h30.36.330,proactive3.2,2020.1.2,MacIntel,60,5f5adea66120081ea0f57a61,5f5c5c5c10ec4844c05129c3,5,,,,,,peach,0,3,3,4,1,,,,,,,,,,,,,,,,,,,,,,,,,,,,,,,,,,,,,,,,,,,,,,,,,,,,,,,,,,,,,,,,,,,,,,,,,,,,,,,,,,
,,DEVIL,2.833,1,,,,,,stimuli/images/PICTURE_658.png,DEVIL,5ee98d107b7e63000b9e42b9,06/07/1953,2020-09-12_15h30.36.330,proactive3.2,2020.1.2,MacIntel,60,5f5adea66120081ea0f57a61,5f5c5c5c10ec4844c05129c3,5,,,,,,crow,0,4,4,3,1,,,,,,,,,,,,,,,,,,,,,,,,,,,,,,,,,,,,,,,,,,,,,,,,,,,,,,,,,,,,,,,,,,,,,,,,,,,,,,,,,,
,,,,,,,,,,stimuli/images/PICTURE_147.png,LEADER,5ee98d107b7e63000b9e42b9,06/07/1953,2020-09-12_15h30.36.330,proactive3.2,2020.1.2,MacIntel,60,5f5adea66120081ea0f57a61,5f5c5c5c10ec4844c05129c3,5,,,,,,hanger,,,,,,0,0,0,33,1,4,2,,,,,,,,,,,,,,,,,,,,,,,,,,,,,,,,,,,,,,,,,,,,,,,,,,,,,,,,,,,,,,,,,,,,,,,,,,,
,,,,,,,,,,stimuli/images/PICTURE_708.png,VALLEY,5ee98d107b7e63000b9e42b9,06/07/1953,2020-09-12_15h30.36.330,proactive3.2,2020.1.2,MacIntel,60,5f5adea66120081ea0f57a61,5f5c5c5c10ec4844c05129c3,5,,,,,,monkey,,,,,,0,1,1,45,1,5,2,,,,,,,,,,,,,,,,,,,,,,,,,,,,,,,,,,,,,,,,,,,,,,,,,,,,,,,,,,,,,,,,,,,,,,,,,,,
,,,,,,,,,,stimuli/images/PICTURE_356.png,CANDY,5ee98d107b7e63000b9e42b9,06/07/1953,2020-09-12_15h30.36.330,proactive3.2,2020.1.2,MacIntel,60,5f5adea66120081ea0f57a61,5f5c5c5c10ec4844c05129c3,5,,,,,,pawn,,,,,,0,2,2,46,1,5,2,,,,,,,,,,,,,,,,,,,,,,,,,,,,,,,,,,,,,,,,,,,,,,,,,,,,,,,,,,,,,,,,,,,,,,,,,,,
,,,,,,,,,,stimuli/images/PICTURE_509.png,BATH,5ee98d107b7e63000b9e42b9,06/07/1953,2020-09-12_15h30.36.330,proactive3.2,2020.1.2,MacIntel,60,5f5adea66120081ea0f57a61,5f5c5c5c10ec4844c05129c3,5,,,,,,telephone,,,,,,0,3,3,15,1,2,2,,,,,,,,,,,,,,,,,,,,,,,,,,,,,,,,,,,,,,,,,,,,,,,,,,,,,,,,,,,,,,,,,,,,,,,,,,,
,,,,,,,,,,stimuli/images/PICTURE_314.png,SPEECH,5ee98d107b7e63000b9e42b9,06/07/1953,2020-09-12_15h30.36.330,proactive3.2,2020.1.2,MacIntel,60,5f5adea66120081ea0f57a61,5f5c5c5c10ec4844c05129c3,5,,,,,,perfume,,,,,,0,4,4,35,1,4,2,,,,,,,,,,,,,,,,,,,,,,,,,,,,,,,,,,,,,,,,,,,,,,,,,,,,,,,,,,,,,,,,,,,,,,,,,,,
,,,,,,,,,,stimuli/images/PICTURE_509.png,MILLER,5ee98d107b7e63000b9e42b9,06/07/1953,2020-09-12_15h30.36.330,proactive3.2,2020.1.2,MacIntel,60,5f5adea66120081ea0f57a61,5f5c5c5c10ec4844c05129c3,5,,,,,,telephone,,,,,,0,5,5,49,1,5,2,,,,,,,,,,,,,,,,,,,,,,,,,,,,,,,,,,,,,,,,,,,,,,,,,,,,,,,,,,,,,,,,,,,,,,,,,,,
,,,,,,,,,,stimuli/images/PICTURE_285.png,WRITER,5ee98d107b7e63000b9e42b9,06/07/1953,2020-09-12_15h30.36.330,proactive3.2,2020.1.2,MacIntel,60,5f5adea66120081ea0f57a61,5f5c5c5c10ec4844c05129c3,5,,,,,,carrot,,,,,,0,6,6,6,1,1,2,,,,,,,,,,,,,,,,,,,,,,,,,,,,,,,,,,,,,,,,,,,,,,,,,,,,,,,,,,,,,,,,,,,,,,,,,,,
,,,,,,,,,,stimuli/images/PICTURE_215.png,LEADER,5ee98d107b7e63000b9e42b9,06/07/1953,2020-09-12_15h30.36.330,proactive3.2,2020.1.2,MacIntel,60,5f5adea66120081ea0f57a61,5f5c5c5c10ec4844c05129c3,5,,,,,,boot,,,,,,0,7,7,43,1,5,2,,,,,,,,,,,,,,,,,,,,,,,,,,,,,,,,,,,,,,,,,,,,,,,,,,,,,,,,,,,,,,,,,,,,,,,,,,,
,,,,,,,,,,stimuli/images/PICTURE_405.png,HOUSE,5ee98d107b7e63000b9e42b9,06/07/1953,2020-09-12_15h30.36.330,proactive3.2,2020.1.2,MacIntel,60,5f5adea66120081ea0f57a61,5f5c5c5c10ec4844c05129c3,5,,,,,,anchor,,,,,,0,8,8,2,1,1,2,,,,,,,,,,,,,,,,,,,,,,,,,,,,,,,,,,,,,,,,,,,,,,,,,,,,,,,,,,,,,,,,,,,,,,,,,,,
,,,,,,,,,,stimuli/images/PICTURE_57.png,CASINO,5ee98d107b7e63000b9e42b9,06/07/1953,2020-09-12_15h30.36.330,proactive3.2,2020.1.2,MacIntel,60,5f5adea66120081ea0f57a61,5f5c5c5c10ec4844c05129c3,5,,,,,,stamp,,,,,,0,9,9,12,1,2,2,,,,,,,,,,,,,,,,,,,,,,,,,,,,,,,,,,,,,,,,,,,,,,,,,,,,,,,,,,,,,,,,,,,,,,,,,,,
,,,,,,,,,,stimuli/images/PICTURE_141.png,CLIENT,5ee98d107b7e63000b9e42b9,06/07/1953,2020-09-12_15h30.36.330,proactive3.2,2020.1.2,MacIntel,60,5f5adea66120081ea0f57a61,5f5c5c5c10ec4844c05129c3,5,,,,,,sunflower,,,,,,0,10,10,30,1,4,2,,,,,,,,,,,,,,,,,,,,,,,,,,,,,,,,,,,,,,,,,,,,,,,,,,,,,,,,,,,,,,,,,,,,,,,,,,,
,,,,,,,,,,stimuli/images/PICTURE_677.png,FAMILY,5ee98d107b7e63000b9e42b9,06/07/1953,2020-09-12_15h30.36.330,proactive3.2,2020.1.2,MacIntel,60,5f5adea66120081ea0f57a61,5f5c5c5c10ec4844c05129c3,5,,,,,,map,,,,,,0,11,11,53,1,6,2,,,,,,,,,,,,,,,,,,,,,,,,,,,,,,,,,,,,,,,,,,,,,,,,,,,,,,,,,,,,,,,,,,,,,,,,,,,
,,,,,,,,,,stimuli/images/PICTURE_123.png,SALE,5ee98d107b7e63000b9e42b9,06/07/1953,2020-09-12_15h30.36.330,proactive3.2,2020.1.2,MacIntel,60,5f5adea66120081ea0f57a61,5f5c5c5c10ec4844c05129c3,5,,,,,,dart,,,,,,0,12,12,8,1,1,2,,,,,,,,,,,,,,,,,,,,,,,,,,,,,,,,,,,,,,,,,,,,,,,,,,,,,,,,,,,,,,,,,,,,,,,,,,,
,,,,,,,,,,stimuli/images/PICTURE_2.png,AREA,5ee98d107b7e63000b9e42b9,06/07/1953,2020-09-12_15h30.36.330,proactive3.2,2020.1.2,MacIntel,60,5f5adea66120081ea0f57a61,5f5c5c5c10ec4844c05129c3,5,,,,,,tyre,,,,,,0,13,13,32,1,4,2,,,,,,,,,,,,,,,,,,,,,,,,,,,,,,,,,,,,,,,,,,,,,,,,,,,,,,,,,,,,,,,,,,,,,,,,,,,
,,,,,,,,,,stimuli/images/PICTURE_453.png,FAMILY,5ee98d107b7e63000b9e42b9,06/07/1953,2020-09-12_15h30.36.330,proactive3.2,2020.1.2,MacIntel,60,5f5adea66120081ea0f57a61,5f5c5c5c10ec4844c05129c3,5,,,,,,scissors,,,,,,0,14,14,48,1,5,2,,,,,,,,,,,,,,,,,,,,,,,,,,,,,,,,,,,,,,,,,,,,,,,,,,,,,,,,,,,,,,,,,,,,,,,,,,,
,,,,,,,,,,stimuli/images/PICTURE_208.png,SPIRIT,5ee98d107b7e63000b9e42b9,06/07/1953,2020-09-12_15h30.36.330,proactive3.2,2020.1.2,MacIntel,60,5f5adea66120081ea0f57a61,5f5c5c5c10ec4844c05129c3,5,,,,,,microphone,,,,,,0,15,15,28,1,3,2,,,,,,,,,,,,,,,,,,,,,,,,,,,,,,,,,,,,,,,,,,,,,,,,,,,,,,,,,,,,,,,,,,,,,,,,,,,
,,,,,,,,,,stimuli/images/PICTURE_18.png,RIVER,5ee98d107b7e63000b9e42b9,06/07/1953,2020-09-12_15h30.36.330,proactive3.2,2020.1.2,MacIntel,60,5f5adea66120081ea0f57a61,5f5c5c5c10ec4844c05129c3,5,,,,,,planet,,,,,,0,16,16,22,1,3,2,,,,,,,,,,,,,,,,,,,,,,,,,,,,,,,,,,,,,,,,,,,,,,,,,,,,,,,,,,,,,,,,,,,,,,,,,,,
,,,,,,,,,,stimuli/images/PICTURE_654.png,COPS,5ee98d107b7e63000b9e42b9,06/07/1953,2020-09-12_15h30.36.330,proactive3.2,2020.1.2,MacIntel,60,5f5adea66120081ea0f57a61,5f5c5c5c10ec4844c05129c3,5,,,,,,pencil,,,,,,0,17,17,10,1,2,2,,,,,,,,,,,,,,,,,,,,,,,,,,,,,,,,,,,,,,,,,,,,,,,,,,,,,,,,,,,,,,,,,,,,,,,,,,,
,,,,,,,,,,stimuli/images/PICTURE_297.png,BODY,5ee98d107b7e63000b9e42b9,06/07/1953,2020-09-12_15h30.36.330,proactive3.2,2020.1.2,MacIntel,60,5f5adea66120081ea0f57a61,5f5c5c5c10ec4844c05129c3,5,,,,,,aeroplane,,,,,,0,18,18,51,1,6,2,,,,,,,,,,,,,,,,,,,,,,,,,,,,,,,,,,,,,,,,,,,,,,,,,,,,,,,,,,,,,,,,,,,,,,,,,,,
,,,,,,,,,,stimuli/images/PICTURE_348.png,TOILET,5ee98d107b7e63000b9e42b9,06/07/1953,2020-09-12_15h30.36.330,proactive3.2,2020.1.2,MacIntel,60,5f5adea66120081ea0f57a61,5f5c5c5c10ec4844c05129c3,5,,,,,,pepper,,,,,,0,19,19,4,1,1,2,,,,,,,,,,,,,,,,,,,,,,,,,,,,,,,,,,,,,,,,,,,,,,,,,,,,,,,,,,,,,,,,,,,,,,,,,,,
,,,,,,,,,,stimuli/images/PICTURE_255.png,PENNY,5ee98d107b7e63000b9e42b9,06/07/1953,2020-09-12_15h30.36.330,proactive3.2,2020.1.2,MacIntel,60,5f5adea66120081ea0f57a61,5f5c5c5c10ec4844c05129c3,5,,,,,,shovel,,,,,,0,20,20,19,1,2,2,,,,,,,,,,,,,,,,,,,,,,,,,,,,,,,,,,,,,,,,,,,,,,,,,,,,,,,,,,,,,,,,,,,,,,,,,,,
,,,,,,,,,,stimuli/images/PICTURE_57.png,CANDY,5ee98d107b7e63000b9e42b9,06/07/1953,2020-09-12_15h30.36.330,proactive3.2,2020.1.2,MacIntel,60,5f5adea66120081ea0f57a61,5f5c5c5c10ec4844c05129c3,5,,,,,,stamp,,,,,,0,21,21,52,1,6,2,,,,,,,,,,,,,,,,,,,,,,,,,,,,,,,,,,,,,,,,,,,,,,,,,,,,,,,,,,,,,,,,,,,,,,,,,,,
,,,,,,,,,,stimuli/images/PICTURE_452.png,COPS,5ee98d107b7e63000b9e42b9,06/07/1953,2020-09-12_15h30.36.330,proactive3.2,2020.1.2,MacIntel,60,5f5adea66120081ea0f57a61,5f5c5c5c10ec4844c05129c3,5,,,,,,watch,,,,,,0,22,22,0,1,1,2,,,,,,,,,,,,,,,,,,,,,,,,,,,,,,,,,,,,,,,,,,,,,,,,,,,,,,,,,,,,,,,,,,,,,,,,,,,
,,,,,,,,,,stimuli/images/PICTURE_285.png,PRINCE,5ee98d107b7e63000b9e42b9,06/07/1953,2020-09-12_15h30.36.330,proactive3.2,2020.1.2,MacIntel,60,5f5adea66120081ea0f57a61,5f5c5c5c10ec4844c05129c3,5,,,,,,carrot,,,,,,0,23,23,20,1,3,2,,,,,,,,,,,,,,,,,,,,,,,,,,,,,,,,,,,,,,,,,,,,,,,,,,,,,,,,,,,,,,,,,,,,,,,,,,,
,,,,,,,,,,stimuli/images/PICTURE_677.png,PHOTO,5ee98d107b7e63000b9e42b9,06/07/1953,2020-09-12_15h30.36.330,proactive3.2,2020.1.2,MacIntel,60,5f5adea66120081ea0f57a61,5f5c5c5c10ec4844c05129c3,5,,,,,,map,,,,,,0,24,24,14,1,2,2,,,,,,,,,,,,,,,,,,,,,,,,,,,,,,,,,,,,,,,,,,,,,,,,,,,,,,,,,,,,,,,,,,,,,,,,,,,
,,,,,,,,,,stimuli/images/PICTURE_160.png,HOTEL,5ee98d107b7e63000b9e42b9,06/07/1953,2020-09-12_15h30.36.330,proactive3.2,2020.1.2,MacIntel,60,5f5adea66120081ea0f57a61,5f5c5c5c10ec4844c05129c3,5,,,,,,wheelbarrow,,,,,,0,25,25,16,1,2,2,,,,,,,,,,,,,,,,,,,,,,,,,,,,,,,,,,,,,,,,,,,,,,,,,,,,,,,,,,,,,,,,,,,,,,,,,,,
,,,,,,,,,,stimuli/images/PICTURE_470.png,BEAUTY,5ee98d107b7e63000b9e42b9,06/07/1953,2020-09-12_15h30.36.330,proactive3.2,2020.1.2,MacIntel,60,5f5adea66120081ea0f57a61,5f5c5c5c10ec4844c05129c3,5,,,,,,motorbike,,,,,,0,26,26,26,1,3,2,,,,,,,,,,,,,,,,,,,,,,,,,,,,,,,,,,,,,,,,,,,,,,,,,,,,,,,,,,,,,,,,,,,,,,,,,,,
,,,,,,,,,,stimuli/images/PICTURE_509.png,SHOTS,5ee98d107b7e63000b9e42b9,06/07/1953,2020-09-12_15h30.36.330,proactive3.2,2020.1.2,MacIntel,60,5f5adea66120081ea0f57a61,5f5c5c5c10ec4844c05129c3,5,,,,,,telephone,,,,,,0,27,27,7,1,1,2,,,,,,,,,,,,,,,,,,,,,,,,,,,,,,,,,,,,,,,,,,,,,,,,,,,,,,,,,,,,,,,,,,,,,,,,,,,
,,,,,,,,,,stimuli/images/PICTURE_177.png,HOUSE,5ee98d107b7e63000b9e42b9,06/07/1953,2020-09-12_15h30.36.330,proactive3.2,2020.1.2,MacIntel,60,5f5adea66120081ea0f57a61,5f5c5c5c10ec4844c05129c3,5,,,,,,mushroom,,,,,,0,28,28,25,1,3,2,,,,,,,,,,,,,,,,,,,,,,,,,,,,,,,,,,,,,,,,,,,,,,,,,,,,,,,,,,,,,,,,,,,,,,,,,,,
,,,,,,,,,,stimuli/images/PICTURE_750.png,POLICY,5ee98d107b7e63000b9e42b9,06/07/1953,2020-09-12_15h30.36.330,proactive3.2,2020.1.2,MacIntel,60,5f5adea66120081ea0f57a61,5f5c5c5c10ec4844c05129c3,5,,,,,,kettle,,,,,,0,29,29,44,1,5,2,,,,,,,,,,,,,,,,,,,,,,,,,,,,,,,,,,,,,,,,,,,,,,,,,,,,,,,,,,,,,,,,,,,,,,,,,,,
,,,,,,,,,,stimuli/images/PICTURE_33.png,COPS,5ee98d107b7e63000b9e42b9,06/07/1953,2020-09-12_15h30.36.330,proactive3.2,2020.1.2,MacIntel,60,5f5adea66120081ea0f57a61,5f5c5c5c10ec4844c05129c3,5,,,,,,frame,,,,,,0,30,30,29,1,3,2,,,,,,,,,,,,,,,,,,,,,,,,,,,,,,,,,,,,,,,,,,,,,,,,,,,,,,,,,,,,,,,,,,,,,,,,,,,
,,,,,,,,,,stimuli/images/PICTURE_405.png,JUNGLE,5ee98d107b7e63000b9e42b9,06/07/1953,2020-09-12_15h30.36.330,proactive3.2,2020.1.2,MacIntel,60,5f5adea66120081ea0f57a61,5f5c5c5c10ec4844c05129c3,5,,,,,,anchor,,,,,,0,31,31,13,1,2,2,,,,,,,,,,,,,,,,,,,,,,,,,,,,,,,,,,,,,,,,,,,,,,,,,,,,,,,,,,,,,,,,,,,,,,,,,,,
,,,,,,,,,,stimuli/images/PICTURE_327.png,LEADER,5ee98d107b7e63000b9e42b9,06/07/1953,2020-09-12_15h30.36.330,proactive3.2,2020.1.2,MacIntel,60,5f5adea66120081ea0f57a61,5f5c5c5c10ec4844c05129c3,5,,,,,,helmet,,,,,,0,32,32,17,1,2,2,,,,,,,,,,,,,,,,,,,,,,,,,,,,,,,,,,,,,,,,,,,,,,,,,,,,,,,,,,,,,,,,,,,,,,,,,,,
,,,,,,,,,,stimuli/images/PICTURE_32.png,LETTER,5ee98d107b7e63000b9e42b9,06/07/1953,2020-09-12_15h30.36.330,proactive3.2,2020.1.2,MacIntel,60,5f5adea66120081ea0f57a61,5f5c5c5c10ec4844c05129c3,5,,,,,,crown,,,,,,0,33,33,56,1,6,2,,,,,,,,,,,,,,,,,,,,,,,,,,,,,,,,,,,,,,,,,,,,,,,,,,,,,,,,,,,,,,,,,,,,,,,,,,,
,,,,,,,,,,stimuli/images/PICTURE_509.png,APPLE,5ee98d107b7e63000b9e42b9,06/07/1953,2020-09-12_15h30.36.330,proactive3.2,2020.1.2,MacIntel,60,5f5adea66120081ea0f57a61,5f5c5c5c10ec4844c05129c3,5,,,,,,telephone,,,,,,0,34,34,38,1,4,2,,,,,,,,,,,,,,,,,,,,,,,,,,,,,,,,,,,,,,,,,,,,,,,,,,,,,,,,,,,,,,,,,,,,,,,,,,,
,,,,,,,,,,stimuli/images/PICTURE_2.png,YARD,5ee98d107b7e63000b9e42b9,06/07/1953,2020-09-12_15h30.36.330,proactive3.2,2020.1.2,MacIntel,60,5f5adea66120081ea0f57a61,5f5c5c5c10ec4844c05129c3,5,,,,,,tyre,,,,,,0,35,35,55,1,6,2,,,,,,,,,,,,,,,,,,,,,,,,,,,,,,,,,,,,,,,,,,,,,,,,,,,,,,,,,,,,,,,,,,,,,,,,,,,
,,,,,,,,,,stimuli/images/PICTURE_311.png,TOILET,5ee98d107b7e63000b9e42b9,06/07/1953,2020-09-12_15h30.36.330,proactive3.2,2020.1.2,MacIntel,60,5f5adea66120081ea0f57a61,5f5c5c5c10ec4844c05129c3,5,,,,,,razor,,,,,,0,36,36,54,1,6,2,,,,,,,,,,,,,,,,,,,,,,,,,,,,,,,,,,,,,,,,,,,,,,,,,,,,,,,,,,,,,,,,,,,,,,,,,,,
,,,,,,,,,,stimuli/images/PICTURE_667.png,GLASS,5ee98d107b7e63000b9e42b9,06/07/1953,2020-09-12_15h30.36.330,proactive3.2,2020.1.2,MacIntel,60,5f5adea66120081ea0f57a61,5f5c5c5c10ec4844c05129c3,5,,,,,,daisy,,,,,,0,37,37,27,1,3,2,,,,,,,,,,,,,,,,,,,,,,,,,,,,,,,,,,,,,,,,,,,,,,,,,,,,,,,,,,,,,,,,,,,,,,,,,,,
,,,,,,,,,,stimuli/images/PICTURE_487.png,POLICY,5ee98d107b7e63000b9e42b9,06/07/1953,2020-09-12_15h30.36.330,proactive3.2,2020.1.2,MacIntel,60,5f5adea66120081ea0f57a61,5f5c5c5c10ec4844c05129c3,5,,,,,,basket,,,,,,0,38,38,34,1,4,2,,,,,,,,,,,,,,,,,,,,,,,,,,,,,,,,,,,,,,,,,,,,,,,,,,,,,,,,,,,,,,,,,,,,,,,,,,,
,,,,,,,,,,stimuli/images/PICTURE_491.png,SERIES,5ee98d107b7e63000b9e42b9,06/07/1953,2020-09-12_15h30.36.330,proactive3.2,2020.1.2,MacIntel,60,5f5adea66120081ea0f57a61,5f5c5c5c10ec4844c05129c3,5,,,,,,rug,,,,,,0,39,39,39,1,4,2,,,,,,,,,,,,,,,,,,,,,,,,,,,,,,,,,,,,,,,,,,,,,,,,,,,,,,,,,,,,,,,,,,,,,,,,,,,
,,,,,,,,,,stimuli/images/PICTURE_215.png,FOOD,5ee98d107b7e63000b9e42b9,06/07/1953,2020-09-12_15h30.36.330,proactive3.2,2020.1.2,MacIntel,60,5f5adea66120081ea0f57a61,5f5c5c5c10ec4844c05129c3,5,,,,,,boot,,,,,,0,40,40,5,1,1,2,,,,,,,,,,,,,,,,,,,,,,,,,,,,,,,,,,,,,,,,,,,,,,,,,,,,,,,,,,,,,,,,,,,,,,,,,,,
,,,,,,,,,,stimuli/images/PICTURE_95.png,NIGHT,5ee98d107b7e63000b9e42b9,06/07/1953,2020-09-12_15h30.36.330,proactive3.2,2020.1.2,MacIntel,60,5f5adea66120081ea0f57a61,5f5c5c5c10ec4844c05129c3,5,,,,,,suitcase,,,,,,0,41,41,37,1,4,2,,,,,,,,,,,,,,,,,,,,,,,,,,,,,,,,,,,,,,,,,,,,,,,,,,,,,,,,,,,,,,,,,,,,,,,,,,,
,,,,,,,,,,stimuli/images/PICTURE_215.png,BOYS,5ee98d107b7e63000b9e42b9,06/07/1953,2020-09-12_15h30.36.330,proactive3.2,2020.1.2,MacIntel,60,5f5adea66120081ea0f57a61,5f5c5c5c10ec4844c05129c3,5,,,,,,boot,,,,,,0,42,42,24,1,3,2,,,,,,,,,,,,,,,,,,,,,,,,,,,,,,,,,,,,,,,,,,,,,,,,,,,,,,,,,,,,,,,,,,,,,,,,,,,
,,,,,,,,,,stimuli/images/PICTURE_564.png,PLENTY,5ee98d107b7e63000b9e42b9,06/07/1953,2020-09-12_15h30.36.330,proactive3.2,2020.1.2,MacIntel,60,5f5adea66120081ea0f57a61,5f5c5c5c10ec4844c05129c3,5,,,,,,spoon,,,,,,0,43,43,11,1,2,2,,,,,,,,,,,,,,,,,,,,,,,,,,,,,,,,,,,,,,,,,,,,,,,,,,,,,,,,,,,,,,,,,,,,,,,,,,,
,,,,,,,,,,stimuli/images/PICTURE_487.png,ROOF,5ee98d107b7e63000b9e42b9,06/07/1953,2020-09-12_15h30.36.330,proactive3.2,2020.1.2,MacIntel,60,5f5adea66120081ea0f57a61,5f5c5c5c10ec4844c05129c3,5,,,,,,basket,,,,,,0,44,44,50,1,6,2,,,,,,,,,,,,,,,,,,,,,,,,,,,,,,,,,,,,,,,,,,,,,,,,,,,,,,,,,,,,,,,,,,,,,,,,,,,
,,,,,,,,,,stimuli/images/PICTURE_311.png,FLESH,5ee98d107b7e63000b9e42b9,06/07/1953,2020-09-12_15h30.36.330,proactive3.2,2020.1.2,MacIntel,60,5f5adea66120081ea0f57a61,5f5c5c5c10ec4844c05129c3,5,,,,,,razor,,,,,,0,45,45,3,1,1,2,,,,,,,,,,,,,,,,,,,,,,,,,,,,,,,,,,,,,,,,,,,,,,,,,,,,,,,,,,,,,,,,,,,,,,,,,,,
,,,,,,,,,,stimuli/images/PICTURE_2.png,JUNGLE,5ee98d107b7e63000b9e42b9,06/07/1953,2020-09-12_15h30.36.330,proactive3.2,2020.1.2,MacIntel,60,5f5adea66120081ea0f57a61,5f5c5c5c10ec4844c05129c3,5,,,,,,tyre,,,,,,0,46,46,1,1,1,2,,,,,,,,,,,,,,,,,,,,,,,,,,,,,,,,,,,,,,,,,,,,,,,,,,,,,,,,,,,,,,,,,,,,,,,,,,,
,,,,,,,,,,stimuli/images/PICTURE_57.png,NATION,5ee98d107b7e63000b9e42b9,06/07/1953,2020-09-12_15h30.36.330,proactive3.2,2020.1.2,MacIntel,60,5f5adea66120081ea0f57a61,5f5c5c5c10ec4844c05129c3,5,,,,,,stamp,,,,,,0,47,47,21,1,3,2,,,,,,,,,,,,,,,,,,,,,,,,,,,,,,,,,,,,,,,,,,,,,,,,,,,,,,,,,,,,,,,,,,,,,,,,,,,
,,,,,,,,,,stimuli/images/PICTURE_348.png,DUDE,5ee98d107b7e63000b9e42b9,06/07/1953,2020-09-12_15h30.36.330,proactive3.2,2020.1.2,MacIntel,60,5f5adea66120081ea0f57a61,5f5c5c5c10ec4844c05129c3,5,,,,,,pepper,,,,,,0,48,48,59,1,6,2,,,,,,,,,,,,,,,,,,,,,,,,,,,,,,,,,,,,,,,,,,,,,,,,,,,,,,,,,,,,,,,,,,,,,,,,,,,
,,,,,,,,,,stimuli/images/PICTURE_692.png,DUDE,5ee98d107b7e63000b9e42b9,06/07/1953,2020-09-12_15h30.36.330,proactive3.2,2020.1.2,MacIntel,60,5f5adea66120081ea0f57a61,5f5c5c5c10ec4844c05129c3,5,,,,,,cherry,,,,,,0,49,49,47,1,5,2,,,,,,,,,,,,,,,,,,,,,,,,,,,,,,,,,,,,,,,,,,,,,,,,,,,,,,,,,,,,,,,,,,,,,,,,,,,
,,,,,,,,,,stimuli/images/PICTURE_655.png,SALE,5ee98d107b7e63000b9e42b9,06/07/1953,2020-09-12_15h30.36.330,proactive3.2,2020.1.2,MacIntel,60,5f5adea66120081ea0f57a61,5f5c5c5c10ec4844c05129c3,5,,,,,,megaphone,,,,,,0,50,50,57,1,6,2,,,,,,,,,,,,,,,,,,,,,,,,,,,,,,,,,,,,,,,,,,,,,,,,,,,,,,,,,,,,,,,,,,,,,,,,,,,
,,,,,,,,,,stimuli/images/PICTURE_688.png,CLOCK,5ee98d107b7e63000b9e42b9,06/07/1953,2020-09-12_15h30.36.330,proactive3.2,2020.1.2,MacIntel,60,5f5adea66120081ea0f57a61,5f5c5c5c10ec4844c05129c3,5,,,,,,runner,,,,,,0,51,51,42,1,5,2,,,,,,,,,,,,,,,,,,,,,,,,,,,,,,,,,,,,,,,,,,,,,,,,,,,,,,,,,,,,,,,,,,,,,,,,,,,
,,,,,,,,,,stimuli/images/PICTURE_296.png,CLOCK,5ee98d107b7e63000b9e42b9,06/07/1953,2020-09-12_15h30.36.330,proactive3.2,2020.1.2,MacIntel,60,5f5adea66120081ea0f57a61,5f5c5c5c10ec4844c05129c3,5,,,,,,bolt,,,,,,0,52,52,18,1,2,2,,,,,,,,,,,,,,,,,,,,,,,,,,,,,,,,,,,,,,,,,,,,,,,,,,,,,,,,,,,,,,,,,,,,,,,,,,,
,,,,,,,,,,stimuli/images/PICTURE_93.png,GIRL,5ee98d107b7e63000b9e42b9,06/07/1953,2020-09-12_15h30.36.330,proactive3.2,2020.1.2,MacIntel,60,5f5adea66120081ea0f57a61,5f5c5c5c10ec4844c05129c3,5,,,,,,skateboard,,,,,,0,53,53,31,1,4,2,,,,,,,,,,,,,,,,,,,,,,,,,,,,,,,,,,,,,,,,,,,,,,,,,,,,,,,,,,,,,,,,,,,,,,,,,,,
,,,,,,,,,,stimuli/images/PICTURE_68.png,KIND,5ee98d107b7e63000b9e42b9,06/07/1953,2020-09-12_15h30.36.330,proactive3.2,2020.1.2,MacIntel,60,5f5adea66120081ea0f57a61,5f5c5c5c10ec4844c05129c3,5,,,,,,candle,,,,,,0,54,54,23,1,3,2,,,,,,,,,,,,,,,,,,,,,,,,,,,,,,,,,,,,,,,,,,,,,,,,,,,,,,,,,,,,,,,,,,,,,,,,,,,
,,,,,,,,,,stimuli/images/PICTURE_654.png,YEAR,5ee98d107b7e63000b9e42b9,06/07/1953,2020-09-12_15h30.36.330,proactive3.2,2020.1.2,MacIntel,60,5f5adea66120081ea0f57a61,5f5c5c5c10ec4844c05129c3,5,,,,,,pencil,,,,,,0,55,55,41,1,5,2,,,,,,,,,,,,,,,,,,,,,,,,,,,,,,,,,,,,,,,,,,,,,,,,,,,,,,,,,,,,,,,,,,,,,,,,,,,
,,,,,,,,,,stimuli/images/PICTURE_470.png,MOMENT,5ee98d107b7e63000b9e42b9,06/07/1953,2020-09-12_15h30.36.330,proactive3.2,2020.1.2,MacIntel,60,5f5adea66120081ea0f57a61,5f5c5c5c10ec4844c05129c3,5,,,,,,motorbike,,,,,,0,56,56,40,1,5,2,,,,,,,,,,,,,,,,,,,,,,,,,,,,,,,,,,,,,,,,,,,,,,,,,,,,,,,,,,,,,,,,,,,,,,,,,,,
,,,,,,,,,,stimuli/images/PICTURE_403.png,FAMILY,5ee98d107b7e63000b9e42b9,06/07/1953,2020-09-12_15h30.36.330,proactive3.2,2020.1.2,MacIntel,60,5f5adea66120081ea0f57a61,5f5c5c5c10ec4844c05129c3,5,,,,,,cathedral,,,,,,0,57,57,9,1,1,2,,,,,,,,,,,,,,,,,,,,,,,,,,,,,,,,,,,,,,,,,,,,,,,,,,,,,,,,,,,,,,,,,,,,,,,,,,,
,,,,,,,,,,stimuli/images/PICTURE_405.png,JUNGLE,5ee98d107b7e63000b9e42b9,06/07/1953,2020-09-12_15h30.36.330,proactive3.2,2020.1.2,MacIntel,60,5f5adea66120081ea0f57a61,5f5c5c5c10ec4844c05129c3,5,,,,,,anchor,,,,,,0,58,58,58,1,6,2,,,,,,,,,,,,,,,,,,,,,,,,,,,,,,,,,,,,,,,,,,,,,,,,,,,,,,,,,,,,,,,,,,,,,,,,,,,
,,?,0.001,0,,,,,,stimuli/images/PICTURE_470.png,BEAUTY,5ee98d107b7e63000b9e42b9,06/07/1953,2020-09-12_15h30.36.330,proactive3.2,2020.1.2,MacIntel,60,5f5adea66120081ea0f57a61,5f5c5c5c10ec4844c05129c3,5,,,,,,motorbike,,,,,,,,,,,3,2,0,0,0,26,1,,,,,,,,,,,,,,,,,,,,,,,,,,,,,,,,,,,,,,,,,,,,,,,,,,,,,,,,,,,,,,,,,,,,,,
,,?,0.001,0,,,,,,stimuli/images/PICTURE_215.png,FOOD,5ee98d107b7e63000b9e42b9,06/07/1953,2020-09-12_15h30.36.330,proactive3.2,2020.1.2,MacIntel,60,5f5adea66120081ea0f57a61,5f5c5c5c10ec4844c05129c3,5,,,,,,boot,,,,,,,,,,,1,2,0,1,1,5,1,,,,,,,,,,,,,,,,,,,,,,,,,,,,,,,,,,,,,,,,,,,,,,,,,,,,,,,,,,,,,,,,,,,,,,
,,?,0,0,,,,,,stimuli/images/PICTURE_314.png,SPEECH,5ee98d107b7e63000b9e42b9,06/07/1953,2020-09-12_15h30.36.330,proactive3.2,2020.1.2,MacIntel,60,5f5adea66120081ea0f57a61,5f5c5c5c10ec4844c05129c3,5,,,,,,perfume,,,,,,,,,,,4,2,0,2,2,35,1,,,,,,,,,,,,,,,,,,,,,,,,,,,,,,,,,,,,,,,,,,,,,,,,,,,,,,,,,,,,,,,,,,,,,,
,,?,0,0,,,,,,stimuli/images/PICTURE_33.png,COPS,5ee98d107b7e63000b9e42b9,06/07/1953,2020-09-12_15h30.36.330,proactive3.2,2020.1.2,MacIntel,60,5f5adea66120081ea0f57a61,5f5c5c5c10ec4844c05129c3,5,,,,,,frame,,,,,,,,,,,3,2,0,3,3,29,1,,,,,,,,,,,,,,,,,,,,,,,,,,,,,,,,,,,,,,,,,,,,,,,,,,,,,,,,,,,,,,,,,,,,,,
,,?,0,0,,,,,,stimuli/images/PICTURE_509.png,APPLE,5ee98d107b7e63000b9e42b9,06/07/1953,2020-09-12_15h30.36.330,proactive3.2,2020.1.2,MacIntel,60,5f5adea66120081ea0f57a61,5f5c5c5c10ec4844c05129c3,5,,,,,,telephone,,,,,,,,,,,4,2,0,4,4,38,1,,,,,,,,,,,,,,,,,,,,,,,,,,,,,,,,,,,,,,,,,,,,,,,,,,,,,,,,,,,,,,,,,,,,,,
,,?,0.001,0,,,,,,stimuli/images/PICTURE_2.png,YARD,5ee98d107b7e63000b9e42b9,06/07/1953,2020-09-12_15h30.36.330,proactive3.2,2020.1.2,MacIntel,60,5f5adea66120081ea0f57a61,5f5c5c5c10ec4844c05129c3,5,,,,,,tyre,,,,,,,,,,,6,2,0,5,5,55,1,,,,,,,,,,,,,,,,,,,,,,,,,,,,,,,,,,,,,,,,,,,,,,,,,,,,,,,,,,,,,,,,,,,,,,
,,FAMILY,3.464,1,,,,,,stimuli/images/PICTURE_453.png,FAMILY,5ee98d107b7e63000b9e42b9,06/07/1953,2020-09-12_15h30.36.330,proactive3.2,2020.1.2,MacIntel,60,5f5adea66120081ea0f57a61,5f5c5c5c10ec4844c05129c3,5,,,,,,scissors,,,,,,,,,,,5,2,0,6,6,48,1,,,,,,,,,,,,,,,,,,,,,,,,,,,,,,,,,,,,,,,,,,,,,,,,,,,,,,,,,,,,,,,,,,,,,,
,,?,0.002,0,,,,,,stimuli/images/PICTURE_487.png,ROOF,5ee98d107b7e63000b9e42b9,06/07/1953,2020-09-12_15h30.36.330,proactive3.2,2020.1.2,MacIntel,60,5f5adea66120081ea0f57a61,5f5c5c5c10ec4844c05129c3,5,,,,,,basket,,,,,,,,,,,6,2,0,7,7,50,1,,,,,,,,,,,,,,,,,,,,,,,,,,,,,,,,,,,,,,,,,,,,,,,,,,,,,,,,,,,,,,,,,,,,,,
,,?,0.001,0,,,,,,stimuli/images/PICTURE_403.png,FAMILY,5ee98d107b7e63000b9e42b9,06/07/1953,2020-09-12_15h30.36.330,proactive3.2,2020.1.2,MacIntel,60,5f5adea66120081ea0f57a61,5f5c5c5c10ec4844c05129c3,5,,,,,,cathedral,,,,,,,,,,,1,2,0,8,8,9,1,,,,,,,,,,,,,,,,,,,,,,,,,,,,,,,,,,,,,,,,,,,,,,,,,,,,,,,,,,,,,,,,,,,,,,
,,CLOCK,2.429,1,,,,,,stimuli/images/PICTURE_688.png,CLOCK,5ee98d107b7e63000b9e42b9,06/07/1953,2020-09-12_15h30.36.330,proactive3.2,2020.1.2,MacIntel,60,5f5adea66120081ea0f57a61,5f5c5c5c10ec4844c05129c3,5,,,,,,runner,,,,,,,,,,,5,2,0,9,9,42,1,,,,,,,,,,,,,,,,,,,,,,,,,,,,,,,,,,,,,,,,,,,,,,,,,,,,,,,,,,,,,,,,,,,,,,
,,?,0.001,0,,,,,,stimuli/images/PICTURE_177.png,HOUSE,5ee98d107b7e63000b9e42b9,06/07/1953,2020-09-12_15h30.36.330,proactive3.2,2020.1.2,MacIntel,60,5f5adea66120081ea0f57a61,5f5c5c5c10ec4844c05129c3,5,,,,,,mushroom,,,,,,,,,,,3,2,0,10,10,25,1,,,,,,,,,,,,,,,,,,,,,,,,,,,,,,,,,,,,,,,,,,,,,,,,,,,,,,,,,,,,,,,,,,,,,,
,,?,0,0,,,,,,stimuli/images/PICTURE_95.png,NIGHT,5ee98d107b7e63000b9e42b9,06/07/1953,2020-09-12_15h30.36.330,proactive3.2,2020.1.2,MacIntel,60,5f5adea66120081ea0f57a61,5f5c5c5c10ec4844c05129c3,5,,,,,,suitcase,,,,,,,,,,,4,2,0,11,11,37,1,,,,,,,,,,,,,,,,,,,,,,,,,,,,,,,,,,,,,,,,,,,,,,,,,,,,,,,,,,,,,,,,,,,,,,
,,?,0.001,0,,,,,,stimuli/images/PICTURE_285.png,PRINCE,5ee98d107b7e63000b9e42b9,06/07/1953,2020-09-12_15h30.36.330,proactive3.2,2020.1.2,MacIntel,60,5f5adea66120081ea0f57a61,5f5c5c5c10ec4844c05129c3,5,,,,,,carrot,,,,,,,,,,,3,2,0,12,12,20,1,,,,,,,,,,,,,,,,,,,,,,,,,,,,,,,,,,,,,,,,,,,,,,,,,,,,,,,,,,,,,,,,,,,,,,
,,?,0,0,,,,,,stimuli/images/PICTURE_311.png,FLESH,5ee98d107b7e63000b9e42b9,06/07/1953,2020-09-12_15h30.36.330,proactive3.2,2020.1.2,MacIntel,60,5f5adea66120081ea0f57a61,5f5c5c5c10ec4844c05129c3,5,,,,,,razor,,,,,,,,,,,1,2,0,13,13,3,1,,,,,,,,,,,,,,,,,,,,,,,,,,,,,,,,,,,,,,,,,,,,,,,,,,,,,,,,,,,,,,,,,,,,,,
,,?,0,0,,,,,,stimuli/images/PICTURE_123.png,SALE,5ee98d107b7e63000b9e42b9,06/07/1953,2020-09-12_15h30.36.330,proactive3.2,2020.1.2,MacIntel,60,5f5adea66120081ea0f57a61,5f5c5c5c10ec4844c05129c3,5,,,,,,dart,,,,,,,,,,,1,2,0,14,14,8,1,,,,,,,,,,,,,,,,,,,,,,,,,,,,,,,,,,,,,,,,,,,,,,,,,,,,,,,,,,,,,,,,,,,,,,
,,?,0.001,0,,,,,,stimuli/images/PICTURE_297.png,BODY,5ee98d107b7e63000b9e42b9,06/07/1953,2020-09-12_15h30.36.330,proactive3.2,2020.1.2,MacIntel,60,5f5adea66120081ea0f57a61,5f5c5c5c10ec4844c05129c3,5,,,,,,aeroplane,,,,,,,,,,,6,2,0,15,15,51,1,,,,,,,,,,,,,,,,,,,,,,,,,,,,,,,,,,,,,,,,,,,,,,,,,,,,,,,,,,,,,,,,,,,,,,
,,?,0,0,,,,,,stimuli/images/PICTURE_654.png,COPS,5ee98d107b7e63000b9e42b9,06/07/1953,2020-09-12_15h30.36.330,proactive3.2,2020.1.2,MacIntel,60,5f5adea66120081ea0f57a61,5f5c5c5c10ec4844c05129c3,5,,,,,,pencil,,,,,,,,,,,2,2,0,16,16,10,1,,,,,,,,,,,,,,,,,,,,,,,,,,,,,,,,,,,,,,,,,,,,,,,,,,,,,,,,,,,,,,,,,,,,,,
,,?,0,0,,,,,,stimuli/images/PICTURE_215.png,BOYS,5ee98d107b7e63000b9e42b9,06/07/1953,2020-09-12_15h30.36.330,proactive3.2,2020.1.2,MacIntel,60,5f5adea66120081ea0f57a61,5f5c5c5c10ec4844c05129c3,5,,,,,,boot,,,,,,,,,,,3,2,0,17,17,24,1,,,,,,,,,,,,,,,,,,,,,,,,,,,,,,,,,,,,,,,,,,,,,,,,,,,,,,,,,,,,,,,,,,,,,,
,,VALLEY,2.51,1,,,,,,stimuli/images/PICTURE_708.png,VALLEY,5ee98d107b7e63000b9e42b9,06/07/1953,2020-09-12_15h30.36.330,proactive3.2,2020.1.2,MacIntel,60,5f5adea66120081ea0f57a61,5f5c5c5c10ec4844c05129c3,5,,,,,,monkey,,,,,,,,,,,5,2,0,18,18,45,1,,,,,,,,,,,,,,,,,,,,,,,,,,,,,,,,,,,,,,,,,,,,,,,,,,,,,,,,,,,,,,,,,,,,,,
,,POLICY,3.061,1,,,,,,stimuli/images/PICTURE_750.png,POLICY,5ee98d107b7e63000b9e42b9,06/07/1953,2020-09-12_15h30.36.330,proactive3.2,2020.1.2,MacIntel,60,5f5adea66120081ea0f57a61,5f5c5c5c10ec4844c05129c3,5,,,,,,kettle,,,,,,,,,,,5,2,0,19,19,44,1,,,,,,,,,,,,,,,,,,,,,,,,,,,,,,,,,,,,,,,,,,,,,,,,,,,,,,,,,,,,,,,,,,,,,,
,,?,0.001,0,,,,,,stimuli/images/PICTURE_564.png,PLENTY,5ee98d107b7e63000b9e42b9,06/07/1953,2020-09-12_15h30.36.330,proactive3.2,2020.1.2,MacIntel,60,5f5adea66120081ea0f57a61,5f5c5c5c10ec4844c05129c3,5,,,,,,spoon,,,,,,,,,,,2,2,0,20,20,11,1,,,,,,,,,,,,,,,,,,,,,,,,,,,,,,,,,,,,,,,,,,,,,,,,,,,,,,,,,,,,,,,,,,,,,,
,,?,0.002,0,,,,,,stimuli/images/PICTURE_68.png,KIND,5ee98d107b7e63000b9e42b9,06/07/1953,2020-09-12_15h30.36.330,proactive3.2,2020.1.2,MacIntel,60,5f5adea66120081ea0f57a61,5f5c5c5c10ec4844c05129c3,5,,,,,,candle,,,,,,,,,,,3,2,0,21,21,23,1,,,,,,,,,,,,,,,,,,,,,,,,,,,,,,,,,,,,,,,,,,,,,,,,,,,,,,,,,,,,,,,,,,,,,,
,,?,0,0,,,,,,stimuli/images/PICTURE_405.png,JUNGLE,5ee98d107b7e63000b9e42b9,06/07/1953,2020-09-12_15h30.36.330,proactive3.2,2020.1.2,MacIntel,60,5f5adea66120081ea0f57a61,5f5c5c5c10ec4844c05129c3,5,,,,,,anchor,,,,,,,,,,,2,2,0,22,22,13,1,,,,,,,,,,,,,,,,,,,,,,,,,,,,,,,,,,,,,,,,,,,,,,,,,,,,,,,,,,,,,,,,,,,,,,
,,?,0,0,,,,,,stimuli/images/PICTURE_311.png,TOILET,5ee98d107b7e63000b9e42b9,06/07/1953,2020-09-12_15h30.36.330,proactive3.2,2020.1.2,MacIntel,60,5f5adea66120081ea0f57a61,5f5c5c5c10ec4844c05129c3,5,,,,,,razor,,,,,,,,,,,6,2,0,23,23,54,1,,,,,,,,,,,,,,,,,,,,,,,,,,,,,,,,,,,,,,,,,,,,,,,,,,,,,,,,,,,,,,,,,,,,,,
,,?,0,0,,,,,,stimuli/images/PICTURE_147.png,LEADER,5ee98d107b7e63000b9e42b9,06/07/1953,2020-09-12_15h30.36.330,proactive3.2,2020.1.2,MacIntel,60,5f5adea66120081ea0f57a61,5f5c5c5c10ec4844c05129c3,5,,,,,,hanger,,,,,,,,,,,4,2,0,24,24,33,1,,,,,,,,,,,,,,,,,,,,,,,,,,,,,,,,,,,,,,,,,,,,,,,,,,,,,,,,,,,,,,,,,,,,,,
,,LEADER,3.45,1,,,,,,stimuli/images/PICTURE_215.png,LEADER,5ee98d107b7e63000b9e42b9,06/07/1953,2020-09-12_15h30.36.330,proactive3.2,2020.1.2,MacIntel,60,5f5adea66120081ea0f57a61,5f5c5c5c10ec4844c05129c3,5,,,,,,boot,,,,,,,,,,,5,2,0,25,25,43,1,,,,,,,,,,,,,,,,,,,,,,,,,,,,,,,,,,,,,,,,,,,,,,,,,,,,,,,,,,,,,,,,,,,,,,
,,?,0.001,0,,,,,,stimuli/images/PICTURE_452.png,COPS,5ee98d107b7e63000b9e42b9,06/07/1953,2020-09-12_15h30.36.330,proactive3.2,2020.1.2,MacIntel,60,5f5adea66120081ea0f57a61,5f5c5c5c10ec4844c05129c3,5,,,,,,watch,,,,,,,,,,,1,2,0,26,26,0,1,,,,,,,,,,,,,,,,,,,,,,,,,,,,,,,,,,,,,,,,,,,,,,,,,,,,,,,,,,,,,,,,,,,,,,
,,?,0.001,0,,,,,,stimuli/images/PICTURE_348.png,TOILET,5ee98d107b7e63000b9e42b9,06/07/1953,2020-09-12_15h30.36.330,proactive3.2,2020.1.2,MacIntel,60,5f5adea66120081ea0f57a61,5f5c5c5c10ec4844c05129c3,5,,,,,,pepper,,,,,,,,,,,1,2,0,27,27,4,1,,,,,,,,,,,,,,,,,,,,,,,,,,,,,,,,,,,,,,,,,,,,,,,,,,,,,,,,,,,,,,,,,,,,,,
,,?,0.001,0,,,,,,stimuli/images/PICTURE_93.png,GIRL,5ee98d107b7e63000b9e42b9,06/07/1953,2020-09-12_15h30.36.330,proactive3.2,2020.1.2,MacIntel,60,5f5adea66120081ea0f57a61,5f5c5c5c10ec4844c05129c3,5,,,,,,skateboard,,,,,,,,,,,4,2,0,28,28,31,1,,,,,,,,,,,,,,,,,,,,,,,,,,,,,,,,,,,,,,,,,,,,,,,,,,,,,,,,,,,,,,,,,,,,,,
,,?,0,0,,,,,,stimuli/images/PICTURE_405.png,JUNGLE,5ee98d107b7e63000b9e42b9,06/07/1953,2020-09-12_15h30.36.330,proactive3.2,2020.1.2,MacIntel,60,5f5adea66120081ea0f57a61,5f5c5c5c10ec4844c05129c3,5,,,,,,anchor,,,,,,,,,,,6,2,0,29,29,58,1,,,,,,,,,,,,,,,,,,,,,,,,,,,,,,,,,,,,,,,,,,,,,,,,,,,,,,,,,,,,,,,,,,,,,,
,,YEAR,3.228,1,,,,,,stimuli/images/PICTURE_654.png,YEAR,5ee98d107b7e63000b9e42b9,06/07/1953,2020-09-12_15h30.36.330,proactive3.2,2020.1.2,MacIntel,60,5f5adea66120081ea0f57a61,5f5c5c5c10ec4844c05129c3,5,,,,,,pencil,,,,,,,,,,,5,2,0,30,30,41,1,,,,,,,,,,,,,,,,,,,,,,,,,,,,,,,,,,,,,,,,,,,,,,,,,,,,,,,,,,,,,,,,,,,,,,
,,?,0.001,0,,,,,,stimuli/images/PICTURE_2.png,JUNGLE,5ee98d107b7e63000b9e42b9,06/07/1953,2020-09-12_15h30.36.330,proactive3.2,2020.1.2,MacIntel,60,5f5adea66120081ea0f57a61,5f5c5c5c10ec4844c05129c3,5,,,,,,tyre,,,,,,,,,,,1,2,0,31,31,1,1,,,,,,,,,,,,,,,,,,,,,,,,,,,,,,,,,,,,,,,,,,,,,,,,,,,,,,,,,,,,,,,,,,,,,,
,,?,0,0,,,,,,stimuli/images/PICTURE_405.png,HOUSE,5ee98d107b7e63000b9e42b9,06/07/1953,2020-09-12_15h30.36.330,proactive3.2,2020.1.2,MacIntel,60,5f5adea66120081ea0f57a61,5f5c5c5c10ec4844c05129c3,5,,,,,,anchor,,,,,,,,,,,1,2,0,32,32,2,1,,,,,,,,,,,,,,,,,,,,,,,,,,,,,,,,,,,,,,,,,,,,,,,,,,,,,,,,,,,,,,,,,,,,,,
,,?,0,0,,,,,,stimuli/images/PICTURE_255.png,PENNY,5ee98d107b7e63000b9e42b9,06/07/1953,2020-09-12_15h30.36.330,proactive3.2,2020.1.2,MacIntel,60,5f5adea66120081ea0f57a61,5f5c5c5c10ec4844c05129c3,5,,,,,,shovel,,,,,,,,,,,2,2,0,33,33,19,1,,,,,,,,,,,,,,,,,,,,,,,,,,,,,,,,,,,,,,,,,,,,,,,,,,,,,,,,,,,,,,,,,,,,,,
,,?,0,0,,,,,,stimuli/images/PICTURE_57.png,CASINO,5ee98d107b7e63000b9e42b9,06/07/1953,2020-09-12_15h30.36.330,proactive3.2,2020.1.2,MacIntel,60,5f5adea66120081ea0f57a61,5f5c5c5c10ec4844c05129c3,5,,,,,,stamp,,,,,,,,,,,2,2,0,34,34,12,1,,,,,,,,,,,,,,,,,,,,,,,,,,,,,,,,,,,,,,,,,,,,,,,,,,,,,,,,,,,,,,,,,,,,,,
,,?,0.001,0,,,,,,stimuli/images/PICTURE_57.png,NATION,5ee98d107b7e63000b9e42b9,06/07/1953,2020-09-12_15h30.36.330,proactive3.2,2020.1.2,MacIntel,60,5f5adea66120081ea0f57a61,5f5c5c5c10ec4844c05129c3,5,,,,,,stamp,,,,,,,,,,,3,2,0,35,35,21,1,,,,,,,,,,,,,,,,,,,,,,,,,,,,,,,,,,,,,,,,,,,,,,,,,,,,,,,,,,,,,,,,,,,,,,
,,MOMENT,2.353,1,,,,,,stimuli/images/PICTURE_470.png,MOMENT,5ee98d107b7e63000b9e42b9,06/07/1953,2020-09-12_15h30.36.330,proactive3.2,2020.1.2,MacIntel,60,5f5adea66120081ea0f57a61,5f5c5c5c10ec4844c05129c3,5,,,,,,motorbike,,,,,,,,,,,5,2,0,36,36,40,1,,,,,,,,,,,,,,,,,,,,,,,,,,,,,,,,,,,,,,,,,,,,,,,,,,,,,,,,,,,,,,,,,,,,,,
,,CANDY,2.144,1,,,,,,stimuli/images/PICTURE_356.png,CANDY,5ee98d107b7e63000b9e42b9,06/07/1953,2020-09-12_15h30.36.330,proactive3.2,2020.1.2,MacIntel,60,5f5adea66120081ea0f57a61,5f5c5c5c10ec4844c05129c3,5,,,,,,pawn,,,,,,,,,,,5,2,0,37,37,46,1,,,,,,,,,,,,,,,,,,,,,,,,,,,,,,,,,,,,,,,,,,,,,,,,,,,,,,,,,,,,,,,,,,,,,,
,,?,0.001,0,,,,,,stimuli/images/PICTURE_509.png,SHOTS,5ee98d107b7e63000b9e42b9,06/07/1953,2020-09-12_15h30.36.330,proactive3.2,2020.1.2,MacIntel,60,5f5adea66120081ea0f57a61,5f5c5c5c10ec4844c05129c3,5,,,,,,telephone,,,,,,,,,,,1,2,0,38,38,7,1,,,,,,,,,,,,,,,,,,,,,,,,,,,,,,,,,,,,,,,,,,,,,,,,,,,,,,,,,,,,,,,,,,,,,,
,,?,0.001,0,,,,,,stimuli/images/PICTURE_491.png,SERIES,5ee98d107b7e63000b9e42b9,06/07/1953,2020-09-12_15h30.36.330,proactive3.2,2020.1.2,MacIntel,60,5f5adea66120081ea0f57a61,5f5c5c5c10ec4844c05129c3,5,,,,,,rug,,,,,,,,,,,4,2,0,39,39,39,1,,,,,,,,,,,,,,,,,,,,,,,,,,,,,,,,,,,,,,,,,,,,,,,,,,,,,,,,,,,,,,,,,,,,,,
,,?,0.001,0,,,,,,stimuli/images/PICTURE_327.png,LEADER,5ee98d107b7e63000b9e42b9,06/07/1953,2020-09-12_15h30.36.330,proactive3.2,2020.1.2,MacIntel,60,5f5adea66120081ea0f57a61,5f5c5c5c10ec4844c05129c3,5,,,,,,helmet,,,,,,,,,,,2,2,0,40,40,17,1,,,,,,,,,,,,,,,,,,,,,,,,,,,,,,,,,,,,,,,,,,,,,,,,,,,,,,,,,,,,,,,,,,,,,,
,,?,0.001,0,,,,,,stimuli/images/PICTURE_2.png,AREA,5ee98d107b7e63000b9e42b9,06/07/1953,2020-09-12_15h30.36.330,proactive3.2,2020.1.2,MacIntel,60,5f5adea66120081ea0f57a61,5f5c5c5c10ec4844c05129c3,5,,,,,,tyre,,,,,,,,,,,4,2,0,41,41,32,1,,,,,,,,,,,,,,,,,,,,,,,,,,,,,,,,,,,,,,,,,,,,,,,,,,,,,,,,,,,,,,,,,,,,,,
,,MILLER,2.949,1,,,,,,stimuli/images/PICTURE_509.png,MILLER,5ee98d107b7e63000b9e42b9,06/07/1953,2020-09-12_15h30.36.330,proactive3.2,2020.1.2,MacIntel,60,5f5adea66120081ea0f57a61,5f5c5c5c10ec4844c05129c3,5,,,,,,telephone,,,,,,,,,,,5,2,0,42,42,49,1,,,,,,,,,,,,,,,,,,,,,,,,,,,,,,,,,,,,,,,,,,,,,,,,,,,,,,,,,,,,,,,,,,,,,,
,,?,0,0,,,,,,stimuli/images/PICTURE_160.png,HOTEL,5ee98d107b7e63000b9e42b9,06/07/1953,2020-09-12_15h30.36.330,proactive3.2,2020.1.2,MacIntel,60,5f5adea66120081ea0f57a61,5f5c5c5c10ec4844c05129c3,5,,,,,,wheelbarrow,,,,,,,,,,,2,2,0,43,43,16,1,,,,,,,,,,,,,,,,,,,,,,,,,,,,,,,,,,,,,,,,,,,,,,,,,,,,,,,,,,,,,,,,,,,,,,
,,?,0,0,,,,,,stimuli/images/PICTURE_18.png,RIVER,5ee98d107b7e63000b9e42b9,06/07/1953,2020-09-12_15h30.36.330,proactive3.2,2020.1.2,MacIntel,60,5f5adea66120081ea0f57a61,5f5c5c5c10ec4844c05129c3,5,,,,,,planet,,,,,,,,,,,3,2,0,44,44,22,1,,,,,,,,,,,,,,,,,,,,,,,,,,,,,,,,,,,,,,,,,,,,,,,,,,,,,,,,,,,,,,,,,,,,,,
,,?,0,0,,,,,,stimuli/images/PICTURE_208.png,SPIRIT,5ee98d107b7e63000b9e42b9,06/07/1953,2020-09-12_15h30.36.330,proactive3.2,2020.1.2,MacIntel,60,5f5adea66120081ea0f57a61,5f5c5c5c10ec4844c05129c3,5,,,,,,microphone,,,,,,,,,,,3,2,0,45,45,28,1,,,,,,,,,,,,,,,,,,,,,,,,,,,,,,,,,,,,,,,,,,,,,,,,,,,,,,,,,,,,,,,,,,,,,,
,,?,0,0,,,,,,stimuli/images/PICTURE_285.png,WRITER,5ee98d107b7e63000b9e42b9,06/07/1953,2020-09-12_15h30.36.330,proactive3.2,2020.1.2,MacIntel,60,5f5adea66120081ea0f57a61,5f5c5c5c10ec4844c05129c3,5,,,,,,carrot,,,,,,,,,,,1,2,0,46,46,6,1,,,,,,,,,,,,,,,,,,,,,,,,,,,,,,,,,,,,,,,,,,,,,,,,,,,,,,,,,,,,,,,,,,,,,,
,,?,0.001,0,,,,,,stimuli/images/PICTURE_32.png,LETTER,5ee98d107b7e63000b9e42b9,06/07/1953,2020-09-12_15h30.36.330,proactive3.2,2020.1.2,MacIntel,60,5f5adea66120081ea0f57a61,5f5c5c5c10ec4844c05129c3,5,,,,,,crown,,,,,,,,,,,6,2,0,47,47,56,1,,,,,,,,,,,,,,,,,,,,,,,,,,,,,,,,,,,,,,,,,,,,,,,,,,,,,,,,,,,,,,,,,,,,,,
,,?,0,0,,,,,,stimuli/images/PICTURE_655.png,SALE,5ee98d107b7e63000b9e42b9,06/07/1953,2020-09-12_15h30.36.330,proactive3.2,2020.1.2,MacIntel,60,5f5adea66120081ea0f57a61,5f5c5c5c10ec4844c05129c3,5,,,,,,megaphone,,,,,,,,,,,6,2,0,48,48,57,1,,,,,,,,,,,,,,,,,,,,,,,,,,,,,,,,,,,,,,,,,,,,,,,,,,,,,,,,,,,,,,,,,,,,,,
,,?,0.001,0,,,,,,stimuli/images/PICTURE_348.png,DUDE,5ee98d107b7e63000b9e42b9,06/07/1953,2020-09-12_15h30.36.330,proactive3.2,2020.1.2,MacIntel,60,5f5adea66120081ea0f57a61,5f5c5c5c10ec4844c05129c3,5,,,,,,pepper,,,,,,,,,,,6,2,0,49,49,59,1,,,,,,,,,,,,,,,,,,,,,,,,,,,,,,,,,,,,,,,,,,,,,,,,,,,,,,,,,,,,,,,,,,,,,,
,,?,0,0,,,,,,stimuli/images/PICTURE_487.png,POLICY,5ee98d107b7e63000b9e42b9,06/07/1953,2020-09-12_15h30.36.330,proactive3.2,2020.1.2,MacIntel,60,5f5adea66120081ea0f57a61,5f5c5c5c10ec4844c05129c3,5,,,,,,basket,,,,,,,,,,,4,2,0,50,50,34,1,,,,,,,,,,,,,,,,,,,,,,,,,,,,,,,,,,,,,,,,,,,,,,,,,,,,,,,,,,,,,,,,,,,,,,
,,?,0,0,,,,,,stimuli/images/PICTURE_141.png,CLIENT,5ee98d107b7e63000b9e42b9,06/07/1953,2020-09-12_15h30.36.330,proactive3.2,2020.1.2,MacIntel,60,5f5adea66120081ea0f57a61,5f5c5c5c10ec4844c05129c3,5,,,,,,sunflower,,,,,,,,,,,4,2,0,51,51,30,1,,,,,,,,,,,,,,,,,,,,,,,,,,,,,,,,,,,,,,,,,,,,,,,,,,,,,,,,,,,,,,,,,,,,,,
,,?,0.001,0,,,,,,stimuli/images/PICTURE_57.png,CANDY,5ee98d107b7e63000b9e42b9,06/07/1953,2020-09-12_15h30.36.330,proactive3.2,2020.1.2,MacIntel,60,5f5adea66120081ea0f57a61,5f5c5c5c10ec4844c05129c3,5,,,,,,stamp,,,,,,,,,,,6,2,0,52,52,52,1,,,,,,,,,,,,,,,,,,,,,,,,,,,,,,,,,,,,,,,,,,,,,,,,,,,,,,,,,,,,,,,,,,,,,,
,,?,0,0,,,,,,stimuli/images/PICTURE_677.png,PHOTO,5ee98d107b7e63000b9e42b9,06/07/1953,2020-09-12_15h30.36.330,proactive3.2,2020.1.2,MacIntel,60,5f5adea66120081ea0f57a61,5f5c5c5c10ec4844c05129c3,5,,,,,,map,,,,,,,,,,,2,2,0,53,53,14,1,,,,,,,,,,,,,,,,,,,,,,,,,,,,,,,,,,,,,,,,,,,,,,,,,,,,,,,,,,,,,,,,,,,,,,
,,?,0,0,,,,,,stimuli/images/PICTURE_667.png,GLASS,5ee98d107b7e63000b9e42b9,06/07/1953,2020-09-12_15h30.36.330,proactive3.2,2020.1.2,MacIntel,60,5f5adea66120081ea0f57a61,5f5c5c5c10ec4844c05129c3,5,,,,,,daisy,,,,,,,,,,,3,2,0,54,54,27,1,,,,,,,,,,,,,,,,,,,,,,,,,,,,,,,,,,,,,,,,,,,,,,,,,,,,,,,,,,,,,,,,,,,,,,
,,?,0.001,0,,,,,,stimuli/images/PICTURE_296.png,CLOCK,5ee98d107b7e63000b9e42b9,06/07/1953,2020-09-12_15h30.36.330,proactive3.2,2020.1.2,MacIntel,60,5f5adea66120081ea0f57a61,5f5c5c5c10ec4844c05129c3,5,,,,,,bolt,,,,,,,,,,,2,2,0,55,55,18,1,,,,,,,,,,,,,,,,,,,,,,,,,,,,,,,,,,,,,,,,,,,,,,,,,,,,,,,,,,,,,,,,,,,,,,
,,?,0.001,0,,,,,,stimuli/images/PICTURE_677.png,FAMILY,5ee98d107b7e63000b9e42b9,06/07/1953,2020-09-12_15h30.36.330,proactive3.2,2020.1.2,MacIntel,60,5f5adea66120081ea0f57a61,5f5c5c5c10ec4844c05129c3,5,,,,,,map,,,,,,,,,,,6,2,0,56,56,53,1,,,,,,,,,,,,,,,,,,,,,,,,,,,,,,,,,,,,,,,,,,,,,,,,,,,,,,,,,,,,,,,,,,,,,,
,,DUDE,2.384,1,,,,,,stimuli/images/PICTURE_692.png,DUDE,5ee98d107b7e63000b9e42b9,06/07/1953,2020-09-12_15h30.36.330,proactive3.2,2020.1.2,MacIntel,60,5f5adea66120081ea0f57a61,5f5c5c5c10ec4844c05129c3,5,,,,,,cherry,,,,,,,,,,,5,2,0,57,57,47,1,,,,,,,,,,,,,,,,,,,,,,,,,,,,,,,,,,,,,,,,,,,,,,,,,,,,,,,,,,,,,,,,,,,,,,
,,?,0.002,0,,,,,,stimuli/images/PICTURE_504.png,HOUSE,5ee98d107b7e63000b9e42b9,06/07/1953,2020-09-12_15h30.36.330,proactive3.2,2020.1.2,MacIntel,60,5f5adea66120081ea0f57a61,5f5c5c5c10ec4844c05129c3,5,,,,,,wheel,,,,,,,,,,,4,2,0,58,58,36,1,,,,,,,,,,,,,,,,,,,,,,,,,,,,,,,,,,,,,,,,,,,,,,,,,,,,,,,,,,,,,,,,,,,,,,
,,?,0,0,,,,,,stimuli/images/PICTURE_509.png,BATH,5ee98d107b7e63000b9e42b9,06/07/1953,2020-09-12_15h30.36.330,proactive3.2,2020.1.2,MacIntel,60,5f5adea66120081ea0f57a61,5f5c5c5c10ec4844c05129c3,5,,,,,,telephone,,,,,,,,,,,2,2,0,59,59,15,1,,,,,,,,,,,,,,,,,,,,,,,,,,,,,,,,,,,,,,,,,,,,,,,,,,,,,,,,,,,,,,,,,,,,,,
,,,,,,,,,,,,5ee98d107b7e63000b9e42b9,06/07/1953,2020-09-12_15h30.36.330,proactive3.2,2020.1.2,MacIntel,60,5f5adea66120081ea0f57a61,5f5c5c5c10ec4844c05129c3,5,,,,,,,,,,,,,,,,,,,,,,,,0,0,0,2,1,stimuli/learn-block3.csv,,,,,,,,,,,,,,,,,,,,,,,,,,,,,,,,,,,,,,,,,,,,,,,,,,,,,,,,,,,,,,,,
,,,,,,,,,,stimuli/images/PICTURE_708.png,RECORD,5ee98d107b7e63000b9e42b9,06/07/1953,2020-09-12_15h30.36.330,proactive3.2,2020.1.2,MacIntel,60,5f5adea66120081ea0f57a61,5f5c5c5c10ec4844c05129c3,5,,,,,,monkey,,,,,,0,0,0,58,1,6,1,,,,,,,,,,,,,,,,,,,,,,,,,,,,,,,,,,,,,,,,,,,,,,,,,,,,,,,,,,,,,,,,,,,,,,,,,,,
,,,,,,,,,,stimuli/images/PICTURE_380.png,CANDY,5ee98d107b7e63000b9e42b9,06/07/1953,2020-09-12_15h30.36.330,proactive3.2,2020.1.2,MacIntel,60,5f5adea66120081ea0f57a61,5f5c5c5c10ec4844c05129c3,5,,,,,,gorilla,,,,,,0,1,1,0,1,1,1,,,,,,,,,,,,,,,,,,,,,,,,,,,,,,,,,,,,,,,,,,,,,,,,,,,,,,,,,,,,,,,,,,,,,,,,,,,
,,,,,,,,,,stimuli/images/PICTURE_285.png,LIFE,5ee98d107b7e63000b9e42b9,06/07/1953,2020-09-12_15h30.36.330,proactive3.2,2020.1.2,MacIntel,60,5f5adea66120081ea0f57a61,5f5c5c5c10ec4844c05129c3,5,,,,,,carrot,,,,,,0,2,2,33,1,4,1,,,,,,,,,,,,,,,,,,,,,,,,,,,,,,,,,,,,,,,,,,,,,,,,,,,,,,,,,,,,,,,,,,,,,,,,,,,
,,,,,,,,,,stimuli/images/PICTURE_339.png,CLIENT,5ee98d107b7e63000b9e42b9,06/07/1953,2020-09-12_15h30.36.330,proactive3.2,2020.1.2,MacIntel,60,5f5adea66120081ea0f57a61,5f5c5c5c10ec4844c05129c3,5,,,,,,backpack,,,,,,0,3,3,11,1,2,1,,,,,,,,,,,,,,,,,,,,,,,,,,,,,,,,,,,,,,,,,,,,,,,,,,,,,,,,,,,,,,,,,,,,,,,,,,,
,,,,,,,,,,stimuli/images/PICTURE_467.png,POLICY,5ee98d107b7e63000b9e42b9,06/07/1953,2020-09-12_15h30.36.330,proactive3.2,2020.1.2,MacIntel,60,5f5adea66120081ea0f57a61,5f5c5c5c10ec4844c05129c3,5,,,,,,peg,,,,,,0,4,4,53,1,6,1,,,,,,,,,,,,,,,,,,,,,,,,,,,,,,,,,,,,,,,,,,,,,,,,,,,,,,,,,,,,,,,,,,,,,,,,,,,
,,,,,,,,,,stimuli/images/PICTURE_504.png,COPS,5ee98d107b7e63000b9e42b9,06/07/1953,2020-09-12_15h30.36.330,proactive3.2,2020.1.2,MacIntel,60,5f5adea66120081ea0f57a61,5f5c5c5c10ec4844c05129c3,5,,,,,,wheel,,,,,,0,5,5,52,1,6,1,,,,,,,,,,,,,,,,,,,,,,,,,,,,,,,,,,,,,,,,,,,,,,,,,,,,,,,,,,,,,,,,,,,,,,,,,,,
,,,,,,,,,,stimuli/images/PICTURE_296.png,LOTS,5ee98d107b7e63000b9e42b9,06/07/1953,2020-09-12_15h30.36.330,proactive3.2,2020.1.2,MacIntel,60,5f5adea66120081ea0f57a61,5f5c5c5c10ec4844c05129c3,5,,,,,,bolt,,,,,,0,6,6,9,1,1,1,,,,,,,,,,,,,,,,,,,,,,,,,,,,,,,,,,,,,,,,,,,,,,,,,,,,,,,,,,,,,,,,,,,,,,,,,,,
,,,,,,,,,,stimuli/images/PICTURE_667.png,RIVER,5ee98d107b7e63000b9e42b9,06/07/1953,2020-09-12_15h30.36.330,proactive3.2,2020.1.2,MacIntel,60,5f5adea66120081ea0f57a61,5f5c5c5c10ec4844c05129c3,5,,,,,,daisy,,,,,,0,7,7,10,1,2,1,,,,,,,,,,,,,,,,,,,,,,,,,,,,,,,,,,,,,,,,,,,,,,,,,,,,,,,,,,,,,,,,,,,,,,,,,,,
,,,,,,,,,,stimuli/images/PICTURE_95.png,HONEY,5ee98d107b7e63000b9e42b9,06/07/1953,2020-09-12_15h30.36.330,proactive3.2,2020.1.2,MacIntel,60,5f5adea66120081ea0f57a61,5f5c5c5c10ec4844c05129c3,5,,,,,,suitcase,,,,,,0,8,8,44,1,5,1,,,,,,,,,,,,,,,,,,,,,,,,,,,,,,,,,,,,,,,,,,,,,,,,,,,,,,,,,,,,,,,,,,,,,,,,,,,
,,,,,,,,,,stimuli/images/PICTURE_405.png,YEAR,5ee98d107b7e63000b9e42b9,06/07/1953,2020-09-12_15h30.36.330,proactive3.2,2020.1.2,MacIntel,60,5f5adea66120081ea0f57a61,5f5c5c5c10ec4844c05129c3,5,,,,,,anchor,,,,,,0,9,9,34,1,4,1,,,,,,,,,,,,,,,,,,,,,,,,,,,,,,,,,,,,,,,,,,,,,,,,,,,,,,,,,,,,,,,,,,,,,,,,,,,
,,,,,,,,,,stimuli/images/PICTURE_147.png,WOMEN,5ee98d107b7e63000b9e42b9,06/07/1953,2020-09-12_15h30.36.330,proactive3.2,2020.1.2,MacIntel,60,5f5adea66120081ea0f57a61,5f5c5c5c10ec4844c05129c3,5,,,,,,hanger,,,,,,0,10,10,7,1,1,1,,,,,,,,,,,,,,,,,,,,,,,,,,,,,,,,,,,,,,,,,,,,,,,,,,,,,,,,,,,,,,,,,,,,,,,,,,,
,,,,,,,,,,stimuli/images/PICTURE_108.png,FLIGHT,5ee98d107b7e63000b9e42b9,06/07/1953,2020-09-12_15h30.36.330,proactive3.2,2020.1.2,MacIntel,60,5f5adea66120081ea0f57a61,5f5c5c5c10ec4844c05129c3,5,,,,,,calendar,,,,,,0,11,11,59,1,6,1,,,,,,,,,,,,,,,,,,,,,,,,,,,,,,,,,,,,,,,,,,,,,,,,,,,,,,,,,,,,,,,,,,,,,,,,,,,
,,,,,,,,,,stimuli/images/PICTURE_655.png,TOILET,5ee98d107b7e63000b9e42b9,06/07/1953,2020-09-12_15h30.36.330,proactive3.2,2020.1.2,MacIntel,60,5f5adea66120081ea0f57a61,5f5c5c5c10ec4844c05129c3,5,,,,,,megaphone,,,,,,0,12,12,12,1,2,1,,,,,,,,,,,,,,,,,,,,,,,,,,,,,,,,,,,,,,,,,,,,,,,,,,,,,,,,,,,,,,,,,,,,,,,,,,,
,,,,,,,,,,stimuli/images/PICTURE_564.png,BATH,5ee98d107b7e63000b9e42b9,06/07/1953,2020-09-12_15h30.36.330,proactive3.2,2020.1.2,MacIntel,60,5f5adea66120081ea0f57a61,5f5c5c5c10ec4844c05129c3,5,,,,,,spoon,,,,,,0,13,13,26,1,3,1,,,,,,,,,,,,,,,,,,,,,,,,,,,,,,,,,,,,,,,,,,,,,,,,,,,,,,,,,,,,,,,,,,,,,,,,,,,
,,,,,,,,,,stimuli/images/PICTURE_177.png,WRITER,5ee98d107b7e63000b9e42b9,06/07/1953,2020-09-12_15h30.36.330,proactive3.2,2020.1.2,MacIntel,60,5f5adea66120081ea0f57a61,5f5c5c5c10ec4844c05129c3,5,,,,,,mushroom,,,,,,0,14,14,41,1,5,1,,,,,,,,,,,,,,,,,,,,,,,,,,,,,,,,,,,,,,,,,,,,,,,,,,,,,,,,,,,,,,,,,,,,,,,,,,,
,,,,,,,,,,stimuli/images/PICTURE_327.png,SERIES,5ee98d107b7e63000b9e42b9,06/07/1953,2020-09-12_15h30.36.330,proactive3.2,2020.1.2,MacIntel,60,5f5adea66120081ea0f57a61,5f5c5c5c10ec4844c05129c3,5,,,,,,helmet,,,,,,0,15,15,3,1,1,1,,,,,,,,,,,,,,,,,,,,,,,,,,,,,,,,,,,,,,,,,,,,,,,,,,,,,,,,,,,,,,,,,,,,,,,,,,,
,,,,,,,,,,stimuli/images/PICTURE_296.png,LIFE,5ee98d107b7e63000b9e42b9,06/07/1953,2020-09-12_15h30.36.330,proactive3.2,2020.1.2,MacIntel,60,5f5adea66120081ea0f57a61,5f5c5c5c10ec4844c05129c3,5,,,,,,bolt,,,,,,0,16,16,57,1,6,1,,,,,,,,,,,,,,,,,,,,,,,,,,,,,,,,,,,,,,,,,,,,,,,,,,,,,,,,,,,,,,,,,,,,,,,,,,,
,,,,,,,,,,stimuli/images/PICTURE_85.png,NATION,5ee98d107b7e63000b9e42b9,06/07/1953,2020-09-12_15h30.36.330,proactive3.2,2020.1.2,MacIntel,60,5f5adea66120081ea0f57a61,5f5c5c5c10ec4844c05129c3,5,,,,,,diamond,,,,,,0,17,17,5,1,1,1,,,,,,,,,,,,,,,,,,,,,,,,,,,,,,,,,,,,,,,,,,,,,,,,,,,,,,,,,,,,,,,,,,,,,,,,,,,
,,,,,,,,,,stimuli/images/PICTURE_68.png,ROOF,5ee98d107b7e63000b9e42b9,06/07/1953,2020-09-12_15h30.36.330,proactive3.2,2020.1.2,MacIntel,60,5f5adea66120081ea0f57a61,5f5c5c5c10ec4844c05129c3,5,,,,,,candle,,,,,,0,18,18,38,1,4,1,,,,,,,,,,,,,,,,,,,,,,,,,,,,,,,,,,,,,,,,,,,,,,,,,,,,,,,,,,,,,,,,,,,,,,,,,,,
,,,,,,,,,,stimuli/images/PICTURE_403.png,TOILET,5ee98d107b7e63000b9e42b9,06/07/1953,2020-09-12_15h30.36.330,proactive3.2,2020.1.2,MacIntel,60,5f5adea66120081ea0f57a61,5f5c5c5c10ec4844c05129c3,5,,,,,,cathedral,,,,,,0,19,19,25,1,3,1,,,,,,,,,,,,,,,,,,,,,,,,,,,,,,,,,,,,,,,,,,,,,,,,,,,,,,,,,,,,,,,,,,,,,,,,,,,
,,,,,,,,,,stimuli/images/PICTURE_340.png,VALLEY,5ee98d107b7e63000b9e42b9,06/07/1953,2020-09-12_15h30.36.330,proactive3.2,2020.1.2,MacIntel,60,5f5adea66120081ea0f57a61,5f5c5c5c10ec4844c05129c3,5,,,,,,mirror,,,,,,0,20,20,54,1,6,1,,,,,,,,,,,,,,,,,,,,,,,,,,,,,,,,,,,,,,,,,,,,,,,,,,,,,,,,,,,,,,,,,,,,,,,,,,,
,,,,,,,,,,stimuli/images/PICTURE_95.png,MILLER,5ee98d107b7e63000b9e42b9,06/07/1953,2020-09-12_15h30.36.330,proactive3.2,2020.1.2,MacIntel,60,5f5adea66120081ea0f57a61,5f5c5c5c10ec4844c05129c3,5,,,,,,suitcase,,,,,,0,21,21,56,1,6,1,,,,,,,,,,,,,,,,,,,,,,,,,,,,,,,,,,,,,,,,,,,,,,,,,,,,,,,,,,,,,,,,,,,,,,,,,,,
,,,,,,,,,,stimuli/images/PICTURE_57.png,MOMENT,5ee98d107b7e63000b9e42b9,06/07/1953,2020-09-12_15h30.36.330,proactive3.2,2020.1.2,MacIntel,60,5f5adea66120081ea0f57a61,5f5c5c5c10ec4844c05129c3,5,,,,,,stamp,,,,,,0,22,22,37,1,4,1,,,,,,,,,,,,,,,,,,,,,,,,,,,,,,,,,,,,,,,,,,,,,,,,,,,,,,,,,,,,,,,,,,,,,,,,,,,
,,,,,,,,,,stimuli/images/PICTURE_2.png,FLIGHT,5ee98d107b7e63000b9e42b9,06/07/1953,2020-09-12_15h30.36.330,proactive3.2,2020.1.2,MacIntel,60,5f5adea66120081ea0f57a61,5f5c5c5c10ec4844c05129c3,5,,,,,,tyre,,,,,,0,23,23,15,1,2,1,,,,,,,,,,,,,,,,,,,,,,,,,,,,,,,,,,,,,,,,,,,,,,,,,,,,,,,,,,,,,,,,,,,,,,,,,,,
,,,,,,,,,,stimuli/images/PICTURE_654.png,MONTH,5ee98d107b7e63000b9e42b9,06/07/1953,2020-09-12_15h30.36.330,proactive3.2,2020.1.2,MacIntel,60,5f5adea66120081ea0f57a61,5f5c5c5c10ec4844c05129c3,5,,,,,,pencil,,,,,,0,24,24,29,1,3,1,,,,,,,,,,,,,,,,,,,,,,,,,,,,,,,,,,,,,,,,,,,,,,,,,,,,,,,,,,,,,,,,,,,,,,,,,,,
,,,,,,,,,,stimuli/images/PICTURE_108.png,POLICY,5ee98d107b7e63000b9e42b9,06/07/1953,2020-09-12_15h30.36.330,proactive3.2,2020.1.2,MacIntel,60,5f5adea66120081ea0f57a61,5f5c5c5c10ec4844c05129c3,5,,,,,,calendar,,,,,,0,25,25,22,1,3,1,,,,,,,,,,,,,,,,,,,,,,,,,,,,,,,,,,,,,,,,,,,,,,,,,,,,,,,,,,,,,,,,,,,,,,,,,,,
,,,,,,,,,,stimuli/images/PICTURE_383.png,SERIES,5ee98d107b7e63000b9e42b9,06/07/1953,2020-09-12_15h30.36.330,proactive3.2,2020.1.2,MacIntel,60,5f5adea66120081ea0f57a61,5f5c5c5c10ec4844c05129c3,5,,,,,,coin,,,,,,0,26,26,46,1,5,1,,,,,,,,,,,,,,,,,,,,,,,,,,,,,,,,,,,,,,,,,,,,,,,,,,,,,,,,,,,,,,,,,,,,,,,,,,,
,,,,,,,,,,stimuli/images/PICTURE_504.png,YEAR,5ee98d107b7e63000b9e42b9,06/07/1953,2020-09-12_15h30.36.330,proactive3.2,2020.1.2,MacIntel,60,5f5adea66120081ea0f57a61,5f5c5c5c10ec4844c05129c3,5,,,,,,wheel,,,,,,0,27,27,13,1,2,1,,,,,,,,,,,,,,,,,,,,,,,,,,,,,,,,,,,,,,,,,,,,,,,,,,,,,,,,,,,,,,,,,,,,,,,,,,,
,,,,,,,,,,stimuli/images/PICTURE_487.png,GIRL,5ee98d107b7e63000b9e42b9,06/07/1953,2020-09-12_15h30.36.330,proactive3.2,2020.1.2,MacIntel,60,5f5adea66120081ea0f57a61,5f5c5c5c10ec4844c05129c3,5,,,,,,basket,,,,,,0,28,28,45,1,5,1,,,,,,,,,,,,,,,,,,,,,,,,,,,,,,,,,,,,,,,,,,,,,,,,,,,,,,,,,,,,,,,,,,,,,,,,,,,
,,,,,,,,,,stimuli/images/PICTURE_504.png,ARTIST,5ee98d107b7e63000b9e42b9,06/07/1953,2020-09-12_15h30.36.330,proactive3.2,2020.1.2,MacIntel,60,5f5adea66120081ea0f57a61,5f5c5c5c10ec4844c05129c3,5,,,,,,wheel,,,,,,0,29,29,49,1,5,1,,,,,,,,,,,,,,,,,,,,,,,,,,,,,,,,,,,,,,,,,,,,,,,,,,,,,,,,,,,,,,,,,,,,,,,,,,,
,,,,,,,,,,stimuli/images/PICTURE_203.png,GODS,5ee98d107b7e63000b9e42b9,06/07/1953,2020-09-12_15h30.36.330,proactive3.2,2020.1.2,MacIntel,60,5f5adea66120081ea0f57a61,5f5c5c5c10ec4844c05129c3,5,,,,,,cap,,,,,,0,30,30,30,1,4,1,,,,,,,,,,,,,,,,,,,,,,,,,,,,,,,,,,,,,,,,,,,,,,,,,,,,,,,,,,,,,,,,,,,,,,,,,,,
,,,,,,,,,,stimuli/images/PICTURE_403.png,RIVER,5ee98d107b7e63000b9e42b9,06/07/1953,2020-09-12_15h30.36.330,proactive3.2,2020.1.2,MacIntel,60,5f5adea66120081ea0f57a61,5f5c5c5c10ec4844c05129c3,5,,,,,,cathedral,,,,,,0,31,31,40,1,5,1,,,,,,,,,,,,,,,,,,,,,,,,,,,,,,,,,,,,,,,,,,,,,,,,,,,,,,,,,,,,,,,,,,,,,,,,,,,
,,,,,,,,,,stimuli/images/PICTURE_297.png,RIVER,5ee98d107b7e63000b9e42b9,06/07/1953,2020-09-12_15h30.36.330,proactive3.2,2020.1.2,MacIntel,60,5f5adea66120081ea0f57a61,5f5c5c5c10ec4844c05129c3,5,,,,,,aeroplane,,,,,,0,32,32,39,1,4,1,,,,,,,,,,,,,,,,,,,,,,,,,,,,,,,,,,,,,,,,,,,,,,,,,,,,,,,,,,,,,,,,,,,,,,,,,,,
,,,,,,,,,,stimuli/images/PICTURE_147.png,YEAR,5ee98d107b7e63000b9e42b9,06/07/1953,2020-09-12_15h30.36.330,proactive3.2,2020.1.2,MacIntel,60,5f5adea66120081ea0f57a61,5f5c5c5c10ec4844c05129c3,5,,,,,,hanger,,,,,,0,33,33,21,1,3,1,,,,,,,,,,,,,,,,,,,,,,,,,,,,,,,,,,,,,,,,,,,,,,,,,,,,,,,,,,,,,,,,,,,,,,,,,,,
,,,,,,,,,,stimuli/images/PICTURE_383.png,WRITER,5ee98d107b7e63000b9e42b9,06/07/1953,2020-09-12_15h30.36.330,proactive3.2,2020.1.2,MacIntel,60,5f5adea66120081ea0f57a61,5f5c5c5c10ec4844c05129c3,5,,,,,,coin,,,,,,0,34,34,28,1,3,1,,,,,,,,,,,,,,,,,,,,,,,,,,,,,,,,,,,,,,,,,,,,,,,,,,,,,,,,,,,,,,,,,,,,,,,,,,,
,,,,,,,,,,stimuli/images/PICTURE_203.png,NIGHT,5ee98d107b7e63000b9e42b9,06/07/1953,2020-09-12_15h30.36.330,proactive3.2,2020.1.2,MacIntel,60,5f5adea66120081ea0f57a61,5f5c5c5c10ec4844c05129c3,5,,,,,,cap,,,,,,0,35,35,2,1,1,1,,,,,,,,,,,,,,,,,,,,,,,,,,,,,,,,,,,,,,,,,,,,,,,,,,,,,,,,,,,,,,,,,,,,,,,,,,,
,,,,,,,,,,stimuli/images/PICTURE_308.png,FAMILY,5ee98d107b7e63000b9e42b9,06/07/1953,2020-09-12_15h30.36.330,proactive3.2,2020.1.2,MacIntel,60,5f5adea66120081ea0f57a61,5f5c5c5c10ec4844c05129c3,5,,,,,,dice,,,,,,0,36,36,36,1,4,1,,,,,,,,,,,,,,,,,,,,,,,,,,,,,,,,,,,,,,,,,,,,,,,,,,,,,,,,,,,,,,,,,,,,,,,,,,,
,,,,,,,,,,stimuli/images/PICTURE_675.png,SALE,5ee98d107b7e63000b9e42b9,06/07/1953,2020-09-12_15h30.36.330,proactive3.2,2020.1.2,MacIntel,60,5f5adea66120081ea0f57a61,5f5c5c5c10ec4844c05129c3,5,,,,,,windmill,,,,,,0,37,37,47,1,5,1,,,,,,,,,,,,,,,,,,,,,,,,,,,,,,,,,,,,,,,,,,,,,,,,,,,,,,,,,,,,,,,,,,,,,,,,,,,
,,,,,,,,,,stimuli/images/PICTURE_32.png,KIND,5ee98d107b7e63000b9e42b9,06/07/1953,2020-09-12_15h30.36.330,proactive3.2,2020.1.2,MacIntel,60,5f5adea66120081ea0f57a61,5f5c5c5c10ec4844c05129c3,5,,,,,,crown,,,,,,0,38,38,35,1,4,1,,,,,,,,,,,,,,,,,,,,,,,,,,,,,,,,,,,,,,,,,,,,,,,,,,,,,,,,,,,,,,,,,,,,,,,,,,,
,,,,,,,,,,stimuli/images/PICTURE_685.png,PENNY,5ee98d107b7e63000b9e42b9,06/07/1953,2020-09-12_15h30.36.330,proactive3.2,2020.1.2,MacIntel,60,5f5adea66120081ea0f57a61,5f5c5c5c10ec4844c05129c3,5,,,,,,goose,,,,,,0,39,39,4,1,1,1,,,,,,,,,,,,,,,,,,,,,,,,,,,,,,,,,,,,,,,,,,,,,,,,,,,,,,,,,,,,,,,,,,,,,,,,,,,
,,,,,,,,,,stimuli/images/PICTURE_744.png,WEAPON,5ee98d107b7e63000b9e42b9,06/07/1953,2020-09-12_15h30.36.330,proactive3.2,2020.1.2,MacIntel,60,5f5adea66120081ea0f57a61,5f5c5c5c10ec4844c05129c3,5,,,,,,ring,,,,,,0,40,40,50,1,6,1,,,,,,,,,,,,,,,,,,,,,,,,,,,,,,,,,,,,,,,,,,,,,,,,,,,,,,,,,,,,,,,,,,,,,,,,,,,
,,,,,,,,,,stimuli/images/PICTURE_340.png,LETTER,5ee98d107b7e63000b9e42b9,06/07/1953,2020-09-12_15h30.36.330,proactive3.2,2020.1.2,MacIntel,60,5f5adea66120081ea0f57a61,5f5c5c5c10ec4844c05129c3,5,,,,,,mirror,,,,,,0,41,41,24,1,3,1,,,,,,,,,,,,,,,,,,,,,,,,,,,,,,,,,,,,,,,,,,,,,,,,,,,,,,,,,,,,,,,,,,,,,,,,,,,
,,,,,,,,,,stimuli/images/PICTURE_403.png,WRITER,5ee98d107b7e63000b9e42b9,06/07/1953,2020-09-12_15h30.36.330,proactive3.2,2020.1.2,MacIntel,60,5f5adea66120081ea0f57a61,5f5c5c5c10ec4844c05129c3,5,,,,,,cathedral,,,,,,0,42,42,31,1,4,1,,,,,,,,,,,,,,,,,,,,,,,,,,,,,,,,,,,,,,,,,,,,,,,,,,,,,,,,,,,,,,,,,,,,,,,,,,,
,,,,,,,,,,stimuli/images/PICTURE_33.png,FRIEND,5ee98d107b7e63000b9e42b9,06/07/1953,2020-09-12_15h30.36.330,proactive3.2,2020.1.2,MacIntel,60,5f5adea66120081ea0f57a61,5f5c5c5c10ec4844c05129c3,5,,,,,,frame,,,,,,0,43,43,8,1,1,1,,,,,,,,,,,,,,,,,,,,,,,,,,,,,,,,,,,,,,,,,,,,,,,,,,,,,,,,,,,,,,,,,,,,,,,,,,,
,,,,,,,,,,stimuli/images/PICTURE_85.png,TOILET,5ee98d107b7e63000b9e42b9,06/07/1953,2020-09-12_15h30.36.330,proactive3.2,2020.1.2,MacIntel,60,5f5adea66120081ea0f57a61,5f5c5c5c10ec4844c05129c3,5,,,,,,diamond,,,,,,0,44,44,48,1,5,1,,,,,,,,,,,,,,,,,,,,,,,,,,,,,,,,,,,,,,,,,,,,,,,,,,,,,,,,,,,,,,,,,,,,,,,,,,,
,,,,,,,,,,stimuli/images/PICTURE_491.png,RIVER,5ee98d107b7e63000b9e42b9,06/07/1953,2020-09-12_15h30.36.330,proactive3.2,2020.1.2,MacIntel,60,5f5adea66120081ea0f57a61,5f5c5c5c10ec4844c05129c3,5,,,,,,rug,,,,,,0,45,45,6,1,1,1,,,,,,,,,,,,,,,,,,,,,,,,,,,,,,,,,,,,,,,,,,,,,,,,,,,,,,,,,,,,,,,,,,,,,,,,,,,
,,,,,,,,,,stimuli/images/PICTURE_491.png,GLASS,5ee98d107b7e63000b9e42b9,06/07/1953,2020-09-12_15h30.36.330,proactive3.2,2020.1.2,MacIntel,60,5f5adea66120081ea0f57a61,5f5c5c5c10ec4844c05129c3,5,,,,,,rug,,,,,,0,46,46,14,1,2,1,,,,,,,,,,,,,,,,,,,,,,,,,,,,,,,,,,,,,,,,,,,,,,,,,,,,,,,,,,,,,,,,,,,,,,,,,,,
,,,,,,,,,,stimuli/images/PICTURE_677.png,APPLE,5ee98d107b7e63000b9e42b9,06/07/1953,2020-09-12_15h30.36.330,proactive3.2,2020.1.2,MacIntel,60,5f5adea66120081ea0f57a61,5f5c5c5c10ec4844c05129c3,5,,,,,,map,,,,,,0,47,47,43,1,5,1,,,,,,,,,,,,,,,,,,,,,,,,,,,,,,,,,,,,,,,,,,,,,,,,,,,,,,,,,,,,,,,,,,,,,,,,,,,
,,,,,,,,,,stimuli/images/PICTURE_208.png,SYSTEM,5ee98d107b7e63000b9e42b9,06/07/1953,2020-09-12_15h30.36.330,proactive3.2,2020.1.2,MacIntel,60,5f5adea66120081ea0f57a61,5f5c5c5c10ec4844c05129c3,5,,,,,,microphone,,,,,,0,48,48,32,1,4,1,,,,,,,,,,,,,,,,,,,,,,,,,,,,,,,,,,,,,,,,,,,,,,,,,,,,,,,,,,,,,,,,,,,,,,,,,,,
,,,,,,,,,,stimuli/images/PICTURE_405.png,PLENTY,5ee98d107b7e63000b9e42b9,06/07/1953,2020-09-12_15h30.36.330,proactive3.2,2020.1.2,MacIntel,60,5f5adea66120081ea0f57a61,5f5c5c5c10ec4844c05129c3,5,,,,,,anchor,,,,,,0,49,49,23,1,3,1,,,,,,,,,,,,,,,,,,,,,,,,,,,,,,,,,,,,,,,,,,,,,,,,,,,,,,,,,,,,,,,,,,,,,,,,,,,
,,,,,,,,,,stimuli/images/PICTURE_32.png,PILLS,5ee98d107b7e63000b9e42b9,06/07/1953,2020-09-12_15h30.36.330,proactive3.2,2020.1.2,MacIntel,60,5f5adea66120081ea0f57a61,5f5c5c5c10ec4844c05129c3,5,,,,,,crown,,,,,,0,50,50,18,1,2,1,,,,,,,,,,,,,,,,,,,,,,,,,,,,,,,,,,,,,,,,,,,,,,,,,,,,,,,,,,,,,,,,,,,,,,,,,,,
,,,,,,,,,,stimuli/images/PICTURE_469.png,AGENT,5ee98d107b7e63000b9e42b9,06/07/1953,2020-09-12_15h30.36.330,proactive3.2,2020.1.2,MacIntel,60,5f5adea66120081ea0f57a61,5f5c5c5c10ec4844c05129c3,5,,,,,,stool,,,,,,0,51,51,16,1,2,1,,,,,,,,,,,,,,,,,,,,,,,,,,,,,,,,,,,,,,,,,,,,,,,,,,,,,,,,,,,,,,,,,,,,,,,,,,,
,,,,,,,,,,stimuli/images/PICTURE_95.png,BOYS,5ee98d107b7e63000b9e42b9,06/07/1953,2020-09-12_15h30.36.330,proactive3.2,2020.1.2,MacIntel,60,5f5adea66120081ea0f57a61,5f5c5c5c10ec4844c05129c3,5,,,,,,suitcase,,,,,,0,52,52,1,1,1,1,,,,,,,,,,,,,,,,,,,,,,,,,,,,,,,,,,,,,,,,,,,,,,,,,,,,,,,,,,,,,,,,,,,,,,,,,,,
,,,,,,,,,,stimuli/images/PICTURE_449.png,DUDE,5ee98d107b7e63000b9e42b9,06/07/1953,2020-09-12_15h30.36.330,proactive3.2,2020.1.2,MacIntel,60,5f5adea66120081ea0f57a61,5f5c5c5c10ec4844c05129c3,5,,,,,,bench,,,,,,0,53,53,17,1,2,1,,,,,,,,,,,,,,,,,,,,,,,,,,,,,,,,,,,,,,,,,,,,,,,,,,,,,,,,,,,,,,,,,,,,,,,,,,,
,,,,,,,,,,stimuli/images/PICTURE_233.png,LOTS,5ee98d107b7e63000b9e42b9,06/07/1953,2020-09-12_15h30.36.330,proactive3.2,2020.1.2,MacIntel,60,5f5adea66120081ea0f57a61,5f5c5c5c10ec4844c05129c3,5,,,,,,salt,,,,,,0,54,54,42,1,5,1,,,,,,,,,,,,,,,,,,,,,,,,,,,,,,,,,,,,,,,,,,,,,,,,,,,,,,,,,,,,,,,,,,,,,,,,,,,
,,,,,,,,,,stimuli/images/PICTURE_327.png,CASINO,5ee98d107b7e63000b9e42b9,06/07/1953,2020-09-12_15h30.36.330,proactive3.2,2020.1.2,MacIntel,60,5f5adea66120081ea0f57a61,5f5c5c5c10ec4844c05129c3,5,,,,,,helmet,,,,,,0,55,55,20,1,3,1,,,,,,,,,,,,,,,,,,,,,,,,,,,,,,,,,,,,,,,,,,,,,,,,,,,,,,,,,,,,,,,,,,,,,,,,,,,
,,,,,,,,,,stimuli/images/PICTURE_42.png,BOYS,5ee98d107b7e63000b9e42b9,06/07/1953,2020-09-12_15h30.36.330,proactive3.2,2020.1.2,MacIntel,60,5f5adea66120081ea0f57a61,5f5c5c5c10ec4844c05129c3,5,,,,,,pear,,,,,,0,56,56,55,1,6,1,,,,,,,,,,,,,,,,,,,,,,,,,,,,,,,,,,,,,,,,,,,,,,,,,,,,,,,,,,,,,,,,,,,,,,,,,,,
,,,,,,,,,,stimuli/images/PICTURE_380.png,HONEY,5ee98d107b7e63000b9e42b9,06/07/1953,2020-09-12_15h30.36.330,proactive3.2,2020.1.2,MacIntel,60,5f5adea66120081ea0f57a61,5f5c5c5c10ec4844c05129c3,5,,,,,,gorilla,,,,,,0,57,57,19,1,2,1,,,,,,,,,,,,,,,,,,,,,,,,,,,,,,,,,,,,,,,,,,,,,,,,,,,,,,,,,,,,,,,,,,,,,,,,,,,
,,,,,,,,,,stimuli/images/PICTURE_750.png,HOTEL,5ee98d107b7e63000b9e42b9,06/07/1953,2020-09-12_15h30.36.330,proactive3.2,2020.1.2,MacIntel,60,5f5adea66120081ea0f57a61,5f5c5c5c10ec4844c05129c3,5,,,,,,kettle,,,,,,0,58,58,27,1,3,1,,,,,,,,,,,,,,,,,,,,,,,,,,,,,,,,,,,,,,,,,,,,,,,,,,,,,,,,,,,,,,,,,,,,,,,,,,,
,,?,0.001,0,,,,,,stimuli/images/PICTURE_685.png,PENNY,5ee98d107b7e63000b9e42b9,06/07/1953,2020-09-12_15h30.36.330,proactive3.2,2020.1.2,MacIntel,60,5f5adea66120081ea0f57a61,5f5c5c5c10ec4844c05129c3,5,,,,,,goose,,,,,,,,,,,1,1,0,0,0,4,1,,,,,,,,,,,,,,,,,,,,,,,,,,,,,,,,,,,,,,,,,,,,,,,,,,,,,,,,,,,,,,,,,,,,,,
,,?,0,0,,,,,,stimuli/images/PICTURE_327.png,SERIES,5ee98d107b7e63000b9e42b9,06/07/1953,2020-09-12_15h30.36.330,proactive3.2,2020.1.2,MacIntel,60,5f5adea66120081ea0f57a61,5f5c5c5c10ec4844c05129c3,5,,,,,,helmet,,,,,,,,,,,1,1,0,1,1,3,1,,,,,,,,,,,,,,,,,,,,,,,,,,,,,,,,,,,,,,,,,,,,,,,,,,,,,,,,,,,,,,,,,,,,,,
,,?,0,0,,,,,,stimuli/images/PICTURE_380.png,CANDY,5ee98d107b7e63000b9e42b9,06/07/1953,2020-09-12_15h30.36.330,proactive3.2,2020.1.2,MacIntel,60,5f5adea66120081ea0f57a61,5f5c5c5c10ec4844c05129c3,5,,,,,,gorilla,,,,,,,,,,,1,1,0,2,2,0,1,,,,,,,,,,,,,,,,,,,,,,,,,,,,,,,,,,,,,,,,,,,,,,,,,,,,,,,,,,,,,,,,,,,,,,
,,?,0,0,,,,,,stimuli/images/PICTURE_42.png,BOYS,5ee98d107b7e63000b9e42b9,06/07/1953,2020-09-12_15h30.36.330,proactive3.2,2020.1.2,MacIntel,60,5f5adea66120081ea0f57a61,5f5c5c5c10ec4844c05129c3,5,,,,,,pear,,,,,,,,,,,6,1,0,3,3,55,1,,,,,,,,,,,,,,,,,,,,,,,,,,,,,,,,,,,,,,,,,,,,,,,,,,,,,,,,,,,,,,,,,,,,,,
,,HONEY,2.935,1,,,,,,stimuli/images/PICTURE_95.png,HONEY,5ee98d107b7e63000b9e42b9,06/07/1953,2020-09-12_15h30.36.330,proactive3.2,2020.1.2,MacIntel,60,5f5adea66120081ea0f57a61,5f5c5c5c10ec4844c05129c3,5,,,,,,suitcase,,,,,,,,,,,5,1,0,4,4,44,1,,,,,,,,,,,,,,,,,,,,,,,,,,,,,,,,,,,,,,,,,,,,,,,,,,,,,,,,,,,,,,,,,,,,,,
,,WRITER,2.655,1,,,,,,stimuli/images/PICTURE_177.png,WRITER,5ee98d107b7e63000b9e42b9,06/07/1953,2020-09-12_15h30.36.330,proactive3.2,2020.1.2,MacIntel,60,5f5adea66120081ea0f57a61,5f5c5c5c10ec4844c05129c3,5,,,,,,mushroom,,,,,,,,,,,5,1,0,5,5,41,1,,,,,,,,,,,,,,,,,,,,,,,,,,,,,,,,,,,,,,,,,,,,,,,,,,,,,,,,,,,,,,,,,,,,,,
,,?,0,0,,,,,,stimuli/images/PICTURE_340.png,LETTER,5ee98d107b7e63000b9e42b9,06/07/1953,2020-09-12_15h30.36.330,proactive3.2,2020.1.2,MacIntel,60,5f5adea66120081ea0f57a61,5f5c5c5c10ec4844c05129c3,5,,,,,,mirror,,,,,,,,,,,3,1,0,6,6,24,1,,,,,,,,,,,,,,,,,,,,,,,,,,,,,,,,,,,,,,,,,,,,,,,,,,,,,,,,,,,,,,,,,,,,,,
,,?,0,0,,,,,,stimuli/images/PICTURE_108.png,FLIGHT,5ee98d107b7e63000b9e42b9,06/07/1953,2020-09-12_15h30.36.330,proactive3.2,2020.1.2,MacIntel,60,5f5adea66120081ea0f57a61,5f5c5c5c10ec4844c05129c3,5,,,,,,calendar,,,,,,,,,,,6,1,0,7,7,59,1,,,,,,,,,,,,,,,,,,,,,,,,,,,,,,,,,,,,,,,,,,,,,,,,,,,,,,,,,,,,,,,,,,,,,,
,,?,0,0,,,,,,stimuli/images/PICTURE_208.png,SYSTEM,5ee98d107b7e63000b9e42b9,06/07/1953,2020-09-12_15h30.36.330,proactive3.2,2020.1.2,MacIntel,60,5f5adea66120081ea0f57a61,5f5c5c5c10ec4844c05129c3,5,,,,,,microphone,,,,,,,,,,,4,1,0,8,8,32,1,,,,,,,,,,,,,,,,,,,,,,,,,,,,,,,,,,,,,,,,,,,,,,,,,,,,,,,,,,,,,,,,,,,,,,
,,?,0.001,0,,,,,,stimuli/images/PICTURE_68.png,MILE,5ee98d107b7e63000b9e42b9,06/07/1953,2020-09-12_15h30.36.330,proactive3.2,2020.1.2,MacIntel,60,5f5adea66120081ea0f57a61,5f5c5c5c10ec4844c05129c3,5,,,,,,candle,,,,,,,,,,,6,1,0,9,9,51,1,,,,,,,,,,,,,,,,,,,,,,,,,,,,,,,,,,,,,,,,,,,,,,,,,,,,,,,,,,,,,,,,,,,,,,
,,?,0,0,,,,,,stimuli/images/PICTURE_308.png,FAMILY,5ee98d107b7e63000b9e42b9,06/07/1953,2020-09-12_15h30.36.330,proactive3.2,2020.1.2,MacIntel,60,5f5adea66120081ea0f57a61,5f5c5c5c10ec4844c05129c3,5,,,,,,dice,,,,,,,,,,,4,1,0,10,10,36,1,,,,,,,,,,,,,,,,,,,,,,,,,,,,,,,,,,,,,,,,,,,,,,,,,,,,,,,,,,,,,,,,,,,,,,
,,?,0,0,,,,,,stimuli/images/PICTURE_32.png,KIND,5ee98d107b7e63000b9e42b9,06/07/1953,2020-09-12_15h30.36.330,proactive3.2,2020.1.2,MacIntel,60,5f5adea66120081ea0f57a61,5f5c5c5c10ec4844c05129c3,5,,,,,,crown,,,,,,,,,,,4,1,0,11,11,35,1,,,,,,,,,,,,,,,,,,,,,,,,,,,,,,,,,,,,,,,,,,,,,,,,,,,,,,,,,,,,,,,,,,,,,,
,,?,0,0,,,,,,stimuli/images/PICTURE_469.png,AGENT,5ee98d107b7e63000b9e42b9,06/07/1953,2020-09-12_15h30.36.330,proactive3.2,2020.1.2,MacIntel,60,5f5adea66120081ea0f57a61,5f5c5c5c10ec4844c05129c3,5,,,,,,stool,,,,,,,,,,,2,1,0,12,12,16,1,,,,,,,,,,,,,,,,,,,,,,,,,,,,,,,,,,,,,,,,,,,,,,,,,,,,,,,,,,,,,,,,,,,,,,
,,?,0.001,0,,,,,,stimuli/images/PICTURE_33.png,FRIEND,5ee98d107b7e63000b9e42b9,06/07/1953,2020-09-12_15h30.36.330,proactive3.2,2020.1.2,MacIntel,60,5f5adea66120081ea0f57a61,5f5c5c5c10ec4844c05129c3,5,,,,,,frame,,,,,,,,,,,1,1,0,13,13,8,1,,,,,,,,,,,,,,,,,,,,,,,,,,,,,,,,,,,,,,,,,,,,,,,,,,,,,,,,,,,,,,,,,,,,,,
,,?,0,0,,,,,,stimuli/images/PICTURE_2.png,FLIGHT,5ee98d107b7e63000b9e42b9,06/07/1953,2020-09-12_15h30.36.330,proactive3.2,2020.1.2,MacIntel,60,5f5adea66120081ea0f57a61,5f5c5c5c10ec4844c05129c3,5,,,,,,tyre,,,,,,,,,,,2,1,0,14,14,15,1,,,,,,,,,,,,,,,,,,,,,,,,,,,,,,,,,,,,,,,,,,,,,,,,,,,,,,,,,,,,,,,,,,,,,,
,,SALE,6.336,1,,,,,,stimuli/images/PICTURE_675.png,SALE,5ee98d107b7e63000b9e42b9,06/07/1953,2020-09-12_15h30.36.330,proactive3.2,2020.1.2,MacIntel,60,5f5adea66120081ea0f57a61,5f5c5c5c10ec4844c05129c3,5,,,,,,windmill,,,,,,,,,,,5,1,0,15,15,47,1,,,,,,,,,,,,,,,,,,,,,,,,,,,,,,,,,,,,,,,,,,,,,,,,,,,,,,,,,,,,,,,,,,,,,,
,,?,0.001,0,,,,,,stimuli/images/PICTURE_203.png,NIGHT,5ee98d107b7e63000b9e42b9,06/07/1953,2020-09-12_15h30.36.330,proactive3.2,2020.1.2,MacIntel,60,5f5adea66120081ea0f57a61,5f5c5c5c10ec4844c05129c3,5,,,,,,cap,,,,,,,,,,,1,1,0,16,16,2,1,,,,,,,,,,,,,,,,,,,,,,,,,,,,,,,,,,,,,,,,,,,,,,,,,,,,,,,,,,,,,,,,,,,,,,
,,?,0,0,,,,,,stimuli/images/PICTURE_327.png,CASINO,5ee98d107b7e63000b9e42b9,06/07/1953,2020-09-12_15h30.36.330,proactive3.2,2020.1.2,MacIntel,60,5f5adea66120081ea0f57a61,5f5c5c5c10ec4844c05129c3,5,,,,,,helmet,,,,,,,,,,,3,1,0,17,17,20,1,,,,,,,,,,,,,,,,,,,,,,,,,,,,,,,,,,,,,,,,,,,,,,,,,,,,,,,,,,,,,,,,,,,,,,
,,?,0,0,,,,,,stimuli/images/PICTURE_340.png,VALLEY,5ee98d107b7e63000b9e42b9,06/07/1953,2020-09-12_15h30.36.330,proactive3.2,2020.1.2,MacIntel,60,5f5adea66120081ea0f57a61,5f5c5c5c10ec4844c05129c3,5,,,,,,mirror,,,,,,,,,,,6,1,0,18,18,54,1,,,,,,,,,,,,,,,,,,,,,,,,,,,,,,,,,,,,,,,,,,,,,,,,,,,,,,,,,,,,,,,,,,,,,,
,,?,0,0,,,,,,stimuli/images/PICTURE_744.png,WEAPON,5ee98d107b7e63000b9e42b9,06/07/1953,2020-09-12_15h30.36.330,proactive3.2,2020.1.2,MacIntel,60,5f5adea66120081ea0f57a61,5f5c5c5c10ec4844c05129c3,5,,,,,,ring,,,,,,,,,,,6,1,0,19,19,50,1,,,,,,,,,,,,,,,,,,,,,,,,,,,,,,,,,,,,,,,,,,,,,,,,,,,,,,,,,,,,,,,,,,,,,,
,,?,0,0,,,,,,stimuli/images/PICTURE_405.png,YEAR,5ee98d107b7e63000b9e42b9,06/07/1953,2020-09-12_15h30.36.330,proactive3.2,2020.1.2,MacIntel,60,5f5adea66120081ea0f57a61,5f5c5c5c10ec4844c05129c3,5,,,,,,anchor,,,,,,,,,,,4,1,0,20,20,34,1,,,,,,,,,,,,,,,,,,,,,,,,,,,,,,,,,,,,,,,,,,,,,,,,,,,,,,,,,,,,,,,,,,,,,,
,,?,0.001,0,,,,,,stimuli/images/PICTURE_85.png,NATION,5ee98d107b7e63000b9e42b9,06/07/1953,2020-09-12_15h30.36.330,proactive3.2,2020.1.2,MacIntel,60,5f5adea66120081ea0f57a61,5f5c5c5c10ec4844c05129c3,5,,,,,,diamond,,,,,,,,,,,1,1,0,21,21,5,1,,,,,,,,,,,,,,,,,,,,,,,,,,,,,,,,,,,,,,,,,,,,,,,,,,,,,,,,,,,,,,,,,,,,,,
,,?,0,0,,,,,,stimuli/images/PICTURE_403.png,TOILET,5ee98d107b7e63000b9e42b9,06/07/1953,2020-09-12_15h30.36.330,proactive3.2,2020.1.2,MacIntel,60,5f5adea66120081ea0f57a61,5f5c5c5c10ec4844c05129c3,5,,,,,,cathedral,,,,,,,,,,,3,1,0,22,22,25,1,,,,,,,,,,,,,,,,,,,,,,,,,,,,,,,,,,,,,,,,,,,,,,,,,,,,,,,,,,,,,,,,,,,,,,
,,?,0,0,,,,,,stimuli/images/PICTURE_491.png,GLASS,5ee98d107b7e63000b9e42b9,06/07/1953,2020-09-12_15h30.36.330,proactive3.2,2020.1.2,MacIntel,60,5f5adea66120081ea0f57a61,5f5c5c5c10ec4844c05129c3,5,,,,,,rug,,,,,,,,,,,2,1,0,23,23,14,1,,,,,,,,,,,,,,,,,,,,,,,,,,,,,,,,,,,,,,,,,,,,,,,,,,,,,,,,,,,,,,,,,,,,,,
,,?,0,0,,,,,,stimuli/images/PICTURE_285.png,LIFE,5ee98d107b7e63000b9e42b9,06/07/1953,2020-09-12_15h30.36.330,proactive3.2,2020.1.2,MacIntel,60,5f5adea66120081ea0f57a61,5f5c5c5c10ec4844c05129c3,5,,,,,,carrot,,,,,,,,,,,4,1,0,24,24,33,1,,,,,,,,,,,,,,,,,,,,,,,,,,,,,,,,,,,,,,,,,,,,,,,,,,,,,,,,,,,,,,,,,,,,,,
,,?,0.001,0,,,,,,stimuli/images/PICTURE_564.png,BATH,5ee98d107b7e63000b9e42b9,06/07/1953,2020-09-12_15h30.36.330,proactive3.2,2020.1.2,MacIntel,60,5f5adea66120081ea0f57a61,5f5c5c5c10ec4844c05129c3,5,,,,,,spoon,,,,,,,,,,,3,1,0,25,25,26,1,,,,,,,,,,,,,,,,,,,,,,,,,,,,,,,,,,,,,,,,,,,,,,,,,,,,,,,,,,,,,,,,,,,,,,
,,?,0,0,,,,,,stimuli/images/PICTURE_108.png,POLICY,5ee98d107b7e63000b9e42b9,06/07/1953,2020-09-12_15h30.36.330,proactive3.2,2020.1.2,MacIntel,60,5f5adea66120081ea0f57a61,5f5c5c5c10ec4844c05129c3,5,,,,,,calendar,,,,,,,,,,,3,1,0,26,26,22,1,,,,,,,,,,,,,,,,,,,,,,,,,,,,,,,,,,,,,,,,,,,,,,,,,,,,,,,,,,,,,,,,,,,,,,
,,?,0.001,0,,,,,,stimuli/images/PICTURE_708.png,RECORD,5ee98d107b7e63000b9e42b9,06/07/1953,2020-09-12_15h30.36.330,proactive3.2,2020.1.2,MacIntel,60,5f5adea66120081ea0f57a61,5f5c5c5c10ec4844c05129c3,5,,,,,,monkey,,,,,,,,,,,6,1,0,27,27,58,1,,,,,,,,,,,,,,,,,,,,,,,,,,,,,,,,,,,,,,,,,,,,,,,,,,,,,,,,,,,,,,,,,,,,,,
,,?,0.001,0,,,,,,stimuli/images/PICTURE_147.png,YEAR,5ee98d107b7e63000b9e42b9,06/07/1953,2020-09-12_15h30.36.330,proactive3.2,2020.1.2,MacIntel,60,5f5adea66120081ea0f57a61,5f5c5c5c10ec4844c05129c3,5,,,,,,hanger,,,,,,,,,,,3,1,0,28,28,21,1,,,,,,,,,,,,,,,,,,,,,,,,,,,,,,,,,,,,,,,,,,,,,,,,,,,,,,,,,,,,,,,,,,,,,,
,,?,0,0,,,,,,stimuli/images/PICTURE_296.png,LIFE,5ee98d107b7e63000b9e42b9,06/07/1953,2020-09-12_15h30.36.330,proactive3.2,2020.1.2,MacIntel,60,5f5adea66120081ea0f57a61,5f5c5c5c10ec4844c05129c3,5,,,,,,bolt,,,,,,,,,,,6,1,0,29,29,57,1,,,,,,,,,,,,,,,,,,,,,,,,,,,,,,,,,,,,,,,,,,,,,,,,,,,,,,,,,,,,,,,,,,,,,,
,,?,0,0,,,,,,stimuli/images/PICTURE_339.png,CLIENT,5ee98d107b7e63000b9e42b9,06/07/1953,2020-09-12_15h30.36.330,proactive3.2,2020.1.2,MacIntel,60,5f5adea66120081ea0f57a61,5f5c5c5c10ec4844c05129c3,5,,,,,,backpack,,,,,,,,,,,2,1,0,30,30,11,1,,,,,,,,,,,,,,,,,,,,,,,,,,,,,,,,,,,,,,,,,,,,,,,,,,,,,,,,,,,,,,,,,,,,,,
,,?,0,0,,,,,,stimuli/images/PICTURE_403.png,WRITER,5ee98d107b7e63000b9e42b9,06/07/1953,2020-09-12_15h30.36.330,proactive3.2,2020.1.2,MacIntel,60,5f5adea66120081ea0f57a61,5f5c5c5c10ec4844c05129c3,5,,,,,,cathedral,,,,,,,,,,,4,1,0,31,31,31,1,,,,,,,,,,,,,,,,,,,,,,,,,,,,,,,,,,,,,,,,,,,,,,,,,,,,,,,,,,,,,,,,,,,,,,
,,GIRL,1.949,1,,,,,,stimuli/images/PICTURE_487.png,GIRL,5ee98d107b7e63000b9e42b9,06/07/1953,2020-09-12_15h30.36.330,proactive3.2,2020.1.2,MacIntel,60,5f5adea66120081ea0f57a61,5f5c5c5c10ec4844c05129c3,5,,,,,,basket,,,,,,,,,,,5,1,0,32,32,45,1,,,,,,,,,,,,,,,,,,,,,,,,,,,,,,,,,,,,,,,,,,,,,,,,,,,,,,,,,,,,,,,,,,,,,,
,,?,0.001,0,,,,,,stimuli/images/PICTURE_296.png,LOTS,5ee98d107b7e63000b9e42b9,06/07/1953,2020-09-12_15h30.36.330,proactive3.2,2020.1.2,MacIntel,60,5f5adea66120081ea0f57a61,5f5c5c5c10ec4844c05129c3,5,,,,,,bolt,,,,,,,,,,,1,1,0,33,33,9,1,,,,,,,,,,,,,,,,,,,,,,,,,,,,,,,,,,,,,,,,,,,,,,,,,,,,,,,,,,,,,,,,,,,,,,
,,?,0,0,,,,,,stimuli/images/PICTURE_750.png,HOTEL,5ee98d107b7e63000b9e42b9,06/07/1953,2020-09-12_15h30.36.330,proactive3.2,2020.1.2,MacIntel,60,5f5adea66120081ea0f57a61,5f5c5c5c10ec4844c05129c3,5,,,,,,kettle,,,,,,,,,,,3,1,0,34,34,27,1,,,,,,,,,,,,,,,,,,,,,,,,,,,,,,,,,,,,,,,,,,,,,,,,,,,,,,,,,,,,,,,,,,,,,,
,,?,0.001,0,,,,,,stimuli/images/PICTURE_491.png,RIVER,5ee98d107b7e63000b9e42b9,06/07/1953,2020-09-12_15h30.36.330,proactive3.2,2020.1.2,MacIntel,60,5f5adea66120081ea0f57a61,5f5c5c5c10ec4844c05129c3,5,,,,,,rug,,,,,,,,,,,1,1,0,35,35,6,1,,,,,,,,,,,,,,,,,,,,,,,,,,,,,,,,,,,,,,,,,,,,,,,,,,,,,,,,,,,,,,,,,,,,,,
,,?,0,0,,,,,,stimuli/images/PICTURE_32.png,PILLS,5ee98d107b7e63000b9e42b9,06/07/1953,2020-09-12_15h30.36.330,proactive3.2,2020.1.2,MacIntel,60,5f5adea66120081ea0f57a61,5f5c5c5c10ec4844c05129c3,5,,,,,,crown,,,,,,,,,,,2,1,0,36,36,18,1,,,,,,,,,,,,,,,,,,,,,,,,,,,,,,,,,,,,,,,,,,,,,,,,,,,,,,,,,,,,,,,,,,,,,,
,,SERIES,1.751,1,,,,,,stimuli/images/PICTURE_383.png,SERIES,5ee98d107b7e63000b9e42b9,06/07/1953,2020-09-12_15h30.36.330,proactive3.2,2020.1.2,MacIntel,60,5f5adea66120081ea0f57a61,5f5c5c5c10ec4844c05129c3,5,,,,,,coin,,,,,,,,,,,5,1,0,37,37,46,1,,,,,,,,,,,,,,,,,,,,,,,,,,,,,,,,,,,,,,,,,,,,,,,,,,,,,,,,,,,,,,,,,,,,,,
,,?,0,0,,,,,,stimuli/images/PICTURE_147.png,WOMEN,5ee98d107b7e63000b9e42b9,06/07/1953,2020-09-12_15h30.36.330,proactive3.2,2020.1.2,MacIntel,60,5f5adea66120081ea0f57a61,5f5c5c5c10ec4844c05129c3,5,,,,,,hanger,,,,,,,,,,,1,1,0,38,38,7,1,,,,,,,,,,,,,,,,,,,,,,,,,,,,,,,,,,,,,,,,,,,,,,,,,,,,,,,,,,,,,,,,,,,,,,
,,?,0,0,,,,,,stimuli/images/PICTURE_380.png,HONEY,5ee98d107b7e63000b9e42b9,06/07/1953,2020-09-12_15h30.36.330,proactive3.2,2020.1.2,MacIntel,60,5f5adea66120081ea0f57a61,5f5c5c5c10ec4844c05129c3,5,,,,,,gorilla,,,,,,,,,,,2,1,0,39,39,19,1,,,,,,,,,,,,,,,,,,,,,,,,,,,,,,,,,,,,,,,,,,,,,,,,,,,,,,,,,,,,,,,,,,,,,,
,,?,0.001,0,,,,,,stimuli/images/PICTURE_57.png,MOMENT,5ee98d107b7e63000b9e42b9,06/07/1953,2020-09-12_15h30.36.330,proactive3.2,2020.1.2,MacIntel,60,5f5adea66120081ea0f57a61,5f5c5c5c10ec4844c05129c3,5,,,,,,stamp,,,,,,,,,,,4,1,0,40,40,37,1,,,,,,,,,,,,,,,,,,,,,,,,,,,,,,,,,,,,,,,,,,,,,,,,,,,,,,,,,,,,,,,,,,,,,,
,,?,0,0,,,,,,stimuli/images/PICTURE_467.png,POLICY,5ee98d107b7e63000b9e42b9,06/07/1953,2020-09-12_15h30.36.330,proactive3.2,2020.1.2,MacIntel,60,5f5adea66120081ea0f57a61,5f5c5c5c10ec4844c05129c3,5,,,,,,peg,,,,,,,,,,,6,1,0,41,41,53,1,,,,,,,,,,,,,,,,,,,,,,,,,,,,,,,,,,,,,,,,,,,,,,,,,,,,,,,,,,,,,,,,,,,,,,
,,ARTIST,2.46,1,,,,,,stimuli/images/PICTURE_504.png,ARTIST,5ee98d107b7e63000b9e42b9,06/07/1953,2020-09-12_15h30.36.330,proactive3.2,2020.1.2,MacIntel,60,5f5adea66120081ea0f57a61,5f5c5c5c10ec4844c05129c3,5,,,,,,wheel,,,,,,,,,,,5,1,0,42,42,49,1,,,,,,,,,,,,,,,,,,,,,,,,,,,,,,,,,,,,,,,,,,,,,,,,,,,,,,,,,,,,,,,,,,,,,,
,,?,0.001,0,,,,,,stimuli/images/PICTURE_504.png,COPS,5ee98d107b7e63000b9e42b9,06/07/1953,2020-09-12_15h30.36.330,proactive3.2,2020.1.2,MacIntel,60,5f5adea66120081ea0f57a61,5f5c5c5c10ec4844c05129c3,5,,,,,,wheel,,,,,,,,,,,6,1,0,43,43,52,1,,,,,,,,,,,,,,,,,,,,,,,,,,,,,,,,,,,,,,,,,,,,,,,,,,,,,,,,,,,,,,,,,,,,,,
,,APPLE,2.654,1,,,,,,stimuli/images/PICTURE_677.png,APPLE,5ee98d107b7e63000b9e42b9,06/07/1953,2020-09-12_15h30.36.330,proactive3.2,2020.1.2,MacIntel,60,5f5adea66120081ea0f57a61,5f5c5c5c10ec4844c05129c3,5,,,,,,map,,,,,,,,,,,5,1,0,44,44,43,1,,,,,,,,,,,,,,,,,,,,,,,,,,,,,,,,,,,,,,,,,,,,,,,,,,,,,,,,,,,,,,,,,,,,,,
,,?,0,0,,,,,,stimuli/images/PICTURE_297.png,RIVER,5ee98d107b7e63000b9e42b9,06/07/1953,2020-09-12_15h30.36.330,proactive3.2,2020.1.2,MacIntel,60,5f5adea66120081ea0f57a61,5f5c5c5c10ec4844c05129c3,5,,,,,,aeroplane,,,,,,,,,,,4,1,0,45,45,39,1,,,,,,,,,,,,,,,,,,,,,,,,,,,,,,,,,,,,,,,,,,,,,,,,,,,,,,,,,,,,,,,,,,,,,,
,,?,0,0,,,,,,stimuli/images/PICTURE_504.png,YEAR,5ee98d107b7e63000b9e42b9,06/07/1953,2020-09-12_15h30.36.330,proactive3.2,2020.1.2,MacIntel,60,5f5adea66120081ea0f57a61,5f5c5c5c10ec4844c05129c3,5,,,,,,wheel,,,,,,,,,,,2,1,0,46,46,13,1,,,,,,,,,,,,,,,,,,,,,,,,,,,,,,,,,,,,,,,,,,,,,,,,,,,,,,,,,,,,,,,,,,,,,,
,,TOILET,2.941,1,,,,,,stimuli/images/PICTURE_85.png,TOILET,5ee98d107b7e63000b9e42b9,06/07/1953,2020-09-12_15h30.36.330,proactive3.2,2020.1.2,MacIntel,60,5f5adea66120081ea0f57a61,5f5c5c5c10ec4844c05129c3,5,,,,,,diamond,,,,,,,,,,,5,1,0,47,47,48,1,,,,,,,,,,,,,,,,,,,,,,,,,,,,,,,,,,,,,,,,,,,,,,,,,,,,,,,,,,,,,,,,,,,,,,
,,?,0.002,0,,,,,,stimuli/images/PICTURE_68.png,ROOF,5ee98d107b7e63000b9e42b9,06/07/1953,2020-09-12_15h30.36.330,proactive3.2,2020.1.2,MacIntel,60,5f5adea66120081ea0f57a61,5f5c5c5c10ec4844c05129c3,5,,,,,,candle,,,,,,,,,,,4,1,0,48,48,38,1,,,,,,,,,,,,,,,,,,,,,,,,,,,,,,,,,,,,,,,,,,,,,,,,,,,,,,,,,,,,,,,,,,,,,,
,,?,0.002,0,,,,,,stimuli/images/PICTURE_654.png,MONTH,5ee98d107b7e63000b9e42b9,06/07/1953,2020-09-12_15h30.36.330,proactive3.2,2020.1.2,MacIntel,60,5f5adea66120081ea0f57a61,5f5c5c5c10ec4844c05129c3,5,,,,,,pencil,,,,,,,,,,,3,1,0,49,49,29,1,,,,,,,,,,,,,,,,,,,,,,,,,,,,,,,,,,,,,,,,,,,,,,,,,,,,,,,,,,,,,,,,,,,,,,
,,?,0.001,0,,,,,,stimuli/images/PICTURE_383.png,WRITER,5ee98d107b7e63000b9e42b9,06/07/1953,2020-09-12_15h30.36.330,proactive3.2,2020.1.2,MacIntel,60,5f5adea66120081ea0f57a61,5f5c5c5c10ec4844c05129c3,5,,,,,,coin,,,,,,,,,,,3,1,0,50,50,28,1,,,,,,,,,,,,,,,,,,,,,,,,,,,,,,,,,,,,,,,,,,,,,,,,,,,,,,,,,,,,,,,,,,,,,,
,,LOTS,1.562,1,,,,,,stimuli/images/PICTURE_233.png,LOTS,5ee98d107b7e63000b9e42b9,06/07/1953,2020-09-12_15h30.36.330,proactive3.2,2020.1.2,MacIntel,60,5f5adea66120081ea0f57a61,5f5c5c5c10ec4844c05129c3,5,,,,,,salt,,,,,,,,,,,5,1,0,51,51,42,1,,,,,,,,,,,,,,,,,,,,,,,,,,,,,,,,,,,,,,,,,,,,,,,,,,,,,,,,,,,,,,,,,,,,,,
,,?,0.001,0,,,,,,stimuli/images/PICTURE_203.png,GODS,5ee98d107b7e63000b9e42b9,06/07/1953,2020-09-12_15h30.36.330,proactive3.2,2020.1.2,MacIntel,60,5f5adea66120081ea0f57a61,5f5c5c5c10ec4844c05129c3,5,,,,,,cap,,,,,,,,,,,4,1,0,52,52,30,1,,,,,,,,,,,,,,,,,,,,,,,,,,,,,,,,,,,,,,,,,,,,,,,,,,,,,,,,,,,,,,,,,,,,,,
,,?,0,0,,,,,,stimuli/images/PICTURE_655.png,TOILET,5ee98d107b7e63000b9e42b9,06/07/1953,2020-09-12_15h30.36.330,proactive3.2,2020.1.2,MacIntel,60,5f5adea66120081ea0f57a61,5f5c5c5c10ec4844c05129c3,5,,,,,,megaphone,,,,,,,,,,,2,1,0,53,53,12,1,,,,,,,,,,,,,,,,,,,,,,,,,,,,,,,,,,,,,,,,,,,,,,,,,,,,,,,,,,,,,,,,,,,,,,
,,?,0,0,,,,,,stimuli/images/PICTURE_95.png,BOYS,5ee98d107b7e63000b9e42b9,06/07/1953,2020-09-12_15h30.36.330,proactive3.2,2020.1.2,MacIntel,60,5f5adea66120081ea0f57a61,5f5c5c5c10ec4844c05129c3,5,,,,,,suitcase,,,,,,,,,,,1,1,0,54,54,1,1,,,,,,,,,,,,,,,,,,,,,,,,,,,,,,,,,,,,,,,,,,,,,,,,,,,,,,,,,,,,,,,,,,,,,,
,,RIVER,1.918,1,,,,,,stimuli/images/PICTURE_403.png,RIVER,5ee98d107b7e63000b9e42b9,06/07/1953,2020-09-12_15h30.36.330,proactive3.2,2020.1.2,MacIntel,60,5f5adea66120081ea0f57a61,5f5c5c5c10ec4844c05129c3,5,,,,,,cathedral,,,,,,,,,,,5,1,0,55,55,40,1,,,,,,,,,,,,,,,,,,,,,,,,,,,,,,,,,,,,,,,,,,,,,,,,,,,,,,,,,,,,,,,,,,,,,,
,,?,0.001,0,,,,,,stimuli/images/PICTURE_405.png,PLENTY,5ee98d107b7e63000b9e42b9,06/07/1953,2020-09-12_15h30.36.330,proactive3.2,2020.1.2,MacIntel,60,5f5adea66120081ea0f57a61,5f5c5c5c10ec4844c05129c3,5,,,,,,anchor,,,,,,,,,,,3,1,0,56,56,23,1,,,,,,,,,,,,,,,,,,,,,,,,,,,,,,,,,,,,,,,,,,,,,,,,,,,,,,,,,,,,,,,,,,,,,,
,,?,0.001,0,,,,,,stimuli/images/PICTURE_667.png,RIVER,5ee98d107b7e63000b9e42b9,06/07/1953,2020-09-12_15h30.36.330,proactive3.2,2020.1.2,MacIntel,60,5f5adea66120081ea0f57a61,5f5c5c5c10ec4844c05129c3,5,,,,,,daisy,,,,,,,,,,,2,1,0,57,57,10,1,,,,,,,,,,,,,,,,,,,,,,,,,,,,,,,,,,,,,,,,,,,,,,,,,,,,,,,,,,,,,,,,,,,,,,
,,?,0,0,,,,,,stimuli/images/PICTURE_449.png,DUDE,5ee98d107b7e63000b9e42b9,06/07/1953,2020-09-12_15h30.36.330,proactive3.2,2020.1.2,MacIntel,60,5f5adea66120081ea0f57a61,5f5c5c5c10ec4844c05129c3,5,,,,,,bench,,,,,,,,,,,2,1,0,58,58,17,1,,,,,,,,,,,,,,,,,,,,,,,,,,,,,,,,,,,,,,,,,,,,,,,,,,,,,,,,,,,,,,,,,,,,,,
,,?,0,0,,,,,,stimuli/images/PICTURE_95.png,MILLER,5ee98d107b7e63000b9e42b9,06/07/1953,2020-09-12_15h30.36.330,proactive3.2,2020.1.2,MacIntel,60,5f5adea66120081ea0f57a61,5f5c5c5c10ec4844c05129c3,5,,,,,,suitcase,,,,,,,,,,,6,1,0,59,59,56,1,,,,,,,,,,,,,,,,,,,,,,,,,,,,,,,,,,,,,,,,,,,,,,,,,,,,,,,,,,,,,,,,,,,,,,
,,,,,,,,,,,,5ee98d107b7e63000b9e42b9,06/07/1953,2020-09-12_15h30.36.330,proactive3.2,2020.1.2,MacIntel,60,5f5adea66120081ea0f57a61,5f5c5c5c10ec4844c05129c3,5,,,,,,,,,,,,,,,,,,,,,,,,0,1,1,1,1,stimuli/learn-block2.csv,,,,,,,,,,,,,,,,,,,,,,,,,,,,,,,,,,,,,,,,,,,,,,,,,,,,,,,,,,,,,,,,
,,,,,,,,,,stimuli/images/PICTURE_208.png,MONTH,5ee98d107b7e63000b9e42b9,06/07/1953,2020-09-12_15h30.36.330,proactive3.2,2020.1.2,MacIntel,60,5f5adea66120081ea0f57a61,5f5c5c5c10ec4844c05129c3,5,,,,,,microphone,,,,,,0,0,0,53,1,6,0,,,,,,,,,,,,,,,,,,,,,,,,,,,,,,,,,,,,,,,,,,,,,,,,,,,,,,,,,,,,,,,,,,,,,,,,,,,
,,,,,,,,,,stimuli/images/PICTURE_708.png,PENNY,5ee98d107b7e63000b9e42b9,06/07/1953,2020-09-12_15h30.36.330,proactive3.2,2020.1.2,MacIntel,60,5f5adea66120081ea0f57a61,5f5c5c5c10ec4844c05129c3,5,,,,,,monkey,,,,,,0,1,1,31,1,4,0,,,,,,,,,,,,,,,,,,,,,,,,,,,,,,,,,,,,,,,,,,,,,,,,,,,,,,,,,,,,,,,,,,,,,,,,,,,
,,,,,,,,,,stimuli/images/PICTURE_449.png,THING,5ee98d107b7e63000b9e42b9,06/07/1953,2020-09-12_15h30.36.330,proactive3.2,2020.1.2,MacIntel,60,5f5adea66120081ea0f57a61,5f5c5c5c10ec4844c05129c3,5,,,,,,bench,,,,,,0,2,2,59,1,6,0,,,,,,,,,,,,,,,,,,,,,,,,,,,,,,,,,,,,,,,,,,,,,,,,,,,,,,,,,,,,,,,,,,,,,,,,,,,
,,,,,,,,,,stimuli/images/PICTURE_491.png,ROOF,5ee98d107b7e63000b9e42b9,06/07/1953,2020-09-12_15h30.36.330,proactive3.2,2020.1.2,MacIntel,60,5f5adea66120081ea0f57a61,5f5c5c5c10ec4844c05129c3,5,,,,,,rug,,,,,,0,3,3,24,1,3,0,,,,,,,,,,,,,,,,,,,,,,,,,,,,,,,,,,,,,,,,,,,,,,,,,,,,,,,,,,,,,,,,,,,,,,,,,,,
,,,,,,,,,,stimuli/images/PICTURE_160.png,FEET,5ee98d107b7e63000b9e42b9,06/07/1953,2020-09-12_15h30.36.330,proactive3.2,2020.1.2,MacIntel,60,5f5adea66120081ea0f57a61,5f5c5c5c10ec4844c05129c3,5,,,,,,wheelbarrow,,,,,,0,4,4,58,1,6,0,,,,,,,,,,,,,,,,,,,,,,,,,,,,,,,,,,,,,,,,,,,,,,,,,,,,,,,,,,,,,,,,,,,,,,,,,,,
,,,,,,,,,,stimuli/images/PICTURE_744.png,SYSTEM,5ee98d107b7e63000b9e42b9,06/07/1953,2020-09-12_15h30.36.330,proactive3.2,2020.1.2,MacIntel,60,5f5adea66120081ea0f57a61,5f5c5c5c10ec4844c05129c3,5,,,,,,ring,,,,,,0,5,5,43,1,5,0,,,,,,,,,,,,,,,,,,,,,,,,,,,,,,,,,,,,,,,,,,,,,,,,,,,,,,,,,,,,,,,,,,,,,,,,,,,
,,,,,,,,,,stimuli/images/PICTURE_208.png,THING,5ee98d107b7e63000b9e42b9,06/07/1953,2020-09-12_15h30.36.330,proactive3.2,2020.1.2,MacIntel,60,5f5adea66120081ea0f57a61,5f5c5c5c10ec4844c05129c3,5,,,,,,microphone,,,,,,0,6,6,47,1,5,0,,,,,,,,,,,,,,,,,,,,,,,,,,,,,,,,,,,,,,,,,,,,,,,,,,,,,,,,,,,,,,,,,,,,,,,,,,,
,,,,,,,,,,stimuli/images/PICTURE_327.png,BEAUTY,5ee98d107b7e63000b9e42b9,06/07/1953,2020-09-12_15h30.36.330,proactive3.2,2020.1.2,MacIntel,60,5f5adea66120081ea0f57a61,5f5c5c5c10ec4844c05129c3,5,,,,,,helmet,,,,,,0,7,7,48,1,5,0,,,,,,,,,,,,,,,,,,,,,,,,,,,,,,,,,,,,,,,,,,,,,,,,,,,,,,,,,,,,,,,,,,,,,,,,,,,
,,,,,,,,,,stimuli/images/PICTURE_469.png,ARTIST,5ee98d107b7e63000b9e42b9,06/07/1953,2020-09-12_15h30.36.330,proactive3.2,2020.1.2,MacIntel,60,5f5adea66120081ea0f57a61,5f5c5c5c10ec4844c05129c3,5,,,,,,stool,,,,,,0,8,8,6,1,1,0,,,,,,,,,,,,,,,,,,,,,,,,,,,,,,,,,,,,,,,,,,,,,,,,,,,,,,,,,,,,,,,,,,,,,,,,,,,
,,,,,,,,,,stimuli/images/PICTURE_453.png,PLENTY,5ee98d107b7e63000b9e42b9,06/07/1953,2020-09-12_15h30.36.330,proactive3.2,2020.1.2,MacIntel,60,5f5adea66120081ea0f57a61,5f5c5c5c10ec4844c05129c3,5,,,,,,scissors,,,,,,0,9,9,56,1,6,0,,,,,,,,,,,,,,,,,,,,,,,,,,,,,,,,,,,,,,,,,,,,,,,,,,,,,,,,,,,,,,,,,,,,,,,,,,,
,,,,,,,,,,stimuli/images/PICTURE_147.png,MOMENT,5ee98d107b7e63000b9e42b9,06/07/1953,2020-09-12_15h30.36.330,proactive3.2,2020.1.2,MacIntel,60,5f5adea66120081ea0f57a61,5f5c5c5c10ec4844c05129c3,5,,,,,,hanger,,,,,,0,10,10,51,1,6,0,,,,,,,,,,,,,,,,,,,,,,,,,,,,,,,,,,,,,,,,,,,,,,,,,,,,,,,,,,,,,,,,,,,,,,,,,,,
,,,,,,,,,,stimuli/images/PICTURE_123.png,ADVICE,5ee98d107b7e63000b9e42b9,06/07/1953,2020-09-12_15h30.36.330,proactive3.2,2020.1.2,MacIntel,60,5f5adea66120081ea0f57a61,5f5c5c5c10ec4844c05129c3,5,,,,,,dart,,,,,,0,11,11,40,1,5,0,,,,,,,,,,,,,,,,,,,,,,,,,,,,,,,,,,,,,,,,,,,,,,,,,,,,,,,,,,,,,,,,,,,,,,,,,,,
,,,,,,,,,,stimuli/images/PICTURE_177.png,CARS,5ee98d107b7e63000b9e42b9,06/07/1953,2020-09-12_15h30.36.330,proactive3.2,2020.1.2,MacIntel,60,5f5adea66120081ea0f57a61,5f5c5c5c10ec4844c05129c3,5,,,,,,mushroom,,,,,,0,12,12,35,1,4,0,,,,,,,,,,,,,,,,,,,,,,,,,,,,,,,,,,,,,,,,,,,,,,,,,,,,,,,,,,,,,,,,,,,,,,,,,,,
,,,,,,,,,,stimuli/images/PICTURE_744.png,SAKE,5ee98d107b7e63000b9e42b9,06/07/1953,2020-09-12_15h30.36.330,proactive3.2,2020.1.2,MacIntel,60,5f5adea66120081ea0f57a61,5f5c5c5c10ec4844c05129c3,5,,,,,,ring,,,,,,0,13,13,17,1,2,0,,,,,,,,,,,,,,,,,,,,,,,,,,,,,,,,,,,,,,,,,,,,,,,,,,,,,,,,,,,,,,,,,,,,,,,,,,,
,,,,,,,,,,stimuli/images/PICTURE_68.png,MILE,5ee98d107b7e63000b9e42b9,06/07/1953,2020-09-12_15h30.36.330,proactive3.2,2020.1.2,MacIntel,60,5f5adea66120081ea0f57a61,5f5c5c5c10ec4844c05129c3,5,,,,,,candle,,,,,,0,14,14,44,1,5,0,,,,,,,,,,,,,,,,,,,,,,,,,,,,,,,,,,,,,,,,,,,,,,,,,,,,,,,,,,,,,,,,,,,,,,,,,,,
,,,,,,,,,,stimuli/images/PICTURE_677.png,MILE,5ee98d107b7e63000b9e42b9,06/07/1953,2020-09-12_15h30.36.330,proactive3.2,2020.1.2,MacIntel,60,5f5adea66120081ea0f57a61,5f5c5c5c10ec4844c05129c3,5,,,,,,map,,,,,,0,15,15,30,1,4,0,,,,,,,,,,,,,,,,,,,,,,,,,,,,,,,,,,,,,,,,,,,,,,,,,,,,,,,,,,,,,,,,,,,,,,,,,,,
,,,,,,,,,,stimuli/images/PICTURE_509.png,PHOTO,5ee98d107b7e63000b9e42b9,06/07/1953,2020-09-12_15h30.36.330,proactive3.2,2020.1.2,MacIntel,60,5f5adea66120081ea0f57a61,5f5c5c5c10ec4844c05129c3,5,,,,,,telephone,,,,,,0,16,16,21,1,3,0,,,,,,,,,,,,,,,,,,,,,,,,,,,,,,,,,,,,,,,,,,,,,,,,,,,,,,,,,,,,,,,,,,,,,,,,,,,
,,,,,,,,,,stimuli/images/PICTURE_469.png,LETTER,5ee98d107b7e63000b9e42b9,06/07/1953,2020-09-12_15h30.36.330,proactive3.2,2020.1.2,MacIntel,60,5f5adea66120081ea0f57a61,5f5c5c5c10ec4844c05129c3,5,,,,,,stool,,,,,,0,17,17,42,1,5,0,,,,,,,,,,,,,,,,,,,,,,,,,,,,,,,,,,,,,,,,,,,,,,,,,,,,,,,,,,,,,,,,,,,,,,,,,,,
,,,,,,,,,,stimuli/images/PICTURE_504.png,BODY,5ee98d107b7e63000b9e42b9,06/07/1953,2020-09-12_15h30.36.330,proactive3.2,2020.1.2,MacIntel,60,5f5adea66120081ea0f57a61,5f5c5c5c10ec4844c05129c3,5,,,,,,wheel,,,,,,0,18,18,8,1,1,0,,,,,,,,,,,,,,,,,,,,,,,,,,,,,,,,,,,,,,,,,,,,,,,,,,,,,,,,,,,,,,,,,,,,,,,,,,,
,,,,,,,,,,stimuli/images/PICTURE_308.png,KIND,5ee98d107b7e63000b9e42b9,06/07/1953,2020-09-12_15h30.36.330,proactive3.2,2020.1.2,MacIntel,60,5f5adea66120081ea0f57a61,5f5c5c5c10ec4844c05129c3,5,,,,,,dice,,,,,,0,19,19,54,1,6,0,,,,,,,,,,,,,,,,,,,,,,,,,,,,,,,,,,,,,,,,,,,,,,,,,,,,,,,,,,,,,,,,,,,,,,,,,,,
,,,,,,,,,,stimuli/images/PICTURE_160.png,LEADER,5ee98d107b7e63000b9e42b9,06/07/1953,2020-09-12_15h30.36.330,proactive3.2,2020.1.2,MacIntel,60,5f5adea66120081ea0f57a61,5f5c5c5c10ec4844c05129c3,5,,,,,,wheelbarrow,,,,,,0,20,20,3,1,1,0,,,,,,,,,,,,,,,,,,,,,,,,,,,,,,,,,,,,,,,,,,,,,,,,,,,,,,,,,,,,,,,,,,,,,,,,,,,
,,,,,,,,,,stimuli/images/PICTURE_470.png,CASINO,5ee98d107b7e63000b9e42b9,06/07/1953,2020-09-12_15h30.36.330,proactive3.2,2020.1.2,MacIntel,60,5f5adea66120081ea0f57a61,5f5c5c5c10ec4844c05129c3,5,,,,,,motorbike,,,,,,0,21,21,36,1,4,0,,,,,,,,,,,,,,,,,,,,,,,,,,,,,,,,,,,,,,,,,,,,,,,,,,,,,,,,,,,,,,,,,,,,,,,,,,,
,,,,,,,,,,stimuli/images/PICTURE_453.png,DUDE,5ee98d107b7e63000b9e42b9,06/07/1953,2020-09-12_15h30.36.330,proactive3.2,2020.1.2,MacIntel,60,5f5adea66120081ea0f57a61,5f5c5c5c10ec4844c05129c3,5,,,,,,scissors,,,,,,0,22,22,27,1,3,0,,,,,,,,,,,,,,,,,,,,,,,,,,,,,,,,,,,,,,,,,,,,,,,,,,,,,,,,,,,,,,,,,,,,,,,,,,,
,,,,,,,,,,stimuli/images/PICTURE_233.png,WOMEN,5ee98d107b7e63000b9e42b9,06/07/1953,2020-09-12_15h30.36.330,proactive3.2,2020.1.2,MacIntel,60,5f5adea66120081ea0f57a61,5f5c5c5c10ec4844c05129c3,5,,,,,,salt,,,,,,0,23,23,38,1,4,0,,,,,,,,,,,,,,,,,,,,,,,,,,,,,,,,,,,,,,,,,,,,,,,,,,,,,,,,,,,,,,,,,,,,,,,,,,,
,,,,,,,,,,stimuli/images/PICTURE_654.png,VALLEY,5ee98d107b7e63000b9e42b9,06/07/1953,2020-09-12_15h30.36.330,proactive3.2,2020.1.2,MacIntel,60,5f5adea66120081ea0f57a61,5f5c5c5c10ec4844c05129c3,5,,,,,,pencil,,,,,,0,24,24,1,1,1,0,,,,,,,,,,,,,,,,,,,,,,,,,,,,,,,,,,,,,,,,,,,,,,,,,,,,,,,,,,,,,,,,,,,,,,,,,,,
,,,,,,,,,,stimuli/images/PICTURE_215.png,PLENTY,5ee98d107b7e63000b9e42b9,06/07/1953,2020-09-12_15h30.36.330,proactive3.2,2020.1.2,MacIntel,60,5f5adea66120081ea0f57a61,5f5c5c5c10ec4844c05129c3,5,,,,,,boot,,,,,,0,25,25,37,1,4,0,,,,,,,,,,,,,,,,,,,,,,,,,,,,,,,,,,,,,,,,,,,,,,,,,,,,,,,,,,,,,,,,,,,,,,,,,,,
,,,,,,,,,,stimuli/images/PICTURE_285.png,ADVICE,5ee98d107b7e63000b9e42b9,06/07/1953,2020-09-12_15h30.36.330,proactive3.2,2020.1.2,MacIntel,60,5f5adea66120081ea0f57a61,5f5c5c5c10ec4844c05129c3,5,,,,,,carrot,,,,,,0,26,26,12,1,2,0,,,,,,,,,,,,,,,,,,,,,,,,,,,,,,,,,,,,,,,,,,,,,,,,,,,,,,,,,,,,,,,,,,,,,,,,,,,
,,,,,,,,,,stimuli/images/PICTURE_311.png,FRIEND,5ee98d107b7e63000b9e42b9,06/07/1953,2020-09-12_15h30.36.330,proactive3.2,2020.1.2,MacIntel,60,5f5adea66120081ea0f57a61,5f5c5c5c10ec4844c05129c3,5,,,,,,razor,,,,,,0,27,27,34,1,4,0,,,,,,,,,,,,,,,,,,,,,,,,,,,,,,,,,,,,,,,,,,,,,,,,,,,,,,,,,,,,,,,,,,,,,,,,,,,
,,,,,,,,,,stimuli/images/PICTURE_380.png,DEATH,5ee98d107b7e63000b9e42b9,06/07/1953,2020-09-12_15h30.36.330,proactive3.2,2020.1.2,MacIntel,60,5f5adea66120081ea0f57a61,5f5c5c5c10ec4844c05129c3,5,,,,,,gorilla,,,,,,0,28,28,49,1,5,0,,,,,,,,,,,,,,,,,,,,,,,,,,,,,,,,,,,,,,,,,,,,,,,,,,,,,,,,,,,,,,,,,,,,,,,,,,,
,,,,,,,,,,stimuli/images/PICTURE_248.png,DOZEN,5ee98d107b7e63000b9e42b9,06/07/1953,2020-09-12_15h30.36.330,proactive3.2,2020.1.2,MacIntel,60,5f5adea66120081ea0f57a61,5f5c5c5c10ec4844c05129c3,5,,,,,,cart,,,,,,0,29,29,39,1,4,0,,,,,,,,,,,,,,,,,,,,,,,,,,,,,,,,,,,,,,,,,,,,,,,,,,,,,,,,,,,,,,,,,,,,,,,,,,,
,,,,,,,,,,stimuli/images/PICTURE_151.png,GIRL,5ee98d107b7e63000b9e42b9,06/07/1953,2020-09-12_15h30.36.330,proactive3.2,2020.1.2,MacIntel,60,5f5adea66120081ea0f57a61,5f5c5c5c10ec4844c05129c3,5,,,,,,tray,,,,,,0,30,30,19,1,2,0,,,,,,,,,,,,,,,,,,,,,,,,,,,,,,,,,,,,,,,,,,,,,,,,,,,,,,,,,,,,,,,,,,,,,,,,,,,
,,,,,,,,,,stimuli/images/PICTURE_667.png,BATH,5ee98d107b7e63000b9e42b9,06/07/1953,2020-09-12_15h30.36.330,proactive3.2,2020.1.2,MacIntel,60,5f5adea66120081ea0f57a61,5f5c5c5c10ec4844c05129c3,5,,,,,,daisy,,,,,,0,31,31,4,1,1,0,,,,,,,,,,,,,,,,,,,,,,,,,,,,,,,,,,,,,,,,,,,,,,,,,,,,,,,,,,,,,,,,,,,,,,,,,,,
,,,,,,,,,,stimuli/images/PICTURE_487.png,FLIGHT,5ee98d107b7e63000b9e42b9,06/07/1953,2020-09-12_15h30.36.330,proactive3.2,2020.1.2,MacIntel,60,5f5adea66120081ea0f57a61,5f5c5c5c10ec4844c05129c3,5,,,,,,basket,,,,,,0,32,32,9,1,1,0,,,,,,,,,,,,,,,,,,,,,,,,,,,,,,,,,,,,,,,,,,,,,,,,,,,,,,,,,,,,,,,,,,,,,,,,,,,
,,,,,,,,,,stimuli/images/PICTURE_675.png,WEAPON,5ee98d107b7e63000b9e42b9,06/07/1953,2020-09-12_15h30.36.330,proactive3.2,2020.1.2,MacIntel,60,5f5adea66120081ea0f57a61,5f5c5c5c10ec4844c05129c3,5,,,,,,windmill,,,,,,0,33,33,32,1,4,0,,,,,,,,,,,,,,,,,,,,,,,,,,,,,,,,,,,,,,,,,,,,,,,,,,,,,,,,,,,,,,,,,,,,,,,,,,,
,,,,,,,,,,stimuli/images/PICTURE_339.png,PLENTY,5ee98d107b7e63000b9e42b9,06/07/1953,2020-09-12_15h30.36.330,proactive3.2,2020.1.2,MacIntel,60,5f5adea66120081ea0f57a61,5f5c5c5c10ec4844c05129c3,5,,,,,,backpack,,,,,,0,34,34,0,1,1,0,,,,,,,,,,,,,,,,,,,,,,,,,,,,,,,,,,,,,,,,,,,,,,,,,,,,,,,,,,,,,,,,,,,,,,,,,,,
,,,,,,,,,,stimuli/images/PICTURE_314.png,GODS,5ee98d107b7e63000b9e42b9,06/07/1953,2020-09-12_15h30.36.330,proactive3.2,2020.1.2,MacIntel,60,5f5adea66120081ea0f57a61,5f5c5c5c10ec4844c05129c3,5,,,,,,perfume,,,,,,0,35,35,11,1,2,0,,,,,,,,,,,,,,,,,,,,,,,,,,,,,,,,,,,,,,,,,,,,,,,,,,,,,,,,,,,,,,,,,,,,,,,,,,,
,,,,,,,,,,stimuli/images/PICTURE_123.png,ADVICE,5ee98d107b7e63000b9e42b9,06/07/1953,2020-09-12_15h30.36.330,proactive3.2,2020.1.2,MacIntel,60,5f5adea66120081ea0f57a61,5f5c5c5c10ec4844c05129c3,5,,,,,,dart,,,,,,0,36,36,50,1,6,0,,,,,,,,,,,,,,,,,,,,,,,,,,,,,,,,,,,,,,,,,,,,,,,,,,,,,,,,,,,,,,,,,,,,,,,,,,,
,,,,,,,,,,stimuli/images/PICTURE_708.png,YARD,5ee98d107b7e63000b9e42b9,06/07/1953,2020-09-12_15h30.36.330,proactive3.2,2020.1.2,MacIntel,60,5f5adea66120081ea0f57a61,5f5c5c5c10ec4844c05129c3,5,,,,,,monkey,,,,,,0,37,37,29,1,3,0,,,,,,,,,,,,,,,,,,,,,,,,,,,,,,,,,,,,,,,,,,,,,,,,,,,,,,,,,,,,,,,,,,,,,,,,,,,
,,,,,,,,,,stimuli/images/PICTURE_708.png,CLIENT,5ee98d107b7e63000b9e42b9,06/07/1953,2020-09-12_15h30.36.330,proactive3.2,2020.1.2,MacIntel,60,5f5adea66120081ea0f57a61,5f5c5c5c10ec4844c05129c3,5,,,,,,monkey,,,,,,0,38,38,5,1,1,0,,,,,,,,,,,,,,,,,,,,,,,,,,,,,,,,,,,,,,,,,,,,,,,,,,,,,,,,,,,,,,,,,,,,,,,,,,,
,,,,,,,,,,stimuli/images/PICTURE_688.png,WOMEN,5ee98d107b7e63000b9e42b9,06/07/1953,2020-09-12_15h30.36.330,proactive3.2,2020.1.2,MacIntel,60,5f5adea66120081ea0f57a61,5f5c5c5c10ec4844c05129c3,5,,,,,,runner,,,,,,0,39,39,14,1,2,0,,,,,,,,,,,,,,,,,,,,,,,,,,,,,,,,,,,,,,,,,,,,,,,,,,,,,,,,,,,,,,,,,,,,,,,,,,,
,,,,,,,,,,stimuli/images/PICTURE_203.png,ARTIST,5ee98d107b7e63000b9e42b9,06/07/1953,2020-09-12_15h30.36.330,proactive3.2,2020.1.2,MacIntel,60,5f5adea66120081ea0f57a61,5f5c5c5c10ec4844c05129c3,5,,,,,,cap,,,,,,0,40,40,26,1,3,0,,,,,,,,,,,,,,,,,,,,,,,,,,,,,,,,,,,,,,,,,,,,,,,,,,,,,,,,,,,,,,,,,,,,,,,,,,,
,,,,,,,,,,stimuli/images/PICTURE_692.png,MONTH,5ee98d107b7e63000b9e42b9,06/07/1953,2020-09-12_15h30.36.330,proactive3.2,2020.1.2,MacIntel,60,5f5adea66120081ea0f57a61,5f5c5c5c10ec4844c05129c3,5,,,,,,cherry,,,,,,0,41,41,16,1,2,0,,,,,,,,,,,,,,,,,,,,,,,,,,,,,,,,,,,,,,,,,,,,,,,,,,,,,,,,,,,,,,,,,,,,,,,,,,,
,,,,,,,,,,stimuli/images/PICTURE_302.png,FAMILY,5ee98d107b7e63000b9e42b9,06/07/1953,2020-09-12_15h30.36.330,proactive3.2,2020.1.2,MacIntel,60,5f5adea66120081ea0f57a61,5f5c5c5c10ec4844c05129c3,5,,,,,,taxi,,,,,,0,42,42,18,1,2,0,,,,,,,,,,,,,,,,,,,,,,,,,,,,,,,,,,,,,,,,,,,,,,,,,,,,,,,,,,,,,,,,,,,,,,,,,,,
,,,,,,,,,,stimuli/images/PICTURE_491.png,WRITER,5ee98d107b7e63000b9e42b9,06/07/1953,2020-09-12_15h30.36.330,proactive3.2,2020.1.2,MacIntel,60,5f5adea66120081ea0f57a61,5f5c5c5c10ec4844c05129c3,5,,,,,,rug,,,,,,0,43,43,57,1,6,0,,,,,,,,,,,,,,,,,,,,,,,,,,,,,,,,,,,,,,,,,,,,,,,,,,,,,,,,,,,,,,,,,,,,,,,,,,,
,,,,,,,,,,stimuli/images/PICTURE_85.png,THING,5ee98d107b7e63000b9e42b9,06/07/1953,2020-09-12_15h30.36.330,proactive3.2,2020.1.2,MacIntel,60,5f5adea66120081ea0f57a61,5f5c5c5c10ec4844c05129c3,5,,,,,,diamond,,,,,,0,44,44,15,1,2,0,,,,,,,,,,,,,,,,,,,,,,,,,,,,,,,,,,,,,,,,,,,,,,,,,,,,,,,,,,,,,,,,,,,,,,,,,,,
,,,,,,,,,,stimuli/images/PICTURE_314.png,SAKE,5ee98d107b7e63000b9e42b9,06/07/1953,2020-09-12_15h30.36.330,proactive3.2,2020.1.2,MacIntel,60,5f5adea66120081ea0f57a61,5f5c5c5c10ec4844c05129c3,5,,,,,,perfume,,,,,,0,45,45,7,1,1,0,,,,,,,,,,,,,,,,,,,,,,,,,,,,,,,,,,,,,,,,,,,,,,,,,,,,,,,,,,,,,,,,,,,,,,,,,,,
,,,,,,,,,,stimuli/images/PICTURE_255.png,AREA,5ee98d107b7e63000b9e42b9,06/07/1953,2020-09-12_15h30.36.330,proactive3.2,2020.1.2,MacIntel,60,5f5adea66120081ea0f57a61,5f5c5c5c10ec4844c05129c3,5,,,,,,shovel,,,,,,0,46,46,22,1,3,0,,,,,,,,,,,,,,,,,,,,,,,,,,,,,,,,,,,,,,,,,,,,,,,,,,,,,,,,,,,,,,,,,,,,,,,,,,,
,,,,,,,,,,stimuli/images/PICTURE_208.png,LOTS,5ee98d107b7e63000b9e42b9,06/07/1953,2020-09-12_15h30.36.330,proactive3.2,2020.1.2,MacIntel,60,5f5adea66120081ea0f57a61,5f5c5c5c10ec4844c05129c3,5,,,,,,microphone,,,,,,0,47,47,10,1,2,0,,,,,,,,,,,,,,,,,,,,,,,,,,,,,,,,,,,,,,,,,,,,,,,,,,,,,,,,,,,,,,,,,,,,,,,,,,,
,,,,,,,,,,stimuli/images/PICTURE_356.png,DANGER,5ee98d107b7e63000b9e42b9,06/07/1953,2020-09-12_15h30.36.330,proactive3.2,2020.1.2,MacIntel,60,5f5adea66120081ea0f57a61,5f5c5c5c10ec4844c05129c3,5,,,,,,pawn,,,,,,0,48,48,55,1,6,0,,,,,,,,,,,,,,,,,,,,,,,,,,,,,,,,,,,,,,,,,,,,,,,,,,,,,,,,,,,,,,,,,,,,,,,,,,,
,,,,,,,,,,stimuli/images/PICTURE_95.png,STYLE,5ee98d107b7e63000b9e42b9,06/07/1953,2020-09-12_15h30.36.330,proactive3.2,2020.1.2,MacIntel,60,5f5adea66120081ea0f57a61,5f5c5c5c10ec4844c05129c3,5,,,,,,suitcase,,,,,,0,49,49,25,1,3,0,,,,,,,,,,,,,,,,,,,,,,,,,,,,,,,,,,,,,,,,,,,,,,,,,,,,,,,,,,,,,,,,,,,,,,,,,,,
,,,,,,,,,,stimuli/images/PICTURE_233.png,IDEAS,5ee98d107b7e63000b9e42b9,06/07/1953,2020-09-12_15h30.36.330,proactive3.2,2020.1.2,MacIntel,60,5f5adea66120081ea0f57a61,5f5c5c5c10ec4844c05129c3,5,,,,,,salt,,,,,,0,50,50,28,1,3,0,,,,,,,,,,,,,,,,,,,,,,,,,,,,,,,,,,,,,,,,,,,,,,,,,,,,,,,,,,,,,,,,,,,,,,,,,,,
,,,,,,,,,,stimuli/images/PICTURE_467.png,DEMON,5ee98d107b7e63000b9e42b9,06/07/1953,2020-09-12_15h30.36.330,proactive3.2,2020.1.2,MacIntel,60,5f5adea66120081ea0f57a61,5f5c5c5c10ec4844c05129c3,5,,,,,,peg,,,,,,0,51,51,23,1,3,0,,,,,,,,,,,,,,,,,,,,,,,,,,,,,,,,,,,,,,,,,,,,,,,,,,,,,,,,,,,,,,,,,,,,,,,,,,,
,,,,,,,,,,stimuli/images/PICTURE_348.png,SPEECH,5ee98d107b7e63000b9e42b9,06/07/1953,2020-09-12_15h30.36.330,proactive3.2,2020.1.2,MacIntel,60,5f5adea66120081ea0f57a61,5f5c5c5c10ec4844c05129c3,5,,,,,,pepper,,,,,,0,52,52,20,1,3,0,,,,,,,,,,,,,,,,,,,,,,,,,,,,,,,,,,,,,,,,,,,,,,,,,,,,,,,,,,,,,,,,,,,,,,,,,,,
,,,,,,,,,,stimuli/images/PICTURE_32.png,JUNGLE,5ee98d107b7e63000b9e42b9,06/07/1953,2020-09-12_15h30.36.330,proactive3.2,2020.1.2,MacIntel,60,5f5adea66120081ea0f57a61,5f5c5c5c10ec4844c05129c3,5,,,,,,crown,,,,,,0,53,53,45,1,5,0,,,,,,,,,,,,,,,,,,,,,,,,,,,,,,,,,,,,,,,,,,,,,,,,,,,,,,,,,,,,,,,,,,,,,,,,,,,
,,,,,,,,,,stimuli/images/PICTURE_667.png,PLENTY,5ee98d107b7e63000b9e42b9,06/07/1953,2020-09-12_15h30.36.330,proactive3.2,2020.1.2,MacIntel,60,5f5adea66120081ea0f57a61,5f5c5c5c10ec4844c05129c3,5,,,,,,daisy,,,,,,0,54,54,41,1,5,0,,,,,,,,,,,,,,,,,,,,,,,,,,,,,,,,,,,,,,,,,,,,,,,,,,,,,,,,,,,,,,,,,,,,,,,,,,,
,,,,,,,,,,stimuli/images/PICTURE_688.png,CASINO,5ee98d107b7e63000b9e42b9,06/07/1953,2020-09-12_15h30.36.330,proactive3.2,2020.1.2,MacIntel,60,5f5adea66120081ea0f57a61,5f5c5c5c10ec4844c05129c3,5,,,,,,runner,,,,,,0,55,55,2,1,1,0,,,,,,,,,,,,,,,,,,,,,,,,,,,,,,,,,,,,,,,,,,,,,,,,,,,,,,,,,,,,,,,,,,,,,,,,,,,
,,,,,,,,,,stimuli/images/PICTURE_308.png,ESTATE,5ee98d107b7e63000b9e42b9,06/07/1953,2020-09-12_15h30.36.330,proactive3.2,2020.1.2,MacIntel,60,5f5adea66120081ea0f57a61,5f5c5c5c10ec4844c05129c3,5,,,,,,dice,,,,,,0,56,56,46,1,5,0,,,,,,,,,,,,,,,,,,,,,,,,,,,,,,,,,,,,,,,,,,,,,,,,,,,,,,,,,,,,,,,,,,,,,,,,,,,
,,,,,,,,,,stimuli/images/PICTURE_380.png,PHOTO,5ee98d107b7e63000b9e42b9,06/07/1953,2020-09-12_15h30.36.330,proactive3.2,2020.1.2,MacIntel,60,5f5adea66120081ea0f57a61,5f5c5c5c10ec4844c05129c3,5,,,,,,gorilla,,,,,,0,57,57,52,1,6,0,,,,,,,,,,,,,,,,,,,,,,,,,,,,,,,,,,,,,,,,,,,,,,,,,,,,,,,,,,,,,,,,,,,,,,,,,,,
,,,,,,,,,,stimuli/images/PICTURE_311.png,BEAUTY,5ee98d107b7e63000b9e42b9,06/07/1953,2020-09-12_15h30.36.330,proactive3.2,2020.1.2,MacIntel,60,5f5adea66120081ea0f57a61,5f5c5c5c10ec4844c05129c3,5,,,,,,razor,,,,,,0,58,58,13,1,2,0,,,,,,,,,,,,,,,,,,,,,,,,,,,,,,,,,,,,,,,,,,,,,,,,,,,,,,,,,,,,,,,,,,,,,,,,,,,
,,?,0.001,0,,,,,,stimuli/images/PICTURE_449.png,THING,5ee98d107b7e63000b9e42b9,06/07/1953,2020-09-12_15h30.36.330,proactive3.2,2020.1.2,MacIntel,60,5f5adea66120081ea0f57a61,5f5c5c5c10ec4844c05129c3,5,,,,,,bench,,,,,,,,,,,6,0,0,0,0,59,1,,,,,,,,,,,,,,,,,,,,,,,,,,,,,,,,,,,,,,,,,,,,,,,,,,,,,,,,,,,,,,,,,,,,,,
,,?,0,0,,,,,,stimuli/images/PICTURE_348.png,SPEECH,5ee98d107b7e63000b9e42b9,06/07/1953,2020-09-12_15h30.36.330,proactive3.2,2020.1.2,MacIntel,60,5f5adea66120081ea0f57a61,5f5c5c5c10ec4844c05129c3,5,,,,,,pepper,,,,,,,,,,,3,0,0,1,1,20,1,,,,,,,,,,,,,,,,,,,,,,,,,,,,,,,,,,,,,,,,,,,,,,,,,,,,,,,,,,,,,,,,,,,,,,
,,?,0.001,0,,,,,,stimuli/images/PICTURE_160.png,FEET,5ee98d107b7e63000b9e42b9,06/07/1953,2020-09-12_15h30.36.330,proactive3.2,2020.1.2,MacIntel,60,5f5adea66120081ea0f57a61,5f5c5c5c10ec4844c05129c3,5,,,,,,wheelbarrow,,,,,,,,,,,6,0,0,2,2,58,1,,,,,,,,,,,,,,,,,,,,,,,,,,,,,,,,,,,,,,,,,,,,,,,,,,,,,,,,,,,,,,,,,,,,,,
,,DEATH,2.638,1,,,,,,stimuli/images/PICTURE_380.png,DEATH,5ee98d107b7e63000b9e42b9,06/07/1953,2020-09-12_15h30.36.330,proactive3.2,2020.1.2,MacIntel,60,5f5adea66120081ea0f57a61,5f5c5c5c10ec4844c05129c3,5,,,,,,gorilla,,,,,,,,,,,5,0,0,3,3,49,1,,,,,,,,,,,,,,,,,,,,,,,,,,,,,,,,,,,,,,,,,,,,,,,,,,,,,,,,,,,,,,,,,,,,,,
,,?,0,0,,,,,,stimuli/images/PICTURE_208.png,LOTS,5ee98d107b7e63000b9e42b9,06/07/1953,2020-09-12_15h30.36.330,proactive3.2,2020.1.2,MacIntel,60,5f5adea66120081ea0f57a61,5f5c5c5c10ec4844c05129c3,5,,,,,,microphone,,,,,,,,,,,2,0,0,4,4,10,1,,,,,,,,,,,,,,,,,,,,,,,,,,,,,,,,,,,,,,,,,,,,,,,,,,,,,,,,,,,,,,,,,,,,,,
,,?,0,0,,,,,,stimuli/images/PICTURE_380.png,PHOTO,5ee98d107b7e63000b9e42b9,06/07/1953,2020-09-12_15h30.36.330,proactive3.2,2020.1.2,MacIntel,60,5f5adea66120081ea0f57a61,5f5c5c5c10ec4844c05129c3,5,,,,,,gorilla,,,,,,,,,,,6,0,0,5,5,52,1,,,,,,,,,,,,,,,,,,,,,,,,,,,,,,,,,,,,,,,,,,,,,,,,,,,,,,,,,,,,,,,,,,,,,,
,,?,0.001,0,,,,,,stimuli/images/PICTURE_744.png,SAKE,5ee98d107b7e63000b9e42b9,06/07/1953,2020-09-12_15h30.36.330,proactive3.2,2020.1.2,MacIntel,60,5f5adea66120081ea0f57a61,5f5c5c5c10ec4844c05129c3,5,,,,,,ring,,,,,,,,,,,2,0,0,6,6,17,1,,,,,,,,,,,,,,,,,,,,,,,,,,,,,,,,,,,,,,,,,,,,,,,,,,,,,,,,,,,,,,,,,,,,,,
,,?,0,0,,,,,,stimuli/images/PICTURE_285.png,ADVICE,5ee98d107b7e63000b9e42b9,06/07/1953,2020-09-12_15h30.36.330,proactive3.2,2020.1.2,MacIntel,60,5f5adea66120081ea0f57a61,5f5c5c5c10ec4844c05129c3,5,,,,,,carrot,,,,,,,,,,,2,0,0,7,7,12,1,,,,,,,,,,,,,,,,,,,,,,,,,,,,,,,,,,,,,,,,,,,,,,,,,,,,,,,,,,,,,,,,,,,,,,
,,?,0,0,,,,,,stimuli/images/PICTURE_208.png,MONTH,5ee98d107b7e63000b9e42b9,06/07/1953,2020-09-12_15h30.36.330,proactive3.2,2020.1.2,MacIntel,60,5f5adea66120081ea0f57a61,5f5c5c5c10ec4844c05129c3,5,,,,,,microphone,,,,,,,,,,,6,0,0,8,8,53,1,,,,,,,,,,,,,,,,,,,,,,,,,,,,,,,,,,,,,,,,,,,,,,,,,,,,,,,,,,,,,,,,,,,,,,
,,THING,1.727,1,,,,,,stimuli/images/PICTURE_208.png,THING,5ee98d107b7e63000b9e42b9,06/07/1953,2020-09-12_15h30.36.330,proactive3.2,2020.1.2,MacIntel,60,5f5adea66120081ea0f57a61,5f5c5c5c10ec4844c05129c3,5,,,,,,microphone,,,,,,,,,,,5,0,0,9,9,47,1,,,,,,,,,,,,,,,,,,,,,,,,,,,,,,,,,,,,,,,,,,,,,,,,,,,,,,,,,,,,,,,,,,,,,,
,,PLENTY,2.958,1,,,,,,stimuli/images/PICTURE_667.png,PLENTY,5ee98d107b7e63000b9e42b9,06/07/1953,2020-09-12_15h30.36.330,proactive3.2,2020.1.2,MacIntel,60,5f5adea66120081ea0f57a61,5f5c5c5c10ec4844c05129c3,5,,,,,,daisy,,,,,,,,,,,5,0,0,10,10,41,1,,,,,,,,,,,,,,,,,,,,,,,,,,,,,,,,,,,,,,,,,,,,,,,,,,,,,,,,,,,,,,,,,,,,,,
,,?,0.001,0,,,,,,stimuli/images/PICTURE_469.png,ARTIST,5ee98d107b7e63000b9e42b9,06/07/1953,2020-09-12_15h30.36.330,proactive3.2,2020.1.2,MacIntel,60,5f5adea66120081ea0f57a61,5f5c5c5c10ec4844c05129c3,5,,,,,,stool,,,,,,,,,,,1,0,0,11,11,6,1,,,,,,,,,,,,,,,,,,,,,,,,,,,,,,,,,,,,,,,,,,,,,,,,,,,,,,,,,,,,,,,,,,,,,,
,,?,0,0,,,,,,stimuli/images/PICTURE_688.png,WOMEN,5ee98d107b7e63000b9e42b9,06/07/1953,2020-09-12_15h30.36.330,proactive3.2,2020.1.2,MacIntel,60,5f5adea66120081ea0f57a61,5f5c5c5c10ec4844c05129c3,5,,,,,,runner,,,,,,,,,,,2,0,0,12,12,14,1,,,,,,,,,,,,,,,,,,,,,,,,,,,,,,,,,,,,,,,,,,,,,,,,,,,,,,,,,,,,,,,,,,,,,,
