consent_key.keys,consent_key.rt,recalled,recalled_rt,recall_acc,example_recall.thisRepN,example_recall.thisTrialN,example_recall.thisN,example_recall.thisIndex,example_recall.ran,file,word,participant,please enter your date of birth (dd/mm/yyyy),date,expName,psychopyVersion,OS,frameRate,STUDY_ID,SESSION_ID,list,prac_learn_study_loop.thisRepN,prac_learn_study_loop.thisTrialN,prac_learn_study_loop.thisN,prac_learn_study_loop.thisIndex,prac_learn_study_loop.ran,image,prac_learn_test_loop.thisRepN,prac_learn_test_loop.thisTrialN,prac_learn_test_loop.thisN,prac_learn_test_loop.thisIndex,prac_learn_test_loop.ran,learn_study_loop.thisRepN,learn_study_loop.thisTrialN,learn_study_loop.thisN,learn_study_loop.thisIndex,learn_study_loop.ran,list_no,block_no,learn_test_loop.thisRepN,learn_test_loop.thisTrialN,learn_test_loop.thisN,learn_test_loop.thisIndex,learn_test_loop.ran,learn_blocks.thisRepN,learn_blocks.thisTrialN,learn_blocks.thisN,learn_blocks.thisIndex,learn_blocks.ran,block_csv,key_resp_13.keys,key_resp_13.rt,learn_blocks_loop.thisRepN,learn_blocks_loop.thisTrialN,learn_blocks_loop.thisN,learn_blocks_loop.thisIndex,learn_blocks_loop.ran,final_learn_test.thisRepN,final_learn_test.thisTrialN,final_learn_test.thisN,final_learn_test.thisIndex,final_learn_test.ran,prac_wm_test_loop.thisRepN,prac_wm_test_loop.thisTrialN,prac_wm_test_loop.thisN,prac_wm_test_loop.thisIndex,prac_wm_test_loop.ran,wm_recalled1,wm_recall_rt1,wm_probed1,wm_recall_acc1,wm_recalled2,wm_recall_rt2,wm_probed2,wm_recall_acc2,wm_recalled3,wm_recall_rt3,wm_probed3,wm_recall_acc3,wm_recalled4,wm_recall_rt4,wm_probed4,wm_recall_acc4,prac_wm_trial_loop.thisRepN,prac_wm_trial_loop.thisTrialN,prac_wm_trial_loop.thisN,prac_wm_trial_loop.thisIndex,prac_wm_trial_loop.ran,word1,image1,file1,item_type1,word2,image2,file2,item_type2,word4,image4,file4,item_type4,word3,image3,file3,item_type3,wm_test_loop.thisRepN,wm_test_loop.thisTrialN,wm_test_loop.thisN,wm_test_loop.thisIndex,wm_test_loop.ran,wm_trial_loop.thisRepN,wm_trial_loop.thisTrialN,wm_trial_loop.thisN,wm_trial_loop.thisIndex,wm_trial_loop.ran
y,27.409985,TOUGH,6.33973,1,0,0,0,0,1,stimuli/images/PICTURE_747.png,TOUGH,5eea37b60e95520ef6907500,02/12/1954,2020-09-12_09h25.12.039,proactive3.2,2020.1.2,Win32,60,5f5adea66120081ea0f57a61,5f5c85b7a4d19c46c4d4b75a,3,,,,,,,,,,,,,,,,,,,,,,,,,,,,,,,,,,,,,,,,,,,,,,,,,,,,,,,,,,,,,,,,,,,,,,,,,,,,,,,,,,,,,,,,,,,,,
,,,,,,,,,,stimuli/images/PICTURE_658.png,DEVIL,5eea37b60e95520ef6907500,02/12/1954,2020-09-12_09h25.12.039,proactive3.2,2020.1.2,Win32,60,5f5adea66120081ea0f57a61,5f5c85b7a4d19c46c4d4b75a,3,0,0,0,3,1,crow,,,,,,,,,,,,,,,,,,,,,,,,,,,,,,,,,,,,,,,,,,,,,,,,,,,,,,,,,,,,,,,,,,,,,,,,,,,,,,,,,,,,,,,
,,,,,,,,,,stimuli/images/PICTURE_378.png,LOSS,5eea37b60e95520ef6907500,02/12/1954,2020-09-12_09h25.12.039,proactive3.2,2020.1.2,Win32,60,5f5adea66120081ea0f57a61,5f5c85b7a4d19c46c4d4b75a,3,0,1,1,2,1,lobster,,,,,,,,,,,,,,,,,,,,,,,,,,,,,,,,,,,,,,,,,,,,,,,,,,,,,,,,,,,,,,,,,,,,,,,,,,,,,,,,,,,,,,,
,,,,,,,,,,stimuli/images/PICTURE_269.png,GENIUS,5eea37b60e95520ef6907500,02/12/1954,2020-09-12_09h25.12.039,proactive3.2,2020.1.2,Win32,60,5f5adea66120081ea0f57a61,5f5c85b7a4d19c46c4d4b75a,3,0,2,2,0,1,chameleon,,,,,,,,,,,,,,,,,,,,,,,,,,,,,,,,,,,,,,,,,,,,,,,,,,,,,,,,,,,,,,,,,,,,,,,,,,,,,,,,,,,,,,,
,,,,,,,,,,stimuli/images/PICTURE_697.png,KILLER,5eea37b60e95520ef6907500,02/12/1954,2020-09-12_09h25.12.039,proactive3.2,2020.1.2,Win32,60,5f5adea66120081ea0f57a61,5f5c85b7a4d19c46c4d4b75a,3,0,3,3,4,1,peach,,,,,,,,,,,,,,,,,,,,,,,,,,,,,,,,,,,,,,,,,,,,,,,,,,,,,,,,,,,,,,,,,,,,,,,,,,,,,,,,,,,,,,,
,,LOSS,3.90122,0,,,,,,stimuli/images/PICTURE_269.png,GENIUS,5eea37b60e95520ef6907500,02/12/1954,2020-09-12_09h25.12.039,proactive3.2,2020.1.2,Win32,60,5f5adea66120081ea0f57a61,5f5c85b7a4d19c46c4d4b75a,3,,,,,,chameleon,0,0,0,0,1,,,,,,,,,,,,,,,,,,,,,,,,,,,,,,,,,,,,,,,,,,,,,,,,,,,,,,,,,,,,,,,,,,,,,,,,,,,,,,,,,,
,,CELL,9.09184,0,,,,,,stimuli/images/PICTURE_697.png,KILLER,5eea37b60e95520ef6907500,02/12/1954,2020-09-12_09h25.12.039,proactive3.2,2020.1.2,Win32,60,5f5adea66120081ea0f57a61,5f5c85b7a4d19c46c4d4b75a,3,,,,,,peach,0,1,1,4,1,,,,,,,,,,,,,,,,,,,,,,,,,,,,,,,,,,,,,,,,,,,,,,,,,,,,,,,,,,,,,,,,,,,,,,,,,,,,,,,,,,
,,DEVIL,4.77559,1,,,,,,stimuli/images/PICTURE_658.png,DEVIL,5eea37b60e95520ef6907500,02/12/1954,2020-09-12_09h25.12.039,proactive3.2,2020.1.2,Win32,60,5f5adea66120081ea0f57a61,5f5c85b7a4d19c46c4d4b75a,3,,,,,,crow,0,2,2,3,1,,,,,,,,,,,,,,,,,,,,,,,,,,,,,,,,,,,,,,,,,,,,,,,,,,,,,,,,,,,,,,,,,,,,,,,,,,,,,,,,,,
,,CELL,7.75031,1,,,,,,stimuli/images/PICTURE_727.png,CELL,5eea37b60e95520ef6907500,02/12/1954,2020-09-12_09h25.12.039,proactive3.2,2020.1.2,Win32,60,5f5adea66120081ea0f57a61,5f5c85b7a4d19c46c4d4b75a,3,,,,,,hose,0,3,3,1,1,,,,,,,,,,,,,,,,,,,,,,,,,,,,,,,,,,,,,,,,,,,,,,,,,,,,,,,,,,,,,,,,,,,,,,,,,,,,,,,,,,
,,LOSS,4.982035,1,,,,,,stimuli/images/PICTURE_378.png,LOSS,5eea37b60e95520ef6907500,02/12/1954,2020-09-12_09h25.12.039,proactive3.2,2020.1.2,Win32,60,5f5adea66120081ea0f57a61,5f5c85b7a4d19c46c4d4b75a,3,,,,,,lobster,0,4,4,2,1,,,,,,,,,,,,,,,,,,,,,,,,,,,,,,,,,,,,,,,,,,,,,,,,,,,,,,,,,,,,,,,,,,,,,,,,,,,,,,,,,,
,,,,,,,,,,stimuli/images/PICTURE_677.png,PHOTO,5eea37b60e95520ef6907500,02/12/1954,2020-09-12_09h25.12.039,proactive3.2,2020.1.2,Win32,60,5f5adea66120081ea0f57a61,5f5c85b7a4d19c46c4d4b75a,3,,,,,,map,,,,,,0,0,0,14,1,2,2,,,,,,,,,,,,,,,,,,,,,,,,,,,,,,,,,,,,,,,,,,,,,,,,,,,,,,,,,,,,,,,,,,,,,,,,,,,
,,,,,,,,,,stimuli/images/PICTURE_348.png,DUDE,5eea37b60e95520ef6907500,02/12/1954,2020-09-12_09h25.12.039,proactive3.2,2020.1.2,Win32,60,5f5adea66120081ea0f57a61,5f5c85b7a4d19c46c4d4b75a,3,,,,,,pepper,,,,,,0,1,1,59,1,6,2,,,,,,,,,,,,,,,,,,,,,,,,,,,,,,,,,,,,,,,,,,,,,,,,,,,,,,,,,,,,,,,,,,,,,,,,,,,
,,,,,,,,,,stimuli/images/PICTURE_405.png,JUNGLE,5eea37b60e95520ef6907500,02/12/1954,2020-09-12_09h25.12.039,proactive3.2,2020.1.2,Win32,60,5f5adea66120081ea0f57a61,5f5c85b7a4d19c46c4d4b75a,3,,,,,,anchor,,,,,,0,2,2,13,1,2,2,,,,,,,,,,,,,,,,,,,,,,,,,,,,,,,,,,,,,,,,,,,,,,,,,,,,,,,,,,,,,,,,,,,,,,,,,,,
,,,,,,,,,,stimuli/images/PICTURE_491.png,SERIES,5eea37b60e95520ef6907500,02/12/1954,2020-09-12_09h25.12.039,proactive3.2,2020.1.2,Win32,60,5f5adea66120081ea0f57a61,5f5c85b7a4d19c46c4d4b75a,3,,,,,,rug,,,,,,0,3,3,39,1,4,2,,,,,,,,,,,,,,,,,,,,,,,,,,,,,,,,,,,,,,,,,,,,,,,,,,,,,,,,,,,,,,,,,,,,,,,,,,,
,,,,,,,,,,stimuli/images/PICTURE_33.png,COPS,5eea37b60e95520ef6907500,02/12/1954,2020-09-12_09h25.12.039,proactive3.2,2020.1.2,Win32,60,5f5adea66120081ea0f57a61,5f5c85b7a4d19c46c4d4b75a,3,,,,,,frame,,,,,,0,4,4,29,1,3,2,,,,,,,,,,,,,,,,,,,,,,,,,,,,,,,,,,,,,,,,,,,,,,,,,,,,,,,,,,,,,,,,,,,,,,,,,,,
,,,,,,,,,,stimuli/images/PICTURE_160.png,HOTEL,5eea37b60e95520ef6907500,02/12/1954,2020-09-12_09h25.12.039,proactive3.2,2020.1.2,Win32,60,5f5adea66120081ea0f57a61,5f5c85b7a4d19c46c4d4b75a,3,,,,,,wheelbarrow,,,,,,0,5,5,16,1,2,2,,,,,,,,,,,,,,,,,,,,,,,,,,,,,,,,,,,,,,,,,,,,,,,,,,,,,,,,,,,,,,,,,,,,,,,,,,,
,,,,,,,,,,stimuli/images/PICTURE_667.png,GLASS,5eea37b60e95520ef6907500,02/12/1954,2020-09-12_09h25.12.039,proactive3.2,2020.1.2,Win32,60,5f5adea66120081ea0f57a61,5f5c85b7a4d19c46c4d4b75a,3,,,,,,daisy,,,,,,0,6,6,27,1,3,2,,,,,,,,,,,,,,,,,,,,,,,,,,,,,,,,,,,,,,,,,,,,,,,,,,,,,,,,,,,,,,,,,,,,,,,,,,,
,,,,,,,,,,stimuli/images/PICTURE_215.png,LEADER,5eea37b60e95520ef6907500,02/12/1954,2020-09-12_09h25.12.039,proactive3.2,2020.1.2,Win32,60,5f5adea66120081ea0f57a61,5f5c85b7a4d19c46c4d4b75a,3,,,,,,boot,,,,,,0,7,7,43,1,5,2,,,,,,,,,,,,,,,,,,,,,,,,,,,,,,,,,,,,,,,,,,,,,,,,,,,,,,,,,,,,,,,,,,,,,,,,,,,
,,,,,,,,,,stimuli/images/PICTURE_215.png,FOOD,5eea37b60e95520ef6907500,02/12/1954,2020-09-12_09h25.12.039,proactive3.2,2020.1.2,Win32,60,5f5adea66120081ea0f57a61,5f5c85b7a4d19c46c4d4b75a,3,,,,,,boot,,,,,,0,8,8,5,1,1,2,,,,,,,,,,,,,,,,,,,,,,,,,,,,,,,,,,,,,,,,,,,,,,,,,,,,,,,,,,,,,,,,,,,,,,,,,,,
,,,,,,,,,,stimuli/images/PICTURE_285.png,PRINCE,5eea37b60e95520ef6907500,02/12/1954,2020-09-12_09h25.12.039,proactive3.2,2020.1.2,Win32,60,5f5adea66120081ea0f57a61,5f5c85b7a4d19c46c4d4b75a,3,,,,,,carrot,,,,,,0,9,9,20,1,3,2,,,,,,,,,,,,,,,,,,,,,,,,,,,,,,,,,,,,,,,,,,,,,,,,,,,,,,,,,,,,,,,,,,,,,,,,,,,
,,,,,,,,,,stimuli/images/PICTURE_509.png,BATH,5eea37b60e95520ef6907500,02/12/1954,2020-09-12_09h25.12.039,proactive3.2,2020.1.2,Win32,60,5f5adea66120081ea0f57a61,5f5c85b7a4d19c46c4d4b75a,3,,,,,,telephone,,,,,,0,10,10,15,1,2,2,,,,,,,,,,,,,,,,,,,,,,,,,,,,,,,,,,,,,,,,,,,,,,,,,,,,,,,,,,,,,,,,,,,,,,,,,,,
,,,,,,,,,,stimuli/images/PICTURE_509.png,MILLER,5eea37b60e95520ef6907500,02/12/1954,2020-09-12_09h25.12.039,proactive3.2,2020.1.2,Win32,60,5f5adea66120081ea0f57a61,5f5c85b7a4d19c46c4d4b75a,3,,,,,,telephone,,,,,,0,11,11,49,1,5,2,,,,,,,,,,,,,,,,,,,,,,,,,,,,,,,,,,,,,,,,,,,,,,,,,,,,,,,,,,,,,,,,,,,,,,,,,,,
,,,,,,,,,,stimuli/images/PICTURE_177.png,HOUSE,5eea37b60e95520ef6907500,02/12/1954,2020-09-12_09h25.12.039,proactive3.2,2020.1.2,Win32,60,5f5adea66120081ea0f57a61,5f5c85b7a4d19c46c4d4b75a,3,,,,,,mushroom,,,,,,0,12,12,25,1,3,2,,,,,,,,,,,,,,,,,,,,,,,,,,,,,,,,,,,,,,,,,,,,,,,,,,,,,,,,,,,,,,,,,,,,,,,,,,,
,,,,,,,,,,stimuli/images/PICTURE_93.png,GIRL,5eea37b60e95520ef6907500,02/12/1954,2020-09-12_09h25.12.039,proactive3.2,2020.1.2,Win32,60,5f5adea66120081ea0f57a61,5f5c85b7a4d19c46c4d4b75a,3,,,,,,skateboard,,,,,,0,13,13,31,1,4,2,,,,,,,,,,,,,,,,,,,,,,,,,,,,,,,,,,,,,,,,,,,,,,,,,,,,,,,,,,,,,,,,,,,,,,,,,,,
,,,,,,,,,,stimuli/images/PICTURE_564.png,PLENTY,5eea37b60e95520ef6907500,02/12/1954,2020-09-12_09h25.12.039,proactive3.2,2020.1.2,Win32,60,5f5adea66120081ea0f57a61,5f5c85b7a4d19c46c4d4b75a,3,,,,,,spoon,,,,,,0,14,14,11,1,2,2,,,,,,,,,,,,,,,,,,,,,,,,,,,,,,,,,,,,,,,,,,,,,,,,,,,,,,,,,,,,,,,,,,,,,,,,,,,
,,,,,,,,,,stimuli/images/PICTURE_297.png,BODY,5eea37b60e95520ef6907500,02/12/1954,2020-09-12_09h25.12.039,proactive3.2,2020.1.2,Win32,60,5f5adea66120081ea0f57a61,5f5c85b7a4d19c46c4d4b75a,3,,,,,,aeroplane,,,,,,0,15,15,51,1,6,2,,,,,,,,,,,,,,,,,,,,,,,,,,,,,,,,,,,,,,,,,,,,,,,,,,,,,,,,,,,,,,,,,,,,,,,,,,,
,,,,,,,,,,stimuli/images/PICTURE_314.png,SPEECH,5eea37b60e95520ef6907500,02/12/1954,2020-09-12_09h25.12.039,proactive3.2,2020.1.2,Win32,60,5f5adea66120081ea0f57a61,5f5c85b7a4d19c46c4d4b75a,3,,,,,,perfume,,,,,,0,16,16,35,1,4,2,,,,,,,,,,,,,,,,,,,,,,,,,,,,,,,,,,,,,,,,,,,,,,,,,,,,,,,,,,,,,,,,,,,,,,,,,,,
,,,,,,,,,,stimuli/images/PICTURE_2.png,AREA,5eea37b60e95520ef6907500,02/12/1954,2020-09-12_09h25.12.039,proactive3.2,2020.1.2,Win32,60,5f5adea66120081ea0f57a61,5f5c85b7a4d19c46c4d4b75a,3,,,,,,tyre,,,,,,0,17,17,32,1,4,2,,,,,,,,,,,,,,,,,,,,,,,,,,,,,,,,,,,,,,,,,,,,,,,,,,,,,,,,,,,,,,,,,,,,,,,,,,,
,,,,,,,,,,stimuli/images/PICTURE_750.png,POLICY,5eea37b60e95520ef6907500,02/12/1954,2020-09-12_09h25.12.039,proactive3.2,2020.1.2,Win32,60,5f5adea66120081ea0f57a61,5f5c85b7a4d19c46c4d4b75a,3,,,,,,kettle,,,,,,0,18,18,44,1,5,2,,,,,,,,,,,,,,,,,,,,,,,,,,,,,,,,,,,,,,,,,,,,,,,,,,,,,,,,,,,,,,,,,,,,,,,,,,,
,,,,,,,,,,stimuli/images/PICTURE_509.png,APPLE,5eea37b60e95520ef6907500,02/12/1954,2020-09-12_09h25.12.039,proactive3.2,2020.1.2,Win32,60,5f5adea66120081ea0f57a61,5f5c85b7a4d19c46c4d4b75a,3,,,,,,telephone,,,,,,0,19,19,38,1,4,2,,,,,,,,,,,,,,,,,,,,,,,,,,,,,,,,,,,,,,,,,,,,,,,,,,,,,,,,,,,,,,,,,,,,,,,,,,,
,,,,,,,,,,stimuli/images/PICTURE_311.png,TOILET,5eea37b60e95520ef6907500,02/12/1954,2020-09-12_09h25.12.039,proactive3.2,2020.1.2,Win32,60,5f5adea66120081ea0f57a61,5f5c85b7a4d19c46c4d4b75a,3,,,,,,razor,,,,,,0,20,20,54,1,6,2,,,,,,,,,,,,,,,,,,,,,,,,,,,,,,,,,,,,,,,,,,,,,,,,,,,,,,,,,,,,,,,,,,,,,,,,,,,
,,,,,,,,,,stimuli/images/PICTURE_57.png,CASINO,5eea37b60e95520ef6907500,02/12/1954,2020-09-12_09h25.12.039,proactive3.2,2020.1.2,Win32,60,5f5adea66120081ea0f57a61,5f5c85b7a4d19c46c4d4b75a,3,,,,,,stamp,,,,,,0,21,21,12,1,2,2,,,,,,,,,,,,,,,,,,,,,,,,,,,,,,,,,,,,,,,,,,,,,,,,,,,,,,,,,,,,,,,,,,,,,,,,,,,
,,,,,,,,,,stimuli/images/PICTURE_2.png,YARD,5eea37b60e95520ef6907500,02/12/1954,2020-09-12_09h25.12.039,proactive3.2,2020.1.2,Win32,60,5f5adea66120081ea0f57a61,5f5c85b7a4d19c46c4d4b75a,3,,,,,,tyre,,,,,,0,22,22,55,1,6,2,,,,,,,,,,,,,,,,,,,,,,,,,,,,,,,,,,,,,,,,,,,,,,,,,,,,,,,,,,,,,,,,,,,,,,,,,,,
,,,,,,,,,,stimuli/images/PICTURE_215.png,BOYS,5eea37b60e95520ef6907500,02/12/1954,2020-09-12_09h25.12.039,proactive3.2,2020.1.2,Win32,60,5f5adea66120081ea0f57a61,5f5c85b7a4d19c46c4d4b75a,3,,,,,,boot,,,,,,0,23,23,24,1,3,2,,,,,,,,,,,,,,,,,,,,,,,,,,,,,,,,,,,,,,,,,,,,,,,,,,,,,,,,,,,,,,,,,,,,,,,,,,,
,,,,,,,,,,stimuli/images/PICTURE_57.png,NATION,5eea37b60e95520ef6907500,02/12/1954,2020-09-12_09h25.12.039,proactive3.2,2020.1.2,Win32,60,5f5adea66120081ea0f57a61,5f5c85b7a4d19c46c4d4b75a,3,,,,,,stamp,,,,,,0,24,24,21,1,3,2,,,,,,,,,,,,,,,,,,,,,,,,,,,,,,,,,,,,,,,,,,,,,,,,,,,,,,,,,,,,,,,,,,,,,,,,,,,
,,,,,,,,,,stimuli/images/PICTURE_655.png,SALE,5eea37b60e95520ef6907500,02/12/1954,2020-09-12_09h25.12.039,proactive3.2,2020.1.2,Win32,60,5f5adea66120081ea0f57a61,5f5c85b7a4d19c46c4d4b75a,3,,,,,,megaphone,,,,,,0,25,25,57,1,6,2,,,,,,,,,,,,,,,,,,,,,,,,,,,,,,,,,,,,,,,,,,,,,,,,,,,,,,,,,,,,,,,,,,,,,,,,,,,
,,,,,,,,,,stimuli/images/PICTURE_453.png,FAMILY,5eea37b60e95520ef6907500,02/12/1954,2020-09-12_09h25.12.039,proactive3.2,2020.1.2,Win32,60,5f5adea66120081ea0f57a61,5f5c85b7a4d19c46c4d4b75a,3,,,,,,scissors,,,,,,0,26,26,48,1,5,2,,,,,,,,,,,,,,,,,,,,,,,,,,,,,,,,,,,,,,,,,,,,,,,,,,,,,,,,,,,,,,,,,,,,,,,,,,,
,,,,,,,,,,stimuli/images/PICTURE_141.png,CLIENT,5eea37b60e95520ef6907500,02/12/1954,2020-09-12_09h25.12.039,proactive3.2,2020.1.2,Win32,60,5f5adea66120081ea0f57a61,5f5c85b7a4d19c46c4d4b75a,3,,,,,,sunflower,,,,,,0,27,27,30,1,4,2,,,,,,,,,,,,,,,,,,,,,,,,,,,,,,,,,,,,,,,,,,,,,,,,,,,,,,,,,,,,,,,,,,,,,,,,,,,
,,,,,,,,,,stimuli/images/PICTURE_208.png,SPIRIT,5eea37b60e95520ef6907500,02/12/1954,2020-09-12_09h25.12.039,proactive3.2,2020.1.2,Win32,60,5f5adea66120081ea0f57a61,5f5c85b7a4d19c46c4d4b75a,3,,,,,,microphone,,,,,,0,28,28,28,1,3,2,,,,,,,,,,,,,,,,,,,,,,,,,,,,,,,,,,,,,,,,,,,,,,,,,,,,,,,,,,,,,,,,,,,,,,,,,,,
,,,,,,,,,,stimuli/images/PICTURE_57.png,CANDY,5eea37b60e95520ef6907500,02/12/1954,2020-09-12_09h25.12.039,proactive3.2,2020.1.2,Win32,60,5f5adea66120081ea0f57a61,5f5c85b7a4d19c46c4d4b75a,3,,,,,,stamp,,,,,,0,29,29,52,1,6,2,,,,,,,,,,,,,,,,,,,,,,,,,,,,,,,,,,,,,,,,,,,,,,,,,,,,,,,,,,,,,,,,,,,,,,,,,,,
,,,,,,,,,,stimuli/images/PICTURE_356.png,CANDY,5eea37b60e95520ef6907500,02/12/1954,2020-09-12_09h25.12.039,proactive3.2,2020.1.2,Win32,60,5f5adea66120081ea0f57a61,5f5c85b7a4d19c46c4d4b75a,3,,,,,,pawn,,,,,,0,30,30,46,1,5,2,,,,,,,,,,,,,,,,,,,,,,,,,,,,,,,,,,,,,,,,,,,,,,,,,,,,,,,,,,,,,,,,,,,,,,,,,,,
,,,,,,,,,,stimuli/images/PICTURE_470.png,MOMENT,5eea37b60e95520ef6907500,02/12/1954,2020-09-12_09h25.12.039,proactive3.2,2020.1.2,Win32,60,5f5adea66120081ea0f57a61,5f5c85b7a4d19c46c4d4b75a,3,,,,,,motorbike,,,,,,0,31,31,40,1,5,2,,,,,,,,,,,,,,,,,,,,,,,,,,,,,,,,,,,,,,,,,,,,,,,,,,,,,,,,,,,,,,,,,,,,,,,,,,,
,,,,,,,,,,stimuli/images/PICTURE_504.png,HOUSE,5eea37b60e95520ef6907500,02/12/1954,2020-09-12_09h25.12.039,proactive3.2,2020.1.2,Win32,60,5f5adea66120081ea0f57a61,5f5c85b7a4d19c46c4d4b75a,3,,,,,,wheel,,,,,,0,32,32,36,1,4,2,,,,,,,,,,,,,,,,,,,,,,,,,,,,,,,,,,,,,,,,,,,,,,,,,,,,,,,,,,,,,,,,,,,,,,,,,,,
,,,,,,,,,,stimuli/images/PICTURE_285.png,WRITER,5eea37b60e95520ef6907500,02/12/1954,2020-09-12_09h25.12.039,proactive3.2,2020.1.2,Win32,60,5f5adea66120081ea0f57a61,5f5c85b7a4d19c46c4d4b75a,3,,,,,,carrot,,,,,,0,33,33,6,1,1,2,,,,,,,,,,,,,,,,,,,,,,,,,,,,,,,,,,,,,,,,,,,,,,,,,,,,,,,,,,,,,,,,,,,,,,,,,,,
,,,,,,,,,,stimuli/images/PICTURE_32.png,LETTER,5eea37b60e95520ef6907500,02/12/1954,2020-09-12_09h25.12.039,proactive3.2,2020.1.2,Win32,60,5f5adea66120081ea0f57a61,5f5c85b7a4d19c46c4d4b75a,3,,,,,,crown,,,,,,0,34,34,56,1,6,2,,,,,,,,,,,,,,,,,,,,,,,,,,,,,,,,,,,,,,,,,,,,,,,,,,,,,,,,,,,,,,,,,,,,,,,,,,,
,,,,,,,,,,stimuli/images/PICTURE_403.png,FAMILY,5eea37b60e95520ef6907500,02/12/1954,2020-09-12_09h25.12.039,proactive3.2,2020.1.2,Win32,60,5f5adea66120081ea0f57a61,5f5c85b7a4d19c46c4d4b75a,3,,,,,,cathedral,,,,,,0,35,35,9,1,1,2,,,,,,,,,,,,,,,,,,,,,,,,,,,,,,,,,,,,,,,,,,,,,,,,,,,,,,,,,,,,,,,,,,,,,,,,,,,
,,,,,,,,,,stimuli/images/PICTURE_405.png,JUNGLE,5eea37b60e95520ef6907500,02/12/1954,2020-09-12_09h25.12.039,proactive3.2,2020.1.2,Win32,60,5f5adea66120081ea0f57a61,5f5c85b7a4d19c46c4d4b75a,3,,,,,,anchor,,,,,,0,36,36,58,1,6,2,,,,,,,,,,,,,,,,,,,,,,,,,,,,,,,,,,,,,,,,,,,,,,,,,,,,,,,,,,,,,,,,,,,,,,,,,,,
,,,,,,,,,,stimuli/images/PICTURE_509.png,SHOTS,5eea37b60e95520ef6907500,02/12/1954,2020-09-12_09h25.12.039,proactive3.2,2020.1.2,Win32,60,5f5adea66120081ea0f57a61,5f5c85b7a4d19c46c4d4b75a,3,,,,,,telephone,,,,,,0,37,37,7,1,1,2,,,,,,,,,,,,,,,,,,,,,,,,,,,,,,,,,,,,,,,,,,,,,,,,,,,,,,,,,,,,,,,,,,,,,,,,,,,
,,,,,,,,,,stimuli/images/PICTURE_470.png,BEAUTY,5eea37b60e95520ef6907500,02/12/1954,2020-09-12_09h25.12.039,proactive3.2,2020.1.2,Win32,60,5f5adea66120081ea0f57a61,5f5c85b7a4d19c46c4d4b75a,3,,,,,,motorbike,,,,,,0,38,38,26,1,3,2,,,,,,,,,,,,,,,,,,,,,,,,,,,,,,,,,,,,,,,,,,,,,,,,,,,,,,,,,,,,,,,,,,,,,,,,,,,
,,,,,,,,,,stimuli/images/PICTURE_452.png,COPS,5eea37b60e95520ef6907500,02/12/1954,2020-09-12_09h25.12.039,proactive3.2,2020.1.2,Win32,60,5f5adea66120081ea0f57a61,5f5c85b7a4d19c46c4d4b75a,3,,,,,,watch,,,,,,0,39,39,0,1,1,2,,,,,,,,,,,,,,,,,,,,,,,,,,,,,,,,,,,,,,,,,,,,,,,,,,,,,,,,,,,,,,,,,,,,,,,,,,,
,,,,,,,,,,stimuli/images/PICTURE_18.png,RIVER,5eea37b60e95520ef6907500,02/12/1954,2020-09-12_09h25.12.039,proactive3.2,2020.1.2,Win32,60,5f5adea66120081ea0f57a61,5f5c85b7a4d19c46c4d4b75a,3,,,,,,planet,,,,,,0,40,40,22,1,3,2,,,,,,,,,,,,,,,,,,,,,,,,,,,,,,,,,,,,,,,,,,,,,,,,,,,,,,,,,,,,,,,,,,,,,,,,,,,
,,,,,,,,,,stimuli/images/PICTURE_487.png,POLICY,5eea37b60e95520ef6907500,02/12/1954,2020-09-12_09h25.12.039,proactive3.2,2020.1.2,Win32,60,5f5adea66120081ea0f57a61,5f5c85b7a4d19c46c4d4b75a,3,,,,,,basket,,,,,,0,41,41,34,1,4,2,,,,,,,,,,,,,,,,,,,,,,,,,,,,,,,,,,,,,,,,,,,,,,,,,,,,,,,,,,,,,,,,,,,,,,,,,,,
,,,,,,,,,,stimuli/images/PICTURE_296.png,CLOCK,5eea37b60e95520ef6907500,02/12/1954,2020-09-12_09h25.12.039,proactive3.2,2020.1.2,Win32,60,5f5adea66120081ea0f57a61,5f5c85b7a4d19c46c4d4b75a,3,,,,,,bolt,,,,,,0,42,42,18,1,2,2,,,,,,,,,,,,,,,,,,,,,,,,,,,,,,,,,,,,,,,,,,,,,,,,,,,,,,,,,,,,,,,,,,,,,,,,,,,
,,,,,,,,,,stimuli/images/PICTURE_123.png,SALE,5eea37b60e95520ef6907500,02/12/1954,2020-09-12_09h25.12.039,proactive3.2,2020.1.2,Win32,60,5f5adea66120081ea0f57a61,5f5c85b7a4d19c46c4d4b75a,3,,,,,,dart,,,,,,0,43,43,8,1,1,2,,,,,,,,,,,,,,,,,,,,,,,,,,,,,,,,,,,,,,,,,,,,,,,,,,,,,,,,,,,,,,,,,,,,,,,,,,,
,,,,,,,,,,stimuli/images/PICTURE_147.png,LEADER,5eea37b60e95520ef6907500,02/12/1954,2020-09-12_09h25.12.039,proactive3.2,2020.1.2,Win32,60,5f5adea66120081ea0f57a61,5f5c85b7a4d19c46c4d4b75a,3,,,,,,hanger,,,,,,0,44,44,33,1,4,2,,,,,,,,,,,,,,,,,,,,,,,,,,,,,,,,,,,,,,,,,,,,,,,,,,,,,,,,,,,,,,,,,,,,,,,,,,,
,,,,,,,,,,stimuli/images/PICTURE_95.png,NIGHT,5eea37b60e95520ef6907500,02/12/1954,2020-09-12_09h25.12.039,proactive3.2,2020.1.2,Win32,60,5f5adea66120081ea0f57a61,5f5c85b7a4d19c46c4d4b75a,3,,,,,,suitcase,,,,,,0,45,45,37,1,4,2,,,,,,,,,,,,,,,,,,,,,,,,,,,,,,,,,,,,,,,,,,,,,,,,,,,,,,,,,,,,,,,,,,,,,,,,,,,
,,,,,,,,,,stimuli/images/PICTURE_311.png,FLESH,5eea37b60e95520ef6907500,02/12/1954,2020-09-12_09h25.12.039,proactive3.2,2020.1.2,Win32,60,5f5adea66120081ea0f57a61,5f5c85b7a4d19c46c4d4b75a,3,,,,,,razor,,,,,,0,46,46,3,1,1,2,,,,,,,,,,,,,,,,,,,,,,,,,,,,,,,,,,,,,,,,,,,,,,,,,,,,,,,,,,,,,,,,,,,,,,,,,,,
,,,,,,,,,,stimuli/images/PICTURE_688.png,CLOCK,5eea37b60e95520ef6907500,02/12/1954,2020-09-12_09h25.12.039,proactive3.2,2020.1.2,Win32,60,5f5adea66120081ea0f57a61,5f5c85b7a4d19c46c4d4b75a,3,,,,,,runner,,,,,,0,47,47,42,1,5,2,,,,,,,,,,,,,,,,,,,,,,,,,,,,,,,,,,,,,,,,,,,,,,,,,,,,,,,,,,,,,,,,,,,,,,,,,,,
,,,,,,,,,,stimuli/images/PICTURE_708.png,VALLEY,5eea37b60e95520ef6907500,02/12/1954,2020-09-12_09h25.12.039,proactive3.2,2020.1.2,Win32,60,5f5adea66120081ea0f57a61,5f5c85b7a4d19c46c4d4b75a,3,,,,,,monkey,,,,,,0,48,48,45,1,5,2,,,,,,,,,,,,,,,,,,,,,,,,,,,,,,,,,,,,,,,,,,,,,,,,,,,,,,,,,,,,,,,,,,,,,,,,,,,
,,,,,,,,,,stimuli/images/PICTURE_654.png,YEAR,5eea37b60e95520ef6907500,02/12/1954,2020-09-12_09h25.12.039,proactive3.2,2020.1.2,Win32,60,5f5adea66120081ea0f57a61,5f5c85b7a4d19c46c4d4b75a,3,,,,,,pencil,,,,,,0,49,49,41,1,5,2,,,,,,,,,,,,,,,,,,,,,,,,,,,,,,,,,,,,,,,,,,,,,,,,,,,,,,,,,,,,,,,,,,,,,,,,,,,
,,,,,,,,,,stimuli/images/PICTURE_68.png,KIND,5eea37b60e95520ef6907500,02/12/1954,2020-09-12_09h25.12.039,proactive3.2,2020.1.2,Win32,60,5f5adea66120081ea0f57a61,5f5c85b7a4d19c46c4d4b75a,3,,,,,,candle,,,,,,0,50,50,23,1,3,2,,,,,,,,,,,,,,,,,,,,,,,,,,,,,,,,,,,,,,,,,,,,,,,,,,,,,,,,,,,,,,,,,,,,,,,,,,,
,,,,,,,,,,stimuli/images/PICTURE_327.png,LEADER,5eea37b60e95520ef6907500,02/12/1954,2020-09-12_09h25.12.039,proactive3.2,2020.1.2,Win32,60,5f5adea66120081ea0f57a61,5f5c85b7a4d19c46c4d4b75a,3,,,,,,helmet,,,,,,0,51,51,17,1,2,2,,,,,,,,,,,,,,,,,,,,,,,,,,,,,,,,,,,,,,,,,,,,,,,,,,,,,,,,,,,,,,,,,,,,,,,,,,,
,,,,,,,,,,stimuli/images/PICTURE_677.png,FAMILY,5eea37b60e95520ef6907500,02/12/1954,2020-09-12_09h25.12.039,proactive3.2,2020.1.2,Win32,60,5f5adea66120081ea0f57a61,5f5c85b7a4d19c46c4d4b75a,3,,,,,,map,,,,,,0,52,52,53,1,6,2,,,,,,,,,,,,,,,,,,,,,,,,,,,,,,,,,,,,,,,,,,,,,,,,,,,,,,,,,,,,,,,,,,,,,,,,,,,
,,,,,,,,,,stimuli/images/PICTURE_487.png,ROOF,5eea37b60e95520ef6907500,02/12/1954,2020-09-12_09h25.12.039,proactive3.2,2020.1.2,Win32,60,5f5adea66120081ea0f57a61,5f5c85b7a4d19c46c4d4b75a,3,,,,,,basket,,,,,,0,53,53,50,1,6,2,,,,,,,,,,,,,,,,,,,,,,,,,,,,,,,,,,,,,,,,,,,,,,,,,,,,,,,,,,,,,,,,,,,,,,,,,,,
,,,,,,,,,,stimuli/images/PICTURE_654.png,COPS,5eea37b60e95520ef6907500,02/12/1954,2020-09-12_09h25.12.039,proactive3.2,2020.1.2,Win32,60,5f5adea66120081ea0f57a61,5f5c85b7a4d19c46c4d4b75a,3,,,,,,pencil,,,,,,0,54,54,10,1,2,2,,,,,,,,,,,,,,,,,,,,,,,,,,,,,,,,,,,,,,,,,,,,,,,,,,,,,,,,,,,,,,,,,,,,,,,,,,,
,,,,,,,,,,stimuli/images/PICTURE_255.png,PENNY,5eea37b60e95520ef6907500,02/12/1954,2020-09-12_09h25.12.039,proactive3.2,2020.1.2,Win32,60,5f5adea66120081ea0f57a61,5f5c85b7a4d19c46c4d4b75a,3,,,,,,shovel,,,,,,0,55,55,19,1,2,2,,,,,,,,,,,,,,,,,,,,,,,,,,,,,,,,,,,,,,,,,,,,,,,,,,,,,,,,,,,,,,,,,,,,,,,,,,,
,,,,,,,,,,stimuli/images/PICTURE_405.png,HOUSE,5eea37b60e95520ef6907500,02/12/1954,2020-09-12_09h25.12.039,proactive3.2,2020.1.2,Win32,60,5f5adea66120081ea0f57a61,5f5c85b7a4d19c46c4d4b75a,3,,,,,,anchor,,,,,,0,56,56,2,1,1,2,,,,,,,,,,,,,,,,,,,,,,,,,,,,,,,,,,,,,,,,,,,,,,,,,,,,,,,,,,,,,,,,,,,,,,,,,,,
,,,,,,,,,,stimuli/images/PICTURE_348.png,TOILET,5eea37b60e95520ef6907500,02/12/1954,2020-09-12_09h25.12.039,proactive3.2,2020.1.2,Win32,60,5f5adea66120081ea0f57a61,5f5c85b7a4d19c46c4d4b75a,3,,,,,,pepper,,,,,,0,57,57,4,1,1,2,,,,,,,,,,,,,,,,,,,,,,,,,,,,,,,,,,,,,,,,,,,,,,,,,,,,,,,,,,,,,,,,,,,,,,,,,,,
,,,,,,,,,,stimuli/images/PICTURE_692.png,DUDE,5eea37b60e95520ef6907500,02/12/1954,2020-09-12_09h25.12.039,proactive3.2,2020.1.2,Win32,60,5f5adea66120081ea0f57a61,5f5c85b7a4d19c46c4d4b75a,3,,,,,,cherry,,,,,,0,58,58,47,1,5,2,,,,,,,,,,,,,,,,,,,,,,,,,,,,,,,,,,,,,,,,,,,,,,,,,,,,,,,,,,,,,,,,,,,,,,,,,,,
,,?,0.00167,0,,,,,,stimuli/images/PICTURE_677.png,PHOTO,5eea37b60e95520ef6907500,02/12/1954,2020-09-12_09h25.12.039,proactive3.2,2020.1.2,Win32,60,5f5adea66120081ea0f57a61,5f5c85b7a4d19c46c4d4b75a,3,,,,,,map,,,,,,,,,,,2,2,0,0,0,14,1,,,,,,,,,,,,,,,,,,,,,,,,,,,,,,,,,,,,,,,,,,,,,,,,,,,,,,,,,,,,,,,,,,,,,,
,,?,0.001265,0,,,,,,stimuli/images/PICTURE_564.png,PLENTY,5eea37b60e95520ef6907500,02/12/1954,2020-09-12_09h25.12.039,proactive3.2,2020.1.2,Win32,60,5f5adea66120081ea0f57a61,5f5c85b7a4d19c46c4d4b75a,3,,,,,,spoon,,,,,,,,,,,2,2,0,1,1,11,1,,,,,,,,,,,,,,,,,,,,,,,,,,,,,,,,,,,,,,,,,,,,,,,,,,,,,,,,,,,,,,,,,,,,,,
,,?,0.00123,0,,,,,,stimuli/images/PICTURE_509.png,MILLER,5eea37b60e95520ef6907500,02/12/1954,2020-09-12_09h25.12.039,proactive3.2,2020.1.2,Win32,60,5f5adea66120081ea0f57a61,5f5c85b7a4d19c46c4d4b75a,3,,,,,,telephone,,,,,,,,,,,5,2,0,2,2,49,1,,,,,,,,,,,,,,,,,,,,,,,,,,,,,,,,,,,,,,,,,,,,,,,,,,,,,,,,,,,,,,,,,,,,,,
,,KIND,5.49278,1,,,,,,stimuli/images/PICTURE_68.png,KIND,5eea37b60e95520ef6907500,02/12/1954,2020-09-12_09h25.12.039,proactive3.2,2020.1.2,Win32,60,5f5adea66120081ea0f57a61,5f5c85b7a4d19c46c4d4b75a,3,,,,,,candle,,,,,,,,,,,3,2,0,3,3,23,1,,,,,,,,,,,,,,,,,,,,,,,,,,,,,,,,,,,,,,,,,,,,,,,,,,,,,,,,,,,,,,,,,,,,,,
,,GLASS,5.988305,1,,,,,,stimuli/images/PICTURE_667.png,GLASS,5eea37b60e95520ef6907500,02/12/1954,2020-09-12_09h25.12.039,proactive3.2,2020.1.2,Win32,60,5f5adea66120081ea0f57a61,5f5c85b7a4d19c46c4d4b75a,3,,,,,,daisy,,,,,,,,,,,3,2,0,4,4,27,1,,,,,,,,,,,,,,,,,,,,,,,,,,,,,,,,,,,,,,,,,,,,,,,,,,,,,,,,,,,,,,,,,,,,,,
,,?,0.004175,0,,,,,,stimuli/images/PICTURE_147.png,LEADER,5eea37b60e95520ef6907500,02/12/1954,2020-09-12_09h25.12.039,proactive3.2,2020.1.2,Win32,60,5f5adea66120081ea0f57a61,5f5c85b7a4d19c46c4d4b75a,3,,,,,,hanger,,,,,,,,,,,4,2,0,5,5,33,1,,,,,,,,,,,,,,,,,,,,,,,,,,,,,,,,,,,,,,,,,,,,,,,,,,,,,,,,,,,,,,,,,,,,,,
,,?,0.00158,0,,,,,,stimuli/images/PICTURE_677.png,FAMILY,5eea37b60e95520ef6907500,02/12/1954,2020-09-12_09h25.12.039,proactive3.2,2020.1.2,Win32,60,5f5adea66120081ea0f57a61,5f5c85b7a4d19c46c4d4b75a,3,,,,,,map,,,,,,,,,,,6,2,0,6,6,53,1,,,,,,,,,,,,,,,,,,,,,,,,,,,,,,,,,,,,,,,,,,,,,,,,,,,,,,,,,,,,,,,,,,,,,,
,,?,0.002355,0,,,,,,stimuli/images/PICTURE_285.png,WRITER,5eea37b60e95520ef6907500,02/12/1954,2020-09-12_09h25.12.039,proactive3.2,2020.1.2,Win32,60,5f5adea66120081ea0f57a61,5f5c85b7a4d19c46c4d4b75a,3,,,,,,carrot,,,,,,,,,,,1,2,0,7,7,6,1,,,,,,,,,,,,,,,,,,,,,,,,,,,,,,,,,,,,,,,,,,,,,,,,,,,,,,,,,,,,,,,,,,,,,,
,,?,0.001305,0,,,,,,stimuli/images/PICTURE_655.png,SALE,5eea37b60e95520ef6907500,02/12/1954,2020-09-12_09h25.12.039,proactive3.2,2020.1.2,Win32,60,5f5adea66120081ea0f57a61,5f5c85b7a4d19c46c4d4b75a,3,,,,,,megaphone,,,,,,,,,,,6,2,0,8,8,57,1,,,,,,,,,,,,,,,,,,,,,,,,,,,,,,,,,,,,,,,,,,,,,,,,,,,,,,,,,,,,,,,,,,,,,,
,,?,0.00135,0,,,,,,stimuli/images/PICTURE_452.png,COPS,5eea37b60e95520ef6907500,02/12/1954,2020-09-12_09h25.12.039,proactive3.2,2020.1.2,Win32,60,5f5adea66120081ea0f57a61,5f5c85b7a4d19c46c4d4b75a,3,,,,,,watch,,,,,,,,,,,1,2,0,9,9,0,1,,,,,,,,,,,,,,,,,,,,,,,,,,,,,,,,,,,,,,,,,,,,,,,,,,,,,,,,,,,,,,,,,,,,,,
,,?,0.002655,0,,,,,,stimuli/images/PICTURE_2.png,AREA,5eea37b60e95520ef6907500,02/12/1954,2020-09-12_09h25.12.039,proactive3.2,2020.1.2,Win32,60,5f5adea66120081ea0f57a61,5f5c85b7a4d19c46c4d4b75a,3,,,,,,tyre,,,,,,,,,,,4,2,0,10,10,32,1,,,,,,,,,,,,,,,,,,,,,,,,,,,,,,,,,,,,,,,,,,,,,,,,,,,,,,,,,,,,,,,,,,,,,,
,,?,0.00132,0,,,,,,stimuli/images/PICTURE_491.png,SERIES,5eea37b60e95520ef6907500,02/12/1954,2020-09-12_09h25.12.039,proactive3.2,2020.1.2,Win32,60,5f5adea66120081ea0f57a61,5f5c85b7a4d19c46c4d4b75a,3,,,,,,rug,,,,,,,,,,,4,2,0,11,11,39,1,,,,,,,,,,,,,,,,,,,,,,,,,,,,,,,,,,,,,,,,,,,,,,,,,,,,,,,,,,,,,,,,,,,,,,
,,?,0.001195,0,,,,,,stimuli/images/PICTURE_692.png,DUDE,5eea37b60e95520ef6907500,02/12/1954,2020-09-12_09h25.12.039,proactive3.2,2020.1.2,Win32,60,5f5adea66120081ea0f57a61,5f5c85b7a4d19c46c4d4b75a,3,,,,,,cherry,,,,,,,,,,,5,2,0,12,12,47,1,,,,,,,,,,,,,,,,,,,,,,,,,,,,,,,,,,,,,,,,,,,,,,,,,,,,,,,,,,,,,,,,,,,,,,
,,BOYS,3.799275,1,,,,,,stimuli/images/PICTURE_215.png,BOYS,5eea37b60e95520ef6907500,02/12/1954,2020-09-12_09h25.12.039,proactive3.2,2020.1.2,Win32,60,5f5adea66120081ea0f57a61,5f5c85b7a4d19c46c4d4b75a,3,,,,,,boot,,,,,,,,,,,3,2,0,13,13,24,1,,,,,,,,,,,,,,,,,,,,,,,,,,,,,,,,,,,,,,,,,,,,,,,,,,,,,,,,,,,,,,,,,,,,,,
,,?,0.003345,0,,,,,,stimuli/images/PICTURE_348.png,TOILET,5eea37b60e95520ef6907500,02/12/1954,2020-09-12_09h25.12.039,proactive3.2,2020.1.2,Win32,60,5f5adea66120081ea0f57a61,5f5c85b7a4d19c46c4d4b75a,3,,,,,,pepper,,,,,,,,,,,1,2,0,14,14,4,1,,,,,,,,,,,,,,,,,,,,,,,,,,,,,,,,,,,,,,,,,,,,,,,,,,,,,,,,,,,,,,,,,,,,,,
,,?,0.002635,0,,,,,,stimuli/images/PICTURE_509.png,APPLE,5eea37b60e95520ef6907500,02/12/1954,2020-09-12_09h25.12.039,proactive3.2,2020.1.2,Win32,60,5f5adea66120081ea0f57a61,5f5c85b7a4d19c46c4d4b75a,3,,,,,,telephone,,,,,,,,,,,4,2,0,15,15,38,1,,,,,,,,,,,,,,,,,,,,,,,,,,,,,,,,,,,,,,,,,,,,,,,,,,,,,,,,,,,,,,,,,,,,,,
,,?,0.00133,0,,,,,,stimuli/images/PICTURE_296.png,CLOCK,5eea37b60e95520ef6907500,02/12/1954,2020-09-12_09h25.12.039,proactive3.2,2020.1.2,Win32,60,5f5adea66120081ea0f57a61,5f5c85b7a4d19c46c4d4b75a,3,,,,,,bolt,,,,,,,,,,,2,2,0,16,16,18,1,,,,,,,,,,,,,,,,,,,,,,,,,,,,,,,,,,,,,,,,,,,,,,,,,,,,,,,,,,,,,,,,,,,,,,
,,?,0.001105,0,,,,,,stimuli/images/PICTURE_123.png,SALE,5eea37b60e95520ef6907500,02/12/1954,2020-09-12_09h25.12.039,proactive3.2,2020.1.2,Win32,60,5f5adea66120081ea0f57a61,5f5c85b7a4d19c46c4d4b75a,3,,,,,,dart,,,,,,,,,,,1,2,0,17,17,8,1,,,,,,,,,,,,,,,,,,,,,,,,,,,,,,,,,,,,,,,,,,,,,,,,,,,,,,,,,,,,,,,,,,,,,,
,,?,0.008205,0,,,,,,stimuli/images/PICTURE_2.png,JUNGLE,5eea37b60e95520ef6907500,02/12/1954,2020-09-12_09h25.12.039,proactive3.2,2020.1.2,Win32,60,5f5adea66120081ea0f57a61,5f5c85b7a4d19c46c4d4b75a,3,,,,,,tyre,,,,,,,,,,,1,2,0,18,18,1,1,,,,,,,,,,,,,,,,,,,,,,,,,,,,,,,,,,,,,,,,,,,,,,,,,,,,,,,,,,,,,,,,,,,,,,
,,?,0.0014,0,,,,,,stimuli/images/PICTURE_141.png,CLIENT,5eea37b60e95520ef6907500,02/12/1954,2020-09-12_09h25.12.039,proactive3.2,2020.1.2,Win32,60,5f5adea66120081ea0f57a61,5f5c85b7a4d19c46c4d4b75a,3,,,,,,sunflower,,,,,,,,,,,4,2,0,19,19,30,1,,,,,,,,,,,,,,,,,,,,,,,,,,,,,,,,,,,,,,,,,,,,,,,,,,,,,,,,,,,,,,,,,,,,,,
,,?,0.001455,0,,,,,,stimuli/images/PICTURE_2.png,YARD,5eea37b60e95520ef6907500,02/12/1954,2020-09-12_09h25.12.039,proactive3.2,2020.1.2,Win32,60,5f5adea66120081ea0f57a61,5f5c85b7a4d19c46c4d4b75a,3,,,,,,tyre,,,,,,,,,,,6,2,0,20,20,55,1,,,,,,,,,,,,,,,,,,,,,,,,,,,,,,,,,,,,,,,,,,,,,,,,,,,,,,,,,,,,,,,,,,,,,,
,,?,0.00139,0,,,,,,stimuli/images/PICTURE_453.png,FAMILY,5eea37b60e95520ef6907500,02/12/1954,2020-09-12_09h25.12.039,proactive3.2,2020.1.2,Win32,60,5f5adea66120081ea0f57a61,5f5c85b7a4d19c46c4d4b75a,3,,,,,,scissors,,,,,,,,,,,5,2,0,21,21,48,1,,,,,,,,,,,,,,,,,,,,,,,,,,,,,,,,,,,,,,,,,,,,,,,,,,,,,,,,,,,,,,,,,,,,,,
,,?,0.00215,0,,,,,,stimuli/images/PICTURE_688.png,CLOCK,5eea37b60e95520ef6907500,02/12/1954,2020-09-12_09h25.12.039,proactive3.2,2020.1.2,Win32,60,5f5adea66120081ea0f57a61,5f5c85b7a4d19c46c4d4b75a,3,,,,,,runner,,,,,,,,,,,5,2,0,22,22,42,1,,,,,,,,,,,,,,,,,,,,,,,,,,,,,,,,,,,,,,,,,,,,,,,,,,,,,,,,,,,,,,,,,,,,,,
,,HOUSE,3.806655,1,,,,,,stimuli/images/PICTURE_177.png,HOUSE,5eea37b60e95520ef6907500,02/12/1954,2020-09-12_09h25.12.039,proactive3.2,2020.1.2,Win32,60,5f5adea66120081ea0f57a61,5f5c85b7a4d19c46c4d4b75a,3,,,,,,mushroom,,,,,,,,,,,3,2,0,23,23,25,1,,,,,,,,,,,,,,,,,,,,,,,,,,,,,,,,,,,,,,,,,,,,,,,,,,,,,,,,,,,,,,,,,,,,,,
,,?,0.003805,0,,,,,,stimuli/images/PICTURE_504.png,HOUSE,5eea37b60e95520ef6907500,02/12/1954,2020-09-12_09h25.12.039,proactive3.2,2020.1.2,Win32,60,5f5adea66120081ea0f57a61,5f5c85b7a4d19c46c4d4b75a,3,,,,,,wheel,,,,,,,,,,,4,2,0,24,24,36,1,,,,,,,,,,,,,,,,,,,,,,,,,,,,,,,,,,,,,,,,,,,,,,,,,,,,,,,,,,,,,,,,,,,,,,
,,?,0.002815,0,,,,,,stimuli/images/PICTURE_348.png,DUDE,5eea37b60e95520ef6907500,02/12/1954,2020-09-12_09h25.12.039,proactive3.2,2020.1.2,Win32,60,5f5adea66120081ea0f57a61,5f5c85b7a4d19c46c4d4b75a,3,,,,,,pepper,,,,,,,,,,,6,2,0,25,25,59,1,,,,,,,,,,,,,,,,,,,,,,,,,,,,,,,,,,,,,,,,,,,,,,,,,,,,,,,,,,,,,,,,,,,,,,
,,?,0.00275,0,,,,,,stimuli/images/PICTURE_160.png,HOTEL,5eea37b60e95520ef6907500,02/12/1954,2020-09-12_09h25.12.039,proactive3.2,2020.1.2,Win32,60,5f5adea66120081ea0f57a61,5f5c85b7a4d19c46c4d4b75a,3,,,,,,wheelbarrow,,,,,,,,,,,2,2,0,26,26,16,1,,,,,,,,,,,,,,,,,,,,,,,,,,,,,,,,,,,,,,,,,,,,,,,,,,,,,,,,,,,,,,,,,,,,,,
,,?,0.00197,0,,,,,,stimuli/images/PICTURE_654.png,YEAR,5eea37b60e95520ef6907500,02/12/1954,2020-09-12_09h25.12.039,proactive3.2,2020.1.2,Win32,60,5f5adea66120081ea0f57a61,5f5c85b7a4d19c46c4d4b75a,3,,,,,,pencil,,,,,,,,,,,5,2,0,27,27,41,1,,,,,,,,,,,,,,,,,,,,,,,,,,,,,,,,,,,,,,,,,,,,,,,,,,,,,,,,,,,,,,,,,,,,,,
,,?,0.0036,0,,,,,,stimuli/images/PICTURE_255.png,PENNY,5eea37b60e95520ef6907500,02/12/1954,2020-09-12_09h25.12.039,proactive3.2,2020.1.2,Win32,60,5f5adea66120081ea0f57a61,5f5c85b7a4d19c46c4d4b75a,3,,,,,,shovel,,,,,,,,,,,2,2,0,28,28,19,1,,,,,,,,,,,,,,,,,,,,,,,,,,,,,,,,,,,,,,,,,,,,,,,,,,,,,,,,,,,,,,,,,,,,,,
,,?,0.0036,0,,,,,,stimuli/images/PICTURE_93.png,GIRL,5eea37b60e95520ef6907500,02/12/1954,2020-09-12_09h25.12.039,proactive3.2,2020.1.2,Win32,60,5f5adea66120081ea0f57a61,5f5c85b7a4d19c46c4d4b75a,3,,,,,,skateboard,,,,,,,,,,,4,2,0,29,29,31,1,,,,,,,,,,,,,,,,,,,,,,,,,,,,,,,,,,,,,,,,,,,,,,,,,,,,,,,,,,,,,,,,,,,,,,
,,?,0.001,0,,,,,,stimuli/images/PICTURE_311.png,TOILET,5eea37b60e95520ef6907500,02/12/1954,2020-09-12_09h25.12.039,proactive3.2,2020.1.2,Win32,60,5f5adea66120081ea0f57a61,5f5c85b7a4d19c46c4d4b75a,3,,,,,,razor,,,,,,,,,,,6,2,0,30,30,54,1,,,,,,,,,,,,,,,,,,,,,,,,,,,,,,,,,,,,,,,,,,,,,,,,,,,,,,,,,,,,,,,,,,,,,,
,,?,3.964435,0,,,,,,stimuli/images/PICTURE_285.png,PRINCE,5eea37b60e95520ef6907500,02/12/1954,2020-09-12_09h25.12.039,proactive3.2,2020.1.2,Win32,60,5f5adea66120081ea0f57a61,5f5c85b7a4d19c46c4d4b75a,3,,,,,,carrot,,,,,,,,,,,3,2,0,31,31,20,1,,,,,,,,,,,,,,,,,,,,,,,,,,,,,,,,,,,,,,,,,,,,,,,,,,,,,,,,,,,,,,,,,,,,,,
,,GLASS,5.52825,0,,,,,,stimuli/images/PICTURE_33.png,COPS,5eea37b60e95520ef6907500,02/12/1954,2020-09-12_09h25.12.039,proactive3.2,2020.1.2,Win32,60,5f5adea66120081ea0f57a61,5f5c85b7a4d19c46c4d4b75a,3,,,,,,frame,,,,,,,,,,,3,2,0,32,32,29,1,,,,,,,,,,,,,,,,,,,,,,,,,,,,,,,,,,,,,,,,,,,,,,,,,,,,,,,,,,,,,,,,,,,,,,
,,?,0.002265,0,,,,,,stimuli/images/PICTURE_708.png,VALLEY,5eea37b60e95520ef6907500,02/12/1954,2020-09-12_09h25.12.039,proactive3.2,2020.1.2,Win32,60,5f5adea66120081ea0f57a61,5f5c85b7a4d19c46c4d4b75a,3,,,,,,monkey,,,,,,,,,,,5,2,0,33,33,45,1,,,,,,,,,,,,,,,,,,,,,,,,,,,,,,,,,,,,,,,,,,,,,,,,,,,,,,,,,,,,,,,,,,,,,,
,,?,0.00174,0,,,,,,stimuli/images/PICTURE_403.png,FAMILY,5eea37b60e95520ef6907500,02/12/1954,2020-09-12_09h25.12.039,proactive3.2,2020.1.2,Win32,60,5f5adea66120081ea0f57a61,5f5c85b7a4d19c46c4d4b75a,3,,,,,,cathedral,,,,,,,,,,,1,2,0,34,34,9,1,,,,,,,,,,,,,,,,,,,,,,,,,,,,,,,,,,,,,,,,,,,,,,,,,,,,,,,,,,,,,,,,,,,,,,
,,?,0.001335,0,,,,,,stimuli/images/PICTURE_32.png,LETTER,5eea37b60e95520ef6907500,02/12/1954,2020-09-12_09h25.12.039,proactive3.2,2020.1.2,Win32,60,5f5adea66120081ea0f57a61,5f5c85b7a4d19c46c4d4b75a,3,,,,,,crown,,,,,,,,,,,6,2,0,35,35,56,1,,,,,,,,,,,,,,,,,,,,,,,,,,,,,,,,,,,,,,,,,,,,,,,,,,,,,,,,,,,,,,,,,,,,,,
,,?,0.00118,0,,,,,,stimuli/images/PICTURE_509.png,SHOTS,5eea37b60e95520ef6907500,02/12/1954,2020-09-12_09h25.12.039,proactive3.2,2020.1.2,Win32,60,5f5adea66120081ea0f57a61,5f5c85b7a4d19c46c4d4b75a,3,,,,,,telephone,,,,,,,,,,,1,2,0,36,36,7,1,,,,,,,,,,,,,,,,,,,,,,,,,,,,,,,,,,,,,,,,,,,,,,,,,,,,,,,,,,,,,,,,,,,,,,
,,?,0.00132,0,,,,,,stimuli/images/PICTURE_470.png,MOMENT,5eea37b60e95520ef6907500,02/12/1954,2020-09-12_09h25.12.039,proactive3.2,2020.1.2,Win32,60,5f5adea66120081ea0f57a61,5f5c85b7a4d19c46c4d4b75a,3,,,,,,motorbike,,,,,,,,,,,5,2,0,37,37,40,1,,,,,,,,,,,,,,,,,,,,,,,,,,,,,,,,,,,,,,,,,,,,,,,,,,,,,,,,,,,,,,,,,,,,,,
,,?,0.001175,0,,,,,,stimuli/images/PICTURE_297.png,BODY,5eea37b60e95520ef6907500,02/12/1954,2020-09-12_09h25.12.039,proactive3.2,2020.1.2,Win32,60,5f5adea66120081ea0f57a61,5f5c85b7a4d19c46c4d4b75a,3,,,,,,aeroplane,,,,,,,,,,,6,2,0,38,38,51,1,,,,,,,,,,,,,,,,,,,,,,,,,,,,,,,,,,,,,,,,,,,,,,,,,,,,,,,,,,,,,,,,,,,,,,
,,?,0.00135,0,,,,,,stimuli/images/PICTURE_95.png,NIGHT,5eea37b60e95520ef6907500,02/12/1954,2020-09-12_09h25.12.039,proactive3.2,2020.1.2,Win32,60,5f5adea66120081ea0f57a61,5f5c85b7a4d19c46c4d4b75a,3,,,,,,suitcase,,,,,,,,,,,4,2,0,39,39,37,1,,,,,,,,,,,,,,,,,,,,,,,,,,,,,,,,,,,,,,,,,,,,,,,,,,,,,,,,,,,,,,,,,,,,,,
,,?,0.00122,0,,,,,,stimuli/images/PICTURE_405.png,HOUSE,5eea37b60e95520ef6907500,02/12/1954,2020-09-12_09h25.12.039,proactive3.2,2020.1.2,Win32,60,5f5adea66120081ea0f57a61,5f5c85b7a4d19c46c4d4b75a,3,,,,,,anchor,,,,,,,,,,,1,2,0,40,40,2,1,,,,,,,,,,,,,,,,,,,,,,,,,,,,,,,,,,,,,,,,,,,,,,,,,,,,,,,,,,,,,,,,,,,,,,
,,?,0.001505,0,,,,,,stimuli/images/PICTURE_215.png,LEADER,5eea37b60e95520ef6907500,02/12/1954,2020-09-12_09h25.12.039,proactive3.2,2020.1.2,Win32,60,5f5adea66120081ea0f57a61,5f5c85b7a4d19c46c4d4b75a,3,,,,,,boot,,,,,,,,,,,5,2,0,41,41,43,1,,,,,,,,,,,,,,,,,,,,,,,,,,,,,,,,,,,,,,,,,,,,,,,,,,,,,,,,,,,,,,,,,,,,,,
,,KIND,3.65349,0,,,,,,stimuli/images/PICTURE_208.png,SPIRIT,5eea37b60e95520ef6907500,02/12/1954,2020-09-12_09h25.12.039,proactive3.2,2020.1.2,Win32,60,5f5adea66120081ea0f57a61,5f5c85b7a4d19c46c4d4b75a,3,,,,,,microphone,,,,,,,,,,,3,2,0,42,42,28,1,,,,,,,,,,,,,,,,,,,,,,,,,,,,,,,,,,,,,,,,,,,,,,,,,,,,,,,,,,,,,,,,,,,,,,
,,?,0.002935,0,,,,,,stimuli/images/PICTURE_509.png,BATH,5eea37b60e95520ef6907500,02/12/1954,2020-09-12_09h25.12.039,proactive3.2,2020.1.2,Win32,60,5f5adea66120081ea0f57a61,5f5c85b7a4d19c46c4d4b75a,3,,,,,,telephone,,,,,,,,,,,2,2,0,43,43,15,1,,,,,,,,,,,,,,,,,,,,,,,,,,,,,,,,,,,,,,,,,,,,,,,,,,,,,,,,,,,,,,,,,,,,,,
,,?,0.00212,0,,,,,,stimuli/images/PICTURE_314.png,SPEECH,5eea37b60e95520ef6907500,02/12/1954,2020-09-12_09h25.12.039,proactive3.2,2020.1.2,Win32,60,5f5adea66120081ea0f57a61,5f5c85b7a4d19c46c4d4b75a,3,,,,,,perfume,,,,,,,,,,,4,2,0,44,44,35,1,,,,,,,,,,,,,,,,,,,,,,,,,,,,,,,,,,,,,,,,,,,,,,,,,,,,,,,,,,,,,,,,,,,,,,
,,?,0.00138,0,,,,,,stimuli/images/PICTURE_311.png,FLESH,5eea37b60e95520ef6907500,02/12/1954,2020-09-12_09h25.12.039,proactive3.2,2020.1.2,Win32,60,5f5adea66120081ea0f57a61,5f5c85b7a4d19c46c4d4b75a,3,,,,,,razor,,,,,,,,,,,1,2,0,45,45,3,1,,,,,,,,,,,,,,,,,,,,,,,,,,,,,,,,,,,,,,,,,,,,,,,,,,,,,,,,,,,,,,,,,,,,,,
,,?,0.00102,0,,,,,,stimuli/images/PICTURE_654.png,COPS,5eea37b60e95520ef6907500,02/12/1954,2020-09-12_09h25.12.039,proactive3.2,2020.1.2,Win32,60,5f5adea66120081ea0f57a61,5f5c85b7a4d19c46c4d4b75a,3,,,,,,pencil,,,,,,,,,,,2,2,0,46,46,10,1,,,,,,,,,,,,,,,,,,,,,,,,,,,,,,,,,,,,,,,,,,,,,,,,,,,,,,,,,,,,,,,,,,,,,,
,,?,0.001045,0,,,,,,stimuli/images/PICTURE_215.png,FOOD,5eea37b60e95520ef6907500,02/12/1954,2020-09-12_09h25.12.039,proactive3.2,2020.1.2,Win32,60,5f5adea66120081ea0f57a61,5f5c85b7a4d19c46c4d4b75a,3,,,,,,boot,,,,,,,,,,,1,2,0,47,47,5,1,,,,,,,,,,,,,,,,,,,,,,,,,,,,,,,,,,,,,,,,,,,,,,,,,,,,,,,,,,,,,,,,,,,,,,
,,?,0.00095,0,,,,,,stimuli/images/PICTURE_487.png,POLICY,5eea37b60e95520ef6907500,02/12/1954,2020-09-12_09h25.12.039,proactive3.2,2020.1.2,Win32,60,5f5adea66120081ea0f57a61,5f5c85b7a4d19c46c4d4b75a,3,,,,,,basket,,,,,,,,,,,4,2,0,48,48,34,1,,,,,,,,,,,,,,,,,,,,,,,,,,,,,,,,,,,,,,,,,,,,,,,,,,,,,,,,,,,,,,,,,,,,,,
,,?,0.00101,0,,,,,,stimuli/images/PICTURE_57.png,CANDY,5eea37b60e95520ef6907500,02/12/1954,2020-09-12_09h25.12.039,proactive3.2,2020.1.2,Win32,60,5f5adea66120081ea0f57a61,5f5c85b7a4d19c46c4d4b75a,3,,,,,,stamp,,,,,,,,,,,6,2,0,49,49,52,1,,,,,,,,,,,,,,,,,,,,,,,,,,,,,,,,,,,,,,,,,,,,,,,,,,,,,,,,,,,,,,,,,,,,,,
,,?,0.001045,0,,,,,,stimuli/images/PICTURE_487.png,ROOF,5eea37b60e95520ef6907500,02/12/1954,2020-09-12_09h25.12.039,proactive3.2,2020.1.2,Win32,60,5f5adea66120081ea0f57a61,5f5c85b7a4d19c46c4d4b75a,3,,,,,,basket,,,,,,,,,,,6,2,0,50,50,50,1,,,,,,,,,,,,,,,,,,,,,,,,,,,,,,,,,,,,,,,,,,,,,,,,,,,,,,,,,,,,,,,,,,,,,,
,,?,0.000985,0,,,,,,stimuli/images/PICTURE_356.png,CANDY,5eea37b60e95520ef6907500,02/12/1954,2020-09-12_09h25.12.039,proactive3.2,2020.1.2,Win32,60,5f5adea66120081ea0f57a61,5f5c85b7a4d19c46c4d4b75a,3,,,,,,pawn,,,,,,,,,,,5,2,0,51,51,46,1,,,,,,,,,,,,,,,,,,,,,,,,,,,,,,,,,,,,,,,,,,,,,,,,,,,,,,,,,,,,,,,,,,,,,,
,,?,0.000935,0,,,,,,stimuli/images/PICTURE_405.png,JUNGLE,5eea37b60e95520ef6907500,02/12/1954,2020-09-12_09h25.12.039,proactive3.2,2020.1.2,Win32,60,5f5adea66120081ea0f57a61,5f5c85b7a4d19c46c4d4b75a,3,,,,,,anchor,,,,,,,,,,,2,2,0,52,52,13,1,,,,,,,,,,,,,,,,,,,,,,,,,,,,,,,,,,,,,,,,,,,,,,,,,,,,,,,,,,,,,,,,,,,,,,
,,?,0.001035,0,,,,,,stimuli/images/PICTURE_57.png,CASINO,5eea37b60e95520ef6907500,02/12/1954,2020-09-12_09h25.12.039,proactive3.2,2020.1.2,Win32,60,5f5adea66120081ea0f57a61,5f5c85b7a4d19c46c4d4b75a,3,,,,,,stamp,,,,,,,,,,,2,2,0,53,53,12,1,,,,,,,,,,,,,,,,,,,,,,,,,,,,,,,,,,,,,,,,,,,,,,,,,,,,,,,,,,,,,,,,,,,,,,
,,COUNTRY,9.253035,0,,,,,,stimuli/images/PICTURE_57.png,NATION,5eea37b60e95520ef6907500,02/12/1954,2020-09-12_09h25.12.039,proactive3.2,2020.1.2,Win32,60,5f5adea66120081ea0f57a61,5f5c85b7a4d19c46c4d4b75a,3,,,,,,stamp,,,,,,,,,,,3,2,0,54,54,21,1,,,,,,,,,,,,,,,,,,,,,,,,,,,,,,,,,,,,,,,,,,,,,,,,,,,,,,,,,,,,,,,,,,,,,,
,,?,0.00482,0,,,,,,stimuli/images/PICTURE_327.png,LEADER,5eea37b60e95520ef6907500,02/12/1954,2020-09-12_09h25.12.039,proactive3.2,2020.1.2,Win32,60,5f5adea66120081ea0f57a61,5f5c85b7a4d19c46c4d4b75a,3,,,,,,helmet,,,,,,,,,,,2,2,0,55,55,17,1,,,,,,,,,,,,,,,,,,,,,,,,,,,,,,,,,,,,,,,,,,,,,,,,,,,,,,,,,,,,,,,,,,,,,,
,,BOYS,4.641165,0,,,,,,stimuli/images/PICTURE_470.png,BEAUTY,5eea37b60e95520ef6907500,02/12/1954,2020-09-12_09h25.12.039,proactive3.2,2020.1.2,Win32,60,5f5adea66120081ea0f57a61,5f5c85b7a4d19c46c4d4b75a,3,,,,,,motorbike,,,,,,,,,,,3,2,0,56,56,26,1,,,,,,,,,,,,,,,,,,,,,,,,,,,,,,,,,,,,,,,,,,,,,,,,,,,,,,,,,,,,,,,,,,,,,,
,,?,0.003595,0,,,,,,stimuli/images/PICTURE_405.png,JUNGLE,5eea37b60e95520ef6907500,02/12/1954,2020-09-12_09h25.12.039,proactive3.2,2020.1.2,Win32,60,5f5adea66120081ea0f57a61,5f5c85b7a4d19c46c4d4b75a,3,,,,,,anchor,,,,,,,,,,,6,2,0,57,57,58,1,,,,,,,,,,,,,,,,,,,,,,,,,,,,,,,,,,,,,,,,,,,,,,,,,,,,,,,,,,,,,,,,,,,,,,
,,?,2.562985,0,,,,,,stimuli/images/PICTURE_18.png,RIVER,5eea37b60e95520ef6907500,02/12/1954,2020-09-12_09h25.12.039,proactive3.2,2020.1.2,Win32,60,5f5adea66120081ea0f57a61,5f5c85b7a4d19c46c4d4b75a,3,,,,,,planet,,,,,,,,,,,3,2,0,58,58,22,1,,,,,,,,,,,,,,,,,,,,,,,,,,,,,,,,,,,,,,,,,,,,,,,,,,,,,,,,,,,,,,,,,,,,,,
,,?,0.003555,0,,,,,,stimuli/images/PICTURE_750.png,POLICY,5eea37b60e95520ef6907500,02/12/1954,2020-09-12_09h25.12.039,proactive3.2,2020.1.2,Win32,60,5f5adea66120081ea0f57a61,5f5c85b7a4d19c46c4d4b75a,3,,,,,,kettle,,,,,,,,,,,5,2,0,59,59,44,1,,,,,,,,,,,,,,,,,,,,,,,,,,,,,,,,,,,,,,,,,,,,,,,,,,,,,,,,,,,,,,,,,,,,,,
,,,,,,,,,,,,5eea37b60e95520ef6907500,02/12/1954,2020-09-12_09h25.12.039,proactive3.2,2020.1.2,Win32,60,5f5adea66120081ea0f57a61,5f5c85b7a4d19c46c4d4b75a,3,,,,,,,,,,,,,,,,,,,,,,,,0,0,0,2,1,stimuli/learn-block3.csv,,,,,,,,,,,,,,,,,,,,,,,,,,,,,,,,,,,,,,,,,,,,,,,,,,,,,,,,,,,,,,,,
,,,,,,,,,,stimuli/images/PICTURE_667.png,RIVER,5eea37b60e95520ef6907500,02/12/1954,2020-09-12_09h25.12.039,proactive3.2,2020.1.2,Win32,60,5f5adea66120081ea0f57a61,5f5c85b7a4d19c46c4d4b75a,3,,,,,,daisy,,,,,,0,0,0,10,1,2,1,,,,,,,,,,,,,,,,,,,,,,,,,,,,,,,,,,,,,,,,,,,,,,,,,,,,,,,,,,,,,,,,,,,,,,,,,,,
,,,,,,,,,,stimuli/images/PICTURE_675.png,SALE,5eea37b60e95520ef6907500,02/12/1954,2020-09-12_09h25.12.039,proactive3.2,2020.1.2,Win32,60,5f5adea66120081ea0f57a61,5f5c85b7a4d19c46c4d4b75a,3,,,,,,windmill,,,,,,0,1,1,47,1,5,1,,,,,,,,,,,,,,,,,,,,,,,,,,,,,,,,,,,,,,,,,,,,,,,,,,,,,,,,,,,,,,,,,,,,,,,,,,,
,,,,,,,,,,stimuli/images/PICTURE_108.png,POLICY,5eea37b60e95520ef6907500,02/12/1954,2020-09-12_09h25.12.039,proactive3.2,2020.1.2,Win32,60,5f5adea66120081ea0f57a61,5f5c85b7a4d19c46c4d4b75a,3,,,,,,calendar,,,,,,0,2,2,22,1,3,1,,,,,,,,,,,,,,,,,,,,,,,,,,,,,,,,,,,,,,,,,,,,,,,,,,,,,,,,,,,,,,,,,,,,,,,,,,,
,,,,,,,,,,stimuli/images/PICTURE_744.png,WEAPON,5eea37b60e95520ef6907500,02/12/1954,2020-09-12_09h25.12.039,proactive3.2,2020.1.2,Win32,60,5f5adea66120081ea0f57a61,5f5c85b7a4d19c46c4d4b75a,3,,,,,,ring,,,,,,0,3,3,50,1,6,1,,,,,,,,,,,,,,,,,,,,,,,,,,,,,,,,,,,,,,,,,,,,,,,,,,,,,,,,,,,,,,,,,,,,,,,,,,,
,,,,,,,,,,stimuli/images/PICTURE_68.png,MILE,5eea37b60e95520ef6907500,02/12/1954,2020-09-12_09h25.12.039,proactive3.2,2020.1.2,Win32,60,5f5adea66120081ea0f57a61,5f5c85b7a4d19c46c4d4b75a,3,,,,,,candle,,,,,,0,4,4,51,1,6,1,,,,,,,,,,,,,,,,,,,,,,,,,,,,,,,,,,,,,,,,,,,,,,,,,,,,,,,,,,,,,,,,,,,,,,,,,,,
,,,,,,,,,,stimuli/images/PICTURE_32.png,KIND,5eea37b60e95520ef6907500,02/12/1954,2020-09-12_09h25.12.039,proactive3.2,2020.1.2,Win32,60,5f5adea66120081ea0f57a61,5f5c85b7a4d19c46c4d4b75a,3,,,,,,crown,,,,,,0,5,5,35,1,4,1,,,,,,,,,,,,,,,,,,,,,,,,,,,,,,,,,,,,,,,,,,,,,,,,,,,,,,,,,,,,,,,,,,,,,,,,,,,
,,,,,,,,,,stimuli/images/PICTURE_504.png,YEAR,5eea37b60e95520ef6907500,02/12/1954,2020-09-12_09h25.12.039,proactive3.2,2020.1.2,Win32,60,5f5adea66120081ea0f57a61,5f5c85b7a4d19c46c4d4b75a,3,,,,,,wheel,,,,,,0,6,6,13,1,2,1,,,,,,,,,,,,,,,,,,,,,,,,,,,,,,,,,,,,,,,,,,,,,,,,,,,,,,,,,,,,,,,,,,,,,,,,,,,
,,,,,,,,,,stimuli/images/PICTURE_403.png,RIVER,5eea37b60e95520ef6907500,02/12/1954,2020-09-12_09h25.12.039,proactive3.2,2020.1.2,Win32,60,5f5adea66120081ea0f57a61,5f5c85b7a4d19c46c4d4b75a,3,,,,,,cathedral,,,,,,0,7,7,40,1,5,1,,,,,,,,,,,,,,,,,,,,,,,,,,,,,,,,,,,,,,,,,,,,,,,,,,,,,,,,,,,,,,,,,,,,,,,,,,,
,,,,,,,,,,stimuli/images/PICTURE_203.png,NIGHT,5eea37b60e95520ef6907500,02/12/1954,2020-09-12_09h25.12.039,proactive3.2,2020.1.2,Win32,60,5f5adea66120081ea0f57a61,5f5c85b7a4d19c46c4d4b75a,3,,,,,,cap,,,,,,0,8,8,2,1,1,1,,,,,,,,,,,,,,,,,,,,,,,,,,,,,,,,,,,,,,,,,,,,,,,,,,,,,,,,,,,,,,,,,,,,,,,,,,,
,,,,,,,,,,stimuli/images/PICTURE_339.png,CLIENT,5eea37b60e95520ef6907500,02/12/1954,2020-09-12_09h25.12.039,proactive3.2,2020.1.2,Win32,60,5f5adea66120081ea0f57a61,5f5c85b7a4d19c46c4d4b75a,3,,,,,,backpack,,,,,,0,9,9,11,1,2,1,,,,,,,,,,,,,,,,,,,,,,,,,,,,,,,,,,,,,,,,,,,,,,,,,,,,,,,,,,,,,,,,,,,,,,,,,,,
,,,,,,,,,,stimuli/images/PICTURE_491.png,GLASS,5eea37b60e95520ef6907500,02/12/1954,2020-09-12_09h25.12.039,proactive3.2,2020.1.2,Win32,60,5f5adea66120081ea0f57a61,5f5c85b7a4d19c46c4d4b75a,3,,,,,,rug,,,,,,0,10,10,14,1,2,1,,,,,,,,,,,,,,,,,,,,,,,,,,,,,,,,,,,,,,,,,,,,,,,,,,,,,,,,,,,,,,,,,,,,,,,,,,,
,,,,,,,,,,stimuli/images/PICTURE_327.png,CASINO,5eea37b60e95520ef6907500,02/12/1954,2020-09-12_09h25.12.039,proactive3.2,2020.1.2,Win32,60,5f5adea66120081ea0f57a61,5f5c85b7a4d19c46c4d4b75a,3,,,,,,helmet,,,,,,0,11,11,20,1,3,1,,,,,,,,,,,,,,,,,,,,,,,,,,,,,,,,,,,,,,,,,,,,,,,,,,,,,,,,,,,,,,,,,,,,,,,,,,,
,,,,,,,,,,stimuli/images/PICTURE_108.png,FLIGHT,5eea37b60e95520ef6907500,02/12/1954,2020-09-12_09h25.12.039,proactive3.2,2020.1.2,Win32,60,5f5adea66120081ea0f57a61,5f5c85b7a4d19c46c4d4b75a,3,,,,,,calendar,,,,,,0,12,12,59,1,6,1,,,,,,,,,,,,,,,,,,,,,,,,,,,,,,,,,,,,,,,,,,,,,,,,,,,,,,,,,,,,,,,,,,,,,,,,,,,
,,,,,,,,,,stimuli/images/PICTURE_85.png,NATION,5eea37b60e95520ef6907500,02/12/1954,2020-09-12_09h25.12.039,proactive3.2,2020.1.2,Win32,60,5f5adea66120081ea0f57a61,5f5c85b7a4d19c46c4d4b75a,3,,,,,,diamond,,,,,,0,13,13,5,1,1,1,,,,,,,,,,,,,,,,,,,,,,,,,,,,,,,,,,,,,,,,,,,,,,,,,,,,,,,,,,,,,,,,,,,,,,,,,,,
,,,,,,,,,,stimuli/images/PICTURE_449.png,DUDE,5eea37b60e95520ef6907500,02/12/1954,2020-09-12_09h25.12.039,proactive3.2,2020.1.2,Win32,60,5f5adea66120081ea0f57a61,5f5c85b7a4d19c46c4d4b75a,3,,,,,,bench,,,,,,0,14,14,17,1,2,1,,,,,,,,,,,,,,,,,,,,,,,,,,,,,,,,,,,,,,,,,,,,,,,,,,,,,,,,,,,,,,,,,,,,,,,,,,,
,,,,,,,,,,stimuli/images/PICTURE_147.png,YEAR,5eea37b60e95520ef6907500,02/12/1954,2020-09-12_09h25.12.039,proactive3.2,2020.1.2,Win32,60,5f5adea66120081ea0f57a61,5f5c85b7a4d19c46c4d4b75a,3,,,,,,hanger,,,,,,0,15,15,21,1,3,1,,,,,,,,,,,,,,,,,,,,,,,,,,,,,,,,,,,,,,,,,,,,,,,,,,,,,,,,,,,,,,,,,,,,,,,,,,,
,,,,,,,,,,stimuli/images/PICTURE_564.png,BATH,5eea37b60e95520ef6907500,02/12/1954,2020-09-12_09h25.12.039,proactive3.2,2020.1.2,Win32,60,5f5adea66120081ea0f57a61,5f5c85b7a4d19c46c4d4b75a,3,,,,,,spoon,,,,,,0,16,16,26,1,3,1,,,,,,,,,,,,,,,,,,,,,,,,,,,,,,,,,,,,,,,,,,,,,,,,,,,,,,,,,,,,,,,,,,,,,,,,,,,
,,,,,,,,,,stimuli/images/PICTURE_677.png,APPLE,5eea37b60e95520ef6907500,02/12/1954,2020-09-12_09h25.12.039,proactive3.2,2020.1.2,Win32,60,5f5adea66120081ea0f57a61,5f5c85b7a4d19c46c4d4b75a,3,,,,,,map,,,,,,0,17,17,43,1,5,1,,,,,,,,,,,,,,,,,,,,,,,,,,,,,,,,,,,,,,,,,,,,,,,,,,,,,,,,,,,,,,,,,,,,,,,,,,,
,,,,,,,,,,stimuli/images/PICTURE_383.png,SERIES,5eea37b60e95520ef6907500,02/12/1954,2020-09-12_09h25.12.039,proactive3.2,2020.1.2,Win32,60,5f5adea66120081ea0f57a61,5f5c85b7a4d19c46c4d4b75a,3,,,,,,coin,,,,,,0,18,18,46,1,5,1,,,,,,,,,,,,,,,,,,,,,,,,,,,,,,,,,,,,,,,,,,,,,,,,,,,,,,,,,,,,,,,,,,,,,,,,,,,
,,,,,,,,,,stimuli/images/PICTURE_296.png,LIFE,5eea37b60e95520ef6907500,02/12/1954,2020-09-12_09h25.12.039,proactive3.2,2020.1.2,Win32,60,5f5adea66120081ea0f57a61,5f5c85b7a4d19c46c4d4b75a,3,,,,,,bolt,,,,,,0,19,19,57,1,6,1,,,,,,,,,,,,,,,,,,,,,,,,,,,,,,,,,,,,,,,,,,,,,,,,,,,,,,,,,,,,,,,,,,,,,,,,,,,
,,,,,,,,,,stimuli/images/PICTURE_177.png,WRITER,5eea37b60e95520ef6907500,02/12/1954,2020-09-12_09h25.12.039,proactive3.2,2020.1.2,Win32,60,5f5adea66120081ea0f57a61,5f5c85b7a4d19c46c4d4b75a,3,,,,,,mushroom,,,,,,0,20,20,41,1,5,1,,,,,,,,,,,,,,,,,,,,,,,,,,,,,,,,,,,,,,,,,,,,,,,,,,,,,,,,,,,,,,,,,,,,,,,,,,,
,,,,,,,,,,stimuli/images/PICTURE_467.png,POLICY,5eea37b60e95520ef6907500,02/12/1954,2020-09-12_09h25.12.039,proactive3.2,2020.1.2,Win32,60,5f5adea66120081ea0f57a61,5f5c85b7a4d19c46c4d4b75a,3,,,,,,peg,,,,,,0,21,21,53,1,6,1,,,,,,,,,,,,,,,,,,,,,,,,,,,,,,,,,,,,,,,,,,,,,,,,,,,,,,,,,,,,,,,,,,,,,,,,,,,
,,,,,,,,,,stimuli/images/PICTURE_405.png,YEAR,5eea37b60e95520ef6907500,02/12/1954,2020-09-12_09h25.12.039,proactive3.2,2020.1.2,Win32,60,5f5adea66120081ea0f57a61,5f5c85b7a4d19c46c4d4b75a,3,,,,,,anchor,,,,,,0,22,22,34,1,4,1,,,,,,,,,,,,,,,,,,,,,,,,,,,,,,,,,,,,,,,,,,,,,,,,,,,,,,,,,,,,,,,,,,,,,,,,,,,
,,,,,,,,,,stimuli/images/PICTURE_469.png,AGENT,5eea37b60e95520ef6907500,02/12/1954,2020-09-12_09h25.12.039,proactive3.2,2020.1.2,Win32,60,5f5adea66120081ea0f57a61,5f5c85b7a4d19c46c4d4b75a,3,,,,,,stool,,,,,,0,23,23,16,1,2,1,,,,,,,,,,,,,,,,,,,,,,,,,,,,,,,,,,,,,,,,,,,,,,,,,,,,,,,,,,,,,,,,,,,,,,,,,,,
,,,,,,,,,,stimuli/images/PICTURE_95.png,MILLER,5eea37b60e95520ef6907500,02/12/1954,2020-09-12_09h25.12.039,proactive3.2,2020.1.2,Win32,60,5f5adea66120081ea0f57a61,5f5c85b7a4d19c46c4d4b75a,3,,,,,,suitcase,,,,,,0,24,24,56,1,6,1,,,,,,,,,,,,,,,,,,,,,,,,,,,,,,,,,,,,,,,,,,,,,,,,,,,,,,,,,,,,,,,,,,,,,,,,,,,
,,,,,,,,,,stimuli/images/PICTURE_57.png,MOMENT,5eea37b60e95520ef6907500,02/12/1954,2020-09-12_09h25.12.039,proactive3.2,2020.1.2,Win32,60,5f5adea66120081ea0f57a61,5f5c85b7a4d19c46c4d4b75a,3,,,,,,stamp,,,,,,0,25,25,37,1,4,1,,,,,,,,,,,,,,,,,,,,,,,,,,,,,,,,,,,,,,,,,,,,,,,,,,,,,,,,,,,,,,,,,,,,,,,,,,,
,,,,,,,,,,stimuli/images/PICTURE_403.png,WRITER,5eea37b60e95520ef6907500,02/12/1954,2020-09-12_09h25.12.039,proactive3.2,2020.1.2,Win32,60,5f5adea66120081ea0f57a61,5f5c85b7a4d19c46c4d4b75a,3,,,,,,cathedral,,,,,,0,26,26,31,1,4,1,,,,,,,,,,,,,,,,,,,,,,,,,,,,,,,,,,,,,,,,,,,,,,,,,,,,,,,,,,,,,,,,,,,,,,,,,,,
,,,,,,,,,,stimuli/images/PICTURE_208.png,SYSTEM,5eea37b60e95520ef6907500,02/12/1954,2020-09-12_09h25.12.039,proactive3.2,2020.1.2,Win32,60,5f5adea66120081ea0f57a61,5f5c85b7a4d19c46c4d4b75a,3,,,,,,microphone,,,,,,0,27,27,32,1,4,1,,,,,,,,,,,,,,,,,,,,,,,,,,,,,,,,,,,,,,,,,,,,,,,,,,,,,,,,,,,,,,,,,,,,,,,,,,,
,,,,,,,,,,stimuli/images/PICTURE_33.png,FRIEND,5eea37b60e95520ef6907500,02/12/1954,2020-09-12_09h25.12.039,proactive3.2,2020.1.2,Win32,60,5f5adea66120081ea0f57a61,5f5c85b7a4d19c46c4d4b75a,3,,,,,,frame,,,,,,0,28,28,8,1,1,1,,,,,,,,,,,,,,,,,,,,,,,,,,,,,,,,,,,,,,,,,,,,,,,,,,,,,,,,,,,,,,,,,,,,,,,,,,,
,,,,,,,,,,stimuli/images/PICTURE_147.png,WOMEN,5eea37b60e95520ef6907500,02/12/1954,2020-09-12_09h25.12.039,proactive3.2,2020.1.2,Win32,60,5f5adea66120081ea0f57a61,5f5c85b7a4d19c46c4d4b75a,3,,,,,,hanger,,,,,,0,29,29,7,1,1,1,,,,,,,,,,,,,,,,,,,,,,,,,,,,,,,,,,,,,,,,,,,,,,,,,,,,,,,,,,,,,,,,,,,,,,,,,,,
,,,,,,,,,,stimuli/images/PICTURE_380.png,CANDY,5eea37b60e95520ef6907500,02/12/1954,2020-09-12_09h25.12.039,proactive3.2,2020.1.2,Win32,60,5f5adea66120081ea0f57a61,5f5c85b7a4d19c46c4d4b75a,3,,,,,,gorilla,,,,,,0,30,30,0,1,1,1,,,,,,,,,,,,,,,,,,,,,,,,,,,,,,,,,,,,,,,,,,,,,,,,,,,,,,,,,,,,,,,,,,,,,,,,,,,
,,,,,,,,,,stimuli/images/PICTURE_95.png,HONEY,5eea37b60e95520ef6907500,02/12/1954,2020-09-12_09h25.12.039,proactive3.2,2020.1.2,Win32,60,5f5adea66120081ea0f57a61,5f5c85b7a4d19c46c4d4b75a,3,,,,,,suitcase,,,,,,0,31,31,44,1,5,1,,,,,,,,,,,,,,,,,,,,,,,,,,,,,,,,,,,,,,,,,,,,,,,,,,,,,,,,,,,,,,,,,,,,,,,,,,,
,,,,,,,,,,stimuli/images/PICTURE_95.png,BOYS,5eea37b60e95520ef6907500,02/12/1954,2020-09-12_09h25.12.039,proactive3.2,2020.1.2,Win32,60,5f5adea66120081ea0f57a61,5f5c85b7a4d19c46c4d4b75a,3,,,,,,suitcase,,,,,,0,32,32,1,1,1,1,,,,,,,,,,,,,,,,,,,,,,,,,,,,,,,,,,,,,,,,,,,,,,,,,,,,,,,,,,,,,,,,,,,,,,,,,,,
,,,,,,,,,,stimuli/images/PICTURE_383.png,WRITER,5eea37b60e95520ef6907500,02/12/1954,2020-09-12_09h25.12.039,proactive3.2,2020.1.2,Win32,60,5f5adea66120081ea0f57a61,5f5c85b7a4d19c46c4d4b75a,3,,,,,,coin,,,,,,0,33,33,28,1,3,1,,,,,,,,,,,,,,,,,,,,,,,,,,,,,,,,,,,,,,,,,,,,,,,,,,,,,,,,,,,,,,,,,,,,,,,,,,,
,,,,,,,,,,stimuli/images/PICTURE_285.png,LIFE,5eea37b60e95520ef6907500,02/12/1954,2020-09-12_09h25.12.039,proactive3.2,2020.1.2,Win32,60,5f5adea66120081ea0f57a61,5f5c85b7a4d19c46c4d4b75a,3,,,,,,carrot,,,,,,0,34,34,33,1,4,1,,,,,,,,,,,,,,,,,,,,,,,,,,,,,,,,,,,,,,,,,,,,,,,,,,,,,,,,,,,,,,,,,,,,,,,,,,,
,,,,,,,,,,stimuli/images/PICTURE_504.png,COPS,5eea37b60e95520ef6907500,02/12/1954,2020-09-12_09h25.12.039,proactive3.2,2020.1.2,Win32,60,5f5adea66120081ea0f57a61,5f5c85b7a4d19c46c4d4b75a,3,,,,,,wheel,,,,,,0,35,35,52,1,6,1,,,,,,,,,,,,,,,,,,,,,,,,,,,,,,,,,,,,,,,,,,,,,,,,,,,,,,,,,,,,,,,,,,,,,,,,,,,
,,,,,,,,,,stimuli/images/PICTURE_380.png,HONEY,5eea37b60e95520ef6907500,02/12/1954,2020-09-12_09h25.12.039,proactive3.2,2020.1.2,Win32,60,5f5adea66120081ea0f57a61,5f5c85b7a4d19c46c4d4b75a,3,,,,,,gorilla,,,,,,0,36,36,19,1,2,1,,,,,,,,,,,,,,,,,,,,,,,,,,,,,,,,,,,,,,,,,,,,,,,,,,,,,,,,,,,,,,,,,,,,,,,,,,,
,,,,,,,,,,stimuli/images/PICTURE_685.png,PENNY,5eea37b60e95520ef6907500,02/12/1954,2020-09-12_09h25.12.039,proactive3.2,2020.1.2,Win32,60,5f5adea66120081ea0f57a61,5f5c85b7a4d19c46c4d4b75a,3,,,,,,goose,,,,,,0,37,37,4,1,1,1,,,,,,,,,,,,,,,,,,,,,,,,,,,,,,,,,,,,,,,,,,,,,,,,,,,,,,,,,,,,,,,,,,,,,,,,,,,
,,,,,,,,,,stimuli/images/PICTURE_403.png,TOILET,5eea37b60e95520ef6907500,02/12/1954,2020-09-12_09h25.12.039,proactive3.2,2020.1.2,Win32,60,5f5adea66120081ea0f57a61,5f5c85b7a4d19c46c4d4b75a,3,,,,,,cathedral,,,,,,0,38,38,25,1,3,1,,,,,,,,,,,,,,,,,,,,,,,,,,,,,,,,,,,,,,,,,,,,,,,,,,,,,,,,,,,,,,,,,,,,,,,,,,,
,,,,,,,,,,stimuli/images/PICTURE_487.png,GIRL,5eea37b60e95520ef6907500,02/12/1954,2020-09-12_09h25.12.039,proactive3.2,2020.1.2,Win32,60,5f5adea66120081ea0f57a61,5f5c85b7a4d19c46c4d4b75a,3,,,,,,basket,,,,,,0,39,39,45,1,5,1,,,,,,,,,,,,,,,,,,,,,,,,,,,,,,,,,,,,,,,,,,,,,,,,,,,,,,,,,,,,,,,,,,,,,,,,,,,
,,,,,,,,,,stimuli/images/PICTURE_296.png,LOTS,5eea37b60e95520ef6907500,02/12/1954,2020-09-12_09h25.12.039,proactive3.2,2020.1.2,Win32,60,5f5adea66120081ea0f57a61,5f5c85b7a4d19c46c4d4b75a,3,,,,,,bolt,,,,,,0,40,40,9,1,1,1,,,,,,,,,,,,,,,,,,,,,,,,,,,,,,,,,,,,,,,,,,,,,,,,,,,,,,,,,,,,,,,,,,,,,,,,,,,
,,,,,,,,,,stimuli/images/PICTURE_654.png,MONTH,5eea37b60e95520ef6907500,02/12/1954,2020-09-12_09h25.12.039,proactive3.2,2020.1.2,Win32,60,5f5adea66120081ea0f57a61,5f5c85b7a4d19c46c4d4b75a,3,,,,,,pencil,,,,,,0,41,41,29,1,3,1,,,,,,,,,,,,,,,,,,,,,,,,,,,,,,,,,,,,,,,,,,,,,,,,,,,,,,,,,,,,,,,,,,,,,,,,,,,
,,,,,,,,,,stimuli/images/PICTURE_340.png,VALLEY,5eea37b60e95520ef6907500,02/12/1954,2020-09-12_09h25.12.039,proactive3.2,2020.1.2,Win32,60,5f5adea66120081ea0f57a61,5f5c85b7a4d19c46c4d4b75a,3,,,,,,mirror,,,,,,0,42,42,54,1,6,1,,,,,,,,,,,,,,,,,,,,,,,,,,,,,,,,,,,,,,,,,,,,,,,,,,,,,,,,,,,,,,,,,,,,,,,,,,,
,,,,,,,,,,stimuli/images/PICTURE_750.png,HOTEL,5eea37b60e95520ef6907500,02/12/1954,2020-09-12_09h25.12.039,proactive3.2,2020.1.2,Win32,60,5f5adea66120081ea0f57a61,5f5c85b7a4d19c46c4d4b75a,3,,,,,,kettle,,,,,,0,43,43,27,1,3,1,,,,,,,,,,,,,,,,,,,,,,,,,,,,,,,,,,,,,,,,,,,,,,,,,,,,,,,,,,,,,,,,,,,,,,,,,,,
,,,,,,,,,,stimuli/images/PICTURE_233.png,LOTS,5eea37b60e95520ef6907500,02/12/1954,2020-09-12_09h25.12.039,proactive3.2,2020.1.2,Win32,60,5f5adea66120081ea0f57a61,5f5c85b7a4d19c46c4d4b75a,3,,,,,,salt,,,,,,0,44,44,42,1,5,1,,,,,,,,,,,,,,,,,,,,,,,,,,,,,,,,,,,,,,,,,,,,,,,,,,,,,,,,,,,,,,,,,,,,,,,,,,,
,,,,,,,,,,stimuli/images/PICTURE_68.png,ROOF,5eea37b60e95520ef6907500,02/12/1954,2020-09-12_09h25.12.039,proactive3.2,2020.1.2,Win32,60,5f5adea66120081ea0f57a61,5f5c85b7a4d19c46c4d4b75a,3,,,,,,candle,,,,,,0,45,45,38,1,4,1,,,,,,,,,,,,,,,,,,,,,,,,,,,,,,,,,,,,,,,,,,,,,,,,,,,,,,,,,,,,,,,,,,,,,,,,,,,
,,,,,,,,,,stimuli/images/PICTURE_504.png,ARTIST,5eea37b60e95520ef6907500,02/12/1954,2020-09-12_09h25.12.039,proactive3.2,2020.1.2,Win32,60,5f5adea66120081ea0f57a61,5f5c85b7a4d19c46c4d4b75a,3,,,,,,wheel,,,,,,0,46,46,49,1,5,1,,,,,,,,,,,,,,,,,,,,,,,,,,,,,,,,,,,,,,,,,,,,,,,,,,,,,,,,,,,,,,,,,,,,,,,,,,,
,,,,,,,,,,stimuli/images/PICTURE_308.png,FAMILY,5eea37b60e95520ef6907500,02/12/1954,2020-09-12_09h25.12.039,proactive3.2,2020.1.2,Win32,60,5f5adea66120081ea0f57a61,5f5c85b7a4d19c46c4d4b75a,3,,,,,,dice,,,,,,0,47,47,36,1,4,1,,,,,,,,,,,,,,,,,,,,,,,,,,,,,,,,,,,,,,,,,,,,,,,,,,,,,,,,,,,,,,,,,,,,,,,,,,,
,,,,,,,,,,stimuli/images/PICTURE_42.png,BOYS,5eea37b60e95520ef6907500,02/12/1954,2020-09-12_09h25.12.039,proactive3.2,2020.1.2,Win32,60,5f5adea66120081ea0f57a61,5f5c85b7a4d19c46c4d4b75a,3,,,,,,pear,,,,,,0,48,48,55,1,6,1,,,,,,,,,,,,,,,,,,,,,,,,,,,,,,,,,,,,,,,,,,,,,,,,,,,,,,,,,,,,,,,,,,,,,,,,,,,
,,,,,,,,,,stimuli/images/PICTURE_85.png,TOILET,5eea37b60e95520ef6907500,02/12/1954,2020-09-12_09h25.12.039,proactive3.2,2020.1.2,Win32,60,5f5adea66120081ea0f57a61,5f5c85b7a4d19c46c4d4b75a,3,,,,,,diamond,,,,,,0,49,49,48,1,5,1,,,,,,,,,,,,,,,,,,,,,,,,,,,,,,,,,,,,,,,,,,,,,,,,,,,,,,,,,,,,,,,,,,,,,,,,,,,
,,,,,,,,,,stimuli/images/PICTURE_32.png,PILLS,5eea37b60e95520ef6907500,02/12/1954,2020-09-12_09h25.12.039,proactive3.2,2020.1.2,Win32,60,5f5adea66120081ea0f57a61,5f5c85b7a4d19c46c4d4b75a,3,,,,,,crown,,,,,,0,50,50,18,1,2,1,,,,,,,,,,,,,,,,,,,,,,,,,,,,,,,,,,,,,,,,,,,,,,,,,,,,,,,,,,,,,,,,,,,,,,,,,,,
,,,,,,,,,,stimuli/images/PICTURE_655.png,TOILET,5eea37b60e95520ef6907500,02/12/1954,2020-09-12_09h25.12.039,proactive3.2,2020.1.2,Win32,60,5f5adea66120081ea0f57a61,5f5c85b7a4d19c46c4d4b75a,3,,,,,,megaphone,,,,,,0,51,51,12,1,2,1,,,,,,,,,,,,,,,,,,,,,,,,,,,,,,,,,,,,,,,,,,,,,,,,,,,,,,,,,,,,,,,,,,,,,,,,,,,
,,,,,,,,,,stimuli/images/PICTURE_708.png,RECORD,5eea37b60e95520ef6907500,02/12/1954,2020-09-12_09h25.12.039,proactive3.2,2020.1.2,Win32,60,5f5adea66120081ea0f57a61,5f5c85b7a4d19c46c4d4b75a,3,,,,,,monkey,,,,,,0,52,52,58,1,6,1,,,,,,,,,,,,,,,,,,,,,,,,,,,,,,,,,,,,,,,,,,,,,,,,,,,,,,,,,,,,,,,,,,,,,,,,,,,
,,,,,,,,,,stimuli/images/PICTURE_405.png,PLENTY,5eea37b60e95520ef6907500,02/12/1954,2020-09-12_09h25.12.039,proactive3.2,2020.1.2,Win32,60,5f5adea66120081ea0f57a61,5f5c85b7a4d19c46c4d4b75a,3,,,,,,anchor,,,,,,0,53,53,23,1,3,1,,,,,,,,,,,,,,,,,,,,,,,,,,,,,,,,,,,,,,,,,,,,,,,,,,,,,,,,,,,,,,,,,,,,,,,,,,,
,,,,,,,,,,stimuli/images/PICTURE_327.png,SERIES,5eea37b60e95520ef6907500,02/12/1954,2020-09-12_09h25.12.039,proactive3.2,2020.1.2,Win32,60,5f5adea66120081ea0f57a61,5f5c85b7a4d19c46c4d4b75a,3,,,,,,helmet,,,,,,0,54,54,3,1,1,1,,,,,,,,,,,,,,,,,,,,,,,,,,,,,,,,,,,,,,,,,,,,,,,,,,,,,,,,,,,,,,,,,,,,,,,,,,,
,,,,,,,,,,stimuli/images/PICTURE_297.png,RIVER,5eea37b60e95520ef6907500,02/12/1954,2020-09-12_09h25.12.039,proactive3.2,2020.1.2,Win32,60,5f5adea66120081ea0f57a61,5f5c85b7a4d19c46c4d4b75a,3,,,,,,aeroplane,,,,,,0,55,55,39,1,4,1,,,,,,,,,,,,,,,,,,,,,,,,,,,,,,,,,,,,,,,,,,,,,,,,,,,,,,,,,,,,,,,,,,,,,,,,,,,
,,,,,,,,,,stimuli/images/PICTURE_491.png,RIVER,5eea37b60e95520ef6907500,02/12/1954,2020-09-12_09h25.12.039,proactive3.2,2020.1.2,Win32,60,5f5adea66120081ea0f57a61,5f5c85b7a4d19c46c4d4b75a,3,,,,,,rug,,,,,,0,56,56,6,1,1,1,,,,,,,,,,,,,,,,,,,,,,,,,,,,,,,,,,,,,,,,,,,,,,,,,,,,,,,,,,,,,,,,,,,,,,,,,,,
,,,,,,,,,,stimuli/images/PICTURE_203.png,GODS,5eea37b60e95520ef6907500,02/12/1954,2020-09-12_09h25.12.039,proactive3.2,2020.1.2,Win32,60,5f5adea66120081ea0f57a61,5f5c85b7a4d19c46c4d4b75a,3,,,,,,cap,,,,,,0,57,57,30,1,4,1,,,,,,,,,,,,,,,,,,,,,,,,,,,,,,,,,,,,,,,,,,,,,,,,,,,,,,,,,,,,,,,,,,,,,,,,,,,
,,,,,,,,,,stimuli/images/PICTURE_2.png,FLIGHT,5eea37b60e95520ef6907500,02/12/1954,2020-09-12_09h25.12.039,proactive3.2,2020.1.2,Win32,60,5f5adea66120081ea0f57a61,5f5c85b7a4d19c46c4d4b75a,3,,,,,,tyre,,,,,,0,58,58,15,1,2,1,,,,,,,,,,,,,,,,,,,,,,,,,,,,,,,,,,,,,,,,,,,,,,,,,,,,,,,,,,,,,,,,,,,,,,,,,,,
,,POLICY,5.14564,1,,,,,,stimuli/images/PICTURE_108.png,POLICY,5eea37b60e95520ef6907500,02/12/1954,2020-09-12_09h25.12.039,proactive3.2,2020.1.2,Win32,60,5f5adea66120081ea0f57a61,5f5c85b7a4d19c46c4d4b75a,3,,,,,,calendar,,,,,,,,,,,3,1,0,0,0,22,1,,,,,,,,,,,,,,,,,,,,,,,,,,,,,,,,,,,,,,,,,,,,,,,,,,,,,,,,,,,,,,,,,,,,,,
,,?,0.00175,0,,,,,,stimuli/images/PICTURE_504.png,YEAR,5eea37b60e95520ef6907500,02/12/1954,2020-09-12_09h25.12.039,proactive3.2,2020.1.2,Win32,60,5f5adea66120081ea0f57a61,5f5c85b7a4d19c46c4d4b75a,3,,,,,,wheel,,,,,,,,,,,2,1,0,1,1,13,1,,,,,,,,,,,,,,,,,,,,,,,,,,,,,,,,,,,,,,,,,,,,,,,,,,,,,,,,,,,,,,,,,,,,,,
,,?,3.483345,0,,,,,,stimuli/images/PICTURE_340.png,LETTER,5eea37b60e95520ef6907500,02/12/1954,2020-09-12_09h25.12.039,proactive3.2,2020.1.2,Win32,60,5f5adea66120081ea0f57a61,5f5c85b7a4d19c46c4d4b75a,3,,,,,,mirror,,,,,,,,,,,3,1,0,2,2,24,1,,,,,,,,,,,,,,,,,,,,,,,,,,,,,,,,,,,,,,,,,,,,,,,,,,,,,,,,,,,,,,,,,,,,,,
,,?,0.001455,0,,,,,,stimuli/images/PICTURE_405.png,YEAR,5eea37b60e95520ef6907500,02/12/1954,2020-09-12_09h25.12.039,proactive3.2,2020.1.2,Win32,60,5f5adea66120081ea0f57a61,5f5c85b7a4d19c46c4d4b75a,3,,,,,,anchor,,,,,,,,,,,4,1,0,3,3,34,1,,,,,,,,,,,,,,,,,,,,,,,,,,,,,,,,,,,,,,,,,,,,,,,,,,,,,,,,,,,,,,,,,,,,,,
,,?,2.56956,0,,,,,,stimuli/images/PICTURE_383.png,WRITER,5eea37b60e95520ef6907500,02/12/1954,2020-09-12_09h25.12.039,proactive3.2,2020.1.2,Win32,60,5f5adea66120081ea0f57a61,5f5c85b7a4d19c46c4d4b75a,3,,,,,,coin,,,,,,,,,,,3,1,0,4,4,28,1,,,,,,,,,,,,,,,,,,,,,,,,,,,,,,,,,,,,,,,,,,,,,,,,,,,,,,,,,,,,,,,,,,,,,,
,,?,0.001585,0,,,,,,stimuli/images/PICTURE_685.png,PENNY,5eea37b60e95520ef6907500,02/12/1954,2020-09-12_09h25.12.039,proactive3.2,2020.1.2,Win32,60,5f5adea66120081ea0f57a61,5f5c85b7a4d19c46c4d4b75a,3,,,,,,goose,,,,,,,,,,,1,1,0,5,5,4,1,,,,,,,,,,,,,,,,,,,,,,,,,,,,,,,,,,,,,,,,,,,,,,,,,,,,,,,,,,,,,,,,,,,,,,
,,?,0.00133,0,,,,,,stimuli/images/PICTURE_504.png,ARTIST,5eea37b60e95520ef6907500,02/12/1954,2020-09-12_09h25.12.039,proactive3.2,2020.1.2,Win32,60,5f5adea66120081ea0f57a61,5f5c85b7a4d19c46c4d4b75a,3,,,,,,wheel,,,,,,,,,,,5,1,0,6,6,49,1,,,,,,,,,,,,,,,,,,,,,,,,,,,,,,,,,,,,,,,,,,,,,,,,,,,,,,,,,,,,,,,,,,,,,,
,,CALENDAR,10.899275,0,,,,,,stimuli/images/PICTURE_654.png,MONTH,5eea37b60e95520ef6907500,02/12/1954,2020-09-12_09h25.12.039,proactive3.2,2020.1.2,Win32,60,5f5adea66120081ea0f57a61,5f5c85b7a4d19c46c4d4b75a,3,,,,,,pencil,,,,,,,,,,,3,1,0,7,7,29,1,,,,,,,,,,,,,,,,,,,,,,,,,,,,,,,,,,,,,,,,,,,,,,,,,,,,,,,,,,,,,,,,,,,,,,
,,?,0.004495,0,,,,,,stimuli/images/PICTURE_491.png,RIVER,5eea37b60e95520ef6907500,02/12/1954,2020-09-12_09h25.12.039,proactive3.2,2020.1.2,Win32,60,5f5adea66120081ea0f57a61,5f5c85b7a4d19c46c4d4b75a,3,,,,,,rug,,,,,,,,,,,1,1,0,8,8,6,1,,,,,,,,,,,,,,,,,,,,,,,,,,,,,,,,,,,,,,,,,,,,,,,,,,,,,,,,,,,,,,,,,,,,,,
,,?,0.00126,0,,,,,,stimuli/images/PICTURE_95.png,BOYS,5eea37b60e95520ef6907500,02/12/1954,2020-09-12_09h25.12.039,proactive3.2,2020.1.2,Win32,60,5f5adea66120081ea0f57a61,5f5c85b7a4d19c46c4d4b75a,3,,,,,,suitcase,,,,,,,,,,,1,1,0,9,9,1,1,,,,,,,,,,,,,,,,,,,,,,,,,,,,,,,,,,,,,,,,,,,,,,,,,,,,,,,,,,,,,,,,,,,,,,
,,?,0.001395,0,,,,,,stimuli/images/PICTURE_85.png,TOILET,5eea37b60e95520ef6907500,02/12/1954,2020-09-12_09h25.12.039,proactive3.2,2020.1.2,Win32,60,5f5adea66120081ea0f57a61,5f5c85b7a4d19c46c4d4b75a,3,,,,,,diamond,,,,,,,,,,,5,1,0,10,10,48,1,,,,,,,,,,,,,,,,,,,,,,,,,,,,,,,,,,,,,,,,,,,,,,,,,,,,,,,,,,,,,,,,,,,,,,
,,?,0.001125,0,,,,,,stimuli/images/PICTURE_403.png,WRITER,5eea37b60e95520ef6907500,02/12/1954,2020-09-12_09h25.12.039,proactive3.2,2020.1.2,Win32,60,5f5adea66120081ea0f57a61,5f5c85b7a4d19c46c4d4b75a,3,,,,,,cathedral,,,,,,,,,,,4,1,0,11,11,31,1,,,,,,,,,,,,,,,,,,,,,,,,,,,,,,,,,,,,,,,,,,,,,,,,,,,,,,,,,,,,,,,,,,,,,,
,,?,0.000975,0,,,,,,stimuli/images/PICTURE_380.png,HONEY,5eea37b60e95520ef6907500,02/12/1954,2020-09-12_09h25.12.039,proactive3.2,2020.1.2,Win32,60,5f5adea66120081ea0f57a61,5f5c85b7a4d19c46c4d4b75a,3,,,,,,gorilla,,,,,,,,,,,2,1,0,12,12,19,1,,,,,,,,,,,,,,,,,,,,,,,,,,,,,,,,,,,,,,,,,,,,,,,,,,,,,,,,,,,,,,,,,,,,,,
,,?,1.91898,0,,,,,,stimuli/images/PICTURE_564.png,BATH,5eea37b60e95520ef6907500,02/12/1954,2020-09-12_09h25.12.039,proactive3.2,2020.1.2,Win32,60,5f5adea66120081ea0f57a61,5f5c85b7a4d19c46c4d4b75a,3,,,,,,spoon,,,,,,,,,,,3,1,0,13,13,26,1,,,,,,,,,,,,,,,,,,,,,,,,,,,,,,,,,,,,,,,,,,,,,,,,,,,,,,,,,,,,,,,,,,,,,,
,,?,0.004115,0,,,,,,stimuli/images/PICTURE_95.png,HONEY,5eea37b60e95520ef6907500,02/12/1954,2020-09-12_09h25.12.039,proactive3.2,2020.1.2,Win32,60,5f5adea66120081ea0f57a61,5f5c85b7a4d19c46c4d4b75a,3,,,,,,suitcase,,,,,,,,,,,5,1,0,14,14,44,1,,,,,,,,,,,,,,,,,,,,,,,,,,,,,,,,,,,,,,,,,,,,,,,,,,,,,,,,,,,,,,,,,,,,,,
,,?,0.00206,0,,,,,,stimuli/images/PICTURE_32.png,KIND,5eea37b60e95520ef6907500,02/12/1954,2020-09-12_09h25.12.039,proactive3.2,2020.1.2,Win32,60,5f5adea66120081ea0f57a61,5f5c85b7a4d19c46c4d4b75a,3,,,,,,crown,,,,,,,,,,,4,1,0,15,15,35,1,,,,,,,,,,,,,,,,,,,,,,,,,,,,,,,,,,,,,,,,,,,,,,,,,,,,,,,,,,,,,,,,,,,,,,
,,MONTH,4.87711,0,,,,,,stimuli/images/PICTURE_147.png,YEAR,5eea37b60e95520ef6907500,02/12/1954,2020-09-12_09h25.12.039,proactive3.2,2020.1.2,Win32,60,5f5adea66120081ea0f57a61,5f5c85b7a4d19c46c4d4b75a,3,,,,,,hanger,,,,,,,,,,,3,1,0,16,16,21,1,,,,,,,,,,,,,,,,,,,,,,,,,,,,,,,,,,,,,,,,,,,,,,,,,,,,,,,,,,,,,,,,,,,,,,
,,?,0.002435,0,,,,,,stimuli/images/PICTURE_208.png,SYSTEM,5eea37b60e95520ef6907500,02/12/1954,2020-09-12_09h25.12.039,proactive3.2,2020.1.2,Win32,60,5f5adea66120081ea0f57a61,5f5c85b7a4d19c46c4d4b75a,3,,,,,,microphone,,,,,,,,,,,4,1,0,17,17,32,1,,,,,,,,,,,,,,,,,,,,,,,,,,,,,,,,,,,,,,,,,,,,,,,,,,,,,,,,,,,,,,,,,,,,,,
,,?,0.001665,0,,,,,,stimuli/images/PICTURE_42.png,BOYS,5eea37b60e95520ef6907500,02/12/1954,2020-09-12_09h25.12.039,proactive3.2,2020.1.2,Win32,60,5f5adea66120081ea0f57a61,5f5c85b7a4d19c46c4d4b75a,3,,,,,,pear,,,,,,,,,,,6,1,0,18,18,55,1,,,,,,,,,,,,,,,,,,,,,,,,,,,,,,,,,,,,,,,,,,,,,,,,,,,,,,,,,,,,,,,,,,,,,,
,,?,0.00115,0,,,,,,stimuli/images/PICTURE_147.png,WOMEN,5eea37b60e95520ef6907500,02/12/1954,2020-09-12_09h25.12.039,proactive3.2,2020.1.2,Win32,60,5f5adea66120081ea0f57a61,5f5c85b7a4d19c46c4d4b75a,3,,,,,,hanger,,,,,,,,,,,1,1,0,19,19,7,1,,,,,,,,,,,,,,,,,,,,,,,,,,,,,,,,,,,,,,,,,,,,,,,,,,,,,,,,,,,,,,,,,,,,,,
,,?,0.001565,0,,,,,,stimuli/images/PICTURE_677.png,APPLE,5eea37b60e95520ef6907500,02/12/1954,2020-09-12_09h25.12.039,proactive3.2,2020.1.2,Win32,60,5f5adea66120081ea0f57a61,5f5c85b7a4d19c46c4d4b75a,3,,,,,,map,,,,,,,,,,,5,1,0,20,20,43,1,,,,,,,,,,,,,,,,,,,,,,,,,,,,,,,,,,,,,,,,,,,,,,,,,,,,,,,,,,,,,,,,,,,,,,
,,?,0.001295,0,,,,,,stimuli/images/PICTURE_296.png,LOTS,5eea37b60e95520ef6907500,02/12/1954,2020-09-12_09h25.12.039,proactive3.2,2020.1.2,Win32,60,5f5adea66120081ea0f57a61,5f5c85b7a4d19c46c4d4b75a,3,,,,,,bolt,,,,,,,,,,,1,1,0,21,21,9,1,,,,,,,,,,,,,,,,,,,,,,,,,,,,,,,,,,,,,,,,,,,,,,,,,,,,,,,,,,,,,,,,,,,,,,
,,?,0.0014,0,,,,,,stimuli/images/PICTURE_33.png,FRIEND,5eea37b60e95520ef6907500,02/12/1954,2020-09-12_09h25.12.039,proactive3.2,2020.1.2,Win32,60,5f5adea66120081ea0f57a61,5f5c85b7a4d19c46c4d4b75a,3,,,,,,frame,,,,,,,,,,,1,1,0,22,22,8,1,,,,,,,,,,,,,,,,,,,,,,,,,,,,,,,,,,,,,,,,,,,,,,,,,,,,,,,,,,,,,,,,,,,,,,
,,?,0.00157,0,,,,,,stimuli/images/PICTURE_233.png,LOTS,5eea37b60e95520ef6907500,02/12/1954,2020-09-12_09h25.12.039,proactive3.2,2020.1.2,Win32,60,5f5adea66120081ea0f57a61,5f5c85b7a4d19c46c4d4b75a,3,,,,,,salt,,,,,,,,,,,5,1,0,23,23,42,1,,,,,,,,,,,,,,,,,,,,,,,,,,,,,,,,,,,,,,,,,,,,,,,,,,,,,,,,,,,,,,,,,,,,,,
,,?,0.001065,0,,,,,,stimuli/images/PICTURE_491.png,GLASS,5eea37b60e95520ef6907500,02/12/1954,2020-09-12_09h25.12.039,proactive3.2,2020.1.2,Win32,60,5f5adea66120081ea0f57a61,5f5c85b7a4d19c46c4d4b75a,3,,,,,,rug,,,,,,,,,,,2,1,0,24,24,14,1,,,,,,,,,,,,,,,,,,,,,,,,,,,,,,,,,,,,,,,,,,,,,,,,,,,,,,,,,,,,,,,,,,,,,,
,,?,3.57578,0,,,,,,stimuli/images/PICTURE_750.png,HOTEL,5eea37b60e95520ef6907500,02/12/1954,2020-09-12_09h25.12.039,proactive3.2,2020.1.2,Win32,60,5f5adea66120081ea0f57a61,5f5c85b7a4d19c46c4d4b75a,3,,,,,,kettle,,,,,,,,,,,3,1,0,25,25,27,1,,,,,,,,,,,,,,,,,,,,,,,,,,,,,,,,,,,,,,,,,,,,,,,,,,,,,,,,,,,,,,,,,,,,,,
,,?,0.002605,0,,,,,,stimuli/images/PICTURE_108.png,FLIGHT,5eea37b60e95520ef6907500,02/12/1954,2020-09-12_09h25.12.039,proactive3.2,2020.1.2,Win32,60,5f5adea66120081ea0f57a61,5f5c85b7a4d19c46c4d4b75a,3,,,,,,calendar,,,,,,,,,,,6,1,0,26,26,59,1,,,,,,,,,,,,,,,,,,,,,,,,,,,,,,,,,,,,,,,,,,,,,,,,,,,,,,,,,,,,,,,,,,,,,,
,,?,0.00131,0,,,,,,stimuli/images/PICTURE_504.png,COPS,5eea37b60e95520ef6907500,02/12/1954,2020-09-12_09h25.12.039,proactive3.2,2020.1.2,Win32,60,5f5adea66120081ea0f57a61,5f5c85b7a4d19c46c4d4b75a,3,,,,,,wheel,,,,,,,,,,,6,1,0,27,27,52,1,,,,,,,,,,,,,,,,,,,,,,,,,,,,,,,,,,,,,,,,,,,,,,,,,,,,,,,,,,,,,,,,,,,,,,
,,?,0.001095,0,,,,,,stimuli/images/PICTURE_308.png,FAMILY,5eea37b60e95520ef6907500,02/12/1954,2020-09-12_09h25.12.039,proactive3.2,2020.1.2,Win32,60,5f5adea66120081ea0f57a61,5f5c85b7a4d19c46c4d4b75a,3,,,,,,dice,,,,,,,,,,,4,1,0,28,28,36,1,,,,,,,,,,,,,,,,,,,,,,,,,,,,,,,,,,,,,,,,,,,,,,,,,,,,,,,,,,,,,,,,,,,,,,
,,?,0.001235,0,,,,,,stimuli/images/PICTURE_285.png,LIFE,5eea37b60e95520ef6907500,02/12/1954,2020-09-12_09h25.12.039,proactive3.2,2020.1.2,Win32,60,5f5adea66120081ea0f57a61,5f5c85b7a4d19c46c4d4b75a,3,,,,,,carrot,,,,,,,,,,,4,1,0,29,29,33,1,,,,,,,,,,,,,,,,,,,,,,,,,,,,,,,,,,,,,,,,,,,,,,,,,,,,,,,,,,,,,,,,,,,,,,
,,?,0.001565,0,,,,,,stimuli/images/PICTURE_708.png,RECORD,5eea37b60e95520ef6907500,02/12/1954,2020-09-12_09h25.12.039,proactive3.2,2020.1.2,Win32,60,5f5adea66120081ea0f57a61,5f5c85b7a4d19c46c4d4b75a,3,,,,,,monkey,,,,,,,,,,,6,1,0,30,30,58,1,,,,,,,,,,,,,,,,,,,,,,,,,,,,,,,,,,,,,,,,,,,,,,,,,,,,,,,,,,,,,,,,,,,,,,
,,C,4.28983,0,,,,,,stimuli/images/PICTURE_405.png,PLENTY,5eea37b60e95520ef6907500,02/12/1954,2020-09-12_09h25.12.039,proactive3.2,2020.1.2,Win32,60,5f5adea66120081ea0f57a61,5f5c85b7a4d19c46c4d4b75a,3,,,,,,anchor,,,,,,,,,,,3,1,0,31,31,23,1,,,,,,,,,,,,,,,,,,,,,,,,,,,,,,,,,,,,,,,,,,,,,,,,,,,,,,,,,,,,,,,,,,,,,,
,,?,0.004105,0,,,,,,stimuli/images/PICTURE_68.png,MILE,5eea37b60e95520ef6907500,02/12/1954,2020-09-12_09h25.12.039,proactive3.2,2020.1.2,Win32,60,5f5adea66120081ea0f57a61,5f5c85b7a4d19c46c4d4b75a,3,,,,,,candle,,,,,,,,,,,6,1,0,32,32,51,1,,,,,,,,,,,,,,,,,,,,,,,,,,,,,,,,,,,,,,,,,,,,,,,,,,,,,,,,,,,,,,,,,,,,,,
,,?,0.0023,0,,,,,,stimuli/images/PICTURE_2.png,FLIGHT,5eea37b60e95520ef6907500,02/12/1954,2020-09-12_09h25.12.039,proactive3.2,2020.1.2,Win32,60,5f5adea66120081ea0f57a61,5f5c85b7a4d19c46c4d4b75a,3,,,,,,tyre,,,,,,,,,,,2,1,0,33,33,15,1,,,,,,,,,,,,,,,,,,,,,,,,,,,,,,,,,,,,,,,,,,,,,,,,,,,,,,,,,,,,,,,,,,,,,,
,,?,0.001125,0,,,,,,stimuli/images/PICTURE_383.png,SERIES,5eea37b60e95520ef6907500,02/12/1954,2020-09-12_09h25.12.039,proactive3.2,2020.1.2,Win32,60,5f5adea66120081ea0f57a61,5f5c85b7a4d19c46c4d4b75a,3,,,,,,coin,,,,,,,,,,,5,1,0,34,34,46,1,,,,,,,,,,,,,,,,,,,,,,,,,,,,,,,,,,,,,,,,,,,,,,,,,,,,,,,,,,,,,,,,,,,,,,
,,?,0.001325,0,,,,,,stimuli/images/PICTURE_380.png,CANDY,5eea37b60e95520ef6907500,02/12/1954,2020-09-12_09h25.12.039,proactive3.2,2020.1.2,Win32,60,5f5adea66120081ea0f57a61,5f5c85b7a4d19c46c4d4b75a,3,,,,,,gorilla,,,,,,,,,,,1,1,0,35,35,0,1,,,,,,,,,,,,,,,,,,,,,,,,,,,,,,,,,,,,,,,,,,,,,,,,,,,,,,,,,,,,,,,,,,,,,,
,,?,3.1607,0,,,,,,stimuli/images/PICTURE_327.png,CASINO,5eea37b60e95520ef6907500,02/12/1954,2020-09-12_09h25.12.039,proactive3.2,2020.1.2,Win32,60,5f5adea66120081ea0f57a61,5f5c85b7a4d19c46c4d4b75a,3,,,,,,helmet,,,,,,,,,,,3,1,0,36,36,20,1,,,,,,,,,,,,,,,,,,,,,,,,,,,,,,,,,,,,,,,,,,,,,,,,,,,,,,,,,,,,,,,,,,,,,,
,,?,0.002325,0,,,,,,stimuli/images/PICTURE_95.png,MILLER,5eea37b60e95520ef6907500,02/12/1954,2020-09-12_09h25.12.039,proactive3.2,2020.1.2,Win32,60,5f5adea66120081ea0f57a61,5f5c85b7a4d19c46c4d4b75a,3,,,,,,suitcase,,,,,,,,,,,6,1,0,37,37,56,1,,,,,,,,,,,,,,,,,,,,,,,,,,,,,,,,,,,,,,,,,,,,,,,,,,,,,,,,,,,,,,,,,,,,,,
,,?,0.001465,0,,,,,,stimuli/images/PICTURE_296.png,LIFE,5eea37b60e95520ef6907500,02/12/1954,2020-09-12_09h25.12.039,proactive3.2,2020.1.2,Win32,60,5f5adea66120081ea0f57a61,5f5c85b7a4d19c46c4d4b75a,3,,,,,,bolt,,,,,,,,,,,6,1,0,38,38,57,1,,,,,,,,,,,,,,,,,,,,,,,,,,,,,,,,,,,,,,,,,,,,,,,,,,,,,,,,,,,,,,,,,,,,,,
,,?,0.002015,0,,,,,,stimuli/images/PICTURE_655.png,TOILET,5eea37b60e95520ef6907500,02/12/1954,2020-09-12_09h25.12.039,proactive3.2,2020.1.2,Win32,60,5f5adea66120081ea0f57a61,5f5c85b7a4d19c46c4d4b75a,3,,,,,,megaphone,,,,,,,,,,,2,1,0,39,39,12,1,,,,,,,,,,,,,,,,,,,,,,,,,,,,,,,,,,,,,,,,,,,,,,,,,,,,,,,,,,,,,,,,,,,,,,
,,?,0.00218,0,,,,,,stimuli/images/PICTURE_339.png,CLIENT,5eea37b60e95520ef6907500,02/12/1954,2020-09-12_09h25.12.039,proactive3.2,2020.1.2,Win32,60,5f5adea66120081ea0f57a61,5f5c85b7a4d19c46c4d4b75a,3,,,,,,backpack,,,,,,,,,,,2,1,0,40,40,11,1,,,,,,,,,,,,,,,,,,,,,,,,,,,,,,,,,,,,,,,,,,,,,,,,,,,,,,,,,,,,,,,,,,,,,,
,,?,0.00146,0,,,,,,stimuli/images/PICTURE_203.png,NIGHT,5eea37b60e95520ef6907500,02/12/1954,2020-09-12_09h25.12.039,proactive3.2,2020.1.2,Win32,60,5f5adea66120081ea0f57a61,5f5c85b7a4d19c46c4d4b75a,3,,,,,,cap,,,,,,,,,,,1,1,0,41,41,2,1,,,,,,,,,,,,,,,,,,,,,,,,,,,,,,,,,,,,,,,,,,,,,,,,,,,,,,,,,,,,,,,,,,,,,,
,,?,0.00131,0,,,,,,stimuli/images/PICTURE_469.png,AGENT,5eea37b60e95520ef6907500,02/12/1954,2020-09-12_09h25.12.039,proactive3.2,2020.1.2,Win32,60,5f5adea66120081ea0f57a61,5f5c85b7a4d19c46c4d4b75a,3,,,,,,stool,,,,,,,,,,,2,1,0,42,42,16,1,,,,,,,,,,,,,,,,,,,,,,,,,,,,,,,,,,,,,,,,,,,,,,,,,,,,,,,,,,,,,,,,,,,,,,
,,?,0.00123,0,,,,,,stimuli/images/PICTURE_68.png,ROOF,5eea37b60e95520ef6907500,02/12/1954,2020-09-12_09h25.12.039,proactive3.2,2020.1.2,Win32,60,5f5adea66120081ea0f57a61,5f5c85b7a4d19c46c4d4b75a,3,,,,,,candle,,,,,,,,,,,4,1,0,43,43,38,1,,,,,,,,,,,,,,,,,,,,,,,,,,,,,,,,,,,,,,,,,,,,,,,,,,,,,,,,,,,,,,,,,,,,,,
,,?,0.00127,0,,,,,,stimuli/images/PICTURE_744.png,WEAPON,5eea37b60e95520ef6907500,02/12/1954,2020-09-12_09h25.12.039,proactive3.2,2020.1.2,Win32,60,5f5adea66120081ea0f57a61,5f5c85b7a4d19c46c4d4b75a,3,,,,,,ring,,,,,,,,,,,6,1,0,44,44,50,1,,,,,,,,,,,,,,,,,,,,,,,,,,,,,,,,,,,,,,,,,,,,,,,,,,,,,,,,,,,,,,,,,,,,,,
,,?,0.00125,0,,,,,,stimuli/images/PICTURE_467.png,POLICY,5eea37b60e95520ef6907500,02/12/1954,2020-09-12_09h25.12.039,proactive3.2,2020.1.2,Win32,60,5f5adea66120081ea0f57a61,5f5c85b7a4d19c46c4d4b75a,3,,,,,,peg,,,,,,,,,,,6,1,0,45,45,53,1,,,,,,,,,,,,,,,,,,,,,,,,,,,,,,,,,,,,,,,,,,,,,,,,,,,,,,,,,,,,,,,,,,,,,,
,,?,0.001325,0,,,,,,stimuli/images/PICTURE_675.png,SALE,5eea37b60e95520ef6907500,02/12/1954,2020-09-12_09h25.12.039,proactive3.2,2020.1.2,Win32,60,5f5adea66120081ea0f57a61,5f5c85b7a4d19c46c4d4b75a,3,,,,,,windmill,,,,,,,,,,,5,1,0,46,46,47,1,,,,,,,,,,,,,,,,,,,,,,,,,,,,,,,,,,,,,,,,,,,,,,,,,,,,,,,,,,,,,,,,,,,,,,
,,?,0.0008,0,,,,,,stimuli/images/PICTURE_57.png,MOMENT,5eea37b60e95520ef6907500,02/12/1954,2020-09-12_09h25.12.039,proactive3.2,2020.1.2,Win32,60,5f5adea66120081ea0f57a61,5f5c85b7a4d19c46c4d4b75a,3,,,,,,stamp,,,,,,,,,,,4,1,0,47,47,37,1,,,,,,,,,,,,,,,,,,,,,,,,,,,,,,,,,,,,,,,,,,,,,,,,,,,,,,,,,,,,,,,,,,,,,,
,,?,0.000895,0,,,,,,stimuli/images/PICTURE_177.png,WRITER,5eea37b60e95520ef6907500,02/12/1954,2020-09-12_09h25.12.039,proactive3.2,2020.1.2,Win32,60,5f5adea66120081ea0f57a61,5f5c85b7a4d19c46c4d4b75a,3,,,,,,mushroom,,,,,,,,,,,5,1,0,48,48,41,1,,,,,,,,,,,,,,,,,,,,,,,,,,,,,,,,,,,,,,,,,,,,,,,,,,,,,,,,,,,,,,,,,,,,,,
,,?,0.00076,0,,,,,,stimuli/images/PICTURE_340.png,VALLEY,5eea37b60e95520ef6907500,02/12/1954,2020-09-12_09h25.12.039,proactive3.2,2020.1.2,Win32,60,5f5adea66120081ea0f57a61,5f5c85b7a4d19c46c4d4b75a,3,,,,,,mirror,,,,,,,,,,,6,1,0,49,49,54,1,,,,,,,,,,,,,,,,,,,,,,,,,,,,,,,,,,,,,,,,,,,,,,,,,,,,,,,,,,,,,,,,,,,,,,
,,?,0.000715,0,,,,,,stimuli/images/PICTURE_32.png,PILLS,5eea37b60e95520ef6907500,02/12/1954,2020-09-12_09h25.12.039,proactive3.2,2020.1.2,Win32,60,5f5adea66120081ea0f57a61,5f5c85b7a4d19c46c4d4b75a,3,,,,,,crown,,,,,,,,,,,2,1,0,50,50,18,1,,,,,,,,,,,,,,,,,,,,,,,,,,,,,,,,,,,,,,,,,,,,,,,,,,,,,,,,,,,,,,,,,,,,,,
,,?,0.00076,0,,,,,,stimuli/images/PICTURE_403.png,RIVER,5eea37b60e95520ef6907500,02/12/1954,2020-09-12_09h25.12.039,proactive3.2,2020.1.2,Win32,60,5f5adea66120081ea0f57a61,5f5c85b7a4d19c46c4d4b75a,3,,,,,,cathedral,,,,,,,,,,,5,1,0,51,51,40,1,,,,,,,,,,,,,,,,,,,,,,,,,,,,,,,,,,,,,,,,,,,,,,,,,,,,,,,,,,,,,,,,,,,,,,
,,?,0.000875,0,,,,,,stimuli/images/PICTURE_449.png,DUDE,5eea37b60e95520ef6907500,02/12/1954,2020-09-12_09h25.12.039,proactive3.2,2020.1.2,Win32,60,5f5adea66120081ea0f57a61,5f5c85b7a4d19c46c4d4b75a,3,,,,,,bench,,,,,,,,,,,2,1,0,52,52,17,1,,,,,,,,,,,,,,,,,,,,,,,,,,,,,,,,,,,,,,,,,,,,,,,,,,,,,,,,,,,,,,,,,,,,,,
,,?,0.000795,0,,,,,,stimuli/images/PICTURE_327.png,SERIES,5eea37b60e95520ef6907500,02/12/1954,2020-09-12_09h25.12.039,proactive3.2,2020.1.2,Win32,60,5f5adea66120081ea0f57a61,5f5c85b7a4d19c46c4d4b75a,3,,,,,,helmet,,,,,,,,,,,1,1,0,53,53,3,1,,,,,,,,,,,,,,,,,,,,,,,,,,,,,,,,,,,,,,,,,,,,,,,,,,,,,,,,,,,,,,,,,,,,,,
,,?,0.00072,0,,,,,,stimuli/images/PICTURE_667.png,RIVER,5eea37b60e95520ef6907500,02/12/1954,2020-09-12_09h25.12.039,proactive3.2,2020.1.2,Win32,60,5f5adea66120081ea0f57a61,5f5c85b7a4d19c46c4d4b75a,3,,,,,,daisy,,,,,,,,,,,2,1,0,54,54,10,1,,,,,,,,,,,,,,,,,,,,,,,,,,,,,,,,,,,,,,,,,,,,,,,,,,,,,,,,,,,,,,,,,,,,,,
,,?,0.000705,0,,,,,,stimuli/images/PICTURE_487.png,GIRL,5eea37b60e95520ef6907500,02/12/1954,2020-09-12_09h25.12.039,proactive3.2,2020.1.2,Win32,60,5f5adea66120081ea0f57a61,5f5c85b7a4d19c46c4d4b75a,3,,,,,,basket,,,,,,,,,,,5,1,0,55,55,45,1,,,,,,,,,,,,,,,,,,,,,,,,,,,,,,,,,,,,,,,,,,,,,,,,,,,,,,,,,,,,,,,,,,,,,,
,,?,0.00084,0,,,,,,stimuli/images/PICTURE_203.png,GODS,5eea37b60e95520ef6907500,02/12/1954,2020-09-12_09h25.12.039,proactive3.2,2020.1.2,Win32,60,5f5adea66120081ea0f57a61,5f5c85b7a4d19c46c4d4b75a,3,,,,,,cap,,,,,,,,,,,4,1,0,56,56,30,1,,,,,,,,,,,,,,,,,,,,,,,,,,,,,,,,,,,,,,,,,,,,,,,,,,,,,,,,,,,,,,,,,,,,,,
,,TOILET,4.14351,1,,,,,,stimuli/images/PICTURE_403.png,TOILET,5eea37b60e95520ef6907500,02/12/1954,2020-09-12_09h25.12.039,proactive3.2,2020.1.2,Win32,60,5f5adea66120081ea0f57a61,5f5c85b7a4d19c46c4d4b75a,3,,,,,,cathedral,,,,,,,,,,,3,1,0,57,57,25,1,,,,,,,,,,,,,,,,,,,,,,,,,,,,,,,,,,,,,,,,,,,,,,,,,,,,,,,,,,,,,,,,,,,,,,
,,?,0.003105,0,,,,,,stimuli/images/PICTURE_297.png,RIVER,5eea37b60e95520ef6907500,02/12/1954,2020-09-12_09h25.12.039,proactive3.2,2020.1.2,Win32,60,5f5adea66120081ea0f57a61,5f5c85b7a4d19c46c4d4b75a,3,,,,,,aeroplane,,,,,,,,,,,4,1,0,58,58,39,1,,,,,,,,,,,,,,,,,,,,,,,,,,,,,,,,,,,,,,,,,,,,,,,,,,,,,,,,,,,,,,,,,,,,,,
,,?,0.00171,0,,,,,,stimuli/images/PICTURE_85.png,NATION,5eea37b60e95520ef6907500,02/12/1954,2020-09-12_09h25.12.039,proactive3.2,2020.1.2,Win32,60,5f5adea66120081ea0f57a61,5f5c85b7a4d19c46c4d4b75a,3,,,,,,diamond,,,,,,,,,,,1,1,0,59,59,5,1,,,,,,,,,,,,,,,,,,,,,,,,,,,,,,,,,,,,,,,,,,,,,,,,,,,,,,,,,,,,,,,,,,,,,,
,,,,,,,,,,,,5eea37b60e95520ef6907500,02/12/1954,2020-09-12_09h25.12.039,proactive3.2,2020.1.2,Win32,60,5f5adea66120081ea0f57a61,5f5c85b7a4d19c46c4d4b75a,3,,,,,,,,,,,,,,,,,,,,,,,,0,1,1,1,1,stimuli/learn-block2.csv,,,,,,,,,,,,,,,,,,,,,,,,,,,,,,,,,,,,,,,,,,,,,,,,,,,,,,,,,,,,,,,,
,,,,,,,,,,stimuli/images/PICTURE_311.png,BEAUTY,5eea37b60e95520ef6907500,02/12/1954,2020-09-12_09h25.12.039,proactive3.2,2020.1.2,Win32,60,5f5adea66120081ea0f57a61,5f5c85b7a4d19c46c4d4b75a,3,,,,,,razor,,,,,,0,0,0,13,1,2,0,,,,,,,,,,,,,,,,,,,,,,,,,,,,,,,,,,,,,,,,,,,,,,,,,,,,,,,,,,,,,,,,,,,,,,,,,,,
,,,,,,,,,,stimuli/images/PICTURE_654.png,VALLEY,5eea37b60e95520ef6907500,02/12/1954,2020-09-12_09h25.12.039,proactive3.2,2020.1.2,Win32,60,5f5adea66120081ea0f57a61,5f5c85b7a4d19c46c4d4b75a,3,,,,,,pencil,,,,,,0,1,1,1,1,1,0,,,,,,,,,,,,,,,,,,,,,,,,,,,,,,,,,,,,,,,,,,,,,,,,,,,,,,,,,,,,,,,,,,,,,,,,,,,
,,,,,,,,,,stimuli/images/PICTURE_667.png,BATH,5eea37b60e95520ef6907500,02/12/1954,2020-09-12_09h25.12.039,proactive3.2,2020.1.2,Win32,60,5f5adea66120081ea0f57a61,5f5c85b7a4d19c46c4d4b75a,3,,,,,,daisy,,,,,,0,2,2,4,1,1,0,,,,,,,,,,,,,,,,,,,,,,,,,,,,,,,,,,,,,,,,,,,,,,,,,,,,,,,,,,,,,,,,,,,,,,,,,,,
,,,,,,,,,,stimuli/images/PICTURE_469.png,LETTER,5eea37b60e95520ef6907500,02/12/1954,2020-09-12_09h25.12.039,proactive3.2,2020.1.2,Win32,60,5f5adea66120081ea0f57a61,5f5c85b7a4d19c46c4d4b75a,3,,,,,,stool,,,,,,0,3,3,42,1,5,0,,,,,,,,,,,,,,,,,,,,,,,,,,,,,,,,,,,,,,,,,,,,,,,,,,,,,,,,,,,,,,,,,,,,,,,,,,,
,,,,,,,,,,stimuli/images/PICTURE_688.png,CASINO,5eea37b60e95520ef6907500,02/12/1954,2020-09-12_09h25.12.039,proactive3.2,2020.1.2,Win32,60,5f5adea66120081ea0f57a61,5f5c85b7a4d19c46c4d4b75a,3,,,,,,runner,,,,,,0,4,4,2,1,1,0,,,,,,,,,,,,,,,,,,,,,,,,,,,,,,,,,,,,,,,,,,,,,,,,,,,,,,,,,,,,,,,,,,,,,,,,,,,
,,,,,,,,,,stimuli/images/PICTURE_449.png,THING,5eea37b60e95520ef6907500,02/12/1954,2020-09-12_09h25.12.039,proactive3.2,2020.1.2,Win32,60,5f5adea66120081ea0f57a61,5f5c85b7a4d19c46c4d4b75a,3,,,,,,bench,,,,,,0,5,5,59,1,6,0,,,,,,,,,,,,,,,,,,,,,,,,,,,,,,,,,,,,,,,,,,,,,,,,,,,,,,,,,,,,,,,,,,,,,,,,,,,
,,,,,,,,,,stimuli/images/PICTURE_487.png,FLIGHT,5eea37b60e95520ef6907500,02/12/1954,2020-09-12_09h25.12.039,proactive3.2,2020.1.2,Win32,60,5f5adea66120081ea0f57a61,5f5c85b7a4d19c46c4d4b75a,3,,,,,,basket,,,,,,0,6,6,9,1,1,0,,,,,,,,,,,,,,,,,,,,,,,,,,,,,,,,,,,,,,,,,,,,,,,,,,,,,,,,,,,,,,,,,,,,,,,,,,,
,,,,,,,,,,stimuli/images/PICTURE_285.png,ADVICE,5eea37b60e95520ef6907500,02/12/1954,2020-09-12_09h25.12.039,proactive3.2,2020.1.2,Win32,60,5f5adea66120081ea0f57a61,5f5c85b7a4d19c46c4d4b75a,3,,,,,,carrot,,,,,,0,7,7,12,1,2,0,,,,,,,,,,,,,,,,,,,,,,,,,,,,,,,,,,,,,,,,,,,,,,,,,,,,,,,,,,,,,,,,,,,,,,,,,,,
,,,,,,,,,,stimuli/images/PICTURE_504.png,BODY,5eea37b60e95520ef6907500,02/12/1954,2020-09-12_09h25.12.039,proactive3.2,2020.1.2,Win32,60,5f5adea66120081ea0f57a61,5f5c85b7a4d19c46c4d4b75a,3,,,,,,wheel,,,,,,0,8,8,8,1,1,0,,,,,,,,,,,,,,,,,,,,,,,,,,,,,,,,,,,,,,,,,,,,,,,,,,,,,,,,,,,,,,,,,,,,,,,,,,,
,,,,,,,,,,stimuli/images/PICTURE_356.png,DANGER,5eea37b60e95520ef6907500,02/12/1954,2020-09-12_09h25.12.039,proactive3.2,2020.1.2,Win32,60,5f5adea66120081ea0f57a61,5f5c85b7a4d19c46c4d4b75a,3,,,,,,pawn,,,,,,0,9,9,55,1,6,0,,,,,,,,,,,,,,,,,,,,,,,,,,,,,,,,,,,,,,,,,,,,,,,,,,,,,,,,,,,,,,,,,,,,,,,,,,,
,,,,,,,,,,stimuli/images/PICTURE_233.png,IDEAS,5eea37b60e95520ef6907500,02/12/1954,2020-09-12_09h25.12.039,proactive3.2,2020.1.2,Win32,60,5f5adea66120081ea0f57a61,5f5c85b7a4d19c46c4d4b75a,3,,,,,,salt,,,,,,0,10,10,28,1,3,0,,,,,,,,,,,,,,,,,,,,,,,,,,,,,,,,,,,,,,,,,,,,,,,,,,,,,,,,,,,,,,,,,,,,,,,,,,,
,,,,,,,,,,stimuli/images/PICTURE_339.png,PLENTY,5eea37b60e95520ef6907500,02/12/1954,2020-09-12_09h25.12.039,proactive3.2,2020.1.2,Win32,60,5f5adea66120081ea0f57a61,5f5c85b7a4d19c46c4d4b75a,3,,,,,,backpack,,,,,,0,11,11,0,1,1,0,,,,,,,,,,,,,,,,,,,,,,,,,,,,,,,,,,,,,,,,,,,,,,,,,,,,,,,,,,,,,,,,,,,,,,,,,,,
,,,,,,,,,,stimuli/images/PICTURE_708.png,CLIENT,5eea37b60e95520ef6907500,02/12/1954,2020-09-12_09h25.12.039,proactive3.2,2020.1.2,Win32,60,5f5adea66120081ea0f57a61,5f5c85b7a4d19c46c4d4b75a,3,,,,,,monkey,,,,,,0,12,12,5,1,1,0,,,,,,,,,,,,,,,,,,,,,,,,,,,,,,,,,,,,,,,,,,,,,,,,,,,,,,,,,,,,,,,,,,,,,,,,,,,
,,,,,,,,,,stimuli/images/PICTURE_208.png,THING,5eea37b60e95520ef6907500,02/12/1954,2020-09-12_09h25.12.039,proactive3.2,2020.1.2,Win32,60,5f5adea66120081ea0f57a61,5f5c85b7a4d19c46c4d4b75a,3,,,,,,microphone,,,,,,0,13,13,47,1,5,0,,,,,,,,,,,,,,,,,,,,,,,,,,,,,,,,,,,,,,,,,,,,,,,,,,,,,,,,,,,,,,,,,,,,,,,,,,,
,,,,,,,,,,stimuli/images/PICTURE_203.png,ARTIST,5eea37b60e95520ef6907500,02/12/1954,2020-09-12_09h25.12.039,proactive3.2,2020.1.2,Win32,60,5f5adea66120081ea0f57a61,5f5c85b7a4d19c46c4d4b75a,3,,,,,,cap,,,,,,0,14,14,26,1,3,0,,,,,,,,,,,,,,,,,,,,,,,,,,,,,,,,,,,,,,,,,,,,,,,,,,,,,,,,,,,,,,,,,,,,,,,,,,,
,,,,,,,,,,stimuli/images/PICTURE_123.png,ADVICE,5eea37b60e95520ef6907500,02/12/1954,2020-09-12_09h25.12.039,proactive3.2,2020.1.2,Win32,60,5f5adea66120081ea0f57a61,5f5c85b7a4d19c46c4d4b75a,3,,,,,,dart,,,,,,0,15,15,50,1,6,0,,,,,,,,,,,,,,,,,,,,,,,,,,,,,,,,,,,,,,,,,,,,,,,,,,,,,,,,,,,,,,,,,,,,,,,,,,,
,,,,,,,,,,stimuli/images/PICTURE_491.png,WRITER,5eea37b60e95520ef6907500,02/12/1954,2020-09-12_09h25.12.039,proactive3.2,2020.1.2,Win32,60,5f5adea66120081ea0f57a61,5f5c85b7a4d19c46c4d4b75a,3,,,,,,rug,,,,,,0,16,16,57,1,6,0,,,,,,,,,,,,,,,,,,,,,,,,,,,,,,,,,,,,,,,,,,,,,,,,,,,,,,,,,,,,,,,,,,,,,,,,,,,
,,,,,,,,,,stimuli/images/PICTURE_453.png,PLENTY,5eea37b60e95520ef6907500,02/12/1954,2020-09-12_09h25.12.039,proactive3.2,2020.1.2,Win32,60,5f5adea66120081ea0f57a61,5f5c85b7a4d19c46c4d4b75a,3,,,,,,scissors,,,,,,0,17,17,56,1,6,0,,,,,,,,,,,,,,,,,,,,,,,,,,,,,,,,,,,,,,,,,,,,,,,,,,,,,,,,,,,,,,,,,,,,,,,,,,,
,,,,,,,,,,stimuli/images/PICTURE_467.png,DEMON,5eea37b60e95520ef6907500,02/12/1954,2020-09-12_09h25.12.039,proactive3.2,2020.1.2,Win32,60,5f5adea66120081ea0f57a61,5f5c85b7a4d19c46c4d4b75a,3,,,,,,peg,,,,,,0,18,18,23,1,3,0,,,,,,,,,,,,,,,,,,,,,,,,,,,,,,,,,,,,,,,,,,,,,,,,,,,,,,,,,,,,,,,,,,,,,,,,,,,
,,,,,,,,,,stimuli/images/PICTURE_208.png,MONTH,5eea37b60e95520ef6907500,02/12/1954,2020-09-12_09h25.12.039,proactive3.2,2020.1.2,Win32,60,5f5adea66120081ea0f57a61,5f5c85b7a4d19c46c4d4b75a,3,,,,,,microphone,,,,,,0,19,19,53,1,6,0,,,,,,,,,,,,,,,,,,,,,,,,,,,,,,,,,,,,,,,,,,,,,,,,,,,,,,,,,,,,,,,,,,,,,,,,,,,
,,,,,,,,,,stimuli/images/PICTURE_348.png,SPEECH,5eea37b60e95520ef6907500,02/12/1954,2020-09-12_09h25.12.039,proactive3.2,2020.1.2,Win32,60,5f5adea66120081ea0f57a61,5f5c85b7a4d19c46c4d4b75a,3,,,,,,pepper,,,,,,0,20,20,20,1,3,0,,,,,,,,,,,,,,,,,,,,,,,,,,,,,,,,,,,,,,,,,,,,,,,,,,,,,,,,,,,,,,,,,,,,,,,,,,,
,,,,,,,,,,stimuli/images/PICTURE_302.png,FAMILY,5eea37b60e95520ef6907500,02/12/1954,2020-09-12_09h25.12.039,proactive3.2,2020.1.2,Win32,60,5f5adea66120081ea0f57a61,5f5c85b7a4d19c46c4d4b75a,3,,,,,,taxi,,,,,,0,21,21,18,1,2,0,,,,,,,,,,,,,,,,,,,,,,,,,,,,,,,,,,,,,,,,,,,,,,,,,,,,,,,,,,,,,,,,,,,,,,,,,,,
,,,,,,,,,,stimuli/images/PICTURE_233.png,WOMEN,5eea37b60e95520ef6907500,02/12/1954,2020-09-12_09h25.12.039,proactive3.2,2020.1.2,Win32,60,5f5adea66120081ea0f57a61,5f5c85b7a4d19c46c4d4b75a,3,,,,,,salt,,,,,,0,22,22,38,1,4,0,,,,,,,,,,,,,,,,,,,,,,,,,,,,,,,,,,,,,,,,,,,,,,,,,,,,,,,,,,,,,,,,,,,,,,,,,,,
,,,,,,,,,,stimuli/images/PICTURE_215.png,PLENTY,5eea37b60e95520ef6907500,02/12/1954,2020-09-12_09h25.12.039,proactive3.2,2020.1.2,Win32,60,5f5adea66120081ea0f57a61,5f5c85b7a4d19c46c4d4b75a,3,,,,,,boot,,,,,,0,23,23,37,1,4,0,,,,,,,,,,,,,,,,,,,,,,,,,,,,,,,,,,,,,,,,,,,,,,,,,,,,,,,,,,,,,,,,,,,,,,,,,,,
,,,,,,,,,,stimuli/images/PICTURE_177.png,CARS,5eea37b60e95520ef6907500,02/12/1954,2020-09-12_09h25.12.039,proactive3.2,2020.1.2,Win32,60,5f5adea66120081ea0f57a61,5f5c85b7a4d19c46c4d4b75a,3,,,,,,mushroom,,,,,,0,24,24,35,1,4,0,,,,,,,,,,,,,,,,,,,,,,,,,,,,,,,,,,,,,,,,,,,,,,,,,,,,,,,,,,,,,,,,,,,,,,,,,,,
,,,,,,,,,,stimuli/images/PICTURE_308.png,KIND,5eea37b60e95520ef6907500,02/12/1954,2020-09-12_09h25.12.039,proactive3.2,2020.1.2,Win32,60,5f5adea66120081ea0f57a61,5f5c85b7a4d19c46c4d4b75a,3,,,,,,dice,,,,,,0,25,25,54,1,6,0,,,,,,,,,,,,,,,,,,,,,,,,,,,,,,,,,,,,,,,,,,,,,,,,,,,,,,,,,,,,,,,,,,,,,,,,,,,
,,,,,,,,,,stimuli/images/PICTURE_160.png,FEET,5eea37b60e95520ef6907500,02/12/1954,2020-09-12_09h25.12.039,proactive3.2,2020.1.2,Win32,60,5f5adea66120081ea0f57a61,5f5c85b7a4d19c46c4d4b75a,3,,,,,,wheelbarrow,,,,,,0,26,26,58,1,6,0,,,,,,,,,,,,,,,,,,,,,,,,,,,,,,,,,,,,,,,,,,,,,,,,,,,,,,,,,,,,,,,,,,,,,,,,,,,
,,,,,,,,,,stimuli/images/PICTURE_255.png,AREA,5eea37b60e95520ef6907500,02/12/1954,2020-09-12_09h25.12.039,proactive3.2,2020.1.2,Win32,60,5f5adea66120081ea0f57a61,5f5c85b7a4d19c46c4d4b75a,3,,,,,,shovel,,,,,,0,27,27,22,1,3,0,,,,,,,,,,,,,,,,,,,,,,,,,,,,,,,,,,,,,,,,,,,,,,,,,,,,,,,,,,,,,,,,,,,,,,,,,,,
,,,,,,,,,,stimuli/images/PICTURE_744.png,SAKE,5eea37b60e95520ef6907500,02/12/1954,2020-09-12_09h25.12.039,proactive3.2,2020.1.2,Win32,60,5f5adea66120081ea0f57a61,5f5c85b7a4d19c46c4d4b75a,3,,,,,,ring,,,,,,0,28,28,17,1,2,0,,,,,,,,,,,,,,,,,,,,,,,,,,,,,,,,,,,,,,,,,,,,,,,,,,,,,,,,,,,,,,,,,,,,,,,,,,,
,,,,,,,,,,stimuli/images/PICTURE_491.png,ROOF,5eea37b60e95520ef6907500,02/12/1954,2020-09-12_09h25.12.039,proactive3.2,2020.1.2,Win32,60,5f5adea66120081ea0f57a61,5f5c85b7a4d19c46c4d4b75a,3,,,,,,rug,,,,,,0,29,29,24,1,3,0,,,,,,,,,,,,,,,,,,,,,,,,,,,,,,,,,,,,,,,,,,,,,,,,,,,,,,,,,,,,,,,,,,,,,,,,,,,
,,,,,,,,,,stimuli/images/PICTURE_248.png,DOZEN,5eea37b60e95520ef6907500,02/12/1954,2020-09-12_09h25.12.039,proactive3.2,2020.1.2,Win32,60,5f5adea66120081ea0f57a61,5f5c85b7a4d19c46c4d4b75a,3,,,,,,cart,,,,,,0,30,30,39,1,4,0,,,,,,,,,,,,,,,,,,,,,,,,,,,,,,,,,,,,,,,,,,,,,,,,,,,,,,,,,,,,,,,,,,,,,,,,,,,
,,,,,,,,,,stimuli/images/PICTURE_380.png,DEATH,5eea37b60e95520ef6907500,02/12/1954,2020-09-12_09h25.12.039,proactive3.2,2020.1.2,Win32,60,5f5adea66120081ea0f57a61,5f5c85b7a4d19c46c4d4b75a,3,,,,,,gorilla,,,,,,0,31,31,49,1,5,0,,,,,,,,,,,,,,,,,,,,,,,,,,,,,,,,,,,,,,,,,,,,,,,,,,,,,,,,,,,,,,,,,,,,,,,,,,,
,,,,,,,,,,stimuli/images/PICTURE_32.png,JUNGLE,5eea37b60e95520ef6907500,02/12/1954,2020-09-12_09h25.12.039,proactive3.2,2020.1.2,Win32,60,5f5adea66120081ea0f57a61,5f5c85b7a4d19c46c4d4b75a,3,,,,,,crown,,,,,,0,32,32,45,1,5,0,,,,,,,,,,,,,,,,,,,,,,,,,,,,,,,,,,,,,,,,,,,,,,,,,,,,,,,,,,,,,,,,,,,,,,,,,,,
,,,,,,,,,,stimuli/images/PICTURE_95.png,STYLE,5eea37b60e95520ef6907500,02/12/1954,2020-09-12_09h25.12.039,proactive3.2,2020.1.2,Win32,60,5f5adea66120081ea0f57a61,5f5c85b7a4d19c46c4d4b75a,3,,,,,,suitcase,,,,,,0,33,33,25,1,3,0,,,,,,,,,,,,,,,,,,,,,,,,,,,,,,,,,,,,,,,,,,,,,,,,,,,,,,,,,,,,,,,,,,,,,,,,,,,
,,,,,,,,,,stimuli/images/PICTURE_160.png,LEADER,5eea37b60e95520ef6907500,02/12/1954,2020-09-12_09h25.12.039,proactive3.2,2020.1.2,Win32,60,5f5adea66120081ea0f57a61,5f5c85b7a4d19c46c4d4b75a,3,,,,,,wheelbarrow,,,,,,0,34,34,3,1,1,0,,,,,,,,,,,,,,,,,,,,,,,,,,,,,,,,,,,,,,,,,,,,,,,,,,,,,,,,,,,,,,,,,,,,,,,,,,,
,,,,,,,,,,stimuli/images/PICTURE_147.png,MOMENT,5eea37b60e95520ef6907500,02/12/1954,2020-09-12_09h25.12.039,proactive3.2,2020.1.2,Win32,60,5f5adea66120081ea0f57a61,5f5c85b7a4d19c46c4d4b75a,3,,,,,,hanger,,,,,,0,35,35,51,1,6,0,,,,,,,,,,,,,,,,,,,,,,,,,,,,,,,,,,,,,,,,,,,,,,,,,,,,,,,,,,,,,,,,,,,,,,,,,,,
,,,,,,,,,,stimuli/images/PICTURE_708.png,YARD,5eea37b60e95520ef6907500,02/12/1954,2020-09-12_09h25.12.039,proactive3.2,2020.1.2,Win32,60,5f5adea66120081ea0f57a61,5f5c85b7a4d19c46c4d4b75a,3,,,,,,monkey,,,,,,0,36,36,29,1,3,0,,,,,,,,,,,,,,,,,,,,,,,,,,,,,,,,,,,,,,,,,,,,,,,,,,,,,,,,,,,,,,,,,,,,,,,,,,,
,,,,,,,,,,stimuli/images/PICTURE_453.png,DUDE,5eea37b60e95520ef6907500,02/12/1954,2020-09-12_09h25.12.039,proactive3.2,2020.1.2,Win32,60,5f5adea66120081ea0f57a61,5f5c85b7a4d19c46c4d4b75a,3,,,,,,scissors,,,,,,0,37,37,27,1,3,0,,,,,,,,,,,,,,,,,,,,,,,,,,,,,,,,,,,,,,,,,,,,,,,,,,,,,,,,,,,,,,,,,,,,,,,,,,,
,,,,,,,,,,stimuli/images/PICTURE_151.png,GIRL,5eea37b60e95520ef6907500,02/12/1954,2020-09-12_09h25.12.039,proactive3.2,2020.1.2,Win32,60,5f5adea66120081ea0f57a61,5f5c85b7a4d19c46c4d4b75a,3,,,,,,tray,,,,,,0,38,38,19,1,2,0,,,,,,,,,,,,,,,,,,,,,,,,,,,,,,,,,,,,,,,,,,,,,,,,,,,,,,,,,,,,,,,,,,,,,,,,,,,
,,,,,,,,,,stimuli/images/PICTURE_314.png,GODS,5eea37b60e95520ef6907500,02/12/1954,2020-09-12_09h25.12.039,proactive3.2,2020.1.2,Win32,60,5f5adea66120081ea0f57a61,5f5c85b7a4d19c46c4d4b75a,3,,,,,,perfume,,,,,,0,39,39,11,1,2,0,,,,,,,,,,,,,,,,,,,,,,,,,,,,,,,,,,,,,,,,,,,,,,,,,,,,,,,,,,,,,,,,,,,,,,,,,,,
,,,,,,,,,,stimuli/images/PICTURE_675.png,WEAPON,5eea37b60e95520ef6907500,02/12/1954,2020-09-12_09h25.12.039,proactive3.2,2020.1.2,Win32,60,5f5adea66120081ea0f57a61,5f5c85b7a4d19c46c4d4b75a,3,,,,,,windmill,,,,,,0,40,40,32,1,4,0,,,,,,,,,,,,,,,,,,,,,,,,,,,,,,,,,,,,,,,,,,,,,,,,,,,,,,,,,,,,,,,,,,,,,,,,,,,
,,,,,,,,,,stimuli/images/PICTURE_469.png,ARTIST,5eea37b60e95520ef6907500,02/12/1954,2020-09-12_09h25.12.039,proactive3.2,2020.1.2,Win32,60,5f5adea66120081ea0f57a61,5f5c85b7a4d19c46c4d4b75a,3,,,,,,stool,,,,,,0,41,41,6,1,1,0,,,,,,,,,,,,,,,,,,,,,,,,,,,,,,,,,,,,,,,,,,,,,,,,,,,,,,,,,,,,,,,,,,,,,,,,,,,
,,,,,,,,,,stimuli/images/PICTURE_488.png,STYLE,5eea37b60e95520ef6907500,02/12/1954,2020-09-12_09h25.12.039,proactive3.2,2020.1.2,Win32,60,5f5adea66120081ea0f57a61,5f5c85b7a4d19c46c4d4b75a,3,,,,,,sun,,,,,,0,42,42,33,1,4,0,,,,,,,,,,,,,,,,,,,,,,,,,,,,,,,,,,,,,,,,,,,,,,,,,,,,,,,,,,,,,,,,,,,,,,,,,,,
,,,,,,,,,,stimuli/images/PICTURE_692.png,MONTH,5eea37b60e95520ef6907500,02/12/1954,2020-09-12_09h25.12.039,proactive3.2,2020.1.2,Win32,60,5f5adea66120081ea0f57a61,5f5c85b7a4d19c46c4d4b75a,3,,,,,,cherry,,,,,,0,43,43,16,1,2,0,,,,,,,,,,,,,,,,,,,,,,,,,,,,,,,,,,,,,,,,,,,,,,,,,,,,,,,,,,,,,,,,,,,,,,,,,,,
,,,,,,,,,,stimuli/images/PICTURE_308.png,ESTATE,5eea37b60e95520ef6907500,02/12/1954,2020-09-12_09h25.12.039,proactive3.2,2020.1.2,Win32,60,5f5adea66120081ea0f57a61,5f5c85b7a4d19c46c4d4b75a,3,,,,,,dice,,,,,,0,44,44,46,1,5,0,,,,,,,,,,,,,,,,,,,,,,,,,,,,,,,,,,,,,,,,,,,,,,,,,,,,,,,,,,,,,,,,,,,,,,,,,,,
,,,,,,,,,,stimuli/images/PICTURE_85.png,THING,5eea37b60e95520ef6907500,02/12/1954,2020-09-12_09h25.12.039,proactive3.2,2020.1.2,Win32,60,5f5adea66120081ea0f57a61,5f5c85b7a4d19c46c4d4b75a,3,,,,,,diamond,,,,,,0,45,45,15,1,2,0,,,,,,,,,,,,,,,,,,,,,,,,,,,,,,,,,,,,,,,,,,,,,,,,,,,,,,,,,,,,,,,,,,,,,,,,,,,
,,,,,,,,,,stimuli/images/PICTURE_667.png,PLENTY,5eea37b60e95520ef6907500,02/12/1954,2020-09-12_09h25.12.039,proactive3.2,2020.1.2,Win32,60,5f5adea66120081ea0f57a61,5f5c85b7a4d19c46c4d4b75a,3,,,,,,daisy,,,,,,0,46,46,41,1,5,0,,,,,,,,,,,,,,,,,,,,,,,,,,,,,,,,,,,,,,,,,,,,,,,,,,,,,,,,,,,,,,,,,,,,,,,,,,,
,,,,,,,,,,stimuli/images/PICTURE_380.png,PHOTO,5eea37b60e95520ef6907500,02/12/1954,2020-09-12_09h25.12.039,proactive3.2,2020.1.2,Win32,60,5f5adea66120081ea0f57a61,5f5c85b7a4d19c46c4d4b75a,3,,,,,,gorilla,,,,,,0,47,47,52,1,6,0,,,,,,,,,,,,,,,,,,,,,,,,,,,,,,,,,,,,,,,,,,,,,,,,,,,,,,,,,,,,,,,,,,,,,,,,,,,
,,,,,,,,,,stimuli/images/PICTURE_327.png,BEAUTY,5eea37b60e95520ef6907500,02/12/1954,2020-09-12_09h25.12.039,proactive3.2,2020.1.2,Win32,60,5f5adea66120081ea0f57a61,5f5c85b7a4d19c46c4d4b75a,3,,,,,,helmet,,,,,,0,48,48,48,1,5,0,,,,,,,,,,,,,,,,,,,,,,,,,,,,,,,,,,,,,,,,,,,,,,,,,,,,,,,,,,,,,,,,,,,,,,,,,,,
,,,,,,,,,,stimuli/images/PICTURE_208.png,LOTS,5eea37b60e95520ef6907500,02/12/1954,2020-09-12_09h25.12.039,proactive3.2,2020.1.2,Win32,60,5f5adea66120081ea0f57a61,5f5c85b7a4d19c46c4d4b75a,3,,,,,,microphone,,,,,,0,49,49,10,1,2,0,,,,,,,,,,,,,,,,,,,,,,,,,,,,,,,,,,,,,,,,,,,,,,,,,,,,,,,,,,,,,,,,,,,,,,,,,,,
,,,,,,,,,,stimuli/images/PICTURE_509.png,PHOTO,5eea37b60e95520ef6907500,02/12/1954,2020-09-12_09h25.12.039,proactive3.2,2020.1.2,Win32,60,5f5adea66120081ea0f57a61,5f5c85b7a4d19c46c4d4b75a,3,,,,,,telephone,,,,,,0,50,50,21,1,3,0,,,,,,,,,,,,,,,,,,,,,,,,,,,,,,,,,,,,,,,,,,,,,,,,,,,,,,,,,,,,,,,,,,,,,,,,,,,
,,,,,,,,,,stimuli/images/PICTURE_470.png,CASINO,5eea37b60e95520ef6907500,02/12/1954,2020-09-12_09h25.12.039,proactive3.2,2020.1.2,Win32,60,5f5adea66120081ea0f57a61,5f5c85b7a4d19c46c4d4b75a,3,,,,,,motorbike,,,,,,0,51,51,36,1,4,0,,,,,,,,,,,,,,,,,,,,,,,,,,,,,,,,,,,,,,,,,,,,,,,,,,,,,,,,,,,,,,,,,,,,,,,,,,,
,,,,,,,,,,stimuli/images/PICTURE_708.png,PENNY,5eea37b60e95520ef6907500,02/12/1954,2020-09-12_09h25.12.039,proactive3.2,2020.1.2,Win32,60,5f5adea66120081ea0f57a61,5f5c85b7a4d19c46c4d4b75a,3,,,,,,monkey,,,,,,0,52,52,31,1,4,0,,,,,,,,,,,,,,,,,,,,,,,,,,,,,,,,,,,,,,,,,,,,,,,,,,,,,,,,,,,,,,,,,,,,,,,,,,,
,,,,,,,,,,stimuli/images/PICTURE_688.png,WOMEN,5eea37b60e95520ef6907500,02/12/1954,2020-09-12_09h25.12.039,proactive3.2,2020.1.2,Win32,60,5f5adea66120081ea0f57a61,5f5c85b7a4d19c46c4d4b75a,3,,,,,,runner,,,,,,0,53,53,14,1,2,0,,,,,,,,,,,,,,,,,,,,,,,,,,,,,,,,,,,,,,,,,,,,,,,,,,,,,,,,,,,,,,,,,,,,,,,,,,,
,,,,,,,,,,stimuli/images/PICTURE_744.png,SYSTEM,5eea37b60e95520ef6907500,02/12/1954,2020-09-12_09h25.12.039,proactive3.2,2020.1.2,Win32,60,5f5adea66120081ea0f57a61,5f5c85b7a4d19c46c4d4b75a,3,,,,,,ring,,,,,,0,54,54,43,1,5,0,,,,,,,,,,,,,,,,,,,,,,,,,,,,,,,,,,,,,,,,,,,,,,,,,,,,,,,,,,,,,,,,,,,,,,,,,,,
,,,,,,,,,,stimuli/images/PICTURE_68.png,MILE,5eea37b60e95520ef6907500,02/12/1954,2020-09-12_09h25.12.039,proactive3.2,2020.1.2,Win32,60,5f5adea66120081ea0f57a61,5f5c85b7a4d19c46c4d4b75a,3,,,,,,candle,,,,,,0,55,55,44,1,5,0,,,,,,,,,,,,,,,,,,,,,,,,,,,,,,,,,,,,,,,,,,,,,,,,,,,,,,,,,,,,,,,,,,,,,,,,,,,
,,,,,,,,,,stimuli/images/PICTURE_311.png,FRIEND,5eea37b60e95520ef6907500,02/12/1954,2020-09-12_09h25.12.039,proactive3.2,2020.1.2,Win32,60,5f5adea66120081ea0f57a61,5f5c85b7a4d19c46c4d4b75a,3,,,,,,razor,,,,,,0,56,56,34,1,4,0,,,,,,,,,,,,,,,,,,,,,,,,,,,,,,,,,,,,,,,,,,,,,,,,,,,,,,,,,,,,,,,,,,,,,,,,,,,
,,,,,,,,,,stimuli/images/PICTURE_314.png,SAKE,5eea37b60e95520ef6907500,02/12/1954,2020-09-12_09h25.12.039,proactive3.2,2020.1.2,Win32,60,5f5adea66120081ea0f57a61,5f5c85b7a4d19c46c4d4b75a,3,,,,,,perfume,,,,,,0,57,57,7,1,1,0,,,,,,,,,,,,,,,,,,,,,,,,,,,,,,,,,,,,,,,,,,,,,,,,,,,,,,,,,,,,,,,,,,,,,,,,,,,
,,,,,,,,,,stimuli/images/PICTURE_123.png,ADVICE,5eea37b60e95520ef6907500,02/12/1954,2020-09-12_09h25.12.039,proactive3.2,2020.1.2,Win32,60,5f5adea66120081ea0f57a61,5f5c85b7a4d19c46c4d4b75a,3,,,,,,dart,,,,,,0,58,58,40,1,5,0,,,,,,,,,,,,,,,,,,,,,,,,,,,,,,,,,,,,,,,,,,,,,,,,,,,,,,,,,,,,,,,,,,,,,,,,,,,
,,?,0.00216,0,,,,,,stimuli/images/PICTURE_708.png,CLIENT,5eea37b60e95520ef6907500,02/12/1954,2020-09-12_09h25.12.039,proactive3.2,2020.1.2,Win32,60,5f5adea66120081ea0f57a61,5f5c85b7a4d19c46c4d4b75a,3,,,,,,monkey,,,,,,,,,,,1,0,0,0,0,5,1,,,,,,,,,,,,,,,,,,,,,,,,,,,,,,,,,,,,,,,,,,,,,,,,,,,,,,,,,,,,,,,,,,,,,,
,,?,0.002205,0,,,,,,stimuli/images/PICTURE_123.png,ADVICE,5eea37b60e95520ef6907500,02/12/1954,2020-09-12_09h25.12.039,proactive3.2,2020.1.2,Win32,60,5f5adea66120081ea0f57a61,5f5c85b7a4d19c46c4d4b75a,3,,,,,,dart,,,,,,,,,,,6,0,0,1,1,50,1,,,,,,,,,,,,,,,,,,,,,,,,,,,,,,,,,,,,,,,,,,,,,,,,,,,,,,,,,,,,,,,,,,,,,,
,,?,0.00313,0,,,,,,stimuli/images/PICTURE_32.png,JUNGLE,5eea37b60e95520ef6907500,02/12/1954,2020-09-12_09h25.12.039,proactive3.2,2020.1.2,Win32,60,5f5adea66120081ea0f57a61,5f5c85b7a4d19c46c4d4b75a,3,,,,,,crown,,,,,,,,,,,5,0,0,2,2,45,1,,,,,,,,,,,,,,,,,,,,,,,,,,,,,,,,,,,,,,,,,,,,,,,,,,,,,,,,,,,,,,,,,,,,,,
,,?,0.00181,0,,,,,,stimuli/images/PICTURE_356.png,DANGER,5eea37b60e95520ef6907500,02/12/1954,2020-09-12_09h25.12.039,proactive3.2,2020.1.2,Win32,60,5f5adea66120081ea0f57a61,5f5c85b7a4d19c46c4d4b75a,3,,,,,,pawn,,,,,,,,,,,6,0,0,3,3,55,1,,,,,,,,,,,,,,,,,,,,,,,,,,,,,,,,,,,,,,,,,,,,,,,,,,,,,,,,,,,,,,,,,,,,,,
,,?,0.00129,0,,,,,,stimuli/images/PICTURE_314.png,GODS,5eea37b60e95520ef6907500,02/12/1954,2020-09-12_09h25.12.039,proactive3.2,2020.1.2,Win32,60,5f5adea66120081ea0f57a61,5f5c85b7a4d19c46c4d4b75a,3,,,,,,perfume,,,,,,,,,,,2,0,0,4,4,11,1,,,,,,,,,,,,,,,,,,,,,,,,,,,,,,,,,,,,,,,,,,,,,,,,,,,,,,,,,,,,,,,,,,,,,,
,,?,0.00135,0,,,,,,stimuli/images/PICTURE_302.png,FAMILY,5eea37b60e95520ef6907500,02/12/1954,2020-09-12_09h25.12.039,proactive3.2,2020.1.2,Win32,60,5f5adea66120081ea0f57a61,5f5c85b7a4d19c46c4d4b75a,3,,,,,,taxi,,,,,,,,,,,2,0,0,5,5,18,1,,,,,,,,,,,,,,,,,,,,,,,,,,,,,,,,,,,,,,,,,,,,,,,,,,,,,,,,,,,,,,,,,,,,,,
,,?,0.00176,0,,,,,,stimuli/images/PICTURE_208.png,MONTH,5eea37b60e95520ef6907500,02/12/1954,2020-09-12_09h25.12.039,proactive3.2,2020.1.2,Win32,60,5f5adea66120081ea0f57a61,5f5c85b7a4d19c46c4d4b75a,3,,,,,,microphone,,,,,,,,,,,6,0,0,6,6,53,1,,,,,,,,,,,,,,,,,,,,,,,,,,,,,,,,,,,,,,,,,,,,,,,,,,,,,,,,,,,,,,,,,,,,,,
,,?,3.764945,0,,,,,,stimuli/images/PICTURE_203.png,ARTIST,5eea37b60e95520ef6907500,02/12/1954,2020-09-12_09h25.12.039,proactive3.2,2020.1.2,Win32,60,5f5adea66120081ea0f57a61,5f5c85b7a4d19c46c4d4b75a,3,,,,,,cap,,,,,,,,,,,3,0,0,7,7,26,1,,,,,,,,,,,,,,,,,,,,,,,,,,,,,,,,,,,,,,,,,,,,,,,,,,,,,,,,,,,,,,,,,,,,,,
,,?,0.00364,0,,,,,,stimuli/images/PICTURE_380.png,PHOTO,5eea37b60e95520ef6907500,02/12/1954,2020-09-12_09h25.12.039,proactive3.2,2020.1.2,Win32,60,5f5adea66120081ea0f57a61,5f5c85b7a4d19c46c4d4b75a,3,,,,,,gorilla,,,,,,,,,,,6,0,0,8,8,52,1,,,,,,,,,,,,,,,,,,,,,,,,,,,,,,,,,,,,,,,,,,,,,,,,,,,,,,,,,,,,,,,,,,,,,,
,,?,0.002005,0,,,,,,stimuli/images/PICTURE_744.png,SYSTEM,5eea37b60e95520ef6907500,02/12/1954,2020-09-12_09h25.12.039,proactive3.2,2020.1.2,Win32,60,5f5adea66120081ea0f57a61,5f5c85b7a4d19c46c4d4b75a,3,,,,,,ring,,,,,,,,,,,5,0,0,9,9,43,1,,,,,,,,,,,,,,,,,,,,,,,,,,,,,,,,,,,,,,,,,,,,,,,,,,,,,,,,,,,,,,,,,,,,,,
,,?,0.002895,0,,,,,,stimuli/images/PICTURE_688.png,WOMEN,5eea37b60e95520ef6907500,02/12/1954,2020-09-12_09h25.12.039,proactive3.2,2020.1.2,Win32,60,5f5adea66120081ea0f57a61,5f5c85b7a4d19c46c4d4b75a,3,,,,,,runner,,,,,,,,,,,2,0,0,10,10,14,1,,,,,,,,,,,,,,,,,,,,,,,,,,,,,,,,,,,,,,,,,,,,,,,,,,,,,,,,,,,,,,,,,,,,,,
,,?,0.00164,0,,,,,,stimuli/images/PICTURE_491.png,WRITER,5eea37b60e95520ef6907500,02/12/1954,2020-09-12_09h25.12.039,proactive3.2,2020.1.2,Win32,60,5f5adea66120081ea0f57a61,5f5c85b7a4d19c46c4d4b75a,3,,,,,,rug,,,,,,,,,,,6,0,0,11,11,57,1,,,,,,,,,,,,,,,,,,,,,,,,,,,,,,,,,,,,,,,,,,,,,,,,,,,,,,,,,,,,,,,,,,,,,,
,,?,0.00181,0,,,,,,stimuli/images/PICTURE_208.png,THING,5eea37b60e95520ef6907500,02/12/1954,2020-09-12_09h25.12.039,proactive3.2,2020.1.2,Win32,60,5f5adea66120081ea0f57a61,5f5c85b7a4d19c46c4d4b75a,3,,,,,,microphone,,,,,,,,,,,5,0,0,12,12,47,1,,,,,,,,,,,,,,,,,,,,,,,,,,,,,,,,,,,,,,,,,,,,,,,,,,,,,,,,,,,,,,,,,,,,,,
,,?,0.000875,0,,,,,,stimuli/images/PICTURE_177.png,CARS,5eea37b60e95520ef6907500,02/12/1954,2020-09-12_09h25.12.039,proactive3.2,2020.1.2,Win32,60,5f5adea66120081ea0f57a61,5f5c85b7a4d19c46c4d4b75a,3,,,,,,mushroom,,,,,,,,,,,4,0,0,13,13,35,1,,,,,,,,,,,,,,,,,,,,,,,,,,,,,,,,,,,,,,,,,,,,,,,,,,,,,,,,,,,,,,,,,,,,,,
