consent_key.keys,consent_key.rt,recalled,recalled_rt,recall_acc,example_recall.thisRepN,example_recall.thisTrialN,example_recall.thisN,example_recall.thisIndex,example_recall.ran,file,word,participant,please enter your date of birth (dd/mm/yyyy),date,expName,psychopyVersion,OS,frameRate,STUDY_ID,SESSION_ID,list,prac_learn_study_loop.thisRepN,prac_learn_study_loop.thisTrialN,prac_learn_study_loop.thisN,prac_learn_study_loop.thisIndex,prac_learn_study_loop.ran,image,prac_learn_test_loop.thisRepN,prac_learn_test_loop.thisTrialN,prac_learn_test_loop.thisN,prac_learn_test_loop.thisIndex,prac_learn_test_loop.ran,learn_study_loop.thisRepN,learn_study_loop.thisTrialN,learn_study_loop.thisN,learn_study_loop.thisIndex,learn_study_loop.ran,list_no,block_no,learn_test_loop.thisRepN,learn_test_loop.thisTrialN,learn_test_loop.thisN,learn_test_loop.thisIndex,learn_test_loop.ran,learn_blocks.thisRepN,learn_blocks.thisTrialN,learn_blocks.thisN,learn_blocks.thisIndex,learn_blocks.ran,block_csv,key_resp_13.keys,key_resp_13.rt,learn_blocks_loop.thisRepN,learn_blocks_loop.thisTrialN,learn_blocks_loop.thisN,learn_blocks_loop.thisIndex,learn_blocks_loop.ran,final_learn_test.thisRepN,final_learn_test.thisTrialN,final_learn_test.thisN,final_learn_test.thisIndex,final_learn_test.ran,prac_wm_test_loop.thisRepN,prac_wm_test_loop.thisTrialN,prac_wm_test_loop.thisN,prac_wm_test_loop.thisIndex,prac_wm_test_loop.ran,wm_recalled1,wm_recall_rt1,wm_probed1,wm_recall_acc1,wm_recalled2,wm_recall_rt2,wm_probed2,wm_recall_acc2,wm_recalled3,wm_recall_rt3,wm_probed3,wm_recall_acc3,wm_recalled4,wm_recall_rt4,wm_probed4,wm_recall_acc4,prac_wm_trial_loop.thisRepN,prac_wm_trial_loop.thisTrialN,prac_wm_trial_loop.thisN,prac_wm_trial_loop.thisIndex,prac_wm_trial_loop.ran,word1,image1,file1,item_type1,word2,image2,file2,item_type2,word4,image4,file4,item_type4,word3,image3,file3,item_type3,wm_test_loop.thisRepN,wm_test_loop.thisTrialN,wm_test_loop.thisN,wm_test_loop.thisIndex,wm_test_loop.ran,wm_trial_loop.thisRepN,wm_trial_loop.thisTrialN,wm_trial_loop.thisN,wm_trial_loop.thisIndex,wm_trial_loop.ran
y,28.732,TOUGH,3.643,1,0,0,0,0,1,stimuli/images/PICTURE_747.png,TOUGH,5ef614097c0ee22b09ccf634,08/01/1952,2020-09-12_04h16.05.238,proactive3.2,2020.1.2,MacIntel,60,5f5adea66120081ea0f57a61,5f5c91b2e150074772146309,5,,,,,,,,,,,,,,,,,,,,,,,,,,,,,,,,,,,,,,,,,,,,,,,,,,,,,,,,,,,,,,,,,,,,,,,,,,,,,,,,,,,,,,,,,,,,,
,,,,,,,,,,stimuli/images/PICTURE_378.png,LOSS,5ef614097c0ee22b09ccf634,08/01/1952,2020-09-12_04h16.05.238,proactive3.2,2020.1.2,MacIntel,60,5f5adea66120081ea0f57a61,5f5c91b2e150074772146309,5,0,0,0,2,1,lobster,,,,,,,,,,,,,,,,,,,,,,,,,,,,,,,,,,,,,,,,,,,,,,,,,,,,,,,,,,,,,,,,,,,,,,,,,,,,,,,,,,,,,,,
,,,,,,,,,,stimuli/images/PICTURE_658.png,DEVIL,5ef614097c0ee22b09ccf634,08/01/1952,2020-09-12_04h16.05.238,proactive3.2,2020.1.2,MacIntel,60,5f5adea66120081ea0f57a61,5f5c91b2e150074772146309,5,0,1,1,3,1,crow,,,,,,,,,,,,,,,,,,,,,,,,,,,,,,,,,,,,,,,,,,,,,,,,,,,,,,,,,,,,,,,,,,,,,,,,,,,,,,,,,,,,,,,
,,,,,,,,,,stimuli/images/PICTURE_269.png,GENIUS,5ef614097c0ee22b09ccf634,08/01/1952,2020-09-12_04h16.05.238,proactive3.2,2020.1.2,MacIntel,60,5f5adea66120081ea0f57a61,5f5c91b2e150074772146309,5,0,2,2,0,1,chameleon,,,,,,,,,,,,,,,,,,,,,,,,,,,,,,,,,,,,,,,,,,,,,,,,,,,,,,,,,,,,,,,,,,,,,,,,,,,,,,,,,,,,,,,
,,,,,,,,,,stimuli/images/PICTURE_727.png,CELL,5ef614097c0ee22b09ccf634,08/01/1952,2020-09-12_04h16.05.238,proactive3.2,2020.1.2,MacIntel,60,5f5adea66120081ea0f57a61,5f5c91b2e150074772146309,5,0,3,3,1,1,hose,,,,,,,,,,,,,,,,,,,,,,,,,,,,,,,,,,,,,,,,,,,,,,,,,,,,,,,,,,,,,,,,,,,,,,,,,,,,,,,,,,,,,,,
,,CELL,4.263,1,,,,,,stimuli/images/PICTURE_727.png,CELL,5ef614097c0ee22b09ccf634,08/01/1952,2020-09-12_04h16.05.238,proactive3.2,2020.1.2,MacIntel,60,5f5adea66120081ea0f57a61,5f5c91b2e150074772146309,5,,,,,,hose,0,0,0,1,1,,,,,,,,,,,,,,,,,,,,,,,,,,,,,,,,,,,,,,,,,,,,,,,,,,,,,,,,,,,,,,,,,,,,,,,,,,,,,,,,,,
,,EVIL,4.232,0,,,,,,stimuli/images/PICTURE_697.png,KILLER,5ef614097c0ee22b09ccf634,08/01/1952,2020-09-12_04h16.05.238,proactive3.2,2020.1.2,MacIntel,60,5f5adea66120081ea0f57a61,5f5c91b2e150074772146309,5,,,,,,peach,0,1,1,4,1,,,,,,,,,,,,,,,,,,,,,,,,,,,,,,,,,,,,,,,,,,,,,,,,,,,,,,,,,,,,,,,,,,,,,,,,,,,,,,,,,,
,,EVIL,3.166,0,,,,,,stimuli/images/PICTURE_658.png,DEVIL,5ef614097c0ee22b09ccf634,08/01/1952,2020-09-12_04h16.05.238,proactive3.2,2020.1.2,MacIntel,60,5f5adea66120081ea0f57a61,5f5c91b2e150074772146309,5,,,,,,crow,0,2,2,3,1,,,,,,,,,,,,,,,,,,,,,,,,,,,,,,,,,,,,,,,,,,,,,,,,,,,,,,,,,,,,,,,,,,,,,,,,,,,,,,,,,,
,,GENIUS,6.816,1,,,,,,stimuli/images/PICTURE_269.png,GENIUS,5ef614097c0ee22b09ccf634,08/01/1952,2020-09-12_04h16.05.238,proactive3.2,2020.1.2,MacIntel,60,5f5adea66120081ea0f57a61,5f5c91b2e150074772146309,5,,,,,,chameleon,0,3,3,0,1,,,,,,,,,,,,,,,,,,,,,,,,,,,,,,,,,,,,,,,,,,,,,,,,,,,,,,,,,,,,,,,,,,,,,,,,,,,,,,,,,,
,,LOSS,2.566,1,,,,,,stimuli/images/PICTURE_378.png,LOSS,5ef614097c0ee22b09ccf634,08/01/1952,2020-09-12_04h16.05.238,proactive3.2,2020.1.2,MacIntel,60,5f5adea66120081ea0f57a61,5f5c91b2e150074772146309,5,,,,,,lobster,0,4,4,2,1,,,,,,,,,,,,,,,,,,,,,,,,,,,,,,,,,,,,,,,,,,,,,,,,,,,,,,,,,,,,,,,,,,,,,,,,,,,,,,,,,,
,,,,,,,,,,stimuli/images/PICTURE_32.png,JUNGLE,5ef614097c0ee22b09ccf634,08/01/1952,2020-09-12_04h16.05.238,proactive3.2,2020.1.2,MacIntel,60,5f5adea66120081ea0f57a61,5f5c91b2e150074772146309,5,,,,,,crown,,,,,,0,0,0,45,1,5,0,,,,,,,,,,,,,,,,,,,,,,,,,,,,,,,,,,,,,,,,,,,,,,,,,,,,,,,,,,,,,,,,,,,,,,,,,,,
,,,,,,,,,,stimuli/images/PICTURE_654.png,VALLEY,5ef614097c0ee22b09ccf634,08/01/1952,2020-09-12_04h16.05.238,proactive3.2,2020.1.2,MacIntel,60,5f5adea66120081ea0f57a61,5f5c91b2e150074772146309,5,,,,,,pencil,,,,,,0,1,1,1,1,1,0,,,,,,,,,,,,,,,,,,,,,,,,,,,,,,,,,,,,,,,,,,,,,,,,,,,,,,,,,,,,,,,,,,,,,,,,,,,
,,,,,,,,,,stimuli/images/PICTURE_692.png,MONTH,5ef614097c0ee22b09ccf634,08/01/1952,2020-09-12_04h16.05.238,proactive3.2,2020.1.2,MacIntel,60,5f5adea66120081ea0f57a61,5f5c91b2e150074772146309,5,,,,,,cherry,,,,,,0,2,2,16,1,2,0,,,,,,,,,,,,,,,,,,,,,,,,,,,,,,,,,,,,,,,,,,,,,,,,,,,,,,,,,,,,,,,,,,,,,,,,,,,
,,,,,,,,,,stimuli/images/PICTURE_314.png,SAKE,5ef614097c0ee22b09ccf634,08/01/1952,2020-09-12_04h16.05.238,proactive3.2,2020.1.2,MacIntel,60,5f5adea66120081ea0f57a61,5f5c91b2e150074772146309,5,,,,,,perfume,,,,,,0,3,3,7,1,1,0,,,,,,,,,,,,,,,,,,,,,,,,,,,,,,,,,,,,,,,,,,,,,,,,,,,,,,,,,,,,,,,,,,,,,,,,,,,
,,,,,,,,,,stimuli/images/PICTURE_744.png,SAKE,5ef614097c0ee22b09ccf634,08/01/1952,2020-09-12_04h16.05.238,proactive3.2,2020.1.2,MacIntel,60,5f5adea66120081ea0f57a61,5f5c91b2e150074772146309,5,,,,,,ring,,,,,,0,4,4,17,1,2,0,,,,,,,,,,,,,,,,,,,,,,,,,,,,,,,,,,,,,,,,,,,,,,,,,,,,,,,,,,,,,,,,,,,,,,,,,,,
,,,,,,,,,,stimuli/images/PICTURE_675.png,WEAPON,5ef614097c0ee22b09ccf634,08/01/1952,2020-09-12_04h16.05.238,proactive3.2,2020.1.2,MacIntel,60,5f5adea66120081ea0f57a61,5f5c91b2e150074772146309,5,,,,,,windmill,,,,,,0,5,5,32,1,4,0,,,,,,,,,,,,,,,,,,,,,,,,,,,,,,,,,,,,,,,,,,,,,,,,,,,,,,,,,,,,,,,,,,,,,,,,,,,
,,,,,,,,,,stimuli/images/PICTURE_85.png,THING,5ef614097c0ee22b09ccf634,08/01/1952,2020-09-12_04h16.05.238,proactive3.2,2020.1.2,MacIntel,60,5f5adea66120081ea0f57a61,5f5c91b2e150074772146309,5,,,,,,diamond,,,,,,0,6,6,15,1,2,0,,,,,,,,,,,,,,,,,,,,,,,,,,,,,,,,,,,,,,,,,,,,,,,,,,,,,,,,,,,,,,,,,,,,,,,,,,,
,,,,,,,,,,stimuli/images/PICTURE_380.png,PHOTO,5ef614097c0ee22b09ccf634,08/01/1952,2020-09-12_04h16.05.238,proactive3.2,2020.1.2,MacIntel,60,5f5adea66120081ea0f57a61,5f5c91b2e150074772146309,5,,,,,,gorilla,,,,,,0,7,7,52,1,6,0,,,,,,,,,,,,,,,,,,,,,,,,,,,,,,,,,,,,,,,,,,,,,,,,,,,,,,,,,,,,,,,,,,,,,,,,,,,
,,,,,,,,,,stimuli/images/PICTURE_488.png,STYLE,5ef614097c0ee22b09ccf634,08/01/1952,2020-09-12_04h16.05.238,proactive3.2,2020.1.2,MacIntel,60,5f5adea66120081ea0f57a61,5f5c91b2e150074772146309,5,,,,,,sun,,,,,,0,8,8,33,1,4,0,,,,,,,,,,,,,,,,,,,,,,,,,,,,,,,,,,,,,,,,,,,,,,,,,,,,,,,,,,,,,,,,,,,,,,,,,,,
,,,,,,,,,,stimuli/images/PICTURE_504.png,BODY,5ef614097c0ee22b09ccf634,08/01/1952,2020-09-12_04h16.05.238,proactive3.2,2020.1.2,MacIntel,60,5f5adea66120081ea0f57a61,5f5c91b2e150074772146309,5,,,,,,wheel,,,,,,0,9,9,8,1,1,0,,,,,,,,,,,,,,,,,,,,,,,,,,,,,,,,,,,,,,,,,,,,,,,,,,,,,,,,,,,,,,,,,,,,,,,,,,,
,,,,,,,,,,stimuli/images/PICTURE_469.png,LETTER,5ef614097c0ee22b09ccf634,08/01/1952,2020-09-12_04h16.05.238,proactive3.2,2020.1.2,MacIntel,60,5f5adea66120081ea0f57a61,5f5c91b2e150074772146309,5,,,,,,stool,,,,,,0,10,10,42,1,5,0,,,,,,,,,,,,,,,,,,,,,,,,,,,,,,,,,,,,,,,,,,,,,,,,,,,,,,,,,,,,,,,,,,,,,,,,,,,
,,,,,,,,,,stimuli/images/PICTURE_744.png,SYSTEM,5ef614097c0ee22b09ccf634,08/01/1952,2020-09-12_04h16.05.238,proactive3.2,2020.1.2,MacIntel,60,5f5adea66120081ea0f57a61,5f5c91b2e150074772146309,5,,,,,,ring,,,,,,0,11,11,43,1,5,0,,,,,,,,,,,,,,,,,,,,,,,,,,,,,,,,,,,,,,,,,,,,,,,,,,,,,,,,,,,,,,,,,,,,,,,,,,,
,,,,,,,,,,stimuli/images/PICTURE_123.png,ADVICE,5ef614097c0ee22b09ccf634,08/01/1952,2020-09-12_04h16.05.238,proactive3.2,2020.1.2,MacIntel,60,5f5adea66120081ea0f57a61,5f5c91b2e150074772146309,5,,,,,,dart,,,,,,0,12,12,50,1,6,0,,,,,,,,,,,,,,,,,,,,,,,,,,,,,,,,,,,,,,,,,,,,,,,,,,,,,,,,,,,,,,,,,,,,,,,,,,,
,,,,,,,,,,stimuli/images/PICTURE_467.png,DEMON,5ef614097c0ee22b09ccf634,08/01/1952,2020-09-12_04h16.05.238,proactive3.2,2020.1.2,MacIntel,60,5f5adea66120081ea0f57a61,5f5c91b2e150074772146309,5,,,,,,peg,,,,,,0,13,13,23,1,3,0,,,,,,,,,,,,,,,,,,,,,,,,,,,,,,,,,,,,,,,,,,,,,,,,,,,,,,,,,,,,,,,,,,,,,,,,,,,
,,,,,,,,,,stimuli/images/PICTURE_311.png,FRIEND,5ef614097c0ee22b09ccf634,08/01/1952,2020-09-12_04h16.05.238,proactive3.2,2020.1.2,MacIntel,60,5f5adea66120081ea0f57a61,5f5c91b2e150074772146309,5,,,,,,razor,,,,,,0,14,14,34,1,4,0,,,,,,,,,,,,,,,,,,,,,,,,,,,,,,,,,,,,,,,,,,,,,,,,,,,,,,,,,,,,,,,,,,,,,,,,,,,
,,,,,,,,,,stimuli/images/PICTURE_688.png,WOMEN,5ef614097c0ee22b09ccf634,08/01/1952,2020-09-12_04h16.05.238,proactive3.2,2020.1.2,MacIntel,60,5f5adea66120081ea0f57a61,5f5c91b2e150074772146309,5,,,,,,runner,,,,,,0,15,15,14,1,2,0,,,,,,,,,,,,,,,,,,,,,,,,,,,,,,,,,,,,,,,,,,,,,,,,,,,,,,,,,,,,,,,,,,,,,,,,,,,
,,,,,,,,,,stimuli/images/PICTURE_147.png,MOMENT,5ef614097c0ee22b09ccf634,08/01/1952,2020-09-12_04h16.05.238,proactive3.2,2020.1.2,MacIntel,60,5f5adea66120081ea0f57a61,5f5c91b2e150074772146309,5,,,,,,hanger,,,,,,0,16,16,51,1,6,0,,,,,,,,,,,,,,,,,,,,,,,,,,,,,,,,,,,,,,,,,,,,,,,,,,,,,,,,,,,,,,,,,,,,,,,,,,,
,,,,,,,,,,stimuli/images/PICTURE_327.png,BEAUTY,5ef614097c0ee22b09ccf634,08/01/1952,2020-09-12_04h16.05.238,proactive3.2,2020.1.2,MacIntel,60,5f5adea66120081ea0f57a61,5f5c91b2e150074772146309,5,,,,,,helmet,,,,,,0,17,17,48,1,5,0,,,,,,,,,,,,,,,,,,,,,,,,,,,,,,,,,,,,,,,,,,,,,,,,,,,,,,,,,,,,,,,,,,,,,,,,,,,
,,,,,,,,,,stimuli/images/PICTURE_356.png,DANGER,5ef614097c0ee22b09ccf634,08/01/1952,2020-09-12_04h16.05.238,proactive3.2,2020.1.2,MacIntel,60,5f5adea66120081ea0f57a61,5f5c91b2e150074772146309,5,,,,,,pawn,,,,,,0,18,18,55,1,6,0,,,,,,,,,,,,,,,,,,,,,,,,,,,,,,,,,,,,,,,,,,,,,,,,,,,,,,,,,,,,,,,,,,,,,,,,,,,
,,,,,,,,,,stimuli/images/PICTURE_285.png,ADVICE,5ef614097c0ee22b09ccf634,08/01/1952,2020-09-12_04h16.05.238,proactive3.2,2020.1.2,MacIntel,60,5f5adea66120081ea0f57a61,5f5c91b2e150074772146309,5,,,,,,carrot,,,,,,0,19,19,12,1,2,0,,,,,,,,,,,,,,,,,,,,,,,,,,,,,,,,,,,,,,,,,,,,,,,,,,,,,,,,,,,,,,,,,,,,,,,,,,,
,,,,,,,,,,stimuli/images/PICTURE_177.png,CARS,5ef614097c0ee22b09ccf634,08/01/1952,2020-09-12_04h16.05.238,proactive3.2,2020.1.2,MacIntel,60,5f5adea66120081ea0f57a61,5f5c91b2e150074772146309,5,,,,,,mushroom,,,,,,0,20,20,35,1,4,0,,,,,,,,,,,,,,,,,,,,,,,,,,,,,,,,,,,,,,,,,,,,,,,,,,,,,,,,,,,,,,,,,,,,,,,,,,,
,,,,,,,,,,stimuli/images/PICTURE_667.png,PLENTY,5ef614097c0ee22b09ccf634,08/01/1952,2020-09-12_04h16.05.238,proactive3.2,2020.1.2,MacIntel,60,5f5adea66120081ea0f57a61,5f5c91b2e150074772146309,5,,,,,,daisy,,,,,,0,21,21,41,1,5,0,,,,,,,,,,,,,,,,,,,,,,,,,,,,,,,,,,,,,,,,,,,,,,,,,,,,,,,,,,,,,,,,,,,,,,,,,,,
,,,,,,,,,,stimuli/images/PICTURE_68.png,MILE,5ef614097c0ee22b09ccf634,08/01/1952,2020-09-12_04h16.05.238,proactive3.2,2020.1.2,MacIntel,60,5f5adea66120081ea0f57a61,5f5c91b2e150074772146309,5,,,,,,candle,,,,,,0,22,22,44,1,5,0,,,,,,,,,,,,,,,,,,,,,,,,,,,,,,,,,,,,,,,,,,,,,,,,,,,,,,,,,,,,,,,,,,,,,,,,,,,
,,,,,,,,,,stimuli/images/PICTURE_311.png,BEAUTY,5ef614097c0ee22b09ccf634,08/01/1952,2020-09-12_04h16.05.238,proactive3.2,2020.1.2,MacIntel,60,5f5adea66120081ea0f57a61,5f5c91b2e150074772146309,5,,,,,,razor,,,,,,0,23,23,13,1,2,0,,,,,,,,,,,,,,,,,,,,,,,,,,,,,,,,,,,,,,,,,,,,,,,,,,,,,,,,,,,,,,,,,,,,,,,,,,,
,,,,,,,,,,stimuli/images/PICTURE_233.png,WOMEN,5ef614097c0ee22b09ccf634,08/01/1952,2020-09-12_04h16.05.238,proactive3.2,2020.1.2,MacIntel,60,5f5adea66120081ea0f57a61,5f5c91b2e150074772146309,5,,,,,,salt,,,,,,0,24,24,38,1,4,0,,,,,,,,,,,,,,,,,,,,,,,,,,,,,,,,,,,,,,,,,,,,,,,,,,,,,,,,,,,,,,,,,,,,,,,,,,,
,,,,,,,,,,stimuli/images/PICTURE_215.png,PLENTY,5ef614097c0ee22b09ccf634,08/01/1952,2020-09-12_04h16.05.238,proactive3.2,2020.1.2,MacIntel,60,5f5adea66120081ea0f57a61,5f5c91b2e150074772146309,5,,,,,,boot,,,,,,0,25,25,37,1,4,0,,,,,,,,,,,,,,,,,,,,,,,,,,,,,,,,,,,,,,,,,,,,,,,,,,,,,,,,,,,,,,,,,,,,,,,,,,,
,,,,,,,,,,stimuli/images/PICTURE_469.png,ARTIST,5ef614097c0ee22b09ccf634,08/01/1952,2020-09-12_04h16.05.238,proactive3.2,2020.1.2,MacIntel,60,5f5adea66120081ea0f57a61,5f5c91b2e150074772146309,5,,,,,,stool,,,,,,0,26,26,6,1,1,0,,,,,,,,,,,,,,,,,,,,,,,,,,,,,,,,,,,,,,,,,,,,,,,,,,,,,,,,,,,,,,,,,,,,,,,,,,,
,,,,,,,,,,stimuli/images/PICTURE_95.png,STYLE,5ef614097c0ee22b09ccf634,08/01/1952,2020-09-12_04h16.05.238,proactive3.2,2020.1.2,MacIntel,60,5f5adea66120081ea0f57a61,5f5c91b2e150074772146309,5,,,,,,suitcase,,,,,,0,27,27,25,1,3,0,,,,,,,,,,,,,,,,,,,,,,,,,,,,,,,,,,,,,,,,,,,,,,,,,,,,,,,,,,,,,,,,,,,,,,,,,,,
,,,,,,,,,,stimuli/images/PICTURE_470.png,CASINO,5ef614097c0ee22b09ccf634,08/01/1952,2020-09-12_04h16.05.238,proactive3.2,2020.1.2,MacIntel,60,5f5adea66120081ea0f57a61,5f5c91b2e150074772146309,5,,,,,,motorbike,,,,,,0,28,28,36,1,4,0,,,,,,,,,,,,,,,,,,,,,,,,,,,,,,,,,,,,,,,,,,,,,,,,,,,,,,,,,,,,,,,,,,,,,,,,,,,
,,,,,,,,,,stimuli/images/PICTURE_453.png,DUDE,5ef614097c0ee22b09ccf634,08/01/1952,2020-09-12_04h16.05.238,proactive3.2,2020.1.2,MacIntel,60,5f5adea66120081ea0f57a61,5f5c91b2e150074772146309,5,,,,,,scissors,,,,,,0,29,29,27,1,3,0,,,,,,,,,,,,,,,,,,,,,,,,,,,,,,,,,,,,,,,,,,,,,,,,,,,,,,,,,,,,,,,,,,,,,,,,,,,
,,,,,,,,,,stimuli/images/PICTURE_308.png,ESTATE,5ef614097c0ee22b09ccf634,08/01/1952,2020-09-12_04h16.05.238,proactive3.2,2020.1.2,MacIntel,60,5f5adea66120081ea0f57a61,5f5c91b2e150074772146309,5,,,,,,dice,,,,,,0,30,30,46,1,5,0,,,,,,,,,,,,,,,,,,,,,,,,,,,,,,,,,,,,,,,,,,,,,,,,,,,,,,,,,,,,,,,,,,,,,,,,,,,
,,,,,,,,,,stimuli/images/PICTURE_453.png,PLENTY,5ef614097c0ee22b09ccf634,08/01/1952,2020-09-12_04h16.05.238,proactive3.2,2020.1.2,MacIntel,60,5f5adea66120081ea0f57a61,5f5c91b2e150074772146309,5,,,,,,scissors,,,,,,0,31,31,56,1,6,0,,,,,,,,,,,,,,,,,,,,,,,,,,,,,,,,,,,,,,,,,,,,,,,,,,,,,,,,,,,,,,,,,,,,,,,,,,,
,,,,,,,,,,stimuli/images/PICTURE_509.png,PHOTO,5ef614097c0ee22b09ccf634,08/01/1952,2020-09-12_04h16.05.238,proactive3.2,2020.1.2,MacIntel,60,5f5adea66120081ea0f57a61,5f5c91b2e150074772146309,5,,,,,,telephone,,,,,,0,32,32,21,1,3,0,,,,,,,,,,,,,,,,,,,,,,,,,,,,,,,,,,,,,,,,,,,,,,,,,,,,,,,,,,,,,,,,,,,,,,,,,,,
,,,,,,,,,,stimuli/images/PICTURE_708.png,YARD,5ef614097c0ee22b09ccf634,08/01/1952,2020-09-12_04h16.05.238,proactive3.2,2020.1.2,MacIntel,60,5f5adea66120081ea0f57a61,5f5c91b2e150074772146309,5,,,,,,monkey,,,,,,0,33,33,29,1,3,0,,,,,,,,,,,,,,,,,,,,,,,,,,,,,,,,,,,,,,,,,,,,,,,,,,,,,,,,,,,,,,,,,,,,,,,,,,,
,,,,,,,,,,stimuli/images/PICTURE_449.png,THING,5ef614097c0ee22b09ccf634,08/01/1952,2020-09-12_04h16.05.238,proactive3.2,2020.1.2,MacIntel,60,5f5adea66120081ea0f57a61,5f5c91b2e150074772146309,5,,,,,,bench,,,,,,0,34,34,59,1,6,0,,,,,,,,,,,,,,,,,,,,,,,,,,,,,,,,,,,,,,,,,,,,,,,,,,,,,,,,,,,,,,,,,,,,,,,,,,,
,,,,,,,,,,stimuli/images/PICTURE_308.png,KIND,5ef614097c0ee22b09ccf634,08/01/1952,2020-09-12_04h16.05.238,proactive3.2,2020.1.2,MacIntel,60,5f5adea66120081ea0f57a61,5f5c91b2e150074772146309,5,,,,,,dice,,,,,,0,35,35,54,1,6,0,,,,,,,,,,,,,,,,,,,,,,,,,,,,,,,,,,,,,,,,,,,,,,,,,,,,,,,,,,,,,,,,,,,,,,,,,,,
,,,,,,,,,,stimuli/images/PICTURE_380.png,DEATH,5ef614097c0ee22b09ccf634,08/01/1952,2020-09-12_04h16.05.238,proactive3.2,2020.1.2,MacIntel,60,5f5adea66120081ea0f57a61,5f5c91b2e150074772146309,5,,,,,,gorilla,,,,,,0,36,36,49,1,5,0,,,,,,,,,,,,,,,,,,,,,,,,,,,,,,,,,,,,,,,,,,,,,,,,,,,,,,,,,,,,,,,,,,,,,,,,,,,
,,,,,,,,,,stimuli/images/PICTURE_667.png,BATH,5ef614097c0ee22b09ccf634,08/01/1952,2020-09-12_04h16.05.238,proactive3.2,2020.1.2,MacIntel,60,5f5adea66120081ea0f57a61,5f5c91b2e150074772146309,5,,,,,,daisy,,,,,,0,37,37,4,1,1,0,,,,,,,,,,,,,,,,,,,,,,,,,,,,,,,,,,,,,,,,,,,,,,,,,,,,,,,,,,,,,,,,,,,,,,,,,,,
,,,,,,,,,,stimuli/images/PICTURE_708.png,CLIENT,5ef614097c0ee22b09ccf634,08/01/1952,2020-09-12_04h16.05.238,proactive3.2,2020.1.2,MacIntel,60,5f5adea66120081ea0f57a61,5f5c91b2e150074772146309,5,,,,,,monkey,,,,,,0,38,38,5,1,1,0,,,,,,,,,,,,,,,,,,,,,,,,,,,,,,,,,,,,,,,,,,,,,,,,,,,,,,,,,,,,,,,,,,,,,,,,,,,
,,,,,,,,,,stimuli/images/PICTURE_208.png,MONTH,5ef614097c0ee22b09ccf634,08/01/1952,2020-09-12_04h16.05.238,proactive3.2,2020.1.2,MacIntel,60,5f5adea66120081ea0f57a61,5f5c91b2e150074772146309,5,,,,,,microphone,,,,,,0,39,39,53,1,6,0,,,,,,,,,,,,,,,,,,,,,,,,,,,,,,,,,,,,,,,,,,,,,,,,,,,,,,,,,,,,,,,,,,,,,,,,,,,
,,,,,,,,,,stimuli/images/PICTURE_302.png,FAMILY,5ef614097c0ee22b09ccf634,08/01/1952,2020-09-12_04h16.05.238,proactive3.2,2020.1.2,MacIntel,60,5f5adea66120081ea0f57a61,5f5c91b2e150074772146309,5,,,,,,taxi,,,,,,0,40,40,18,1,2,0,,,,,,,,,,,,,,,,,,,,,,,,,,,,,,,,,,,,,,,,,,,,,,,,,,,,,,,,,,,,,,,,,,,,,,,,,,,
,,,,,,,,,,stimuli/images/PICTURE_248.png,DOZEN,5ef614097c0ee22b09ccf634,08/01/1952,2020-09-12_04h16.05.238,proactive3.2,2020.1.2,MacIntel,60,5f5adea66120081ea0f57a61,5f5c91b2e150074772146309,5,,,,,,cart,,,,,,0,41,41,39,1,4,0,,,,,,,,,,,,,,,,,,,,,,,,,,,,,,,,,,,,,,,,,,,,,,,,,,,,,,,,,,,,,,,,,,,,,,,,,,,
,,,,,,,,,,stimuli/images/PICTURE_487.png,FLIGHT,5ef614097c0ee22b09ccf634,08/01/1952,2020-09-12_04h16.05.238,proactive3.2,2020.1.2,MacIntel,60,5f5adea66120081ea0f57a61,5f5c91b2e150074772146309,5,,,,,,basket,,,,,,0,42,42,9,1,1,0,,,,,,,,,,,,,,,,,,,,,,,,,,,,,,,,,,,,,,,,,,,,,,,,,,,,,,,,,,,,,,,,,,,,,,,,,,,
,,,,,,,,,,stimuli/images/PICTURE_233.png,IDEAS,5ef614097c0ee22b09ccf634,08/01/1952,2020-09-12_04h16.05.238,proactive3.2,2020.1.2,MacIntel,60,5f5adea66120081ea0f57a61,5f5c91b2e150074772146309,5,,,,,,salt,,,,,,0,43,43,28,1,3,0,,,,,,,,,,,,,,,,,,,,,,,,,,,,,,,,,,,,,,,,,,,,,,,,,,,,,,,,,,,,,,,,,,,,,,,,,,,
,,,,,,,,,,stimuli/images/PICTURE_491.png,WRITER,5ef614097c0ee22b09ccf634,08/01/1952,2020-09-12_04h16.05.238,proactive3.2,2020.1.2,MacIntel,60,5f5adea66120081ea0f57a61,5f5c91b2e150074772146309,5,,,,,,rug,,,,,,0,44,44,57,1,6,0,,,,,,,,,,,,,,,,,,,,,,,,,,,,,,,,,,,,,,,,,,,,,,,,,,,,,,,,,,,,,,,,,,,,,,,,,,,
,,,,,,,,,,stimuli/images/PICTURE_203.png,ARTIST,5ef614097c0ee22b09ccf634,08/01/1952,2020-09-12_04h16.05.238,proactive3.2,2020.1.2,MacIntel,60,5f5adea66120081ea0f57a61,5f5c91b2e150074772146309,5,,,,,,cap,,,,,,0,45,45,26,1,3,0,,,,,,,,,,,,,,,,,,,,,,,,,,,,,,,,,,,,,,,,,,,,,,,,,,,,,,,,,,,,,,,,,,,,,,,,,,,
,,,,,,,,,,stimuli/images/PICTURE_348.png,SPEECH,5ef614097c0ee22b09ccf634,08/01/1952,2020-09-12_04h16.05.238,proactive3.2,2020.1.2,MacIntel,60,5f5adea66120081ea0f57a61,5f5c91b2e150074772146309,5,,,,,,pepper,,,,,,0,46,46,20,1,3,0,,,,,,,,,,,,,,,,,,,,,,,,,,,,,,,,,,,,,,,,,,,,,,,,,,,,,,,,,,,,,,,,,,,,,,,,,,,
,,,,,,,,,,stimuli/images/PICTURE_339.png,PLENTY,5ef614097c0ee22b09ccf634,08/01/1952,2020-09-12_04h16.05.238,proactive3.2,2020.1.2,MacIntel,60,5f5adea66120081ea0f57a61,5f5c91b2e150074772146309,5,,,,,,backpack,,,,,,0,47,47,0,1,1,0,,,,,,,,,,,,,,,,,,,,,,,,,,,,,,,,,,,,,,,,,,,,,,,,,,,,,,,,,,,,,,,,,,,,,,,,,,,
,,,,,,,,,,stimuli/images/PICTURE_208.png,LOTS,5ef614097c0ee22b09ccf634,08/01/1952,2020-09-12_04h16.05.238,proactive3.2,2020.1.2,MacIntel,60,5f5adea66120081ea0f57a61,5f5c91b2e150074772146309,5,,,,,,microphone,,,,,,0,48,48,10,1,2,0,,,,,,,,,,,,,,,,,,,,,,,,,,,,,,,,,,,,,,,,,,,,,,,,,,,,,,,,,,,,,,,,,,,,,,,,,,,
,,,,,,,,,,stimuli/images/PICTURE_123.png,ADVICE,5ef614097c0ee22b09ccf634,08/01/1952,2020-09-12_04h16.05.238,proactive3.2,2020.1.2,MacIntel,60,5f5adea66120081ea0f57a61,5f5c91b2e150074772146309,5,,,,,,dart,,,,,,0,49,49,40,1,5,0,,,,,,,,,,,,,,,,,,,,,,,,,,,,,,,,,,,,,,,,,,,,,,,,,,,,,,,,,,,,,,,,,,,,,,,,,,,
,,,,,,,,,,stimuli/images/PICTURE_491.png,ROOF,5ef614097c0ee22b09ccf634,08/01/1952,2020-09-12_04h16.05.238,proactive3.2,2020.1.2,MacIntel,60,5f5adea66120081ea0f57a61,5f5c91b2e150074772146309,5,,,,,,rug,,,,,,0,50,50,24,1,3,0,,,,,,,,,,,,,,,,,,,,,,,,,,,,,,,,,,,,,,,,,,,,,,,,,,,,,,,,,,,,,,,,,,,,,,,,,,,
,,,,,,,,,,stimuli/images/PICTURE_208.png,THING,5ef614097c0ee22b09ccf634,08/01/1952,2020-09-12_04h16.05.238,proactive3.2,2020.1.2,MacIntel,60,5f5adea66120081ea0f57a61,5f5c91b2e150074772146309,5,,,,,,microphone,,,,,,0,51,51,47,1,5,0,,,,,,,,,,,,,,,,,,,,,,,,,,,,,,,,,,,,,,,,,,,,,,,,,,,,,,,,,,,,,,,,,,,,,,,,,,,
,,,,,,,,,,stimuli/images/PICTURE_160.png,FEET,5ef614097c0ee22b09ccf634,08/01/1952,2020-09-12_04h16.05.238,proactive3.2,2020.1.2,MacIntel,60,5f5adea66120081ea0f57a61,5f5c91b2e150074772146309,5,,,,,,wheelbarrow,,,,,,0,52,52,58,1,6,0,,,,,,,,,,,,,,,,,,,,,,,,,,,,,,,,,,,,,,,,,,,,,,,,,,,,,,,,,,,,,,,,,,,,,,,,,,,
,,,,,,,,,,stimuli/images/PICTURE_677.png,MILE,5ef614097c0ee22b09ccf634,08/01/1952,2020-09-12_04h16.05.238,proactive3.2,2020.1.2,MacIntel,60,5f5adea66120081ea0f57a61,5f5c91b2e150074772146309,5,,,,,,map,,,,,,0,53,53,30,1,4,0,,,,,,,,,,,,,,,,,,,,,,,,,,,,,,,,,,,,,,,,,,,,,,,,,,,,,,,,,,,,,,,,,,,,,,,,,,,
,,,,,,,,,,stimuli/images/PICTURE_160.png,LEADER,5ef614097c0ee22b09ccf634,08/01/1952,2020-09-12_04h16.05.238,proactive3.2,2020.1.2,MacIntel,60,5f5adea66120081ea0f57a61,5f5c91b2e150074772146309,5,,,,,,wheelbarrow,,,,,,0,54,54,3,1,1,0,,,,,,,,,,,,,,,,,,,,,,,,,,,,,,,,,,,,,,,,,,,,,,,,,,,,,,,,,,,,,,,,,,,,,,,,,,,
,,,,,,,,,,stimuli/images/PICTURE_688.png,CASINO,5ef614097c0ee22b09ccf634,08/01/1952,2020-09-12_04h16.05.238,proactive3.2,2020.1.2,MacIntel,60,5f5adea66120081ea0f57a61,5f5c91b2e150074772146309,5,,,,,,runner,,,,,,0,55,55,2,1,1,0,,,,,,,,,,,,,,,,,,,,,,,,,,,,,,,,,,,,,,,,,,,,,,,,,,,,,,,,,,,,,,,,,,,,,,,,,,,
,,,,,,,,,,stimuli/images/PICTURE_708.png,PENNY,5ef614097c0ee22b09ccf634,08/01/1952,2020-09-12_04h16.05.238,proactive3.2,2020.1.2,MacIntel,60,5f5adea66120081ea0f57a61,5f5c91b2e150074772146309,5,,,,,,monkey,,,,,,0,56,56,31,1,4,0,,,,,,,,,,,,,,,,,,,,,,,,,,,,,,,,,,,,,,,,,,,,,,,,,,,,,,,,,,,,,,,,,,,,,,,,,,,
,,,,,,,,,,stimuli/images/PICTURE_255.png,AREA,5ef614097c0ee22b09ccf634,08/01/1952,2020-09-12_04h16.05.238,proactive3.2,2020.1.2,MacIntel,60,5f5adea66120081ea0f57a61,5f5c91b2e150074772146309,5,,,,,,shovel,,,,,,0,57,57,22,1,3,0,,,,,,,,,,,,,,,,,,,,,,,,,,,,,,,,,,,,,,,,,,,,,,,,,,,,,,,,,,,,,,,,,,,,,,,,,,,
,,,,,,,,,,stimuli/images/PICTURE_314.png,GODS,5ef614097c0ee22b09ccf634,08/01/1952,2020-09-12_04h16.05.238,proactive3.2,2020.1.2,MacIntel,60,5f5adea66120081ea0f57a61,5f5c91b2e150074772146309,5,,,,,,perfume,,,,,,0,58,58,11,1,2,0,,,,,,,,,,,,,,,,,,,,,,,,,,,,,,,,,,,,,,,,,,,,,,,,,,,,,,,,,,,,,,,,,,,,,,,,,,,
,,ADVICE,5.928,1,,,,,,stimuli/images/PICTURE_123.png,ADVICE,5ef614097c0ee22b09ccf634,08/01/1952,2020-09-12_04h16.05.238,proactive3.2,2020.1.2,MacIntel,60,5f5adea66120081ea0f57a61,5f5c91b2e150074772146309,5,,,,,,dart,,,,,,,,,,,5,0,0,0,0,40,1,,,,,,,,,,,,,,,,,,,,,,,,,,,,,,,,,,,,,,,,,,,,,,,,,,,,,,,,,,,,,,,,,,,,,,
,,?,0.002,0,,,,,,stimuli/images/PICTURE_509.png,PHOTO,5ef614097c0ee22b09ccf634,08/01/1952,2020-09-12_04h16.05.238,proactive3.2,2020.1.2,MacIntel,60,5f5adea66120081ea0f57a61,5f5c91b2e150074772146309,5,,,,,,telephone,,,,,,,,,,,3,0,0,1,1,21,1,,,,,,,,,,,,,,,,,,,,,,,,,,,,,,,,,,,,,,,,,,,,,,,,,,,,,,,,,,,,,,,,,,,,,,
,,?,0.001,0,,,,,,stimuli/images/PICTURE_453.png,DUDE,5ef614097c0ee22b09ccf634,08/01/1952,2020-09-12_04h16.05.238,proactive3.2,2020.1.2,MacIntel,60,5f5adea66120081ea0f57a61,5f5c91b2e150074772146309,5,,,,,,scissors,,,,,,,,,,,3,0,0,2,2,27,1,,,,,,,,,,,,,,,,,,,,,,,,,,,,,,,,,,,,,,,,,,,,,,,,,,,,,,,,,,,,,,,,,,,,,,
,,?,0.001,0,,,,,,stimuli/images/PICTURE_692.png,MONTH,5ef614097c0ee22b09ccf634,08/01/1952,2020-09-12_04h16.05.238,proactive3.2,2020.1.2,MacIntel,60,5f5adea66120081ea0f57a61,5f5c91b2e150074772146309,5,,,,,,cherry,,,,,,,,,,,2,0,0,3,3,16,1,,,,,,,,,,,,,,,,,,,,,,,,,,,,,,,,,,,,,,,,,,,,,,,,,,,,,,,,,,,,,,,,,,,,,,
,,?,0.001,0,,,,,,stimuli/images/PICTURE_708.png,CLIENT,5ef614097c0ee22b09ccf634,08/01/1952,2020-09-12_04h16.05.238,proactive3.2,2020.1.2,MacIntel,60,5f5adea66120081ea0f57a61,5f5c91b2e150074772146309,5,,,,,,monkey,,,,,,,,,,,1,0,0,4,4,5,1,,,,,,,,,,,,,,,,,,,,,,,,,,,,,,,,,,,,,,,,,,,,,,,,,,,,,,,,,,,,,,,,,,,,,,
,,BEAUTY,2.672,1,,,,,,stimuli/images/PICTURE_327.png,BEAUTY,5ef614097c0ee22b09ccf634,08/01/1952,2020-09-12_04h16.05.238,proactive3.2,2020.1.2,MacIntel,60,5f5adea66120081ea0f57a61,5f5c91b2e150074772146309,5,,,,,,helmet,,,,,,,,,,,5,0,0,5,5,48,1,,,,,,,,,,,,,,,,,,,,,,,,,,,,,,,,,,,,,,,,,,,,,,,,,,,,,,,,,,,,,,,,,,,,,,
,,?,0.001,0,,,,,,stimuli/images/PICTURE_215.png,PLENTY,5ef614097c0ee22b09ccf634,08/01/1952,2020-09-12_04h16.05.238,proactive3.2,2020.1.2,MacIntel,60,5f5adea66120081ea0f57a61,5f5c91b2e150074772146309,5,,,,,,boot,,,,,,,,,,,4,0,0,6,6,37,1,,,,,,,,,,,,,,,,,,,,,,,,,,,,,,,,,,,,,,,,,,,,,,,,,,,,,,,,,,,,,,,,,,,,,,
,,?,0.001,0,,,,,,stimuli/images/PICTURE_677.png,MILE,5ef614097c0ee22b09ccf634,08/01/1952,2020-09-12_04h16.05.238,proactive3.2,2020.1.2,MacIntel,60,5f5adea66120081ea0f57a61,5f5c91b2e150074772146309,5,,,,,,map,,,,,,,,,,,4,0,0,7,7,30,1,,,,,,,,,,,,,,,,,,,,,,,,,,,,,,,,,,,,,,,,,,,,,,,,,,,,,,,,,,,,,,,,,,,,,,
,,?,0,0,,,,,,stimuli/images/PICTURE_708.png,PENNY,5ef614097c0ee22b09ccf634,08/01/1952,2020-09-12_04h16.05.238,proactive3.2,2020.1.2,MacIntel,60,5f5adea66120081ea0f57a61,5f5c91b2e150074772146309,5,,,,,,monkey,,,,,,,,,,,4,0,0,8,8,31,1,,,,,,,,,,,,,,,,,,,,,,,,,,,,,,,,,,,,,,,,,,,,,,,,,,,,,,,,,,,,,,,,,,,,,,
,,?,0.001,0,,,,,,stimuli/images/PICTURE_348.png,SPEECH,5ef614097c0ee22b09ccf634,08/01/1952,2020-09-12_04h16.05.238,proactive3.2,2020.1.2,MacIntel,60,5f5adea66120081ea0f57a61,5f5c91b2e150074772146309,5,,,,,,pepper,,,,,,,,,,,3,0,0,9,9,20,1,,,,,,,,,,,,,,,,,,,,,,,,,,,,,,,,,,,,,,,,,,,,,,,,,,,,,,,,,,,,,,,,,,,,,,
,,?,0.001,0,,,,,,stimuli/images/PICTURE_339.png,PLENTY,5ef614097c0ee22b09ccf634,08/01/1952,2020-09-12_04h16.05.238,proactive3.2,2020.1.2,MacIntel,60,5f5adea66120081ea0f57a61,5f5c91b2e150074772146309,5,,,,,,backpack,,,,,,,,,,,1,0,0,10,10,0,1,,,,,,,,,,,,,,,,,,,,,,,,,,,,,,,,,,,,,,,,,,,,,,,,,,,,,,,,,,,,,,,,,,,,,,
,,?,0.001,0,,,,,,stimuli/images/PICTURE_708.png,YARD,5ef614097c0ee22b09ccf634,08/01/1952,2020-09-12_04h16.05.238,proactive3.2,2020.1.2,MacIntel,60,5f5adea66120081ea0f57a61,5f5c91b2e150074772146309,5,,,,,,monkey,,,,,,,,,,,3,0,0,11,11,29,1,,,,,,,,,,,,,,,,,,,,,,,,,,,,,,,,,,,,,,,,,,,,,,,,,,,,,,,,,,,,,,,,,,,,,,
,,?,0,0,,,,,,stimuli/images/PICTURE_688.png,CASINO,5ef614097c0ee22b09ccf634,08/01/1952,2020-09-12_04h16.05.238,proactive3.2,2020.1.2,MacIntel,60,5f5adea66120081ea0f57a61,5f5c91b2e150074772146309,5,,,,,,runner,,,,,,,,,,,1,0,0,12,12,2,1,,,,,,,,,,,,,,,,,,,,,,,,,,,,,,,,,,,,,,,,,,,,,,,,,,,,,,,,,,,,,,,,,,,,,,
,,?,0.001,0,,,,,,stimuli/images/PICTURE_160.png,FEET,5ef614097c0ee22b09ccf634,08/01/1952,2020-09-12_04h16.05.238,proactive3.2,2020.1.2,MacIntel,60,5f5adea66120081ea0f57a61,5f5c91b2e150074772146309,5,,,,,,wheelbarrow,,,,,,,,,,,6,0,0,13,13,58,1,,,,,,,,,,,,,,,,,,,,,,,,,,,,,,,,,,,,,,,,,,,,,,,,,,,,,,,,,,,,,,,,,,,,,,
,,SYSTEM,3.736,1,,,,,,stimuli/images/PICTURE_744.png,SYSTEM,5ef614097c0ee22b09ccf634,08/01/1952,2020-09-12_04h16.05.238,proactive3.2,2020.1.2,MacIntel,60,5f5adea66120081ea0f57a61,5f5c91b2e150074772146309,5,,,,,,ring,,,,,,,,,,,5,0,0,14,14,43,1,,,,,,,,,,,,,,,,,,,,,,,,,,,,,,,,,,,,,,,,,,,,,,,,,,,,,,,,,,,,,,,,,,,,,,
,,?,0.001,0,,,,,,stimuli/images/PICTURE_203.png,ARTIST,5ef614097c0ee22b09ccf634,08/01/1952,2020-09-12_04h16.05.238,proactive3.2,2020.1.2,MacIntel,60,5f5adea66120081ea0f57a61,5f5c91b2e150074772146309,5,,,,,,cap,,,,,,,,,,,3,0,0,15,15,26,1,,,,,,,,,,,,,,,,,,,,,,,,,,,,,,,,,,,,,,,,,,,,,,,,,,,,,,,,,,,,,,,,,,,,,,
,,?,0.001,0,,,,,,stimuli/images/PICTURE_491.png,WRITER,5ef614097c0ee22b09ccf634,08/01/1952,2020-09-12_04h16.05.238,proactive3.2,2020.1.2,MacIntel,60,5f5adea66120081ea0f57a61,5f5c91b2e150074772146309,5,,,,,,rug,,,,,,,,,,,6,0,0,16,16,57,1,,,,,,,,,,,,,,,,,,,,,,,,,,,,,,,,,,,,,,,,,,,,,,,,,,,,,,,,,,,,,,,,,,,,,,
,,?,0.001,0,,,,,,stimuli/images/PICTURE_248.png,DOZEN,5ef614097c0ee22b09ccf634,08/01/1952,2020-09-12_04h16.05.238,proactive3.2,2020.1.2,MacIntel,60,5f5adea66120081ea0f57a61,5f5c91b2e150074772146309,5,,,,,,cart,,,,,,,,,,,4,0,0,17,17,39,1,,,,,,,,,,,,,,,,,,,,,,,,,,,,,,,,,,,,,,,,,,,,,,,,,,,,,,,,,,,,,,,,,,,,,,
,,?,0.001,0,,,,,,stimuli/images/PICTURE_123.png,ADVICE,5ef614097c0ee22b09ccf634,08/01/1952,2020-09-12_04h16.05.238,proactive3.2,2020.1.2,MacIntel,60,5f5adea66120081ea0f57a61,5f5c91b2e150074772146309,5,,,,,,dart,,,,,,,,,,,6,0,0,18,18,50,1,,,,,,,,,,,,,,,,,,,,,,,,,,,,,,,,,,,,,,,,,,,,,,,,,,,,,,,,,,,,,,,,,,,,,,
,,JUNGLE,3.607,1,,,,,,stimuli/images/PICTURE_32.png,JUNGLE,5ef614097c0ee22b09ccf634,08/01/1952,2020-09-12_04h16.05.238,proactive3.2,2020.1.2,MacIntel,60,5f5adea66120081ea0f57a61,5f5c91b2e150074772146309,5,,,,,,crown,,,,,,,,,,,5,0,0,19,19,45,1,,,,,,,,,,,,,,,,,,,,,,,,,,,,,,,,,,,,,,,,,,,,,,,,,,,,,,,,,,,,,,,,,,,,,,
,,?,0.002,0,,,,,,stimuli/images/PICTURE_314.png,SAKE,5ef614097c0ee22b09ccf634,08/01/1952,2020-09-12_04h16.05.238,proactive3.2,2020.1.2,MacIntel,60,5f5adea66120081ea0f57a61,5f5c91b2e150074772146309,5,,,,,,perfume,,,,,,,,,,,1,0,0,20,20,7,1,,,,,,,,,,,,,,,,,,,,,,,,,,,,,,,,,,,,,,,,,,,,,,,,,,,,,,,,,,,,,,,,,,,,,,
,,LETTER,2.563,1,,,,,,stimuli/images/PICTURE_469.png,LETTER,5ef614097c0ee22b09ccf634,08/01/1952,2020-09-12_04h16.05.238,proactive3.2,2020.1.2,MacIntel,60,5f5adea66120081ea0f57a61,5f5c91b2e150074772146309,5,,,,,,stool,,,,,,,,,,,5,0,0,21,21,42,1,,,,,,,,,,,,,,,,,,,,,,,,,,,,,,,,,,,,,,,,,,,,,,,,,,,,,,,,,,,,,,,,,,,,,,
,,DEATH,2.049,1,,,,,,stimuli/images/PICTURE_380.png,DEATH,5ef614097c0ee22b09ccf634,08/01/1952,2020-09-12_04h16.05.238,proactive3.2,2020.1.2,MacIntel,60,5f5adea66120081ea0f57a61,5f5c91b2e150074772146309,5,,,,,,gorilla,,,,,,,,,,,5,0,0,22,22,49,1,,,,,,,,,,,,,,,,,,,,,,,,,,,,,,,,,,,,,,,,,,,,,,,,,,,,,,,,,,,,,,,,,,,,,,
,,?,0,0,,,,,,stimuli/images/PICTURE_255.png,AREA,5ef614097c0ee22b09ccf634,08/01/1952,2020-09-12_04h16.05.238,proactive3.2,2020.1.2,MacIntel,60,5f5adea66120081ea0f57a61,5f5c91b2e150074772146309,5,,,,,,shovel,,,,,,,,,,,3,0,0,23,23,22,1,,,,,,,,,,,,,,,,,,,,,,,,,,,,,,,,,,,,,,,,,,,,,,,,,,,,,,,,,,,,,,,,,,,,,,
,,?,0.001,0,,,,,,stimuli/images/PICTURE_675.png,WEAPON,5ef614097c0ee22b09ccf634,08/01/1952,2020-09-12_04h16.05.238,proactive3.2,2020.1.2,MacIntel,60,5f5adea66120081ea0f57a61,5f5c91b2e150074772146309,5,,,,,,windmill,,,,,,,,,,,4,0,0,24,24,32,1,,,,,,,,,,,,,,,,,,,,,,,,,,,,,,,,,,,,,,,,,,,,,,,,,,,,,,,,,,,,,,,,,,,,,,
,,?,0.001,0,,,,,,stimuli/images/PICTURE_151.png,GIRL,5ef614097c0ee22b09ccf634,08/01/1952,2020-09-12_04h16.05.238,proactive3.2,2020.1.2,MacIntel,60,5f5adea66120081ea0f57a61,5f5c91b2e150074772146309,5,,,,,,tray,,,,,,,,,,,2,0,0,25,25,19,1,,,,,,,,,,,,,,,,,,,,,,,,,,,,,,,,,,,,,,,,,,,,,,,,,,,,,,,,,,,,,,,,,,,,,,
,,?,0.001,0,,,,,,stimuli/images/PICTURE_285.png,ADVICE,5ef614097c0ee22b09ccf634,08/01/1952,2020-09-12_04h16.05.238,proactive3.2,2020.1.2,MacIntel,60,5f5adea66120081ea0f57a61,5f5c91b2e150074772146309,5,,,,,,carrot,,,,,,,,,,,2,0,0,26,26,12,1,,,,,,,,,,,,,,,,,,,,,,,,,,,,,,,,,,,,,,,,,,,,,,,,,,,,,,,,,,,,,,,,,,,,,,
,,?,0,0,,,,,,stimuli/images/PICTURE_356.png,DANGER,5ef614097c0ee22b09ccf634,08/01/1952,2020-09-12_04h16.05.238,proactive3.2,2020.1.2,MacIntel,60,5f5adea66120081ea0f57a61,5f5c91b2e150074772146309,5,,,,,,pawn,,,,,,,,,,,6,0,0,27,27,55,1,,,,,,,,,,,,,,,,,,,,,,,,,,,,,,,,,,,,,,,,,,,,,,,,,,,,,,,,,,,,,,,,,,,,,,
,,?,0,0,,,,,,stimuli/images/PICTURE_208.png,LOTS,5ef614097c0ee22b09ccf634,08/01/1952,2020-09-12_04h16.05.238,proactive3.2,2020.1.2,MacIntel,60,5f5adea66120081ea0f57a61,5f5c91b2e150074772146309,5,,,,,,microphone,,,,,,,,,,,2,0,0,28,28,10,1,,,,,,,,,,,,,,,,,,,,,,,,,,,,,,,,,,,,,,,,,,,,,,,,,,,,,,,,,,,,,,,,,,,,,,
,,?,0,0,,,,,,stimuli/images/PICTURE_380.png,PHOTO,5ef614097c0ee22b09ccf634,08/01/1952,2020-09-12_04h16.05.238,proactive3.2,2020.1.2,MacIntel,60,5f5adea66120081ea0f57a61,5f5c91b2e150074772146309,5,,,,,,gorilla,,,,,,,,,,,6,0,0,29,29,52,1,,,,,,,,,,,,,,,,,,,,,,,,,,,,,,,,,,,,,,,,,,,,,,,,,,,,,,,,,,,,,,,,,,,,,,
,,ESTATE,2.475,1,,,,,,stimuli/images/PICTURE_308.png,ESTATE,5ef614097c0ee22b09ccf634,08/01/1952,2020-09-12_04h16.05.238,proactive3.2,2020.1.2,MacIntel,60,5f5adea66120081ea0f57a61,5f5c91b2e150074772146309,5,,,,,,dice,,,,,,,,,,,5,0,0,30,30,46,1,,,,,,,,,,,,,,,,,,,,,,,,,,,,,,,,,,,,,,,,,,,,,,,,,,,,,,,,,,,,,,,,,,,,,,
,,?,0.001,0,,,,,,stimuli/images/PICTURE_744.png,SAKE,5ef614097c0ee22b09ccf634,08/01/1952,2020-09-12_04h16.05.238,proactive3.2,2020.1.2,MacIntel,60,5f5adea66120081ea0f57a61,5f5c91b2e150074772146309,5,,,,,,ring,,,,,,,,,,,2,0,0,31,31,17,1,,,,,,,,,,,,,,,,,,,,,,,,,,,,,,,,,,,,,,,,,,,,,,,,,,,,,,,,,,,,,,,,,,,,,,
,,?,0,0,,,,,,stimuli/images/PICTURE_654.png,VALLEY,5ef614097c0ee22b09ccf634,08/01/1952,2020-09-12_04h16.05.238,proactive3.2,2020.1.2,MacIntel,60,5f5adea66120081ea0f57a61,5f5c91b2e150074772146309,5,,,,,,pencil,,,,,,,,,,,1,0,0,32,32,1,1,,,,,,,,,,,,,,,,,,,,,,,,,,,,,,,,,,,,,,,,,,,,,,,,,,,,,,,,,,,,,,,,,,,,,,
,,?,0.001,0,,,,,,stimuli/images/PICTURE_177.png,CARS,5ef614097c0ee22b09ccf634,08/01/1952,2020-09-12_04h16.05.238,proactive3.2,2020.1.2,MacIntel,60,5f5adea66120081ea0f57a61,5f5c91b2e150074772146309,5,,,,,,mushroom,,,,,,,,,,,4,0,0,33,33,35,1,,,,,,,,,,,,,,,,,,,,,,,,,,,,,,,,,,,,,,,,,,,,,,,,,,,,,,,,,,,,,,,,,,,,,,
,,?,0.001,0,,,,,,stimuli/images/PICTURE_504.png,BODY,5ef614097c0ee22b09ccf634,08/01/1952,2020-09-12_04h16.05.238,proactive3.2,2020.1.2,MacIntel,60,5f5adea66120081ea0f57a61,5f5c91b2e150074772146309,5,,,,,,wheel,,,,,,,,,,,1,0,0,34,34,8,1,,,,,,,,,,,,,,,,,,,,,,,,,,,,,,,,,,,,,,,,,,,,,,,,,,,,,,,,,,,,,,,,,,,,,,
,,?,6.758,0,,,,,,stimuli/images/PICTURE_667.png,PLENTY,5ef614097c0ee22b09ccf634,08/01/1952,2020-09-12_04h16.05.238,proactive3.2,2020.1.2,MacIntel,60,5f5adea66120081ea0f57a61,5f5c91b2e150074772146309,5,,,,,,daisy,,,,,,,,,,,5,0,0,35,35,41,1,,,,,,,,,,,,,,,,,,,,,,,,,,,,,,,,,,,,,,,,,,,,,,,,,,,,,,,,,,,,,,,,,,,,,,
,,?,0.001,0,,,,,,stimuli/images/PICTURE_95.png,STYLE,5ef614097c0ee22b09ccf634,08/01/1952,2020-09-12_04h16.05.238,proactive3.2,2020.1.2,MacIntel,60,5f5adea66120081ea0f57a61,5f5c91b2e150074772146309,5,,,,,,suitcase,,,,,,,,,,,3,0,0,36,36,25,1,,,,,,,,,,,,,,,,,,,,,,,,,,,,,,,,,,,,,,,,,,,,,,,,,,,,,,,,,,,,,,,,,,,,,,
,,?,0.001,0,,,,,,stimuli/images/PICTURE_311.png,BEAUTY,5ef614097c0ee22b09ccf634,08/01/1952,2020-09-12_04h16.05.238,proactive3.2,2020.1.2,MacIntel,60,5f5adea66120081ea0f57a61,5f5c91b2e150074772146309,5,,,,,,razor,,,,,,,,,,,2,0,0,37,37,13,1,,,,,,,,,,,,,,,,,,,,,,,,,,,,,,,,,,,,,,,,,,,,,,,,,,,,,,,,,,,,,,,,,,,,,,
,,?,0.001,0,,,,,,stimuli/images/PICTURE_488.png,STYLE,5ef614097c0ee22b09ccf634,08/01/1952,2020-09-12_04h16.05.238,proactive3.2,2020.1.2,MacIntel,60,5f5adea66120081ea0f57a61,5f5c91b2e150074772146309,5,,,,,,sun,,,,,,,,,,,4,0,0,38,38,33,1,,,,,,,,,,,,,,,,,,,,,,,,,,,,,,,,,,,,,,,,,,,,,,,,,,,,,,,,,,,,,,,,,,,,,,
,,?,0.001,0,,,,,,stimuli/images/PICTURE_453.png,PLENTY,5ef614097c0ee22b09ccf634,08/01/1952,2020-09-12_04h16.05.238,proactive3.2,2020.1.2,MacIntel,60,5f5adea66120081ea0f57a61,5f5c91b2e150074772146309,5,,,,,,scissors,,,,,,,,,,,6,0,0,39,39,56,1,,,,,,,,,,,,,,,,,,,,,,,,,,,,,,,,,,,,,,,,,,,,,,,,,,,,,,,,,,,,,,,,,,,,,,
,,?,0.001,0,,,,,,stimuli/images/PICTURE_85.png,THING,5ef614097c0ee22b09ccf634,08/01/1952,2020-09-12_04h16.05.238,proactive3.2,2020.1.2,MacIntel,60,5f5adea66120081ea0f57a61,5f5c91b2e150074772146309,5,,,,,,diamond,,,,,,,,,,,2,0,0,40,40,15,1,,,,,,,,,,,,,,,,,,,,,,,,,,,,,,,,,,,,,,,,,,,,,,,,,,,,,,,,,,,,,,,,,,,,,,
,,?,0.001,0,,,,,,stimuli/images/PICTURE_467.png,DEMON,5ef614097c0ee22b09ccf634,08/01/1952,2020-09-12_04h16.05.238,proactive3.2,2020.1.2,MacIntel,60,5f5adea66120081ea0f57a61,5f5c91b2e150074772146309,5,,,,,,peg,,,,,,,,,,,3,0,0,41,41,23,1,,,,,,,,,,,,,,,,,,,,,,,,,,,,,,,,,,,,,,,,,,,,,,,,,,,,,,,,,,,,,,,,,,,,,,
,,THING,2.173,1,,,,,,stimuli/images/PICTURE_208.png,THING,5ef614097c0ee22b09ccf634,08/01/1952,2020-09-12_04h16.05.238,proactive3.2,2020.1.2,MacIntel,60,5f5adea66120081ea0f57a61,5f5c91b2e150074772146309,5,,,,,,microphone,,,,,,,,,,,5,0,0,42,42,47,1,,,,,,,,,,,,,,,,,,,,,,,,,,,,,,,,,,,,,,,,,,,,,,,,,,,,,,,,,,,,,,,,,,,,,,
,,?,0.002,0,,,,,,stimuli/images/PICTURE_233.png,IDEAS,5ef614097c0ee22b09ccf634,08/01/1952,2020-09-12_04h16.05.238,proactive3.2,2020.1.2,MacIntel,60,5f5adea66120081ea0f57a61,5f5c91b2e150074772146309,5,,,,,,salt,,,,,,,,,,,3,0,0,43,43,28,1,,,,,,,,,,,,,,,,,,,,,,,,,,,,,,,,,,,,,,,,,,,,,,,,,,,,,,,,,,,,,,,,,,,,,,
,,?,0,0,,,,,,stimuli/images/PICTURE_147.png,MOMENT,5ef614097c0ee22b09ccf634,08/01/1952,2020-09-12_04h16.05.238,proactive3.2,2020.1.2,MacIntel,60,5f5adea66120081ea0f57a61,5f5c91b2e150074772146309,5,,,,,,hanger,,,,,,,,,,,6,0,0,44,44,51,1,,,,,,,,,,,,,,,,,,,,,,,,,,,,,,,,,,,,,,,,,,,,,,,,,,,,,,,,,,,,,,,,,,,,,,
,,?,0,0,,,,,,stimuli/images/PICTURE_667.png,BATH,5ef614097c0ee22b09ccf634,08/01/1952,2020-09-12_04h16.05.238,proactive3.2,2020.1.2,MacIntel,60,5f5adea66120081ea0f57a61,5f5c91b2e150074772146309,5,,,,,,daisy,,,,,,,,,,,1,0,0,45,45,4,1,,,,,,,,,,,,,,,,,,,,,,,,,,,,,,,,,,,,,,,,,,,,,,,,,,,,,,,,,,,,,,,,,,,,,,
,,?,0.001,0,,,,,,stimuli/images/PICTURE_160.png,LEADER,5ef614097c0ee22b09ccf634,08/01/1952,2020-09-12_04h16.05.238,proactive3.2,2020.1.2,MacIntel,60,5f5adea66120081ea0f57a61,5f5c91b2e150074772146309,5,,,,,,wheelbarrow,,,,,,,,,,,1,0,0,46,46,3,1,,,,,,,,,,,,,,,,,,,,,,,,,,,,,,,,,,,,,,,,,,,,,,,,,,,,,,,,,,,,,,,,,,,,,,
,,?,3.126,0,,,,,,stimuli/images/PICTURE_68.png,MILE,5ef614097c0ee22b09ccf634,08/01/1952,2020-09-12_04h16.05.238,proactive3.2,2020.1.2,MacIntel,60,5f5adea66120081ea0f57a61,5f5c91b2e150074772146309,5,,,,,,candle,,,,,,,,,,,5,0,0,47,47,44,1,,,,,,,,,,,,,,,,,,,,,,,,,,,,,,,,,,,,,,,,,,,,,,,,,,,,,,,,,,,,,,,,,,,,,,
,,?,0.002,0,,,,,,stimuli/images/PICTURE_314.png,GODS,5ef614097c0ee22b09ccf634,08/01/1952,2020-09-12_04h16.05.238,proactive3.2,2020.1.2,MacIntel,60,5f5adea66120081ea0f57a61,5f5c91b2e150074772146309,5,,,,,,perfume,,,,,,,,,,,2,0,0,48,48,11,1,,,,,,,,,,,,,,,,,,,,,,,,,,,,,,,,,,,,,,,,,,,,,,,,,,,,,,,,,,,,,,,,,,,,,,
,,?,0.001,0,,,,,,stimuli/images/PICTURE_233.png,WOMEN,5ef614097c0ee22b09ccf634,08/01/1952,2020-09-12_04h16.05.238,proactive3.2,2020.1.2,MacIntel,60,5f5adea66120081ea0f57a61,5f5c91b2e150074772146309,5,,,,,,salt,,,,,,,,,,,4,0,0,49,49,38,1,,,,,,,,,,,,,,,,,,,,,,,,,,,,,,,,,,,,,,,,,,,,,,,,,,,,,,,,,,,,,,,,,,,,,,
,,?,0,0,,,,,,stimuli/images/PICTURE_470.png,CASINO,5ef614097c0ee22b09ccf634,08/01/1952,2020-09-12_04h16.05.238,proactive3.2,2020.1.2,MacIntel,60,5f5adea66120081ea0f57a61,5f5c91b2e150074772146309,5,,,,,,motorbike,,,,,,,,,,,4,0,0,50,50,36,1,,,,,,,,,,,,,,,,,,,,,,,,,,,,,,,,,,,,,,,,,,,,,,,,,,,,,,,,,,,,,,,,,,,,,,
,,?,0.001,0,,,,,,stimuli/images/PICTURE_208.png,MONTH,5ef614097c0ee22b09ccf634,08/01/1952,2020-09-12_04h16.05.238,proactive3.2,2020.1.2,MacIntel,60,5f5adea66120081ea0f57a61,5f5c91b2e150074772146309,5,,,,,,microphone,,,,,,,,,,,6,0,0,51,51,53,1,,,,,,,,,,,,,,,,,,,,,,,,,,,,,,,,,,,,,,,,,,,,,,,,,,,,,,,,,,,,,,,,,,,,,,
,,?,0,0,,,,,,stimuli/images/PICTURE_449.png,THING,5ef614097c0ee22b09ccf634,08/01/1952,2020-09-12_04h16.05.238,proactive3.2,2020.1.2,MacIntel,60,5f5adea66120081ea0f57a61,5f5c91b2e150074772146309,5,,,,,,bench,,,,,,,,,,,6,0,0,52,52,59,1,,,,,,,,,,,,,,,,,,,,,,,,,,,,,,,,,,,,,,,,,,,,,,,,,,,,,,,,,,,,,,,,,,,,,,
,,?,0.001,0,,,,,,stimuli/images/PICTURE_308.png,KIND,5ef614097c0ee22b09ccf634,08/01/1952,2020-09-12_04h16.05.238,proactive3.2,2020.1.2,MacIntel,60,5f5adea66120081ea0f57a61,5f5c91b2e150074772146309,5,,,,,,dice,,,,,,,,,,,6,0,0,53,53,54,1,,,,,,,,,,,,,,,,,,,,,,,,,,,,,,,,,,,,,,,,,,,,,,,,,,,,,,,,,,,,,,,,,,,,,,
,,?,0.001,0,,,,,,stimuli/images/PICTURE_311.png,FRIEND,5ef614097c0ee22b09ccf634,08/01/1952,2020-09-12_04h16.05.238,proactive3.2,2020.1.2,MacIntel,60,5f5adea66120081ea0f57a61,5f5c91b2e150074772146309,5,,,,,,razor,,,,,,,,,,,4,0,0,54,54,34,1,,,,,,,,,,,,,,,,,,,,,,,,,,,,,,,,,,,,,,,,,,,,,,,,,,,,,,,,,,,,,,,,,,,,,,
,,?,0.001,0,,,,,,stimuli/images/PICTURE_491.png,ROOF,5ef614097c0ee22b09ccf634,08/01/1952,2020-09-12_04h16.05.238,proactive3.2,2020.1.2,MacIntel,60,5f5adea66120081ea0f57a61,5f5c91b2e150074772146309,5,,,,,,rug,,,,,,,,,,,3,0,0,55,55,24,1,,,,,,,,,,,,,,,,,,,,,,,,,,,,,,,,,,,,,,,,,,,,,,,,,,,,,,,,,,,,,,,,,,,,,,
,,?,0,0,,,,,,stimuli/images/PICTURE_688.png,WOMEN,5ef614097c0ee22b09ccf634,08/01/1952,2020-09-12_04h16.05.238,proactive3.2,2020.1.2,MacIntel,60,5f5adea66120081ea0f57a61,5f5c91b2e150074772146309,5,,,,,,runner,,,,,,,,,,,2,0,0,56,56,14,1,,,,,,,,,,,,,,,,,,,,,,,,,,,,,,,,,,,,,,,,,,,,,,,,,,,,,,,,,,,,,,,,,,,,,,
,,?,0,0,,,,,,stimuli/images/PICTURE_469.png,ARTIST,5ef614097c0ee22b09ccf634,08/01/1952,2020-09-12_04h16.05.238,proactive3.2,2020.1.2,MacIntel,60,5f5adea66120081ea0f57a61,5f5c91b2e150074772146309,5,,,,,,stool,,,,,,,,,,,1,0,0,57,57,6,1,,,,,,,,,,,,,,,,,,,,,,,,,,,,,,,,,,,,,,,,,,,,,,,,,,,,,,,,,,,,,,,,,,,,,,
,,?,0,0,,,,,,stimuli/images/PICTURE_487.png,FLIGHT,5ef614097c0ee22b09ccf634,08/01/1952,2020-09-12_04h16.05.238,proactive3.2,2020.1.2,MacIntel,60,5f5adea66120081ea0f57a61,5f5c91b2e150074772146309,5,,,,,,basket,,,,,,,,,,,1,0,0,58,58,9,1,,,,,,,,,,,,,,,,,,,,,,,,,,,,,,,,,,,,,,,,,,,,,,,,,,,,,,,,,,,,,,,,,,,,,,
,,?,0,0,,,,,,stimuli/images/PICTURE_302.png,FAMILY,5ef614097c0ee22b09ccf634,08/01/1952,2020-09-12_04h16.05.238,proactive3.2,2020.1.2,MacIntel,60,5f5adea66120081ea0f57a61,5f5c91b2e150074772146309,5,,,,,,taxi,,,,,,,,,,,2,0,0,59,59,18,1,,,,,,,,,,,,,,,,,,,,,,,,,,,,,,,,,,,,,,,,,,,,,,,,,,,,,,,,,,,,,,,,,,,,,,
,,,,,,,,,,,,5ef614097c0ee22b09ccf634,08/01/1952,2020-09-12_04h16.05.238,proactive3.2,2020.1.2,MacIntel,60,5f5adea66120081ea0f57a61,5f5c91b2e150074772146309,5,,,,,,,,,,,,,,,,,,,,,,,,0,0,0,0,1,stimuli/learn-block1.csv,,,,,,,,,,,,,,,,,,,,,,,,,,,,,,,,,,,,,,,,,,,,,,,,,,,,,,,,,,,,,,,,
,,,,,,,,,,stimuli/images/PICTURE_685.png,PENNY,5ef614097c0ee22b09ccf634,08/01/1952,2020-09-12_04h16.05.238,proactive3.2,2020.1.2,MacIntel,60,5f5adea66120081ea0f57a61,5f5c91b2e150074772146309,5,,,,,,goose,,,,,,0,0,0,4,1,1,1,,,,,,,,,,,,,,,,,,,,,,,,,,,,,,,,,,,,,,,,,,,,,,,,,,,,,,,,,,,,,,,,,,,,,,,,,,,
,,,,,,,,,,stimuli/images/PICTURE_403.png,RIVER,5ef614097c0ee22b09ccf634,08/01/1952,2020-09-12_04h16.05.238,proactive3.2,2020.1.2,MacIntel,60,5f5adea66120081ea0f57a61,5f5c91b2e150074772146309,5,,,,,,cathedral,,,,,,0,1,1,40,1,5,1,,,,,,,,,,,,,,,,,,,,,,,,,,,,,,,,,,,,,,,,,,,,,,,,,,,,,,,,,,,,,,,,,,,,,,,,,,,
,,,,,,,,,,stimuli/images/PICTURE_380.png,CANDY,5ef614097c0ee22b09ccf634,08/01/1952,2020-09-12_04h16.05.238,proactive3.2,2020.1.2,MacIntel,60,5f5adea66120081ea0f57a61,5f5c91b2e150074772146309,5,,,,,,gorilla,,,,,,0,2,2,0,1,1,1,,,,,,,,,,,,,,,,,,,,,,,,,,,,,,,,,,,,,,,,,,,,,,,,,,,,,,,,,,,,,,,,,,,,,,,,,,,
,,,,,,,,,,stimuli/images/PICTURE_469.png,AGENT,5ef614097c0ee22b09ccf634,08/01/1952,2020-09-12_04h16.05.238,proactive3.2,2020.1.2,MacIntel,60,5f5adea66120081ea0f57a61,5f5c91b2e150074772146309,5,,,,,,stool,,,,,,0,3,3,16,1,2,1,,,,,,,,,,,,,,,,,,,,,,,,,,,,,,,,,,,,,,,,,,,,,,,,,,,,,,,,,,,,,,,,,,,,,,,,,,,
,,,,,,,,,,stimuli/images/PICTURE_339.png,CLIENT,5ef614097c0ee22b09ccf634,08/01/1952,2020-09-12_04h16.05.238,proactive3.2,2020.1.2,MacIntel,60,5f5adea66120081ea0f57a61,5f5c91b2e150074772146309,5,,,,,,backpack,,,,,,0,4,4,11,1,2,1,,,,,,,,,,,,,,,,,,,,,,,,,,,,,,,,,,,,,,,,,,,,,,,,,,,,,,,,,,,,,,,,,,,,,,,,,,,
,,,,,,,,,,stimuli/images/PICTURE_750.png,HOTEL,5ef614097c0ee22b09ccf634,08/01/1952,2020-09-12_04h16.05.238,proactive3.2,2020.1.2,MacIntel,60,5f5adea66120081ea0f57a61,5f5c91b2e150074772146309,5,,,,,,kettle,,,,,,0,5,5,27,1,3,1,,,,,,,,,,,,,,,,,,,,,,,,,,,,,,,,,,,,,,,,,,,,,,,,,,,,,,,,,,,,,,,,,,,,,,,,,,,
,,,,,,,,,,stimuli/images/PICTURE_504.png,ARTIST,5ef614097c0ee22b09ccf634,08/01/1952,2020-09-12_04h16.05.238,proactive3.2,2020.1.2,MacIntel,60,5f5adea66120081ea0f57a61,5f5c91b2e150074772146309,5,,,,,,wheel,,,,,,0,6,6,49,1,5,1,,,,,,,,,,,,,,,,,,,,,,,,,,,,,,,,,,,,,,,,,,,,,,,,,,,,,,,,,,,,,,,,,,,,,,,,,,,
,,,,,,,,,,stimuli/images/PICTURE_327.png,SERIES,5ef614097c0ee22b09ccf634,08/01/1952,2020-09-12_04h16.05.238,proactive3.2,2020.1.2,MacIntel,60,5f5adea66120081ea0f57a61,5f5c91b2e150074772146309,5,,,,,,helmet,,,,,,0,7,7,3,1,1,1,,,,,,,,,,,,,,,,,,,,,,,,,,,,,,,,,,,,,,,,,,,,,,,,,,,,,,,,,,,,,,,,,,,,,,,,,,,
,,,,,,,,,,stimuli/images/PICTURE_68.png,MILE,5ef614097c0ee22b09ccf634,08/01/1952,2020-09-12_04h16.05.238,proactive3.2,2020.1.2,MacIntel,60,5f5adea66120081ea0f57a61,5f5c91b2e150074772146309,5,,,,,,candle,,,,,,0,8,8,51,1,6,1,,,,,,,,,,,,,,,,,,,,,,,,,,,,,,,,,,,,,,,,,,,,,,,,,,,,,,,,,,,,,,,,,,,,,,,,,,,
,,,,,,,,,,stimuli/images/PICTURE_233.png,LOTS,5ef614097c0ee22b09ccf634,08/01/1952,2020-09-12_04h16.05.238,proactive3.2,2020.1.2,MacIntel,60,5f5adea66120081ea0f57a61,5f5c91b2e150074772146309,5,,,,,,salt,,,,,,0,9,9,42,1,5,1,,,,,,,,,,,,,,,,,,,,,,,,,,,,,,,,,,,,,,,,,,,,,,,,,,,,,,,,,,,,,,,,,,,,,,,,,,,
,,,,,,,,,,stimuli/images/PICTURE_108.png,POLICY,5ef614097c0ee22b09ccf634,08/01/1952,2020-09-12_04h16.05.238,proactive3.2,2020.1.2,MacIntel,60,5f5adea66120081ea0f57a61,5f5c91b2e150074772146309,5,,,,,,calendar,,,,,,0,10,10,22,1,3,1,,,,,,,,,,,,,,,,,,,,,,,,,,,,,,,,,,,,,,,,,,,,,,,,,,,,,,,,,,,,,,,,,,,,,,,,,,,
,,,,,,,,,,stimuli/images/PICTURE_108.png,FLIGHT,5ef614097c0ee22b09ccf634,08/01/1952,2020-09-12_04h16.05.238,proactive3.2,2020.1.2,MacIntel,60,5f5adea66120081ea0f57a61,5f5c91b2e150074772146309,5,,,,,,calendar,,,,,,0,11,11,59,1,6,1,,,,,,,,,,,,,,,,,,,,,,,,,,,,,,,,,,,,,,,,,,,,,,,,,,,,,,,,,,,,,,,,,,,,,,,,,,,
,,,,,,,,,,stimuli/images/PICTURE_308.png,FAMILY,5ef614097c0ee22b09ccf634,08/01/1952,2020-09-12_04h16.05.238,proactive3.2,2020.1.2,MacIntel,60,5f5adea66120081ea0f57a61,5f5c91b2e150074772146309,5,,,,,,dice,,,,,,0,12,12,36,1,4,1,,,,,,,,,,,,,,,,,,,,,,,,,,,,,,,,,,,,,,,,,,,,,,,,,,,,,,,,,,,,,,,,,,,,,,,,,,,
,,,,,,,,,,stimuli/images/PICTURE_296.png,LIFE,5ef614097c0ee22b09ccf634,08/01/1952,2020-09-12_04h16.05.238,proactive3.2,2020.1.2,MacIntel,60,5f5adea66120081ea0f57a61,5f5c91b2e150074772146309,5,,,,,,bolt,,,,,,0,13,13,57,1,6,1,,,,,,,,,,,,,,,,,,,,,,,,,,,,,,,,,,,,,,,,,,,,,,,,,,,,,,,,,,,,,,,,,,,,,,,,,,,
,,,,,,,,,,stimuli/images/PICTURE_667.png,RIVER,5ef614097c0ee22b09ccf634,08/01/1952,2020-09-12_04h16.05.238,proactive3.2,2020.1.2,MacIntel,60,5f5adea66120081ea0f57a61,5f5c91b2e150074772146309,5,,,,,,daisy,,,,,,0,14,14,10,1,2,1,,,,,,,,,,,,,,,,,,,,,,,,,,,,,,,,,,,,,,,,,,,,,,,,,,,,,,,,,,,,,,,,,,,,,,,,,,,
,,,,,,,,,,stimuli/images/PICTURE_340.png,LETTER,5ef614097c0ee22b09ccf634,08/01/1952,2020-09-12_04h16.05.238,proactive3.2,2020.1.2,MacIntel,60,5f5adea66120081ea0f57a61,5f5c91b2e150074772146309,5,,,,,,mirror,,,,,,0,15,15,24,1,3,1,,,,,,,,,,,,,,,,,,,,,,,,,,,,,,,,,,,,,,,,,,,,,,,,,,,,,,,,,,,,,,,,,,,,,,,,,,,
,,,,,,,,,,stimuli/images/PICTURE_2.png,FLIGHT,5ef614097c0ee22b09ccf634,08/01/1952,2020-09-12_04h16.05.238,proactive3.2,2020.1.2,MacIntel,60,5f5adea66120081ea0f57a61,5f5c91b2e150074772146309,5,,,,,,tyre,,,,,,0,16,16,15,1,2,1,,,,,,,,,,,,,,,,,,,,,,,,,,,,,,,,,,,,,,,,,,,,,,,,,,,,,,,,,,,,,,,,,,,,,,,,,,,
,,,,,,,,,,stimuli/images/PICTURE_32.png,KIND,5ef614097c0ee22b09ccf634,08/01/1952,2020-09-12_04h16.05.238,proactive3.2,2020.1.2,MacIntel,60,5f5adea66120081ea0f57a61,5f5c91b2e150074772146309,5,,,,,,crown,,,,,,0,17,17,35,1,4,1,,,,,,,,,,,,,,,,,,,,,,,,,,,,,,,,,,,,,,,,,,,,,,,,,,,,,,,,,,,,,,,,,,,,,,,,,,,
,,,,,,,,,,stimuli/images/PICTURE_491.png,RIVER,5ef614097c0ee22b09ccf634,08/01/1952,2020-09-12_04h16.05.238,proactive3.2,2020.1.2,MacIntel,60,5f5adea66120081ea0f57a61,5f5c91b2e150074772146309,5,,,,,,rug,,,,,,0,18,18,6,1,1,1,,,,,,,,,,,,,,,,,,,,,,,,,,,,,,,,,,,,,,,,,,,,,,,,,,,,,,,,,,,,,,,,,,,,,,,,,,,
,,,,,,,,,,stimuli/images/PICTURE_405.png,YEAR,5ef614097c0ee22b09ccf634,08/01/1952,2020-09-12_04h16.05.238,proactive3.2,2020.1.2,MacIntel,60,5f5adea66120081ea0f57a61,5f5c91b2e150074772146309,5,,,,,,anchor,,,,,,0,19,19,34,1,4,1,,,,,,,,,,,,,,,,,,,,,,,,,,,,,,,,,,,,,,,,,,,,,,,,,,,,,,,,,,,,,,,,,,,,,,,,,,,
,,,,,,,,,,stimuli/images/PICTURE_208.png,SYSTEM,5ef614097c0ee22b09ccf634,08/01/1952,2020-09-12_04h16.05.238,proactive3.2,2020.1.2,MacIntel,60,5f5adea66120081ea0f57a61,5f5c91b2e150074772146309,5,,,,,,microphone,,,,,,0,20,20,32,1,4,1,,,,,,,,,,,,,,,,,,,,,,,,,,,,,,,,,,,,,,,,,,,,,,,,,,,,,,,,,,,,,,,,,,,,,,,,,,,
,,,,,,,,,,stimuli/images/PICTURE_297.png,RIVER,5ef614097c0ee22b09ccf634,08/01/1952,2020-09-12_04h16.05.238,proactive3.2,2020.1.2,MacIntel,60,5f5adea66120081ea0f57a61,5f5c91b2e150074772146309,5,,,,,,aeroplane,,,,,,0,21,21,39,1,4,1,,,,,,,,,,,,,,,,,,,,,,,,,,,,,,,,,,,,,,,,,,,,,,,,,,,,,,,,,,,,,,,,,,,,,,,,,,,
,,,,,,,,,,stimuli/images/PICTURE_68.png,ROOF,5ef614097c0ee22b09ccf634,08/01/1952,2020-09-12_04h16.05.238,proactive3.2,2020.1.2,MacIntel,60,5f5adea66120081ea0f57a61,5f5c91b2e150074772146309,5,,,,,,candle,,,,,,0,22,22,38,1,4,1,,,,,,,,,,,,,,,,,,,,,,,,,,,,,,,,,,,,,,,,,,,,,,,,,,,,,,,,,,,,,,,,,,,,,,,,,,,
,,,,,,,,,,stimuli/images/PICTURE_32.png,PILLS,5ef614097c0ee22b09ccf634,08/01/1952,2020-09-12_04h16.05.238,proactive3.2,2020.1.2,MacIntel,60,5f5adea66120081ea0f57a61,5f5c91b2e150074772146309,5,,,,,,crown,,,,,,0,23,23,18,1,2,1,,,,,,,,,,,,,,,,,,,,,,,,,,,,,,,,,,,,,,,,,,,,,,,,,,,,,,,,,,,,,,,,,,,,,,,,,,,
,,,,,,,,,,stimuli/images/PICTURE_403.png,WRITER,5ef614097c0ee22b09ccf634,08/01/1952,2020-09-12_04h16.05.238,proactive3.2,2020.1.2,MacIntel,60,5f5adea66120081ea0f57a61,5f5c91b2e150074772146309,5,,,,,,cathedral,,,,,,0,24,24,31,1,4,1,,,,,,,,,,,,,,,,,,,,,,,,,,,,,,,,,,,,,,,,,,,,,,,,,,,,,,,,,,,,,,,,,,,,,,,,,,,
,,,,,,,,,,stimuli/images/PICTURE_491.png,GLASS,5ef614097c0ee22b09ccf634,08/01/1952,2020-09-12_04h16.05.238,proactive3.2,2020.1.2,MacIntel,60,5f5adea66120081ea0f57a61,5f5c91b2e150074772146309,5,,,,,,rug,,,,,,0,25,25,14,1,2,1,,,,,,,,,,,,,,,,,,,,,,,,,,,,,,,,,,,,,,,,,,,,,,,,,,,,,,,,,,,,,,,,,,,,,,,,,,,
,,,,,,,,,,stimuli/images/PICTURE_85.png,NATION,5ef614097c0ee22b09ccf634,08/01/1952,2020-09-12_04h16.05.238,proactive3.2,2020.1.2,MacIntel,60,5f5adea66120081ea0f57a61,5f5c91b2e150074772146309,5,,,,,,diamond,,,,,,0,26,26,5,1,1,1,,,,,,,,,,,,,,,,,,,,,,,,,,,,,,,,,,,,,,,,,,,,,,,,,,,,,,,,,,,,,,,,,,,,,,,,,,,
,,,,,,,,,,stimuli/images/PICTURE_504.png,YEAR,5ef614097c0ee22b09ccf634,08/01/1952,2020-09-12_04h16.05.238,proactive3.2,2020.1.2,MacIntel,60,5f5adea66120081ea0f57a61,5f5c91b2e150074772146309,5,,,,,,wheel,,,,,,0,27,27,13,1,2,1,,,,,,,,,,,,,,,,,,,,,,,,,,,,,,,,,,,,,,,,,,,,,,,,,,,,,,,,,,,,,,,,,,,,,,,,,,,
,,,,,,,,,,stimuli/images/PICTURE_655.png,TOILET,5ef614097c0ee22b09ccf634,08/01/1952,2020-09-12_04h16.05.238,proactive3.2,2020.1.2,MacIntel,60,5f5adea66120081ea0f57a61,5f5c91b2e150074772146309,5,,,,,,megaphone,,,,,,0,28,28,12,1,2,1,,,,,,,,,,,,,,,,,,,,,,,,,,,,,,,,,,,,,,,,,,,,,,,,,,,,,,,,,,,,,,,,,,,,,,,,,,,
,,,,,,,,,,stimuli/images/PICTURE_675.png,SALE,5ef614097c0ee22b09ccf634,08/01/1952,2020-09-12_04h16.05.238,proactive3.2,2020.1.2,MacIntel,60,5f5adea66120081ea0f57a61,5f5c91b2e150074772146309,5,,,,,,windmill,,,,,,0,29,29,47,1,5,1,,,,,,,,,,,,,,,,,,,,,,,,,,,,,,,,,,,,,,,,,,,,,,,,,,,,,,,,,,,,,,,,,,,,,,,,,,,
,,,,,,,,,,stimuli/images/PICTURE_177.png,WRITER,5ef614097c0ee22b09ccf634,08/01/1952,2020-09-12_04h16.05.238,proactive3.2,2020.1.2,MacIntel,60,5f5adea66120081ea0f57a61,5f5c91b2e150074772146309,5,,,,,,mushroom,,,,,,0,30,30,41,1,5,1,,,,,,,,,,,,,,,,,,,,,,,,,,,,,,,,,,,,,,,,,,,,,,,,,,,,,,,,,,,,,,,,,,,,,,,,,,,
,,,,,,,,,,stimuli/images/PICTURE_708.png,RECORD,5ef614097c0ee22b09ccf634,08/01/1952,2020-09-12_04h16.05.238,proactive3.2,2020.1.2,MacIntel,60,5f5adea66120081ea0f57a61,5f5c91b2e150074772146309,5,,,,,,monkey,,,,,,0,31,31,58,1,6,1,,,,,,,,,,,,,,,,,,,,,,,,,,,,,,,,,,,,,,,,,,,,,,,,,,,,,,,,,,,,,,,,,,,,,,,,,,,
,,,,,,,,,,stimuli/images/PICTURE_340.png,VALLEY,5ef614097c0ee22b09ccf634,08/01/1952,2020-09-12_04h16.05.238,proactive3.2,2020.1.2,MacIntel,60,5f5adea66120081ea0f57a61,5f5c91b2e150074772146309,5,,,,,,mirror,,,,,,0,32,32,54,1,6,1,,,,,,,,,,,,,,,,,,,,,,,,,,,,,,,,,,,,,,,,,,,,,,,,,,,,,,,,,,,,,,,,,,,,,,,,,,,
,,,,,,,,,,stimuli/images/PICTURE_95.png,HONEY,5ef614097c0ee22b09ccf634,08/01/1952,2020-09-12_04h16.05.238,proactive3.2,2020.1.2,MacIntel,60,5f5adea66120081ea0f57a61,5f5c91b2e150074772146309,5,,,,,,suitcase,,,,,,0,33,33,44,1,5,1,,,,,,,,,,,,,,,,,,,,,,,,,,,,,,,,,,,,,,,,,,,,,,,,,,,,,,,,,,,,,,,,,,,,,,,,,,,
,,,,,,,,,,stimuli/images/PICTURE_744.png,WEAPON,5ef614097c0ee22b09ccf634,08/01/1952,2020-09-12_04h16.05.238,proactive3.2,2020.1.2,MacIntel,60,5f5adea66120081ea0f57a61,5f5c91b2e150074772146309,5,,,,,,ring,,,,,,0,34,34,50,1,6,1,,,,,,,,,,,,,,,,,,,,,,,,,,,,,,,,,,,,,,,,,,,,,,,,,,,,,,,,,,,,,,,,,,,,,,,,,,,
,,,,,,,,,,stimuli/images/PICTURE_95.png,BOYS,5ef614097c0ee22b09ccf634,08/01/1952,2020-09-12_04h16.05.238,proactive3.2,2020.1.2,MacIntel,60,5f5adea66120081ea0f57a61,5f5c91b2e150074772146309,5,,,,,,suitcase,,,,,,0,35,35,1,1,1,1,,,,,,,,,,,,,,,,,,,,,,,,,,,,,,,,,,,,,,,,,,,,,,,,,,,,,,,,,,,,,,,,,,,,,,,,,,,
,,,,,,,,,,stimuli/images/PICTURE_147.png,YEAR,5ef614097c0ee22b09ccf634,08/01/1952,2020-09-12_04h16.05.238,proactive3.2,2020.1.2,MacIntel,60,5f5adea66120081ea0f57a61,5f5c91b2e150074772146309,5,,,,,,hanger,,,,,,0,36,36,21,1,3,1,,,,,,,,,,,,,,,,,,,,,,,,,,,,,,,,,,,,,,,,,,,,,,,,,,,,,,,,,,,,,,,,,,,,,,,,,,,
,,,,,,,,,,stimuli/images/PICTURE_203.png,NIGHT,5ef614097c0ee22b09ccf634,08/01/1952,2020-09-12_04h16.05.238,proactive3.2,2020.1.2,MacIntel,60,5f5adea66120081ea0f57a61,5f5c91b2e150074772146309,5,,,,,,cap,,,,,,0,37,37,2,1,1,1,,,,,,,,,,,,,,,,,,,,,,,,,,,,,,,,,,,,,,,,,,,,,,,,,,,,,,,,,,,,,,,,,,,,,,,,,,,
,,,,,,,,,,stimuli/images/PICTURE_33.png,FRIEND,5ef614097c0ee22b09ccf634,08/01/1952,2020-09-12_04h16.05.238,proactive3.2,2020.1.2,MacIntel,60,5f5adea66120081ea0f57a61,5f5c91b2e150074772146309,5,,,,,,frame,,,,,,0,38,38,8,1,1,1,,,,,,,,,,,,,,,,,,,,,,,,,,,,,,,,,,,,,,,,,,,,,,,,,,,,,,,,,,,,,,,,,,,,,,,,,,,
,,,,,,,,,,stimuli/images/PICTURE_504.png,COPS,5ef614097c0ee22b09ccf634,08/01/1952,2020-09-12_04h16.05.238,proactive3.2,2020.1.2,MacIntel,60,5f5adea66120081ea0f57a61,5f5c91b2e150074772146309,5,,,,,,wheel,,,,,,0,39,39,52,1,6,1,,,,,,,,,,,,,,,,,,,,,,,,,,,,,,,,,,,,,,,,,,,,,,,,,,,,,,,,,,,,,,,,,,,,,,,,,,,
,,,,,,,,,,stimuli/images/PICTURE_467.png,POLICY,5ef614097c0ee22b09ccf634,08/01/1952,2020-09-12_04h16.05.238,proactive3.2,2020.1.2,MacIntel,60,5f5adea66120081ea0f57a61,5f5c91b2e150074772146309,5,,,,,,peg,,,,,,0,40,40,53,1,6,1,,,,,,,,,,,,,,,,,,,,,,,,,,,,,,,,,,,,,,,,,,,,,,,,,,,,,,,,,,,,,,,,,,,,,,,,,,,
,,,,,,,,,,stimuli/images/PICTURE_57.png,MOMENT,5ef614097c0ee22b09ccf634,08/01/1952,2020-09-12_04h16.05.238,proactive3.2,2020.1.2,MacIntel,60,5f5adea66120081ea0f57a61,5f5c91b2e150074772146309,5,,,,,,stamp,,,,,,0,41,41,37,1,4,1,,,,,,,,,,,,,,,,,,,,,,,,,,,,,,,,,,,,,,,,,,,,,,,,,,,,,,,,,,,,,,,,,,,,,,,,,,,
,,,,,,,,,,stimuli/images/PICTURE_380.png,HONEY,5ef614097c0ee22b09ccf634,08/01/1952,2020-09-12_04h16.05.238,proactive3.2,2020.1.2,MacIntel,60,5f5adea66120081ea0f57a61,5f5c91b2e150074772146309,5,,,,,,gorilla,,,,,,0,42,42,19,1,2,1,,,,,,,,,,,,,,,,,,,,,,,,,,,,,,,,,,,,,,,,,,,,,,,,,,,,,,,,,,,,,,,,,,,,,,,,,,,
,,,,,,,,,,stimuli/images/PICTURE_677.png,APPLE,5ef614097c0ee22b09ccf634,08/01/1952,2020-09-12_04h16.05.238,proactive3.2,2020.1.2,MacIntel,60,5f5adea66120081ea0f57a61,5f5c91b2e150074772146309,5,,,,,,map,,,,,,0,43,43,43,1,5,1,,,,,,,,,,,,,,,,,,,,,,,,,,,,,,,,,,,,,,,,,,,,,,,,,,,,,,,,,,,,,,,,,,,,,,,,,,,
,,,,,,,,,,stimuli/images/PICTURE_403.png,TOILET,5ef614097c0ee22b09ccf634,08/01/1952,2020-09-12_04h16.05.238,proactive3.2,2020.1.2,MacIntel,60,5f5adea66120081ea0f57a61,5f5c91b2e150074772146309,5,,,,,,cathedral,,,,,,0,44,44,25,1,3,1,,,,,,,,,,,,,,,,,,,,,,,,,,,,,,,,,,,,,,,,,,,,,,,,,,,,,,,,,,,,,,,,,,,,,,,,,,,
,,,,,,,,,,stimuli/images/PICTURE_449.png,DUDE,5ef614097c0ee22b09ccf634,08/01/1952,2020-09-12_04h16.05.238,proactive3.2,2020.1.2,MacIntel,60,5f5adea66120081ea0f57a61,5f5c91b2e150074772146309,5,,,,,,bench,,,,,,0,45,45,17,1,2,1,,,,,,,,,,,,,,,,,,,,,,,,,,,,,,,,,,,,,,,,,,,,,,,,,,,,,,,,,,,,,,,,,,,,,,,,,,,
,,,,,,,,,,stimuli/images/PICTURE_383.png,SERIES,5ef614097c0ee22b09ccf634,08/01/1952,2020-09-12_04h16.05.238,proactive3.2,2020.1.2,MacIntel,60,5f5adea66120081ea0f57a61,5f5c91b2e150074772146309,5,,,,,,coin,,,,,,0,46,46,46,1,5,1,,,,,,,,,,,,,,,,,,,,,,,,,,,,,,,,,,,,,,,,,,,,,,,,,,,,,,,,,,,,,,,,,,,,,,,,,,,
,,,,,,,,,,stimuli/images/PICTURE_42.png,BOYS,5ef614097c0ee22b09ccf634,08/01/1952,2020-09-12_04h16.05.238,proactive3.2,2020.1.2,MacIntel,60,5f5adea66120081ea0f57a61,5f5c91b2e150074772146309,5,,,,,,pear,,,,,,0,47,47,55,1,6,1,,,,,,,,,,,,,,,,,,,,,,,,,,,,,,,,,,,,,,,,,,,,,,,,,,,,,,,,,,,,,,,,,,,,,,,,,,,
,,,,,,,,,,stimuli/images/PICTURE_383.png,WRITER,5ef614097c0ee22b09ccf634,08/01/1952,2020-09-12_04h16.05.238,proactive3.2,2020.1.2,MacIntel,60,5f5adea66120081ea0f57a61,5f5c91b2e150074772146309,5,,,,,,coin,,,,,,0,48,48,28,1,3,1,,,,,,,,,,,,,,,,,,,,,,,,,,,,,,,,,,,,,,,,,,,,,,,,,,,,,,,,,,,,,,,,,,,,,,,,,,,
,,,,,,,,,,stimuli/images/PICTURE_85.png,TOILET,5ef614097c0ee22b09ccf634,08/01/1952,2020-09-12_04h16.05.238,proactive3.2,2020.1.2,MacIntel,60,5f5adea66120081ea0f57a61,5f5c91b2e150074772146309,5,,,,,,diamond,,,,,,0,49,49,48,1,5,1,,,,,,,,,,,,,,,,,,,,,,,,,,,,,,,,,,,,,,,,,,,,,,,,,,,,,,,,,,,,,,,,,,,,,,,,,,,
,,,,,,,,,,stimuli/images/PICTURE_203.png,GODS,5ef614097c0ee22b09ccf634,08/01/1952,2020-09-12_04h16.05.238,proactive3.2,2020.1.2,MacIntel,60,5f5adea66120081ea0f57a61,5f5c91b2e150074772146309,5,,,,,,cap,,,,,,0,50,50,30,1,4,1,,,,,,,,,,,,,,,,,,,,,,,,,,,,,,,,,,,,,,,,,,,,,,,,,,,,,,,,,,,,,,,,,,,,,,,,,,,
,,,,,,,,,,stimuli/images/PICTURE_95.png,MILLER,5ef614097c0ee22b09ccf634,08/01/1952,2020-09-12_04h16.05.238,proactive3.2,2020.1.2,MacIntel,60,5f5adea66120081ea0f57a61,5f5c91b2e150074772146309,5,,,,,,suitcase,,,,,,0,51,51,56,1,6,1,,,,,,,,,,,,,,,,,,,,,,,,,,,,,,,,,,,,,,,,,,,,,,,,,,,,,,,,,,,,,,,,,,,,,,,,,,,
,,,,,,,,,,stimuli/images/PICTURE_285.png,LIFE,5ef614097c0ee22b09ccf634,08/01/1952,2020-09-12_04h16.05.238,proactive3.2,2020.1.2,MacIntel,60,5f5adea66120081ea0f57a61,5f5c91b2e150074772146309,5,,,,,,carrot,,,,,,0,52,52,33,1,4,1,,,,,,,,,,,,,,,,,,,,,,,,,,,,,,,,,,,,,,,,,,,,,,,,,,,,,,,,,,,,,,,,,,,,,,,,,,,
,,,,,,,,,,stimuli/images/PICTURE_296.png,LOTS,5ef614097c0ee22b09ccf634,08/01/1952,2020-09-12_04h16.05.238,proactive3.2,2020.1.2,MacIntel,60,5f5adea66120081ea0f57a61,5f5c91b2e150074772146309,5,,,,,,bolt,,,,,,0,53,53,9,1,1,1,,,,,,,,,,,,,,,,,,,,,,,,,,,,,,,,,,,,,,,,,,,,,,,,,,,,,,,,,,,,,,,,,,,,,,,,,,,
,,,,,,,,,,stimuli/images/PICTURE_327.png,CASINO,5ef614097c0ee22b09ccf634,08/01/1952,2020-09-12_04h16.05.238,proactive3.2,2020.1.2,MacIntel,60,5f5adea66120081ea0f57a61,5f5c91b2e150074772146309,5,,,,,,helmet,,,,,,0,54,54,20,1,3,1,,,,,,,,,,,,,,,,,,,,,,,,,,,,,,,,,,,,,,,,,,,,,,,,,,,,,,,,,,,,,,,,,,,,,,,,,,,
,,,,,,,,,,stimuli/images/PICTURE_147.png,WOMEN,5ef614097c0ee22b09ccf634,08/01/1952,2020-09-12_04h16.05.238,proactive3.2,2020.1.2,MacIntel,60,5f5adea66120081ea0f57a61,5f5c91b2e150074772146309,5,,,,,,hanger,,,,,,0,55,55,7,1,1,1,,,,,,,,,,,,,,,,,,,,,,,,,,,,,,,,,,,,,,,,,,,,,,,,,,,,,,,,,,,,,,,,,,,,,,,,,,,
,,,,,,,,,,stimuli/images/PICTURE_405.png,PLENTY,5ef614097c0ee22b09ccf634,08/01/1952,2020-09-12_04h16.05.238,proactive3.2,2020.1.2,MacIntel,60,5f5adea66120081ea0f57a61,5f5c91b2e150074772146309,5,,,,,,anchor,,,,,,0,56,56,23,1,3,1,,,,,,,,,,,,,,,,,,,,,,,,,,,,,,,,,,,,,,,,,,,,,,,,,,,,,,,,,,,,,,,,,,,,,,,,,,,
,,,,,,,,,,stimuli/images/PICTURE_564.png,BATH,5ef614097c0ee22b09ccf634,08/01/1952,2020-09-12_04h16.05.238,proactive3.2,2020.1.2,MacIntel,60,5f5adea66120081ea0f57a61,5f5c91b2e150074772146309,5,,,,,,spoon,,,,,,0,57,57,26,1,3,1,,,,,,,,,,,,,,,,,,,,,,,,,,,,,,,,,,,,,,,,,,,,,,,,,,,,,,,,,,,,,,,,,,,,,,,,,,,
,,,,,,,,,,stimuli/images/PICTURE_487.png,GIRL,5ef614097c0ee22b09ccf634,08/01/1952,2020-09-12_04h16.05.238,proactive3.2,2020.1.2,MacIntel,60,5f5adea66120081ea0f57a61,5f5c91b2e150074772146309,5,,,,,,basket,,,,,,0,58,58,45,1,5,1,,,,,,,,,,,,,,,,,,,,,,,,,,,,,,,,,,,,,,,,,,,,,,,,,,,,,,,,,,,,,,,,,,,,,,,,,,,
,,?,0.001,0,,,,,,stimuli/images/PICTURE_708.png,RECORD,5ef614097c0ee22b09ccf634,08/01/1952,2020-09-12_04h16.05.238,proactive3.2,2020.1.2,MacIntel,60,5f5adea66120081ea0f57a61,5f5c91b2e150074772146309,5,,,,,,monkey,,,,,,,,,,,6,1,0,0,0,58,1,,,,,,,,,,,,,,,,,,,,,,,,,,,,,,,,,,,,,,,,,,,,,,,,,,,,,,,,,,,,,,,,,,,,,,
,,GIRL,2.342,1,,,,,,stimuli/images/PICTURE_487.png,GIRL,5ef614097c0ee22b09ccf634,08/01/1952,2020-09-12_04h16.05.238,proactive3.2,2020.1.2,MacIntel,60,5f5adea66120081ea0f57a61,5f5c91b2e150074772146309,5,,,,,,basket,,,,,,,,,,,5,1,0,1,1,45,1,,,,,,,,,,,,,,,,,,,,,,,,,,,,,,,,,,,,,,,,,,,,,,,,,,,,,,,,,,,,,,,,,,,,,,
,,?,0.002,0,,,,,,stimuli/images/PICTURE_380.png,CANDY,5ef614097c0ee22b09ccf634,08/01/1952,2020-09-12_04h16.05.238,proactive3.2,2020.1.2,MacIntel,60,5f5adea66120081ea0f57a61,5f5c91b2e150074772146309,5,,,,,,gorilla,,,,,,,,,,,1,1,0,2,2,0,1,,,,,,,,,,,,,,,,,,,,,,,,,,,,,,,,,,,,,,,,,,,,,,,,,,,,,,,,,,,,,,,,,,,,,,
,,?,0.001,0,,,,,,stimuli/images/PICTURE_108.png,FLIGHT,5ef614097c0ee22b09ccf634,08/01/1952,2020-09-12_04h16.05.238,proactive3.2,2020.1.2,MacIntel,60,5f5adea66120081ea0f57a61,5f5c91b2e150074772146309,5,,,,,,calendar,,,,,,,,,,,6,1,0,3,3,59,1,,,,,,,,,,,,,,,,,,,,,,,,,,,,,,,,,,,,,,,,,,,,,,,,,,,,,,,,,,,,,,,,,,,,,,
,,WRITER,2.577,1,,,,,,stimuli/images/PICTURE_177.png,WRITER,5ef614097c0ee22b09ccf634,08/01/1952,2020-09-12_04h16.05.238,proactive3.2,2020.1.2,MacIntel,60,5f5adea66120081ea0f57a61,5f5c91b2e150074772146309,5,,,,,,mushroom,,,,,,,,,,,5,1,0,4,4,41,1,,,,,,,,,,,,,,,,,,,,,,,,,,,,,,,,,,,,,,,,,,,,,,,,,,,,,,,,,,,,,,,,,,,,,,
,,?,0.002,0,,,,,,stimuli/images/PICTURE_491.png,GLASS,5ef614097c0ee22b09ccf634,08/01/1952,2020-09-12_04h16.05.238,proactive3.2,2020.1.2,MacIntel,60,5f5adea66120081ea0f57a61,5f5c91b2e150074772146309,5,,,,,,rug,,,,,,,,,,,2,1,0,5,5,14,1,,,,,,,,,,,,,,,,,,,,,,,,,,,,,,,,,,,,,,,,,,,,,,,,,,,,,,,,,,,,,,,,,,,,,,
,,?,0.001,0,,,,,,stimuli/images/PICTURE_403.png,TOILET,5ef614097c0ee22b09ccf634,08/01/1952,2020-09-12_04h16.05.238,proactive3.2,2020.1.2,MacIntel,60,5f5adea66120081ea0f57a61,5f5c91b2e150074772146309,5,,,,,,cathedral,,,,,,,,,,,3,1,0,6,6,25,1,,,,,,,,,,,,,,,,,,,,,,,,,,,,,,,,,,,,,,,,,,,,,,,,,,,,,,,,,,,,,,,,,,,,,,
,,?,0.001,0,,,,,,stimuli/images/PICTURE_667.png,RIVER,5ef614097c0ee22b09ccf634,08/01/1952,2020-09-12_04h16.05.238,proactive3.2,2020.1.2,MacIntel,60,5f5adea66120081ea0f57a61,5f5c91b2e150074772146309,5,,,,,,daisy,,,,,,,,,,,2,1,0,7,7,10,1,,,,,,,,,,,,,,,,,,,,,,,,,,,,,,,,,,,,,,,,,,,,,,,,,,,,,,,,,,,,,,,,,,,,,,
,,?,0.001,0,,,,,,stimuli/images/PICTURE_327.png,CASINO,5ef614097c0ee22b09ccf634,08/01/1952,2020-09-12_04h16.05.238,proactive3.2,2020.1.2,MacIntel,60,5f5adea66120081ea0f57a61,5f5c91b2e150074772146309,5,,,,,,helmet,,,,,,,,,,,3,1,0,8,8,20,1,,,,,,,,,,,,,,,,,,,,,,,,,,,,,,,,,,,,,,,,,,,,,,,,,,,,,,,,,,,,,,,,,,,,,,
,,SERIES,2.175,1,,,,,,stimuli/images/PICTURE_383.png,SERIES,5ef614097c0ee22b09ccf634,08/01/1952,2020-09-12_04h16.05.238,proactive3.2,2020.1.2,MacIntel,60,5f5adea66120081ea0f57a61,5f5c91b2e150074772146309,5,,,,,,coin,,,,,,,,,,,5,1,0,9,9,46,1,,,,,,,,,,,,,,,,,,,,,,,,,,,,,,,,,,,,,,,,,,,,,,,,,,,,,,,,,,,,,,,,,,,,,,
,,?,0.002,0,,,,,,stimuli/images/PICTURE_654.png,MONTH,5ef614097c0ee22b09ccf634,08/01/1952,2020-09-12_04h16.05.238,proactive3.2,2020.1.2,MacIntel,60,5f5adea66120081ea0f57a61,5f5c91b2e150074772146309,5,,,,,,pencil,,,,,,,,,,,3,1,0,10,10,29,1,,,,,,,,,,,,,,,,,,,,,,,,,,,,,,,,,,,,,,,,,,,,,,,,,,,,,,,,,,,,,,,,,,,,,,
,,?,0.001,0,,,,,,stimuli/images/PICTURE_655.png,TOILET,5ef614097c0ee22b09ccf634,08/01/1952,2020-09-12_04h16.05.238,proactive3.2,2020.1.2,MacIntel,60,5f5adea66120081ea0f57a61,5f5c91b2e150074772146309,5,,,,,,megaphone,,,,,,,,,,,2,1,0,11,11,12,1,,,,,,,,,,,,,,,,,,,,,,,,,,,,,,,,,,,,,,,,,,,,,,,,,,,,,,,,,,,,,,,,,,,,,,
,,?,0,0,,,,,,stimuli/images/PICTURE_339.png,CLIENT,5ef614097c0ee22b09ccf634,08/01/1952,2020-09-12_04h16.05.238,proactive3.2,2020.1.2,MacIntel,60,5f5adea66120081ea0f57a61,5f5c91b2e150074772146309,5,,,,,,backpack,,,,,,,,,,,2,1,0,12,12,11,1,,,,,,,,,,,,,,,,,,,,,,,,,,,,,,,,,,,,,,,,,,,,,,,,,,,,,,,,,,,,,,,,,,,,,,
,,?,0.001,0,,,,,,stimuli/images/PICTURE_308.png,FAMILY,5ef614097c0ee22b09ccf634,08/01/1952,2020-09-12_04h16.05.238,proactive3.2,2020.1.2,MacIntel,60,5f5adea66120081ea0f57a61,5f5c91b2e150074772146309,5,,,,,,dice,,,,,,,,,,,4,1,0,13,13,36,1,,,,,,,,,,,,,,,,,,,,,,,,,,,,,,,,,,,,,,,,,,,,,,,,,,,,,,,,,,,,,,,,,,,,,,
,,?,0.001,0,,,,,,stimuli/images/PICTURE_68.png,ROOF,5ef614097c0ee22b09ccf634,08/01/1952,2020-09-12_04h16.05.238,proactive3.2,2020.1.2,MacIntel,60,5f5adea66120081ea0f57a61,5f5c91b2e150074772146309,5,,,,,,candle,,,,,,,,,,,4,1,0,14,14,38,1,,,,,,,,,,,,,,,,,,,,,,,,,,,,,,,,,,,,,,,,,,,,,,,,,,,,,,,,,,,,,,,,,,,,,,
,,?,0.001,0,,,,,,stimuli/images/PICTURE_32.png,PILLS,5ef614097c0ee22b09ccf634,08/01/1952,2020-09-12_04h16.05.238,proactive3.2,2020.1.2,MacIntel,60,5f5adea66120081ea0f57a61,5f5c91b2e150074772146309,5,,,,,,crown,,,,,,,,,,,2,1,0,15,15,18,1,,,,,,,,,,,,,,,,,,,,,,,,,,,,,,,,,,,,,,,,,,,,,,,,,,,,,,,,,,,,,,,,,,,,,,
,,APPLE,3.17,1,,,,,,stimuli/images/PICTURE_677.png,APPLE,5ef614097c0ee22b09ccf634,08/01/1952,2020-09-12_04h16.05.238,proactive3.2,2020.1.2,MacIntel,60,5f5adea66120081ea0f57a61,5f5c91b2e150074772146309,5,,,,,,map,,,,,,,,,,,5,1,0,16,16,43,1,,,,,,,,,,,,,,,,,,,,,,,,,,,,,,,,,,,,,,,,,,,,,,,,,,,,,,,,,,,,,,,,,,,,,,
,,?,0.001,0,,,,,,stimuli/images/PICTURE_380.png,HONEY,5ef614097c0ee22b09ccf634,08/01/1952,2020-09-12_04h16.05.238,proactive3.2,2020.1.2,MacIntel,60,5f5adea66120081ea0f57a61,5f5c91b2e150074772146309,5,,,,,,gorilla,,,,,,,,,,,2,1,0,17,17,19,1,,,,,,,,,,,,,,,,,,,,,,,,,,,,,,,,,,,,,,,,,,,,,,,,,,,,,,,,,,,,,,,,,,,,,,
,,?,0.001,0,,,,,,stimuli/images/PICTURE_203.png,GODS,5ef614097c0ee22b09ccf634,08/01/1952,2020-09-12_04h16.05.238,proactive3.2,2020.1.2,MacIntel,60,5f5adea66120081ea0f57a61,5f5c91b2e150074772146309,5,,,,,,cap,,,,,,,,,,,4,1,0,18,18,30,1,,,,,,,,,,,,,,,,,,,,,,,,,,,,,,,,,,,,,,,,,,,,,,,,,,,,,,,,,,,,,,,,,,,,,,
,,?,0.001,0,,,,,,stimuli/images/PICTURE_2.png,FLIGHT,5ef614097c0ee22b09ccf634,08/01/1952,2020-09-12_04h16.05.238,proactive3.2,2020.1.2,MacIntel,60,5f5adea66120081ea0f57a61,5f5c91b2e150074772146309,5,,,,,,tyre,,,,,,,,,,,2,1,0,19,19,15,1,,,,,,,,,,,,,,,,,,,,,,,,,,,,,,,,,,,,,,,,,,,,,,,,,,,,,,,,,,,,,,,,,,,,,,
,,?,10.193,0,,,,,,stimuli/images/PICTURE_504.png,ARTIST,5ef614097c0ee22b09ccf634,08/01/1952,2020-09-12_04h16.05.238,proactive3.2,2020.1.2,MacIntel,60,5f5adea66120081ea0f57a61,5f5c91b2e150074772146309,5,,,,,,wheel,,,,,,,,,,,5,1,0,20,20,49,1,,,,,,,,,,,,,,,,,,,,,,,,,,,,,,,,,,,,,,,,,,,,,,,,,,,,,,,,,,,,,,,,,,,,,,
,,?,0.002,0,,,,,,stimuli/images/PICTURE_405.png,PLENTY,5ef614097c0ee22b09ccf634,08/01/1952,2020-09-12_04h16.05.238,proactive3.2,2020.1.2,MacIntel,60,5f5adea66120081ea0f57a61,5f5c91b2e150074772146309,5,,,,,,anchor,,,,,,,,,,,3,1,0,21,21,23,1,,,,,,,,,,,,,,,,,,,,,,,,,,,,,,,,,,,,,,,,,,,,,,,,,,,,,,,,,,,,,,,,,,,,,,
,,?,0.001,0,,,,,,stimuli/images/PICTURE_449.png,DUDE,5ef614097c0ee22b09ccf634,08/01/1952,2020-09-12_04h16.05.238,proactive3.2,2020.1.2,MacIntel,60,5f5adea66120081ea0f57a61,5f5c91b2e150074772146309,5,,,,,,bench,,,,,,,,,,,2,1,0,22,22,17,1,,,,,,,,,,,,,,,,,,,,,,,,,,,,,,,,,,,,,,,,,,,,,,,,,,,,,,,,,,,,,,,,,,,,,,
,,?,0,0,,,,,,stimuli/images/PICTURE_108.png,POLICY,5ef614097c0ee22b09ccf634,08/01/1952,2020-09-12_04h16.05.238,proactive3.2,2020.1.2,MacIntel,60,5f5adea66120081ea0f57a61,5f5c91b2e150074772146309,5,,,,,,calendar,,,,,,,,,,,3,1,0,23,23,22,1,,,,,,,,,,,,,,,,,,,,,,,,,,,,,,,,,,,,,,,,,,,,,,,,,,,,,,,,,,,,,,,,,,,,,,
,,?,0.001,0,,,,,,stimuli/images/PICTURE_403.png,WRITER,5ef614097c0ee22b09ccf634,08/01/1952,2020-09-12_04h16.05.238,proactive3.2,2020.1.2,MacIntel,60,5f5adea66120081ea0f57a61,5f5c91b2e150074772146309,5,,,,,,cathedral,,,,,,,,,,,4,1,0,24,24,31,1,,,,,,,,,,,,,,,,,,,,,,,,,,,,,,,,,,,,,,,,,,,,,,,,,,,,,,,,,,,,,,,,,,,,,,
,,?,0.001,0,,,,,,stimuli/images/PICTURE_469.png,AGENT,5ef614097c0ee22b09ccf634,08/01/1952,2020-09-12_04h16.05.238,proactive3.2,2020.1.2,MacIntel,60,5f5adea66120081ea0f57a61,5f5c91b2e150074772146309,5,,,,,,stool,,,,,,,,,,,2,1,0,25,25,16,1,,,,,,,,,,,,,,,,,,,,,,,,,,,,,,,,,,,,,,,,,,,,,,,,,,,,,,,,,,,,,,,,,,,,,,
,,?,0,0,,,,,,stimuli/images/PICTURE_504.png,COPS,5ef614097c0ee22b09ccf634,08/01/1952,2020-09-12_04h16.05.238,proactive3.2,2020.1.2,MacIntel,60,5f5adea66120081ea0f57a61,5f5c91b2e150074772146309,5,,,,,,wheel,,,,,,,,,,,6,1,0,26,26,52,1,,,,,,,,,,,,,,,,,,,,,,,,,,,,,,,,,,,,,,,,,,,,,,,,,,,,,,,,,,,,,,,,,,,,,,
,,?,0,0,,,,,,stimuli/images/PICTURE_208.png,SYSTEM,5ef614097c0ee22b09ccf634,08/01/1952,2020-09-12_04h16.05.238,proactive3.2,2020.1.2,MacIntel,60,5f5adea66120081ea0f57a61,5f5c91b2e150074772146309,5,,,,,,microphone,,,,,,,,,,,4,1,0,27,27,32,1,,,,,,,,,,,,,,,,,,,,,,,,,,,,,,,,,,,,,,,,,,,,,,,,,,,,,,,,,,,,,,,,,,,,,,
,,?,0,0,,,,,,stimuli/images/PICTURE_405.png,YEAR,5ef614097c0ee22b09ccf634,08/01/1952,2020-09-12_04h16.05.238,proactive3.2,2020.1.2,MacIntel,60,5f5adea66120081ea0f57a61,5f5c91b2e150074772146309,5,,,,,,anchor,,,,,,,,,,,4,1,0,28,28,34,1,,,,,,,,,,,,,,,,,,,,,,,,,,,,,,,,,,,,,,,,,,,,,,,,,,,,,,,,,,,,,,,,,,,,,,
,,?,0.001,0,,,,,,stimuli/images/PICTURE_467.png,POLICY,5ef614097c0ee22b09ccf634,08/01/1952,2020-09-12_04h16.05.238,proactive3.2,2020.1.2,MacIntel,60,5f5adea66120081ea0f57a61,5f5c91b2e150074772146309,5,,,,,,peg,,,,,,,,,,,6,1,0,29,29,53,1,,,,,,,,,,,,,,,,,,,,,,,,,,,,,,,,,,,,,,,,,,,,,,,,,,,,,,,,,,,,,,,,,,,,,,
,,?,0.001,0,,,,,,stimuli/images/PICTURE_297.png,RIVER,5ef614097c0ee22b09ccf634,08/01/1952,2020-09-12_04h16.05.238,proactive3.2,2020.1.2,MacIntel,60,5f5adea66120081ea0f57a61,5f5c91b2e150074772146309,5,,,,,,aeroplane,,,,,,,,,,,4,1,0,30,30,39,1,,,,,,,,,,,,,,,,,,,,,,,,,,,,,,,,,,,,,,,,,,,,,,,,,,,,,,,,,,,,,,,,,,,,,,
,,?,0,0,,,,,,stimuli/images/PICTURE_147.png,YEAR,5ef614097c0ee22b09ccf634,08/01/1952,2020-09-12_04h16.05.238,proactive3.2,2020.1.2,MacIntel,60,5f5adea66120081ea0f57a61,5f5c91b2e150074772146309,5,,,,,,hanger,,,,,,,,,,,3,1,0,31,31,21,1,,,,,,,,,,,,,,,,,,,,,,,,,,,,,,,,,,,,,,,,,,,,,,,,,,,,,,,,,,,,,,,,,,,,,,
,,?,0,0,,,,,,stimuli/images/PICTURE_95.png,MILLER,5ef614097c0ee22b09ccf634,08/01/1952,2020-09-12_04h16.05.238,proactive3.2,2020.1.2,MacIntel,60,5f5adea66120081ea0f57a61,5f5c91b2e150074772146309,5,,,,,,suitcase,,,,,,,,,,,6,1,0,32,32,56,1,,,,,,,,,,,,,,,,,,,,,,,,,,,,,,,,,,,,,,,,,,,,,,,,,,,,,,,,,,,,,,,,,,,,,,
,,?,0,0,,,,,,stimuli/images/PICTURE_383.png,WRITER,5ef614097c0ee22b09ccf634,08/01/1952,2020-09-12_04h16.05.238,proactive3.2,2020.1.2,MacIntel,60,5f5adea66120081ea0f57a61,5f5c91b2e150074772146309,5,,,,,,coin,,,,,,,,,,,3,1,0,33,33,28,1,,,,,,,,,,,,,,,,,,,,,,,,,,,,,,,,,,,,,,,,,,,,,,,,,,,,,,,,,,,,,,,,,,,,,,
,,?,0,0,,,,,,stimuli/images/PICTURE_32.png,KIND,5ef614097c0ee22b09ccf634,08/01/1952,2020-09-12_04h16.05.238,proactive3.2,2020.1.2,MacIntel,60,5f5adea66120081ea0f57a61,5f5c91b2e150074772146309,5,,,,,,crown,,,,,,,,,,,4,1,0,34,34,35,1,,,,,,,,,,,,,,,,,,,,,,,,,,,,,,,,,,,,,,,,,,,,,,,,,,,,,,,,,,,,,,,,,,,,,,
,,TOILET,2.481,1,,,,,,stimuli/images/PICTURE_85.png,TOILET,5ef614097c0ee22b09ccf634,08/01/1952,2020-09-12_04h16.05.238,proactive3.2,2020.1.2,MacIntel,60,5f5adea66120081ea0f57a61,5f5c91b2e150074772146309,5,,,,,,diamond,,,,,,,,,,,5,1,0,35,35,48,1,,,,,,,,,,,,,,,,,,,,,,,,,,,,,,,,,,,,,,,,,,,,,,,,,,,,,,,,,,,,,,,,,,,,,,
,,?,0.002,0,,,,,,stimuli/images/PICTURE_203.png,NIGHT,5ef614097c0ee22b09ccf634,08/01/1952,2020-09-12_04h16.05.238,proactive3.2,2020.1.2,MacIntel,60,5f5adea66120081ea0f57a61,5f5c91b2e150074772146309,5,,,,,,cap,,,,,,,,,,,1,1,0,36,36,2,1,,,,,,,,,,,,,,,,,,,,,,,,,,,,,,,,,,,,,,,,,,,,,,,,,,,,,,,,,,,,,,,,,,,,,,
,,?,0.001,0,,,,,,stimuli/images/PICTURE_750.png,HOTEL,5ef614097c0ee22b09ccf634,08/01/1952,2020-09-12_04h16.05.238,proactive3.2,2020.1.2,MacIntel,60,5f5adea66120081ea0f57a61,5f5c91b2e150074772146309,5,,,,,,kettle,,,,,,,,,,,3,1,0,37,37,27,1,,,,,,,,,,,,,,,,,,,,,,,,,,,,,,,,,,,,,,,,,,,,,,,,,,,,,,,,,,,,,,,,,,,,,,
,,?,0,0,,,,,,stimuli/images/PICTURE_685.png,PENNY,5ef614097c0ee22b09ccf634,08/01/1952,2020-09-12_04h16.05.238,proactive3.2,2020.1.2,MacIntel,60,5f5adea66120081ea0f57a61,5f5c91b2e150074772146309,5,,,,,,goose,,,,,,,,,,,1,1,0,38,38,4,1,,,,,,,,,,,,,,,,,,,,,,,,,,,,,,,,,,,,,,,,,,,,,,,,,,,,,,,,,,,,,,,,,,,,,,
,,HONEY,3.577,1,,,,,,stimuli/images/PICTURE_95.png,HONEY,5ef614097c0ee22b09ccf634,08/01/1952,2020-09-12_04h16.05.238,proactive3.2,2020.1.2,MacIntel,60,5f5adea66120081ea0f57a61,5f5c91b2e150074772146309,5,,,,,,suitcase,,,,,,,,,,,5,1,0,39,39,44,1,,,,,,,,,,,,,,,,,,,,,,,,,,,,,,,,,,,,,,,,,,,,,,,,,,,,,,,,,,,,,,,,,,,,,,
,,?,0.001,0,,,,,,stimuli/images/PICTURE_564.png,BATH,5ef614097c0ee22b09ccf634,08/01/1952,2020-09-12_04h16.05.238,proactive3.2,2020.1.2,MacIntel,60,5f5adea66120081ea0f57a61,5f5c91b2e150074772146309,5,,,,,,spoon,,,,,,,,,,,3,1,0,40,40,26,1,,,,,,,,,,,,,,,,,,,,,,,,,,,,,,,,,,,,,,,,,,,,,,,,,,,,,,,,,,,,,,,,,,,,,,
,,?,0.001,0,,,,,,stimuli/images/PICTURE_296.png,LIFE,5ef614097c0ee22b09ccf634,08/01/1952,2020-09-12_04h16.05.238,proactive3.2,2020.1.2,MacIntel,60,5f5adea66120081ea0f57a61,5f5c91b2e150074772146309,5,,,,,,bolt,,,,,,,,,,,6,1,0,41,41,57,1,,,,,,,,,,,,,,,,,,,,,,,,,,,,,,,,,,,,,,,,,,,,,,,,,,,,,,,,,,,,,,,,,,,,,,
,,?,0.001,0,,,,,,stimuli/images/PICTURE_42.png,BOYS,5ef614097c0ee22b09ccf634,08/01/1952,2020-09-12_04h16.05.238,proactive3.2,2020.1.2,MacIntel,60,5f5adea66120081ea0f57a61,5f5c91b2e150074772146309,5,,,,,,pear,,,,,,,,,,,6,1,0,42,42,55,1,,,,,,,,,,,,,,,,,,,,,,,,,,,,,,,,,,,,,,,,,,,,,,,,,,,,,,,,,,,,,,,,,,,,,,
,,?,0,0,,,,,,stimuli/images/PICTURE_33.png,FRIEND,5ef614097c0ee22b09ccf634,08/01/1952,2020-09-12_04h16.05.238,proactive3.2,2020.1.2,MacIntel,60,5f5adea66120081ea0f57a61,5f5c91b2e150074772146309,5,,,,,,frame,,,,,,,,,,,1,1,0,43,43,8,1,,,,,,,,,,,,,,,,,,,,,,,,,,,,,,,,,,,,,,,,,,,,,,,,,,,,,,,,,,,,,,,,,,,,,,
,,?,0.001,0,,,,,,stimuli/images/PICTURE_504.png,YEAR,5ef614097c0ee22b09ccf634,08/01/1952,2020-09-12_04h16.05.238,proactive3.2,2020.1.2,MacIntel,60,5f5adea66120081ea0f57a61,5f5c91b2e150074772146309,5,,,,,,wheel,,,,,,,,,,,2,1,0,44,44,13,1,,,,,,,,,,,,,,,,,,,,,,,,,,,,,,,,,,,,,,,,,,,,,,,,,,,,,,,,,,,,,,,,,,,,,,
,,?,0.001,0,,,,,,stimuli/images/PICTURE_296.png,LOTS,5ef614097c0ee22b09ccf634,08/01/1952,2020-09-12_04h16.05.238,proactive3.2,2020.1.2,MacIntel,60,5f5adea66120081ea0f57a61,5f5c91b2e150074772146309,5,,,,,,bolt,,,,,,,,,,,1,1,0,45,45,9,1,,,,,,,,,,,,,,,,,,,,,,,,,,,,,,,,,,,,,,,,,,,,,,,,,,,,,,,,,,,,,,,,,,,,,,
,,?,0.001,0,,,,,,stimuli/images/PICTURE_340.png,LETTER,5ef614097c0ee22b09ccf634,08/01/1952,2020-09-12_04h16.05.238,proactive3.2,2020.1.2,MacIntel,60,5f5adea66120081ea0f57a61,5f5c91b2e150074772146309,5,,,,,,mirror,,,,,,,,,,,3,1,0,46,46,24,1,,,,,,,,,,,,,,,,,,,,,,,,,,,,,,,,,,,,,,,,,,,,,,,,,,,,,,,,,,,,,,,,,,,,,,
,,?,0,0,,,,,,stimuli/images/PICTURE_147.png,WOMEN,5ef614097c0ee22b09ccf634,08/01/1952,2020-09-12_04h16.05.238,proactive3.2,2020.1.2,MacIntel,60,5f5adea66120081ea0f57a61,5f5c91b2e150074772146309,5,,,,,,hanger,,,,,,,,,,,1,1,0,47,47,7,1,,,,,,,,,,,,,,,,,,,,,,,,,,,,,,,,,,,,,,,,,,,,,,,,,,,,,,,,,,,,,,,,,,,,,,
,,?,0,0,,,,,,stimuli/images/PICTURE_744.png,WEAPON,5ef614097c0ee22b09ccf634,08/01/1952,2020-09-12_04h16.05.238,proactive3.2,2020.1.2,MacIntel,60,5f5adea66120081ea0f57a61,5f5c91b2e150074772146309,5,,,,,,ring,,,,,,,,,,,6,1,0,48,48,50,1,,,,,,,,,,,,,,,,,,,,,,,,,,,,,,,,,,,,,,,,,,,,,,,,,,,,,,,,,,,,,,,,,,,,,,
,,MORE,5.868,0,,,,,,stimuli/images/PICTURE_233.png,LOTS,5ef614097c0ee22b09ccf634,08/01/1952,2020-09-12_04h16.05.238,proactive3.2,2020.1.2,MacIntel,60,5f5adea66120081ea0f57a61,5f5c91b2e150074772146309,5,,,,,,salt,,,,,,,,,,,5,1,0,49,49,42,1,,,,,,,,,,,,,,,,,,,,,,,,,,,,,,,,,,,,,,,,,,,,,,,,,,,,,,,,,,,,,,,,,,,,,,
,,?,0.001,0,,,,,,stimuli/images/PICTURE_68.png,MILE,5ef614097c0ee22b09ccf634,08/01/1952,2020-09-12_04h16.05.238,proactive3.2,2020.1.2,MacIntel,60,5f5adea66120081ea0f57a61,5f5c91b2e150074772146309,5,,,,,,candle,,,,,,,,,,,6,1,0,50,50,51,1,,,,,,,,,,,,,,,,,,,,,,,,,,,,,,,,,,,,,,,,,,,,,,,,,,,,,,,,,,,,,,,,,,,,,,
,,?,0.001,0,,,,,,stimuli/images/PICTURE_85.png,NATION,5ef614097c0ee22b09ccf634,08/01/1952,2020-09-12_04h16.05.238,proactive3.2,2020.1.2,MacIntel,60,5f5adea66120081ea0f57a61,5f5c91b2e150074772146309,5,,,,,,diamond,,,,,,,,,,,1,1,0,51,51,5,1,,,,,,,,,,,,,,,,,,,,,,,,,,,,,,,,,,,,,,,,,,,,,,,,,,,,,,,,,,,,,,,,,,,,,,
,,?,0.001,0,,,,,,stimuli/images/PICTURE_57.png,MOMENT,5ef614097c0ee22b09ccf634,08/01/1952,2020-09-12_04h16.05.238,proactive3.2,2020.1.2,MacIntel,60,5f5adea66120081ea0f57a61,5f5c91b2e150074772146309,5,,,,,,stamp,,,,,,,,,,,4,1,0,52,52,37,1,,,,,,,,,,,,,,,,,,,,,,,,,,,,,,,,,,,,,,,,,,,,,,,,,,,,,,,,,,,,,,,,,,,,,,
,,?,0.001,0,,,,,,stimuli/images/PICTURE_95.png,BOYS,5ef614097c0ee22b09ccf634,08/01/1952,2020-09-12_04h16.05.238,proactive3.2,2020.1.2,MacIntel,60,5f5adea66120081ea0f57a61,5f5c91b2e150074772146309,5,,,,,,suitcase,,,,,,,,,,,1,1,0,53,53,1,1,,,,,,,,,,,,,,,,,,,,,,,,,,,,,,,,,,,,,,,,,,,,,,,,,,,,,,,,,,,,,,,,,,,,,,
,,SAIL,1.876,0,,,,,,stimuli/images/PICTURE_675.png,SALE,5ef614097c0ee22b09ccf634,08/01/1952,2020-09-12_04h16.05.238,proactive3.2,2020.1.2,MacIntel,60,5f5adea66120081ea0f57a61,5f5c91b2e150074772146309,5,,,,,,windmill,,,,,,,,,,,5,1,0,54,54,47,1,,,,,,,,,,,,,,,,,,,,,,,,,,,,,,,,,,,,,,,,,,,,,,,,,,,,,,,,,,,,,,,,,,,,,,
,,?,4.634,0,,,,,,stimuli/images/PICTURE_403.png,RIVER,5ef614097c0ee22b09ccf634,08/01/1952,2020-09-12_04h16.05.238,proactive3.2,2020.1.2,MacIntel,60,5f5adea66120081ea0f57a61,5f5c91b2e150074772146309,5,,,,,,cathedral,,,,,,,,,,,5,1,0,55,55,40,1,,,,,,,,,,,,,,,,,,,,,,,,,,,,,,,,,,,,,,,,,,,,,,,,,,,,,,,,,,,,,,,,,,,,,,
,,?,0.001,0,,,,,,stimuli/images/PICTURE_327.png,SERIES,5ef614097c0ee22b09ccf634,08/01/1952,2020-09-12_04h16.05.238,proactive3.2,2020.1.2,MacIntel,60,5f5adea66120081ea0f57a61,5f5c91b2e150074772146309,5,,,,,,helmet,,,,,,,,,,,1,1,0,56,56,3,1,,,,,,,,,,,,,,,,,,,,,,,,,,,,,,,,,,,,,,,,,,,,,,,,,,,,,,,,,,,,,,,,,,,,,,
,,?,0,0,,,,,,stimuli/images/PICTURE_285.png,LIFE,5ef614097c0ee22b09ccf634,08/01/1952,2020-09-12_04h16.05.238,proactive3.2,2020.1.2,MacIntel,60,5f5adea66120081ea0f57a61,5f5c91b2e150074772146309,5,,,,,,carrot,,,,,,,,,,,4,1,0,57,57,33,1,,,,,,,,,,,,,,,,,,,,,,,,,,,,,,,,,,,,,,,,,,,,,,,,,,,,,,,,,,,,,,,,,,,,,,
,,?,0.001,0,,,,,,stimuli/images/PICTURE_491.png,RIVER,5ef614097c0ee22b09ccf634,08/01/1952,2020-09-12_04h16.05.238,proactive3.2,2020.1.2,MacIntel,60,5f5adea66120081ea0f57a61,5f5c91b2e150074772146309,5,,,,,,rug,,,,,,,,,,,1,1,0,58,58,6,1,,,,,,,,,,,,,,,,,,,,,,,,,,,,,,,,,,,,,,,,,,,,,,,,,,,,,,,,,,,,,,,,,,,,,,
,,?,0.001,0,,,,,,stimuli/images/PICTURE_340.png,VALLEY,5ef614097c0ee22b09ccf634,08/01/1952,2020-09-12_04h16.05.238,proactive3.2,2020.1.2,MacIntel,60,5f5adea66120081ea0f57a61,5f5c91b2e150074772146309,5,,,,,,mirror,,,,,,,,,,,6,1,0,59,59,54,1,,,,,,,,,,,,,,,,,,,,,,,,,,,,,,,,,,,,,,,,,,,,,,,,,,,,,,,,,,,,,,,,,,,,,,
,,,,,,,,,,,,5ef614097c0ee22b09ccf634,08/01/1952,2020-09-12_04h16.05.238,proactive3.2,2020.1.2,MacIntel,60,5f5adea66120081ea0f57a61,5f5c91b2e150074772146309,5,,,,,,,,,,,,,,,,,,,,,,,,0,1,1,1,1,stimuli/learn-block2.csv,,,,,,,,,,,,,,,,,,,,,,,,,,,,,,,,,,,,,,,,,,,,,,,,,,,,,,,,,,,,,,,,
,,,,,,,,,,stimuli/images/PICTURE_491.png,SERIES,5ef614097c0ee22b09ccf634,08/01/1952,2020-09-12_04h16.05.238,proactive3.2,2020.1.2,MacIntel,60,5f5adea66120081ea0f57a61,5f5c91b2e150074772146309,5,,,,,,rug,,,,,,0,0,0,39,1,4,2,,,,,,,,,,,,,,,,,,,,,,,,,,,,,,,,,,,,,,,,,,,,,,,,,,,,,,,,,,,,,,,,,,,,,,,,,,,
,,,,,,,,,,stimuli/images/PICTURE_667.png,GLASS,5ef614097c0ee22b09ccf634,08/01/1952,2020-09-12_04h16.05.238,proactive3.2,2020.1.2,MacIntel,60,5f5adea66120081ea0f57a61,5f5c91b2e150074772146309,5,,,,,,daisy,,,,,,0,1,1,27,1,3,2,,,,,,,,,,,,,,,,,,,,,,,,,,,,,,,,,,,,,,,,,,,,,,,,,,,,,,,,,,,,,,,,,,,,,,,,,,,
,,,,,,,,,,stimuli/images/PICTURE_405.png,JUNGLE,5ef614097c0ee22b09ccf634,08/01/1952,2020-09-12_04h16.05.238,proactive3.2,2020.1.2,MacIntel,60,5f5adea66120081ea0f57a61,5f5c91b2e150074772146309,5,,,,,,anchor,,,,,,0,2,2,13,1,2,2,,,,,,,,,,,,,,,,,,,,,,,,,,,,,,,,,,,,,,,,,,,,,,,,,,,,,,,,,,,,,,,,,,,,,,,,,,,
,,,,,,,,,,stimuli/images/PICTURE_285.png,PRINCE,5ef614097c0ee22b09ccf634,08/01/1952,2020-09-12_04h16.05.238,proactive3.2,2020.1.2,MacIntel,60,5f5adea66120081ea0f57a61,5f5c91b2e150074772146309,5,,,,,,carrot,,,,,,0,3,3,20,1,3,2,,,,,,,,,,,,,,,,,,,,,,,,,,,,,,,,,,,,,,,,,,,,,,,,,,,,,,,,,,,,,,,,,,,,,,,,,,,
,,,,,,,,,,stimuli/images/PICTURE_509.png,MILLER,5ef614097c0ee22b09ccf634,08/01/1952,2020-09-12_04h16.05.238,proactive3.2,2020.1.2,MacIntel,60,5f5adea66120081ea0f57a61,5f5c91b2e150074772146309,5,,,,,,telephone,,,,,,0,4,4,49,1,5,2,,,,,,,,,,,,,,,,,,,,,,,,,,,,,,,,,,,,,,,,,,,,,,,,,,,,,,,,,,,,,,,,,,,,,,,,,,,
,,,,,,,,,,stimuli/images/PICTURE_68.png,KIND,5ef614097c0ee22b09ccf634,08/01/1952,2020-09-12_04h16.05.238,proactive3.2,2020.1.2,MacIntel,60,5f5adea66120081ea0f57a61,5f5c91b2e150074772146309,5,,,,,,candle,,,,,,0,5,5,23,1,3,2,,,,,,,,,,,,,,,,,,,,,,,,,,,,,,,,,,,,,,,,,,,,,,,,,,,,,,,,,,,,,,,,,,,,,,,,,,,
,,,,,,,,,,stimuli/images/PICTURE_453.png,FAMILY,5ef614097c0ee22b09ccf634,08/01/1952,2020-09-12_04h16.05.238,proactive3.2,2020.1.2,MacIntel,60,5f5adea66120081ea0f57a61,5f5c91b2e150074772146309,5,,,,,,scissors,,,,,,0,6,6,48,1,5,2,,,,,,,,,,,,,,,,,,,,,,,,,,,,,,,,,,,,,,,,,,,,,,,,,,,,,,,,,,,,,,,,,,,,,,,,,,,
,,,,,,,,,,stimuli/images/PICTURE_314.png,SPEECH,5ef614097c0ee22b09ccf634,08/01/1952,2020-09-12_04h16.05.238,proactive3.2,2020.1.2,MacIntel,60,5f5adea66120081ea0f57a61,5f5c91b2e150074772146309,5,,,,,,perfume,,,,,,0,7,7,35,1,4,2,,,,,,,,,,,,,,,,,,,,,,,,,,,,,,,,,,,,,,,,,,,,,,,,,,,,,,,,,,,,,,,,,,,,,,,,,,,
,,,,,,,,,,stimuli/images/PICTURE_452.png,COPS,5ef614097c0ee22b09ccf634,08/01/1952,2020-09-12_04h16.05.238,proactive3.2,2020.1.2,MacIntel,60,5f5adea66120081ea0f57a61,5f5c91b2e150074772146309,5,,,,,,watch,,,,,,0,8,8,0,1,1,2,,,,,,,,,,,,,,,,,,,,,,,,,,,,,,,,,,,,,,,,,,,,,,,,,,,,,,,,,,,,,,,,,,,,,,,,,,,
,,,,,,,,,,stimuli/images/PICTURE_688.png,CLOCK,5ef614097c0ee22b09ccf634,08/01/1952,2020-09-12_04h16.05.238,proactive3.2,2020.1.2,MacIntel,60,5f5adea66120081ea0f57a61,5f5c91b2e150074772146309,5,,,,,,runner,,,,,,0,9,9,42,1,5,2,,,,,,,,,,,,,,,,,,,,,,,,,,,,,,,,,,,,,,,,,,,,,,,,,,,,,,,,,,,,,,,,,,,,,,,,,,,
,,,,,,,,,,stimuli/images/PICTURE_57.png,CANDY,5ef614097c0ee22b09ccf634,08/01/1952,2020-09-12_04h16.05.238,proactive3.2,2020.1.2,MacIntel,60,5f5adea66120081ea0f57a61,5f5c91b2e150074772146309,5,,,,,,stamp,,,,,,0,10,10,52,1,6,2,,,,,,,,,,,,,,,,,,,,,,,,,,,,,,,,,,,,,,,,,,,,,,,,,,,,,,,,,,,,,,,,,,,,,,,,,,,
,,,,,,,,,,stimuli/images/PICTURE_311.png,FLESH,5ef614097c0ee22b09ccf634,08/01/1952,2020-09-12_04h16.05.238,proactive3.2,2020.1.2,MacIntel,60,5f5adea66120081ea0f57a61,5f5c91b2e150074772146309,5,,,,,,razor,,,,,,0,11,11,3,1,1,2,,,,,,,,,,,,,,,,,,,,,,,,,,,,,,,,,,,,,,,,,,,,,,,,,,,,,,,,,,,,,,,,,,,,,,,,,,,
,,,,,,,,,,stimuli/images/PICTURE_311.png,TOILET,5ef614097c0ee22b09ccf634,08/01/1952,2020-09-12_04h16.05.238,proactive3.2,2020.1.2,MacIntel,60,5f5adea66120081ea0f57a61,5f5c91b2e150074772146309,5,,,,,,razor,,,,,,0,12,12,54,1,6,2,,,,,,,,,,,,,,,,,,,,,,,,,,,,,,,,,,,,,,,,,,,,,,,,,,,,,,,,,,,,,,,,,,,,,,,,,,,
,,,,,,,,,,stimuli/images/PICTURE_327.png,LEADER,5ef614097c0ee22b09ccf634,08/01/1952,2020-09-12_04h16.05.238,proactive3.2,2020.1.2,MacIntel,60,5f5adea66120081ea0f57a61,5f5c91b2e150074772146309,5,,,,,,helmet,,,,,,0,13,13,17,1,2,2,,,,,,,,,,,,,,,,,,,,,,,,,,,,,,,,,,,,,,,,,,,,,,,,,,,,,,,,,,,,,,,,,,,,,,,,,,,
,,,,,,,,,,stimuli/images/PICTURE_470.png,MOMENT,5ef614097c0ee22b09ccf634,08/01/1952,2020-09-12_04h16.05.238,proactive3.2,2020.1.2,MacIntel,60,5f5adea66120081ea0f57a61,5f5c91b2e150074772146309,5,,,,,,motorbike,,,,,,0,14,14,40,1,5,2,,,,,,,,,,,,,,,,,,,,,,,,,,,,,,,,,,,,,,,,,,,,,,,,,,,,,,,,,,,,,,,,,,,,,,,,,,,
,,,,,,,,,,stimuli/images/PICTURE_93.png,GIRL,5ef614097c0ee22b09ccf634,08/01/1952,2020-09-12_04h16.05.238,proactive3.2,2020.1.2,MacIntel,60,5f5adea66120081ea0f57a61,5f5c91b2e150074772146309,5,,,,,,skateboard,,,,,,0,15,15,31,1,4,2,,,,,,,,,,,,,,,,,,,,,,,,,,,,,,,,,,,,,,,,,,,,,,,,,,,,,,,,,,,,,,,,,,,,,,,,,,,
,,,,,,,,,,stimuli/images/PICTURE_655.png,SALE,5ef614097c0ee22b09ccf634,08/01/1952,2020-09-12_04h16.05.238,proactive3.2,2020.1.2,MacIntel,60,5f5adea66120081ea0f57a61,5f5c91b2e150074772146309,5,,,,,,megaphone,,,,,,0,16,16,57,1,6,2,,,,,,,,,,,,,,,,,,,,,,,,,,,,,,,,,,,,,,,,,,,,,,,,,,,,,,,,,,,,,,,,,,,,,,,,,,,
,,,,,,,,,,stimuli/images/PICTURE_57.png,CASINO,5ef614097c0ee22b09ccf634,08/01/1952,2020-09-12_04h16.05.238,proactive3.2,2020.1.2,MacIntel,60,5f5adea66120081ea0f57a61,5f5c91b2e150074772146309,5,,,,,,stamp,,,,,,0,17,17,12,1,2,2,,,,,,,,,,,,,,,,,,,,,,,,,,,,,,,,,,,,,,,,,,,,,,,,,,,,,,,,,,,,,,,,,,,,,,,,,,,
,,,,,,,,,,stimuli/images/PICTURE_509.png,SHOTS,5ef614097c0ee22b09ccf634,08/01/1952,2020-09-12_04h16.05.238,proactive3.2,2020.1.2,MacIntel,60,5f5adea66120081ea0f57a61,5f5c91b2e150074772146309,5,,,,,,telephone,,,,,,0,18,18,7,1,1,2,,,,,,,,,,,,,,,,,,,,,,,,,,,,,,,,,,,,,,,,,,,,,,,,,,,,,,,,,,,,,,,,,,,,,,,,,,,
,,,,,,,,,,stimuli/images/PICTURE_57.png,NATION,5ef614097c0ee22b09ccf634,08/01/1952,2020-09-12_04h16.05.238,proactive3.2,2020.1.2,MacIntel,60,5f5adea66120081ea0f57a61,5f5c91b2e150074772146309,5,,,,,,stamp,,,,,,0,19,19,21,1,3,2,,,,,,,,,,,,,,,,,,,,,,,,,,,,,,,,,,,,,,,,,,,,,,,,,,,,,,,,,,,,,,,,,,,,,,,,,,,
,,,,,,,,,,stimuli/images/PICTURE_348.png,TOILET,5ef614097c0ee22b09ccf634,08/01/1952,2020-09-12_04h16.05.238,proactive3.2,2020.1.2,MacIntel,60,5f5adea66120081ea0f57a61,5f5c91b2e150074772146309,5,,,,,,pepper,,,,,,0,20,20,4,1,1,2,,,,,,,,,,,,,,,,,,,,,,,,,,,,,,,,,,,,,,,,,,,,,,,,,,,,,,,,,,,,,,,,,,,,,,,,,,,
,,,,,,,,,,stimuli/images/PICTURE_123.png,SALE,5ef614097c0ee22b09ccf634,08/01/1952,2020-09-12_04h16.05.238,proactive3.2,2020.1.2,MacIntel,60,5f5adea66120081ea0f57a61,5f5c91b2e150074772146309,5,,,,,,dart,,,,,,0,21,21,8,1,1,2,,,,,,,,,,,,,,,,,,,,,,,,,,,,,,,,,,,,,,,,,,,,,,,,,,,,,,,,,,,,,,,,,,,,,,,,,,,
,,,,,,,,,,stimuli/images/PICTURE_296.png,CLOCK,5ef614097c0ee22b09ccf634,08/01/1952,2020-09-12_04h16.05.238,proactive3.2,2020.1.2,MacIntel,60,5f5adea66120081ea0f57a61,5f5c91b2e150074772146309,5,,,,,,bolt,,,,,,0,22,22,18,1,2,2,,,,,,,,,,,,,,,,,,,,,,,,,,,,,,,,,,,,,,,,,,,,,,,,,,,,,,,,,,,,,,,,,,,,,,,,,,,
,,,,,,,,,,stimuli/images/PICTURE_470.png,BEAUTY,5ef614097c0ee22b09ccf634,08/01/1952,2020-09-12_04h16.05.238,proactive3.2,2020.1.2,MacIntel,60,5f5adea66120081ea0f57a61,5f5c91b2e150074772146309,5,,,,,,motorbike,,,,,,0,23,23,26,1,3,2,,,,,,,,,,,,,,,,,,,,,,,,,,,,,,,,,,,,,,,,,,,,,,,,,,,,,,,,,,,,,,,,,,,,,,,,,,,
,,,,,,,,,,stimuli/images/PICTURE_215.png,BOYS,5ef614097c0ee22b09ccf634,08/01/1952,2020-09-12_04h16.05.238,proactive3.2,2020.1.2,MacIntel,60,5f5adea66120081ea0f57a61,5f5c91b2e150074772146309,5,,,,,,boot,,,,,,0,24,24,24,1,3,2,,,,,,,,,,,,,,,,,,,,,,,,,,,,,,,,,,,,,,,,,,,,,,,,,,,,,,,,,,,,,,,,,,,,,,,,,,,
,,,,,,,,,,stimuli/images/PICTURE_564.png,PLENTY,5ef614097c0ee22b09ccf634,08/01/1952,2020-09-12_04h16.05.238,proactive3.2,2020.1.2,MacIntel,60,5f5adea66120081ea0f57a61,5f5c91b2e150074772146309,5,,,,,,spoon,,,,,,0,25,25,11,1,2,2,,,,,,,,,,,,,,,,,,,,,,,,,,,,,,,,,,,,,,,,,,,,,,,,,,,,,,,,,,,,,,,,,,,,,,,,,,,
,,,,,,,,,,stimuli/images/PICTURE_208.png,SPIRIT,5ef614097c0ee22b09ccf634,08/01/1952,2020-09-12_04h16.05.238,proactive3.2,2020.1.2,MacIntel,60,5f5adea66120081ea0f57a61,5f5c91b2e150074772146309,5,,,,,,microphone,,,,,,0,26,26,28,1,3,2,,,,,,,,,,,,,,,,,,,,,,,,,,,,,,,,,,,,,,,,,,,,,,,,,,,,,,,,,,,,,,,,,,,,,,,,,,,
,,,,,,,,,,stimuli/images/PICTURE_487.png,ROOF,5ef614097c0ee22b09ccf634,08/01/1952,2020-09-12_04h16.05.238,proactive3.2,2020.1.2,MacIntel,60,5f5adea66120081ea0f57a61,5f5c91b2e150074772146309,5,,,,,,basket,,,,,,0,27,27,50,1,6,2,,,,,,,,,,,,,,,,,,,,,,,,,,,,,,,,,,,,,,,,,,,,,,,,,,,,,,,,,,,,,,,,,,,,,,,,,,,
,,,,,,,,,,stimuli/images/PICTURE_95.png,NIGHT,5ef614097c0ee22b09ccf634,08/01/1952,2020-09-12_04h16.05.238,proactive3.2,2020.1.2,MacIntel,60,5f5adea66120081ea0f57a61,5f5c91b2e150074772146309,5,,,,,,suitcase,,,,,,0,28,28,37,1,4,2,,,,,,,,,,,,,,,,,,,,,,,,,,,,,,,,,,,,,,,,,,,,,,,,,,,,,,,,,,,,,,,,,,,,,,,,,,,
,,,,,,,,,,stimuli/images/PICTURE_160.png,HOTEL,5ef614097c0ee22b09ccf634,08/01/1952,2020-09-12_04h16.05.238,proactive3.2,2020.1.2,MacIntel,60,5f5adea66120081ea0f57a61,5f5c91b2e150074772146309,5,,,,,,wheelbarrow,,,,,,0,29,29,16,1,2,2,,,,,,,,,,,,,,,,,,,,,,,,,,,,,,,,,,,,,,,,,,,,,,,,,,,,,,,,,,,,,,,,,,,,,,,,,,,
,,,,,,,,,,stimuli/images/PICTURE_2.png,JUNGLE,5ef614097c0ee22b09ccf634,08/01/1952,2020-09-12_04h16.05.238,proactive3.2,2020.1.2,MacIntel,60,5f5adea66120081ea0f57a61,5f5c91b2e150074772146309,5,,,,,,tyre,,,,,,0,30,30,1,1,1,2,,,,,,,,,,,,,,,,,,,,,,,,,,,,,,,,,,,,,,,,,,,,,,,,,,,,,,,,,,,,,,,,,,,,,,,,,,,
,,,,,,,,,,stimuli/images/PICTURE_509.png,BATH,5ef614097c0ee22b09ccf634,08/01/1952,2020-09-12_04h16.05.238,proactive3.2,2020.1.2,MacIntel,60,5f5adea66120081ea0f57a61,5f5c91b2e150074772146309,5,,,,,,telephone,,,,,,0,31,31,15,1,2,2,,,,,,,,,,,,,,,,,,,,,,,,,,,,,,,,,,,,,,,,,,,,,,,,,,,,,,,,,,,,,,,,,,,,,,,,,,,
,,,,,,,,,,stimuli/images/PICTURE_487.png,POLICY,5ef614097c0ee22b09ccf634,08/01/1952,2020-09-12_04h16.05.238,proactive3.2,2020.1.2,MacIntel,60,5f5adea66120081ea0f57a61,5f5c91b2e150074772146309,5,,,,,,basket,,,,,,0,32,32,34,1,4,2,,,,,,,,,,,,,,,,,,,,,,,,,,,,,,,,,,,,,,,,,,,,,,,,,,,,,,,,,,,,,,,,,,,,,,,,,,,
,,,,,,,,,,stimuli/images/PICTURE_18.png,RIVER,5ef614097c0ee22b09ccf634,08/01/1952,2020-09-12_04h16.05.238,proactive3.2,2020.1.2,MacIntel,60,5f5adea66120081ea0f57a61,5f5c91b2e150074772146309,5,,,,,,planet,,,,,,0,33,33,22,1,3,2,,,,,,,,,,,,,,,,,,,,,,,,,,,,,,,,,,,,,,,,,,,,,,,,,,,,,,,,,,,,,,,,,,,,,,,,,,,
,,,,,,,,,,stimuli/images/PICTURE_654.png,COPS,5ef614097c0ee22b09ccf634,08/01/1952,2020-09-12_04h16.05.238,proactive3.2,2020.1.2,MacIntel,60,5f5adea66120081ea0f57a61,5f5c91b2e150074772146309,5,,,,,,pencil,,,,,,0,34,34,10,1,2,2,,,,,,,,,,,,,,,,,,,,,,,,,,,,,,,,,,,,,,,,,,,,,,,,,,,,,,,,,,,,,,,,,,,,,,,,,,,
,,,,,,,,,,stimuli/images/PICTURE_403.png,FAMILY,5ef614097c0ee22b09ccf634,08/01/1952,2020-09-12_04h16.05.238,proactive3.2,2020.1.2,MacIntel,60,5f5adea66120081ea0f57a61,5f5c91b2e150074772146309,5,,,,,,cathedral,,,,,,0,35,35,9,1,1,2,,,,,,,,,,,,,,,,,,,,,,,,,,,,,,,,,,,,,,,,,,,,,,,,,,,,,,,,,,,,,,,,,,,,,,,,,,,
,,,,,,,,,,stimuli/images/PICTURE_147.png,LEADER,5ef614097c0ee22b09ccf634,08/01/1952,2020-09-12_04h16.05.238,proactive3.2,2020.1.2,MacIntel,60,5f5adea66120081ea0f57a61,5f5c91b2e150074772146309,5,,,,,,hanger,,,,,,0,36,36,33,1,4,2,,,,,,,,,,,,,,,,,,,,,,,,,,,,,,,,,,,,,,,,,,,,,,,,,,,,,,,,,,,,,,,,,,,,,,,,,,,
,,,,,,,,,,stimuli/images/PICTURE_177.png,HOUSE,5ef614097c0ee22b09ccf634,08/01/1952,2020-09-12_04h16.05.238,proactive3.2,2020.1.2,MacIntel,60,5f5adea66120081ea0f57a61,5f5c91b2e150074772146309,5,,,,,,mushroom,,,,,,0,37,37,25,1,3,2,,,,,,,,,,,,,,,,,,,,,,,,,,,,,,,,,,,,,,,,,,,,,,,,,,,,,,,,,,,,,,,,,,,,,,,,,,,
,,,,,,,,,,stimuli/images/PICTURE_509.png,APPLE,5ef614097c0ee22b09ccf634,08/01/1952,2020-09-12_04h16.05.238,proactive3.2,2020.1.2,MacIntel,60,5f5adea66120081ea0f57a61,5f5c91b2e150074772146309,5,,,,,,telephone,,,,,,0,38,38,38,1,4,2,,,,,,,,,,,,,,,,,,,,,,,,,,,,,,,,,,,,,,,,,,,,,,,,,,,,,,,,,,,,,,,,,,,,,,,,,,,
,,,,,,,,,,stimuli/images/PICTURE_356.png,CANDY,5ef614097c0ee22b09ccf634,08/01/1952,2020-09-12_04h16.05.238,proactive3.2,2020.1.2,MacIntel,60,5f5adea66120081ea0f57a61,5f5c91b2e150074772146309,5,,,,,,pawn,,,,,,0,39,39,46,1,5,2,,,,,,,,,,,,,,,,,,,,,,,,,,,,,,,,,,,,,,,,,,,,,,,,,,,,,,,,,,,,,,,,,,,,,,,,,,,
,,,,,,,,,,stimuli/images/PICTURE_677.png,FAMILY,5ef614097c0ee22b09ccf634,08/01/1952,2020-09-12_04h16.05.238,proactive3.2,2020.1.2,MacIntel,60,5f5adea66120081ea0f57a61,5f5c91b2e150074772146309,5,,,,,,map,,,,,,0,40,40,53,1,6,2,,,,,,,,,,,,,,,,,,,,,,,,,,,,,,,,,,,,,,,,,,,,,,,,,,,,,,,,,,,,,,,,,,,,,,,,,,,
,,,,,,,,,,stimuli/images/PICTURE_677.png,PHOTO,5ef614097c0ee22b09ccf634,08/01/1952,2020-09-12_04h16.05.238,proactive3.2,2020.1.2,MacIntel,60,5f5adea66120081ea0f57a61,5f5c91b2e150074772146309,5,,,,,,map,,,,,,0,41,41,14,1,2,2,,,,,,,,,,,,,,,,,,,,,,,,,,,,,,,,,,,,,,,,,,,,,,,,,,,,,,,,,,,,,,,,,,,,,,,,,,,
,,,,,,,,,,stimuli/images/PICTURE_405.png,HOUSE,5ef614097c0ee22b09ccf634,08/01/1952,2020-09-12_04h16.05.238,proactive3.2,2020.1.2,MacIntel,60,5f5adea66120081ea0f57a61,5f5c91b2e150074772146309,5,,,,,,anchor,,,,,,0,42,42,2,1,1,2,,,,,,,,,,,,,,,,,,,,,,,,,,,,,,,,,,,,,,,,,,,,,,,,,,,,,,,,,,,,,,,,,,,,,,,,,,,
,,,,,,,,,,stimuli/images/PICTURE_215.png,FOOD,5ef614097c0ee22b09ccf634,08/01/1952,2020-09-12_04h16.05.238,proactive3.2,2020.1.2,MacIntel,60,5f5adea66120081ea0f57a61,5f5c91b2e150074772146309,5,,,,,,boot,,,,,,0,43,43,5,1,1,2,,,,,,,,,,,,,,,,,,,,,,,,,,,,,,,,,,,,,,,,,,,,,,,,,,,,,,,,,,,,,,,,,,,,,,,,,,,
,,,,,,,,,,stimuli/images/PICTURE_215.png,LEADER,5ef614097c0ee22b09ccf634,08/01/1952,2020-09-12_04h16.05.238,proactive3.2,2020.1.2,MacIntel,60,5f5adea66120081ea0f57a61,5f5c91b2e150074772146309,5,,,,,,boot,,,,,,0,44,44,43,1,5,2,,,,,,,,,,,,,,,,,,,,,,,,,,,,,,,,,,,,,,,,,,,,,,,,,,,,,,,,,,,,,,,,,,,,,,,,,,,
,,,,,,,,,,stimuli/images/PICTURE_255.png,PENNY,5ef614097c0ee22b09ccf634,08/01/1952,2020-09-12_04h16.05.238,proactive3.2,2020.1.2,MacIntel,60,5f5adea66120081ea0f57a61,5f5c91b2e150074772146309,5,,,,,,shovel,,,,,,0,45,45,19,1,2,2,,,,,,,,,,,,,,,,,,,,,,,,,,,,,,,,,,,,,,,,,,,,,,,,,,,,,,,,,,,,,,,,,,,,,,,,,,,
,,,,,,,,,,stimuli/images/PICTURE_32.png,LETTER,5ef614097c0ee22b09ccf634,08/01/1952,2020-09-12_04h16.05.238,proactive3.2,2020.1.2,MacIntel,60,5f5adea66120081ea0f57a61,5f5c91b2e150074772146309,5,,,,,,crown,,,,,,0,46,46,56,1,6,2,,,,,,,,,,,,,,,,,,,,,,,,,,,,,,,,,,,,,,,,,,,,,,,,,,,,,,,,,,,,,,,,,,,,,,,,,,,
,,,,,,,,,,stimuli/images/PICTURE_708.png,VALLEY,5ef614097c0ee22b09ccf634,08/01/1952,2020-09-12_04h16.05.238,proactive3.2,2020.1.2,MacIntel,60,5f5adea66120081ea0f57a61,5f5c91b2e150074772146309,5,,,,,,monkey,,,,,,0,47,47,45,1,5,2,,,,,,,,,,,,,,,,,,,,,,,,,,,,,,,,,,,,,,,,,,,,,,,,,,,,,,,,,,,,,,,,,,,,,,,,,,,
,,,,,,,,,,stimuli/images/PICTURE_285.png,WRITER,5ef614097c0ee22b09ccf634,08/01/1952,2020-09-12_04h16.05.238,proactive3.2,2020.1.2,MacIntel,60,5f5adea66120081ea0f57a61,5f5c91b2e150074772146309,5,,,,,,carrot,,,,,,0,48,48,6,1,1,2,,,,,,,,,,,,,,,,,,,,,,,,,,,,,,,,,,,,,,,,,,,,,,,,,,,,,,,,,,,,,,,,,,,,,,,,,,,
,,,,,,,,,,stimuli/images/PICTURE_297.png,BODY,5ef614097c0ee22b09ccf634,08/01/1952,2020-09-12_04h16.05.238,proactive3.2,2020.1.2,MacIntel,60,5f5adea66120081ea0f57a61,5f5c91b2e150074772146309,5,,,,,,aeroplane,,,,,,0,49,49,51,1,6,2,,,,,,,,,,,,,,,,,,,,,,,,,,,,,,,,,,,,,,,,,,,,,,,,,,,,,,,,,,,,,,,,,,,,,,,,,,,
,,,,,,,,,,stimuli/images/PICTURE_750.png,POLICY,5ef614097c0ee22b09ccf634,08/01/1952,2020-09-12_04h16.05.238,proactive3.2,2020.1.2,MacIntel,60,5f5adea66120081ea0f57a61,5f5c91b2e150074772146309,5,,,,,,kettle,,,,,,0,50,50,44,1,5,2,,,,,,,,,,,,,,,,,,,,,,,,,,,,,,,,,,,,,,,,,,,,,,,,,,,,,,,,,,,,,,,,,,,,,,,,,,,
,,,,,,,,,,stimuli/images/PICTURE_2.png,AREA,5ef614097c0ee22b09ccf634,08/01/1952,2020-09-12_04h16.05.238,proactive3.2,2020.1.2,MacIntel,60,5f5adea66120081ea0f57a61,5f5c91b2e150074772146309,5,,,,,,tyre,,,,,,0,51,51,32,1,4,2,,,,,,,,,,,,,,,,,,,,,,,,,,,,,,,,,,,,,,,,,,,,,,,,,,,,,,,,,,,,,,,,,,,,,,,,,,,
,,,,,,,,,,stimuli/images/PICTURE_405.png,JUNGLE,5ef614097c0ee22b09ccf634,08/01/1952,2020-09-12_04h16.05.238,proactive3.2,2020.1.2,MacIntel,60,5f5adea66120081ea0f57a61,5f5c91b2e150074772146309,5,,,,,,anchor,,,,,,0,52,52,58,1,6,2,,,,,,,,,,,,,,,,,,,,,,,,,,,,,,,,,,,,,,,,,,,,,,,,,,,,,,,,,,,,,,,,,,,,,,,,,,,
,,,,,,,,,,stimuli/images/PICTURE_2.png,YARD,5ef614097c0ee22b09ccf634,08/01/1952,2020-09-12_04h16.05.238,proactive3.2,2020.1.2,MacIntel,60,5f5adea66120081ea0f57a61,5f5c91b2e150074772146309,5,,,,,,tyre,,,,,,0,53,53,55,1,6,2,,,,,,,,,,,,,,,,,,,,,,,,,,,,,,,,,,,,,,,,,,,,,,,,,,,,,,,,,,,,,,,,,,,,,,,,,,,
,,,,,,,,,,stimuli/images/PICTURE_141.png,CLIENT,5ef614097c0ee22b09ccf634,08/01/1952,2020-09-12_04h16.05.238,proactive3.2,2020.1.2,MacIntel,60,5f5adea66120081ea0f57a61,5f5c91b2e150074772146309,5,,,,,,sunflower,,,,,,0,54,54,30,1,4,2,,,,,,,,,,,,,,,,,,,,,,,,,,,,,,,,,,,,,,,,,,,,,,,,,,,,,,,,,,,,,,,,,,,,,,,,,,,
,,,,,,,,,,stimuli/images/PICTURE_654.png,YEAR,5ef614097c0ee22b09ccf634,08/01/1952,2020-09-12_04h16.05.238,proactive3.2,2020.1.2,MacIntel,60,5f5adea66120081ea0f57a61,5f5c91b2e150074772146309,5,,,,,,pencil,,,,,,0,55,55,41,1,5,2,,,,,,,,,,,,,,,,,,,,,,,,,,,,,,,,,,,,,,,,,,,,,,,,,,,,,,,,,,,,,,,,,,,,,,,,,,,
,,,,,,,,,,stimuli/images/PICTURE_692.png,DUDE,5ef614097c0ee22b09ccf634,08/01/1952,2020-09-12_04h16.05.238,proactive3.2,2020.1.2,MacIntel,60,5f5adea66120081ea0f57a61,5f5c91b2e150074772146309,5,,,,,,cherry,,,,,,0,56,56,47,1,5,2,,,,,,,,,,,,,,,,,,,,,,,,,,,,,,,,,,,,,,,,,,,,,,,,,,,,,,,,,,,,,,,,,,,,,,,,,,,
,,,,,,,,,,stimuli/images/PICTURE_504.png,HOUSE,5ef614097c0ee22b09ccf634,08/01/1952,2020-09-12_04h16.05.238,proactive3.2,2020.1.2,MacIntel,60,5f5adea66120081ea0f57a61,5f5c91b2e150074772146309,5,,,,,,wheel,,,,,,0,57,57,36,1,4,2,,,,,,,,,,,,,,,,,,,,,,,,,,,,,,,,,,,,,,,,,,,,,,,,,,,,,,,,,,,,,,,,,,,,,,,,,,,
,,,,,,,,,,stimuli/images/PICTURE_33.png,COPS,5ef614097c0ee22b09ccf634,08/01/1952,2020-09-12_04h16.05.238,proactive3.2,2020.1.2,MacIntel,60,5f5adea66120081ea0f57a61,5f5c91b2e150074772146309,5,,,,,,frame,,,,,,0,58,58,29,1,3,2,,,,,,,,,,,,,,,,,,,,,,,,,,,,,,,,,,,,,,,,,,,,,,,,,,,,,,,,,,,,,,,,,,,,,,,,,,,
,,?,0.002,0,,,,,,stimuli/images/PICTURE_285.png,PRINCE,5ef614097c0ee22b09ccf634,08/01/1952,2020-09-12_04h16.05.238,proactive3.2,2020.1.2,MacIntel,60,5f5adea66120081ea0f57a61,5f5c91b2e150074772146309,5,,,,,,carrot,,,,,,,,,,,3,2,0,0,0,20,1,,,,,,,,,,,,,,,,,,,,,,,,,,,,,,,,,,,,,,,,,,,,,,,,,,,,,,,,,,,,,,,,,,,,,,
,,?,0.001,0,,,,,,stimuli/images/PICTURE_160.png,HOTEL,5ef614097c0ee22b09ccf634,08/01/1952,2020-09-12_04h16.05.238,proactive3.2,2020.1.2,MacIntel,60,5f5adea66120081ea0f57a61,5f5c91b2e150074772146309,5,,,,,,wheelbarrow,,,,,,,,,,,2,2,0,1,1,16,1,,,,,,,,,,,,,,,,,,,,,,,,,,,,,,,,,,,,,,,,,,,,,,,,,,,,,,,,,,,,,,,,,,,,,,
,,?,0.001,0,,,,,,stimuli/images/PICTURE_470.png,BEAUTY,5ef614097c0ee22b09ccf634,08/01/1952,2020-09-12_04h16.05.238,proactive3.2,2020.1.2,MacIntel,60,5f5adea66120081ea0f57a61,5f5c91b2e150074772146309,5,,,,,,motorbike,,,,,,,,,,,3,2,0,2,2,26,1,,,,,,,,,,,,,,,,,,,,,,,,,,,,,,,,,,,,,,,,,,,,,,,,,,,,,,,,,,,,,,,,,,,,,,
,,?,0.001,0,,,,,,stimuli/images/PICTURE_147.png,LEADER,5ef614097c0ee22b09ccf634,08/01/1952,2020-09-12_04h16.05.238,proactive3.2,2020.1.2,MacIntel,60,5f5adea66120081ea0f57a61,5f5c91b2e150074772146309,5,,,,,,hanger,,,,,,,,,,,4,2,0,3,3,33,1,,,,,,,,,,,,,,,,,,,,,,,,,,,,,,,,,,,,,,,,,,,,,,,,,,,,,,,,,,,,,,,,,,,,,,
,,?,0.001,0,,,,,,stimuli/images/PICTURE_57.png,CASINO,5ef614097c0ee22b09ccf634,08/01/1952,2020-09-12_04h16.05.238,proactive3.2,2020.1.2,MacIntel,60,5f5adea66120081ea0f57a61,5f5c91b2e150074772146309,5,,,,,,stamp,,,,,,,,,,,2,2,0,4,4,12,1,,,,,,,,,,,,,,,,,,,,,,,,,,,,,,,,,,,,,,,,,,,,,,,,,,,,,,,,,,,,,,,,,,,,,,
,,?,0.001,0,,,,,,stimuli/images/PICTURE_18.png,RIVER,5ef614097c0ee22b09ccf634,08/01/1952,2020-09-12_04h16.05.238,proactive3.2,2020.1.2,MacIntel,60,5f5adea66120081ea0f57a61,5f5c91b2e150074772146309,5,,,,,,planet,,,,,,,,,,,3,2,0,5,5,22,1,,,,,,,,,,,,,,,,,,,,,,,,,,,,,,,,,,,,,,,,,,,,,,,,,,,,,,,,,,,,,,,,,,,,,,
,,?,0,0,,,,,,stimuli/images/PICTURE_677.png,FAMILY,5ef614097c0ee22b09ccf634,08/01/1952,2020-09-12_04h16.05.238,proactive3.2,2020.1.2,MacIntel,60,5f5adea66120081ea0f57a61,5f5c91b2e150074772146309,5,,,,,,map,,,,,,,,,,,6,2,0,6,6,53,1,,,,,,,,,,,,,,,,,,,,,,,,,,,,,,,,,,,,,,,,,,,,,,,,,,,,,,,,,,,,,,,,,,,,,,
,,?,0,0,,,,,,stimuli/images/PICTURE_452.png,COPS,5ef614097c0ee22b09ccf634,08/01/1952,2020-09-12_04h16.05.238,proactive3.2,2020.1.2,MacIntel,60,5f5adea66120081ea0f57a61,5f5c91b2e150074772146309,5,,,,,,watch,,,,,,,,,,,1,2,0,7,7,0,1,,,,,,,,,,,,,,,,,,,,,,,,,,,,,,,,,,,,,,,,,,,,,,,,,,,,,,,,,,,,,,,,,,,,,,
,,CLOCK,3.567,1,,,,,,stimuli/images/PICTURE_688.png,CLOCK,5ef614097c0ee22b09ccf634,08/01/1952,2020-09-12_04h16.05.238,proactive3.2,2020.1.2,MacIntel,60,5f5adea66120081ea0f57a61,5f5c91b2e150074772146309,5,,,,,,runner,,,,,,,,,,,5,2,0,8,8,42,1,,,,,,,,,,,,,,,,,,,,,,,,,,,,,,,,,,,,,,,,,,,,,,,,,,,,,,,,,,,,,,,,,,,,,,
,,?,0.002,0,,,,,,stimuli/images/PICTURE_491.png,SERIES,5ef614097c0ee22b09ccf634,08/01/1952,2020-09-12_04h16.05.238,proactive3.2,2020.1.2,MacIntel,60,5f5adea66120081ea0f57a61,5f5c91b2e150074772146309,5,,,,,,rug,,,,,,,,,,,4,2,0,9,9,39,1,,,,,,,,,,,,,,,,,,,,,,,,,,,,,,,,,,,,,,,,,,,,,,,,,,,,,,,,,,,,,,,,,,,,,,
,,?,0.001,0,,,,,,stimuli/images/PICTURE_32.png,LETTER,5ef614097c0ee22b09ccf634,08/01/1952,2020-09-12_04h16.05.238,proactive3.2,2020.1.2,MacIntel,60,5f5adea66120081ea0f57a61,5f5c91b2e150074772146309,5,,,,,,crown,,,,,,,,,,,6,2,0,10,10,56,1,,,,,,,,,,,,,,,,,,,,,,,,,,,,,,,,,,,,,,,,,,,,,,,,,,,,,,,,,,,,,,,,,,,,,,
,,?,5.827,0,,,,,,stimuli/images/PICTURE_750.png,POLICY,5ef614097c0ee22b09ccf634,08/01/1952,2020-09-12_04h16.05.238,proactive3.2,2020.1.2,MacIntel,60,5f5adea66120081ea0f57a61,5f5c91b2e150074772146309,5,,,,,,kettle,,,,,,,,,,,5,2,0,11,11,44,1,,,,,,,,,,,,,,,,,,,,,,,,,,,,,,,,,,,,,,,,,,,,,,,,,,,,,,,,,,,,,,,,,,,,,,
,,?,0.001,0,,,,,,stimuli/images/PICTURE_405.png,JUNGLE,5ef614097c0ee22b09ccf634,08/01/1952,2020-09-12_04h16.05.238,proactive3.2,2020.1.2,MacIntel,60,5f5adea66120081ea0f57a61,5f5c91b2e150074772146309,5,,,,,,anchor,,,,,,,,,,,2,2,0,12,12,13,1,,,,,,,,,,,,,,,,,,,,,,,,,,,,,,,,,,,,,,,,,,,,,,,,,,,,,,,,,,,,,,,,,,,,,,
