consent_key.keys,consent_key.rt,recalled,recalled_rt,recall_acc,example_recall.thisRepN,example_recall.thisTrialN,example_recall.thisN,example_recall.thisIndex,example_recall.ran,file,word,participant,please enter your date of birth (dd/mm/yyyy),date,expName,psychopyVersion,OS,frameRate,STUDY_ID,SESSION_ID,list,prac_learn_study_loop.thisRepN,prac_learn_study_loop.thisTrialN,prac_learn_study_loop.thisN,prac_learn_study_loop.thisIndex,prac_learn_study_loop.ran,image,prac_learn_test_loop.thisRepN,prac_learn_test_loop.thisTrialN,prac_learn_test_loop.thisN,prac_learn_test_loop.thisIndex,prac_learn_test_loop.ran,learn_study_loop.thisRepN,learn_study_loop.thisTrialN,learn_study_loop.thisN,learn_study_loop.thisIndex,learn_study_loop.ran,list_no,block_no,learn_test_loop.thisRepN,learn_test_loop.thisTrialN,learn_test_loop.thisN,learn_test_loop.thisIndex,learn_test_loop.ran,learn_blocks.thisRepN,learn_blocks.thisTrialN,learn_blocks.thisN,learn_blocks.thisIndex,learn_blocks.ran,block_csv,key_resp_13.keys,key_resp_13.rt,learn_blocks_loop.thisRepN,learn_blocks_loop.thisTrialN,learn_blocks_loop.thisN,learn_blocks_loop.thisIndex,learn_blocks_loop.ran,final_learn_test.thisRepN,final_learn_test.thisTrialN,final_learn_test.thisN,final_learn_test.thisIndex,final_learn_test.ran,prac_wm_test_loop.thisRepN,prac_wm_test_loop.thisTrialN,prac_wm_test_loop.thisN,prac_wm_test_loop.thisIndex,prac_wm_test_loop.ran,wm_recalled1,wm_recall_rt1,wm_probed1,wm_recall_acc1,wm_recalled2,wm_recall_rt2,wm_probed2,wm_recall_acc2,wm_recalled3,wm_recall_rt3,wm_probed3,wm_recall_acc3,wm_recalled4,wm_recall_rt4,wm_probed4,wm_recall_acc4,prac_wm_trial_loop.thisRepN,prac_wm_trial_loop.thisTrialN,prac_wm_trial_loop.thisN,prac_wm_trial_loop.thisIndex,prac_wm_trial_loop.ran,word1,image1,file1,item_type1,word2,image2,file2,item_type2,word4,image4,file4,item_type4,word3,image3,file3,item_type3,wm_test_loop.thisRepN,wm_test_loop.thisTrialN,wm_test_loop.thisN,wm_test_loop.thisIndex,wm_test_loop.ran,wm_trial_loop.thisRepN,wm_trial_loop.thisTrialN,wm_trial_loop.thisN,wm_trial_loop.thisIndex,wm_trial_loop.ran
y,39.726415,?,15.00264,0,0,0,0,0,1,stimuli/images/PICTURE_747.png,TOUGH,5ef63fc6a3fa221022fb6201,16/03/1997,2020-08-27_15h43.40.269,proactive3.2,2020.1.2,Win32,60,5f47c0b9b035471e11593a5c,5f47c676a258f80be388f66b,2,,,,,,,,,,,,,,,,,,,,,,,,,,,,,,,,,,,,,,,,,,,,,,,,,,,,,,,,,,,,,,,,,,,,,,,,,,,,,,,,,,,,,,,,,,,,,
,,,,,,,,,,stimuli/images/PICTURE_658.png,DEVIL,5ef63fc6a3fa221022fb6201,16/03/1997,2020-08-27_15h43.40.269,proactive3.2,2020.1.2,Win32,60,5f47c0b9b035471e11593a5c,5f47c676a258f80be388f66b,2,0,0,0,3,1,crow,,,,,,,,,,,,,,,,,,,,,,,,,,,,,,,,,,,,,,,,,,,,,,,,,,,,,,,,,,,,,,,,,,,,,,,,,,,,,,,,,,,,,,,
,,,,,,,,,,stimuli/images/PICTURE_697.png,KILLER,5ef63fc6a3fa221022fb6201,16/03/1997,2020-08-27_15h43.40.269,proactive3.2,2020.1.2,Win32,60,5f47c0b9b035471e11593a5c,5f47c676a258f80be388f66b,2,0,1,1,4,1,peach,,,,,,,,,,,,,,,,,,,,,,,,,,,,,,,,,,,,,,,,,,,,,,,,,,,,,,,,,,,,,,,,,,,,,,,,,,,,,,,,,,,,,,,
,,,,,,,,,,stimuli/images/PICTURE_727.png,CELL,5ef63fc6a3fa221022fb6201,16/03/1997,2020-08-27_15h43.40.269,proactive3.2,2020.1.2,Win32,60,5f47c0b9b035471e11593a5c,5f47c676a258f80be388f66b,2,0,2,2,1,1,hose,,,,,,,,,,,,,,,,,,,,,,,,,,,,,,,,,,,,,,,,,,,,,,,,,,,,,,,,,,,,,,,,,,,,,,,,,,,,,,,,,,,,,,,
,,,,,,,,,,stimuli/images/PICTURE_269.png,GENIUS,5ef63fc6a3fa221022fb6201,16/03/1997,2020-08-27_15h43.40.269,proactive3.2,2020.1.2,Win32,60,5f47c0b9b035471e11593a5c,5f47c676a258f80be388f66b,2,0,3,3,0,1,chameleon,,,,,,,,,,,,,,,,,,,,,,,,,,,,,,,,,,,,,,,,,,,,,,,,,,,,,,,,,,,,,,,,,,,,,,,,,,,,,,,,,,,,,,,
,,KILLER,14.14971,1,,,,,,stimuli/images/PICTURE_697.png,KILLER,5ef63fc6a3fa221022fb6201,16/03/1997,2020-08-27_15h43.40.269,proactive3.2,2020.1.2,Win32,60,5f47c0b9b035471e11593a5c,5f47c676a258f80be388f66b,2,,,,,,peach,0,0,0,4,1,,,,,,,,,,,,,,,,,,,,,,,,,,,,,,,,,,,,,,,,,,,,,,,,,,,,,,,,,,,,,,,,,,,,,,,,,,,,,,,,,,
,,DEVIL,4.89468,1,,,,,,stimuli/images/PICTURE_658.png,DEVIL,5ef63fc6a3fa221022fb6201,16/03/1997,2020-08-27_15h43.40.269,proactive3.2,2020.1.2,Win32,60,5f47c0b9b035471e11593a5c,5f47c676a258f80be388f66b,2,,,,,,crow,0,1,1,3,1,,,,,,,,,,,,,,,,,,,,,,,,,,,,,,,,,,,,,,,,,,,,,,,,,,,,,,,,,,,,,,,,,,,,,,,,,,,,,,,,,,
,,LOSS,3.129715,1,,,,,,stimuli/images/PICTURE_378.png,LOSS,5ef63fc6a3fa221022fb6201,16/03/1997,2020-08-27_15h43.40.269,proactive3.2,2020.1.2,Win32,60,5f47c0b9b035471e11593a5c,5f47c676a258f80be388f66b,2,,,,,,lobster,0,2,2,2,1,,,,,,,,,,,,,,,,,,,,,,,,,,,,,,,,,,,,,,,,,,,,,,,,,,,,,,,,,,,,,,,,,,,,,,,,,,,,,,,,,,
,,?,15.001245,0,,,,,,stimuli/images/PICTURE_269.png,GENIUS,5ef63fc6a3fa221022fb6201,16/03/1997,2020-08-27_15h43.40.269,proactive3.2,2020.1.2,Win32,60,5f47c0b9b035471e11593a5c,5f47c676a258f80be388f66b,2,,,,,,chameleon,0,3,3,0,1,,,,,,,,,,,,,,,,,,,,,,,,,,,,,,,,,,,,,,,,,,,,,,,,,,,,,,,,,,,,,,,,,,,,,,,,,,,,,,,,,,
,,CELL,4.694325,1,,,,,,stimuli/images/PICTURE_727.png,CELL,5ef63fc6a3fa221022fb6201,16/03/1997,2020-08-27_15h43.40.269,proactive3.2,2020.1.2,Win32,60,5f47c0b9b035471e11593a5c,5f47c676a258f80be388f66b,2,,,,,,hose,0,4,4,1,1,,,,,,,,,,,,,,,,,,,,,,,,,,,,,,,,,,,,,,,,,,,,,,,,,,,,,,,,,,,,,,,,,,,,,,,,,,,,,,,,,,
,,,,,,,,,,stimuli/images/PICTURE_147.png,LEADER,5ef63fc6a3fa221022fb6201,16/03/1997,2020-08-27_15h43.40.269,proactive3.2,2020.1.2,Win32,60,5f47c0b9b035471e11593a5c,5f47c676a258f80be388f66b,2,,,,,,hanger,,,,,,0,0,0,33,1,4,2,,,,,,,,,,,,,,,,,,,,,,,,,,,,,,,,,,,,,,,,,,,,,,,,,,,,,,,,,,,,,,,,,,,,,,,,,,,
,,,,,,,,,,stimuli/images/PICTURE_2.png,YARD,5ef63fc6a3fa221022fb6201,16/03/1997,2020-08-27_15h43.40.269,proactive3.2,2020.1.2,Win32,60,5f47c0b9b035471e11593a5c,5f47c676a258f80be388f66b,2,,,,,,tyre,,,,,,0,1,1,55,1,6,2,,,,,,,,,,,,,,,,,,,,,,,,,,,,,,,,,,,,,,,,,,,,,,,,,,,,,,,,,,,,,,,,,,,,,,,,,,,
,,,,,,,,,,stimuli/images/PICTURE_57.png,CANDY,5ef63fc6a3fa221022fb6201,16/03/1997,2020-08-27_15h43.40.269,proactive3.2,2020.1.2,Win32,60,5f47c0b9b035471e11593a5c,5f47c676a258f80be388f66b,2,,,,,,stamp,,,,,,0,2,2,52,1,6,2,,,,,,,,,,,,,,,,,,,,,,,,,,,,,,,,,,,,,,,,,,,,,,,,,,,,,,,,,,,,,,,,,,,,,,,,,,,
,,,,,,,,,,stimuli/images/PICTURE_57.png,NATION,5ef63fc6a3fa221022fb6201,16/03/1997,2020-08-27_15h43.40.269,proactive3.2,2020.1.2,Win32,60,5f47c0b9b035471e11593a5c,5f47c676a258f80be388f66b,2,,,,,,stamp,,,,,,0,3,3,21,1,3,2,,,,,,,,,,,,,,,,,,,,,,,,,,,,,,,,,,,,,,,,,,,,,,,,,,,,,,,,,,,,,,,,,,,,,,,,,,,
,,,,,,,,,,stimuli/images/PICTURE_692.png,DUDE,5ef63fc6a3fa221022fb6201,16/03/1997,2020-08-27_15h43.40.269,proactive3.2,2020.1.2,Win32,60,5f47c0b9b035471e11593a5c,5f47c676a258f80be388f66b,2,,,,,,cherry,,,,,,0,4,4,47,1,5,2,,,,,,,,,,,,,,,,,,,,,,,,,,,,,,,,,,,,,,,,,,,,,,,,,,,,,,,,,,,,,,,,,,,,,,,,,,,
,,,,,,,,,,stimuli/images/PICTURE_2.png,AREA,5ef63fc6a3fa221022fb6201,16/03/1997,2020-08-27_15h43.40.269,proactive3.2,2020.1.2,Win32,60,5f47c0b9b035471e11593a5c,5f47c676a258f80be388f66b,2,,,,,,tyre,,,,,,0,5,5,32,1,4,2,,,,,,,,,,,,,,,,,,,,,,,,,,,,,,,,,,,,,,,,,,,,,,,,,,,,,,,,,,,,,,,,,,,,,,,,,,,
,,,,,,,,,,stimuli/images/PICTURE_688.png,CLOCK,5ef63fc6a3fa221022fb6201,16/03/1997,2020-08-27_15h43.40.269,proactive3.2,2020.1.2,Win32,60,5f47c0b9b035471e11593a5c,5f47c676a258f80be388f66b,2,,,,,,runner,,,,,,0,6,6,42,1,5,2,,,,,,,,,,,,,,,,,,,,,,,,,,,,,,,,,,,,,,,,,,,,,,,,,,,,,,,,,,,,,,,,,,,,,,,,,,,
,,,,,,,,,,stimuli/images/PICTURE_470.png,BEAUTY,5ef63fc6a3fa221022fb6201,16/03/1997,2020-08-27_15h43.40.269,proactive3.2,2020.1.2,Win32,60,5f47c0b9b035471e11593a5c,5f47c676a258f80be388f66b,2,,,,,,motorbike,,,,,,0,7,7,26,1,3,2,,,,,,,,,,,,,,,,,,,,,,,,,,,,,,,,,,,,,,,,,,,,,,,,,,,,,,,,,,,,,,,,,,,,,,,,,,,
,,,,,,,,,,stimuli/images/PICTURE_655.png,SALE,5ef63fc6a3fa221022fb6201,16/03/1997,2020-08-27_15h43.40.269,proactive3.2,2020.1.2,Win32,60,5f47c0b9b035471e11593a5c,5f47c676a258f80be388f66b,2,,,,,,megaphone,,,,,,0,8,8,57,1,6,2,,,,,,,,,,,,,,,,,,,,,,,,,,,,,,,,,,,,,,,,,,,,,,,,,,,,,,,,,,,,,,,,,,,,,,,,,,,
,,,,,,,,,,stimuli/images/PICTURE_491.png,SERIES,5ef63fc6a3fa221022fb6201,16/03/1997,2020-08-27_15h43.40.269,proactive3.2,2020.1.2,Win32,60,5f47c0b9b035471e11593a5c,5f47c676a258f80be388f66b,2,,,,,,rug,,,,,,0,9,9,39,1,4,2,,,,,,,,,,,,,,,,,,,,,,,,,,,,,,,,,,,,,,,,,,,,,,,,,,,,,,,,,,,,,,,,,,,,,,,,,,,
,,,,,,,,,,stimuli/images/PICTURE_95.png,NIGHT,5ef63fc6a3fa221022fb6201,16/03/1997,2020-08-27_15h43.40.269,proactive3.2,2020.1.2,Win32,60,5f47c0b9b035471e11593a5c,5f47c676a258f80be388f66b,2,,,,,,suitcase,,,,,,0,10,10,37,1,4,2,,,,,,,,,,,,,,,,,,,,,,,,,,,,,,,,,,,,,,,,,,,,,,,,,,,,,,,,,,,,,,,,,,,,,,,,,,,
,,,,,,,,,,stimuli/images/PICTURE_487.png,ROOF,5ef63fc6a3fa221022fb6201,16/03/1997,2020-08-27_15h43.40.269,proactive3.2,2020.1.2,Win32,60,5f47c0b9b035471e11593a5c,5f47c676a258f80be388f66b,2,,,,,,basket,,,,,,0,11,11,50,1,6,2,,,,,,,,,,,,,,,,,,,,,,,,,,,,,,,,,,,,,,,,,,,,,,,,,,,,,,,,,,,,,,,,,,,,,,,,,,,
,,,,,,,,,,stimuli/images/PICTURE_348.png,TOILET,5ef63fc6a3fa221022fb6201,16/03/1997,2020-08-27_15h43.40.269,proactive3.2,2020.1.2,Win32,60,5f47c0b9b035471e11593a5c,5f47c676a258f80be388f66b,2,,,,,,pepper,,,,,,0,12,12,4,1,1,2,,,,,,,,,,,,,,,,,,,,,,,,,,,,,,,,,,,,,,,,,,,,,,,,,,,,,,,,,,,,,,,,,,,,,,,,,,,
,,,,,,,,,,stimuli/images/PICTURE_677.png,PHOTO,5ef63fc6a3fa221022fb6201,16/03/1997,2020-08-27_15h43.40.269,proactive3.2,2020.1.2,Win32,60,5f47c0b9b035471e11593a5c,5f47c676a258f80be388f66b,2,,,,,,map,,,,,,0,13,13,14,1,2,2,,,,,,,,,,,,,,,,,,,,,,,,,,,,,,,,,,,,,,,,,,,,,,,,,,,,,,,,,,,,,,,,,,,,,,,,,,,
,,,,,,,,,,stimuli/images/PICTURE_215.png,LEADER,5ef63fc6a3fa221022fb6201,16/03/1997,2020-08-27_15h43.40.269,proactive3.2,2020.1.2,Win32,60,5f47c0b9b035471e11593a5c,5f47c676a258f80be388f66b,2,,,,,,boot,,,,,,0,14,14,43,1,5,2,,,,,,,,,,,,,,,,,,,,,,,,,,,,,,,,,,,,,,,,,,,,,,,,,,,,,,,,,,,,,,,,,,,,,,,,,,,
,,,,,,,,,,stimuli/images/PICTURE_311.png,FLESH,5ef63fc6a3fa221022fb6201,16/03/1997,2020-08-27_15h43.40.269,proactive3.2,2020.1.2,Win32,60,5f47c0b9b035471e11593a5c,5f47c676a258f80be388f66b,2,,,,,,razor,,,,,,0,15,15,3,1,1,2,,,,,,,,,,,,,,,,,,,,,,,,,,,,,,,,,,,,,,,,,,,,,,,,,,,,,,,,,,,,,,,,,,,,,,,,,,,
,,,,,,,,,,stimuli/images/PICTURE_654.png,COPS,5ef63fc6a3fa221022fb6201,16/03/1997,2020-08-27_15h43.40.269,proactive3.2,2020.1.2,Win32,60,5f47c0b9b035471e11593a5c,5f47c676a258f80be388f66b,2,,,,,,pencil,,,,,,0,16,16,10,1,2,2,,,,,,,,,,,,,,,,,,,,,,,,,,,,,,,,,,,,,,,,,,,,,,,,,,,,,,,,,,,,,,,,,,,,,,,,,,,
,,,,,,,,,,stimuli/images/PICTURE_405.png,JUNGLE,5ef63fc6a3fa221022fb6201,16/03/1997,2020-08-27_15h43.40.269,proactive3.2,2020.1.2,Win32,60,5f47c0b9b035471e11593a5c,5f47c676a258f80be388f66b,2,,,,,,anchor,,,,,,0,17,17,58,1,6,2,,,,,,,,,,,,,,,,,,,,,,,,,,,,,,,,,,,,,,,,,,,,,,,,,,,,,,,,,,,,,,,,,,,,,,,,,,,
,,,,,,,,,,stimuli/images/PICTURE_750.png,POLICY,5ef63fc6a3fa221022fb6201,16/03/1997,2020-08-27_15h43.40.269,proactive3.2,2020.1.2,Win32,60,5f47c0b9b035471e11593a5c,5f47c676a258f80be388f66b,2,,,,,,kettle,,,,,,0,18,18,44,1,5,2,,,,,,,,,,,,,,,,,,,,,,,,,,,,,,,,,,,,,,,,,,,,,,,,,,,,,,,,,,,,,,,,,,,,,,,,,,,
,,,,,,,,,,stimuli/images/PICTURE_160.png,HOTEL,5ef63fc6a3fa221022fb6201,16/03/1997,2020-08-27_15h43.40.269,proactive3.2,2020.1.2,Win32,60,5f47c0b9b035471e11593a5c,5f47c676a258f80be388f66b,2,,,,,,wheelbarrow,,,,,,0,19,19,16,1,2,2,,,,,,,,,,,,,,,,,,,,,,,,,,,,,,,,,,,,,,,,,,,,,,,,,,,,,,,,,,,,,,,,,,,,,,,,,,,
,,,,,,,,,,stimuli/images/PICTURE_215.png,BOYS,5ef63fc6a3fa221022fb6201,16/03/1997,2020-08-27_15h43.40.269,proactive3.2,2020.1.2,Win32,60,5f47c0b9b035471e11593a5c,5f47c676a258f80be388f66b,2,,,,,,boot,,,,,,0,20,20,24,1,3,2,,,,,,,,,,,,,,,,,,,,,,,,,,,,,,,,,,,,,,,,,,,,,,,,,,,,,,,,,,,,,,,,,,,,,,,,,,,
,,,,,,,,,,stimuli/images/PICTURE_405.png,JUNGLE,5ef63fc6a3fa221022fb6201,16/03/1997,2020-08-27_15h43.40.269,proactive3.2,2020.1.2,Win32,60,5f47c0b9b035471e11593a5c,5f47c676a258f80be388f66b,2,,,,,,anchor,,,,,,0,21,21,13,1,2,2,,,,,,,,,,,,,,,,,,,,,,,,,,,,,,,,,,,,,,,,,,,,,,,,,,,,,,,,,,,,,,,,,,,,,,,,,,,
,,,,,,,,,,stimuli/images/PICTURE_453.png,FAMILY,5ef63fc6a3fa221022fb6201,16/03/1997,2020-08-27_15h43.40.269,proactive3.2,2020.1.2,Win32,60,5f47c0b9b035471e11593a5c,5f47c676a258f80be388f66b,2,,,,,,scissors,,,,,,0,22,22,48,1,5,2,,,,,,,,,,,,,,,,,,,,,,,,,,,,,,,,,,,,,,,,,,,,,,,,,,,,,,,,,,,,,,,,,,,,,,,,,,,
,,,,,,,,,,stimuli/images/PICTURE_667.png,GLASS,5ef63fc6a3fa221022fb6201,16/03/1997,2020-08-27_15h43.40.269,proactive3.2,2020.1.2,Win32,60,5f47c0b9b035471e11593a5c,5f47c676a258f80be388f66b,2,,,,,,daisy,,,,,,0,23,23,27,1,3,2,,,,,,,,,,,,,,,,,,,,,,,,,,,,,,,,,,,,,,,,,,,,,,,,,,,,,,,,,,,,,,,,,,,,,,,,,,,
,,,,,,,,,,stimuli/images/PICTURE_356.png,CANDY,5ef63fc6a3fa221022fb6201,16/03/1997,2020-08-27_15h43.40.269,proactive3.2,2020.1.2,Win32,60,5f47c0b9b035471e11593a5c,5f47c676a258f80be388f66b,2,,,,,,pawn,,,,,,0,24,24,46,1,5,2,,,,,,,,,,,,,,,,,,,,,,,,,,,,,,,,,,,,,,,,,,,,,,,,,,,,,,,,,,,,,,,,,,,,,,,,,,,
,,,,,,,,,,stimuli/images/PICTURE_677.png,FAMILY,5ef63fc6a3fa221022fb6201,16/03/1997,2020-08-27_15h43.40.269,proactive3.2,2020.1.2,Win32,60,5f47c0b9b035471e11593a5c,5f47c676a258f80be388f66b,2,,,,,,map,,,,,,0,25,25,53,1,6,2,,,,,,,,,,,,,,,,,,,,,,,,,,,,,,,,,,,,,,,,,,,,,,,,,,,,,,,,,,,,,,,,,,,,,,,,,,,
,,,,,,,,,,stimuli/images/PICTURE_504.png,HOUSE,5ef63fc6a3fa221022fb6201,16/03/1997,2020-08-27_15h43.40.269,proactive3.2,2020.1.2,Win32,60,5f47c0b9b035471e11593a5c,5f47c676a258f80be388f66b,2,,,,,,wheel,,,,,,0,26,26,36,1,4,2,,,,,,,,,,,,,,,,,,,,,,,,,,,,,,,,,,,,,,,,,,,,,,,,,,,,,,,,,,,,,,,,,,,,,,,,,,,
,,,,,,,,,,stimuli/images/PICTURE_314.png,SPEECH,5ef63fc6a3fa221022fb6201,16/03/1997,2020-08-27_15h43.40.269,proactive3.2,2020.1.2,Win32,60,5f47c0b9b035471e11593a5c,5f47c676a258f80be388f66b,2,,,,,,perfume,,,,,,0,27,27,35,1,4,2,,,,,,,,,,,,,,,,,,,,,,,,,,,,,,,,,,,,,,,,,,,,,,,,,,,,,,,,,,,,,,,,,,,,,,,,,,,
,,,,,,,,,,stimuli/images/PICTURE_33.png,COPS,5ef63fc6a3fa221022fb6201,16/03/1997,2020-08-27_15h43.40.269,proactive3.2,2020.1.2,Win32,60,5f47c0b9b035471e11593a5c,5f47c676a258f80be388f66b,2,,,,,,frame,,,,,,0,28,28,29,1,3,2,,,,,,,,,,,,,,,,,,,,,,,,,,,,,,,,,,,,,,,,,,,,,,,,,,,,,,,,,,,,,,,,,,,,,,,,,,,
,,,,,,,,,,stimuli/images/PICTURE_57.png,CASINO,5ef63fc6a3fa221022fb6201,16/03/1997,2020-08-27_15h43.40.269,proactive3.2,2020.1.2,Win32,60,5f47c0b9b035471e11593a5c,5f47c676a258f80be388f66b,2,,,,,,stamp,,,,,,0,29,29,12,1,2,2,,,,,,,,,,,,,,,,,,,,,,,,,,,,,,,,,,,,,,,,,,,,,,,,,,,,,,,,,,,,,,,,,,,,,,,,,,,
,,,,,,,,,,stimuli/images/PICTURE_487.png,POLICY,5ef63fc6a3fa221022fb6201,16/03/1997,2020-08-27_15h43.40.269,proactive3.2,2020.1.2,Win32,60,5f47c0b9b035471e11593a5c,5f47c676a258f80be388f66b,2,,,,,,basket,,,,,,0,30,30,34,1,4,2,,,,,,,,,,,,,,,,,,,,,,,,,,,,,,,,,,,,,,,,,,,,,,,,,,,,,,,,,,,,,,,,,,,,,,,,,,,
,,,,,,,,,,stimuli/images/PICTURE_285.png,WRITER,5ef63fc6a3fa221022fb6201,16/03/1997,2020-08-27_15h43.40.269,proactive3.2,2020.1.2,Win32,60,5f47c0b9b035471e11593a5c,5f47c676a258f80be388f66b,2,,,,,,carrot,,,,,,0,31,31,6,1,1,2,,,,,,,,,,,,,,,,,,,,,,,,,,,,,,,,,,,,,,,,,,,,,,,,,,,,,,,,,,,,,,,,,,,,,,,,,,,
,,,,,,,,,,stimuli/images/PICTURE_509.png,SHOTS,5ef63fc6a3fa221022fb6201,16/03/1997,2020-08-27_15h43.40.269,proactive3.2,2020.1.2,Win32,60,5f47c0b9b035471e11593a5c,5f47c676a258f80be388f66b,2,,,,,,telephone,,,,,,0,32,32,7,1,1,2,,,,,,,,,,,,,,,,,,,,,,,,,,,,,,,,,,,,,,,,,,,,,,,,,,,,,,,,,,,,,,,,,,,,,,,,,,,
,,,,,,,,,,stimuli/images/PICTURE_32.png,LETTER,5ef63fc6a3fa221022fb6201,16/03/1997,2020-08-27_15h43.40.269,proactive3.2,2020.1.2,Win32,60,5f47c0b9b035471e11593a5c,5f47c676a258f80be388f66b,2,,,,,,crown,,,,,,0,33,33,56,1,6,2,,,,,,,,,,,,,,,,,,,,,,,,,,,,,,,,,,,,,,,,,,,,,,,,,,,,,,,,,,,,,,,,,,,,,,,,,,,
,,,,,,,,,,stimuli/images/PICTURE_141.png,CLIENT,5ef63fc6a3fa221022fb6201,16/03/1997,2020-08-27_15h43.40.269,proactive3.2,2020.1.2,Win32,60,5f47c0b9b035471e11593a5c,5f47c676a258f80be388f66b,2,,,,,,sunflower,,,,,,0,34,34,30,1,4,2,,,,,,,,,,,,,,,,,,,,,,,,,,,,,,,,,,,,,,,,,,,,,,,,,,,,,,,,,,,,,,,,,,,,,,,,,,,
,,,,,,,,,,stimuli/images/PICTURE_509.png,APPLE,5ef63fc6a3fa221022fb6201,16/03/1997,2020-08-27_15h43.40.269,proactive3.2,2020.1.2,Win32,60,5f47c0b9b035471e11593a5c,5f47c676a258f80be388f66b,2,,,,,,telephone,,,,,,0,35,35,38,1,4,2,,,,,,,,,,,,,,,,,,,,,,,,,,,,,,,,,,,,,,,,,,,,,,,,,,,,,,,,,,,,,,,,,,,,,,,,,,,
,,,,,,,,,,stimuli/images/PICTURE_403.png,FAMILY,5ef63fc6a3fa221022fb6201,16/03/1997,2020-08-27_15h43.40.269,proactive3.2,2020.1.2,Win32,60,5f47c0b9b035471e11593a5c,5f47c676a258f80be388f66b,2,,,,,,cathedral,,,,,,0,36,36,9,1,1,2,,,,,,,,,,,,,,,,,,,,,,,,,,,,,,,,,,,,,,,,,,,,,,,,,,,,,,,,,,,,,,,,,,,,,,,,,,,
,,,,,,,,,,stimuli/images/PICTURE_327.png,LEADER,5ef63fc6a3fa221022fb6201,16/03/1997,2020-08-27_15h43.40.269,proactive3.2,2020.1.2,Win32,60,5f47c0b9b035471e11593a5c,5f47c676a258f80be388f66b,2,,,,,,helmet,,,,,,0,37,37,17,1,2,2,,,,,,,,,,,,,,,,,,,,,,,,,,,,,,,,,,,,,,,,,,,,,,,,,,,,,,,,,,,,,,,,,,,,,,,,,,,
,,,,,,,,,,stimuli/images/PICTURE_509.png,MILLER,5ef63fc6a3fa221022fb6201,16/03/1997,2020-08-27_15h43.40.269,proactive3.2,2020.1.2,Win32,60,5f47c0b9b035471e11593a5c,5f47c676a258f80be388f66b,2,,,,,,telephone,,,,,,0,38,38,49,1,5,2,,,,,,,,,,,,,,,,,,,,,,,,,,,,,,,,,,,,,,,,,,,,,,,,,,,,,,,,,,,,,,,,,,,,,,,,,,,
,,,,,,,,,,stimuli/images/PICTURE_297.png,BODY,5ef63fc6a3fa221022fb6201,16/03/1997,2020-08-27_15h43.40.269,proactive3.2,2020.1.2,Win32,60,5f47c0b9b035471e11593a5c,5f47c676a258f80be388f66b,2,,,,,,aeroplane,,,,,,0,39,39,51,1,6,2,,,,,,,,,,,,,,,,,,,,,,,,,,,,,,,,,,,,,,,,,,,,,,,,,,,,,,,,,,,,,,,,,,,,,,,,,,,
,,,,,,,,,,stimuli/images/PICTURE_296.png,CLOCK,5ef63fc6a3fa221022fb6201,16/03/1997,2020-08-27_15h43.40.269,proactive3.2,2020.1.2,Win32,60,5f47c0b9b035471e11593a5c,5f47c676a258f80be388f66b,2,,,,,,bolt,,,,,,0,40,40,18,1,2,2,,,,,,,,,,,,,,,,,,,,,,,,,,,,,,,,,,,,,,,,,,,,,,,,,,,,,,,,,,,,,,,,,,,,,,,,,,,
,,,,,,,,,,stimuli/images/PICTURE_708.png,VALLEY,5ef63fc6a3fa221022fb6201,16/03/1997,2020-08-27_15h43.40.269,proactive3.2,2020.1.2,Win32,60,5f47c0b9b035471e11593a5c,5f47c676a258f80be388f66b,2,,,,,,monkey,,,,,,0,41,41,45,1,5,2,,,,,,,,,,,,,,,,,,,,,,,,,,,,,,,,,,,,,,,,,,,,,,,,,,,,,,,,,,,,,,,,,,,,,,,,,,,
,,,,,,,,,,stimuli/images/PICTURE_255.png,PENNY,5ef63fc6a3fa221022fb6201,16/03/1997,2020-08-27_15h43.40.269,proactive3.2,2020.1.2,Win32,60,5f47c0b9b035471e11593a5c,5f47c676a258f80be388f66b,2,,,,,,shovel,,,,,,0,42,42,19,1,2,2,,,,,,,,,,,,,,,,,,,,,,,,,,,,,,,,,,,,,,,,,,,,,,,,,,,,,,,,,,,,,,,,,,,,,,,,,,,
,,,,,,,,,,stimuli/images/PICTURE_285.png,PRINCE,5ef63fc6a3fa221022fb6201,16/03/1997,2020-08-27_15h43.40.269,proactive3.2,2020.1.2,Win32,60,5f47c0b9b035471e11593a5c,5f47c676a258f80be388f66b,2,,,,,,carrot,,,,,,0,43,43,20,1,3,2,,,,,,,,,,,,,,,,,,,,,,,,,,,,,,,,,,,,,,,,,,,,,,,,,,,,,,,,,,,,,,,,,,,,,,,,,,,
,,,,,,,,,,stimuli/images/PICTURE_311.png,TOILET,5ef63fc6a3fa221022fb6201,16/03/1997,2020-08-27_15h43.40.269,proactive3.2,2020.1.2,Win32,60,5f47c0b9b035471e11593a5c,5f47c676a258f80be388f66b,2,,,,,,razor,,,,,,0,44,44,54,1,6,2,,,,,,,,,,,,,,,,,,,,,,,,,,,,,,,,,,,,,,,,,,,,,,,,,,,,,,,,,,,,,,,,,,,,,,,,,,,
,,,,,,,,,,stimuli/images/PICTURE_654.png,YEAR,5ef63fc6a3fa221022fb6201,16/03/1997,2020-08-27_15h43.40.269,proactive3.2,2020.1.2,Win32,60,5f47c0b9b035471e11593a5c,5f47c676a258f80be388f66b,2,,,,,,pencil,,,,,,0,45,45,41,1,5,2,,,,,,,,,,,,,,,,,,,,,,,,,,,,,,,,,,,,,,,,,,,,,,,,,,,,,,,,,,,,,,,,,,,,,,,,,,,
,,,,,,,,,,stimuli/images/PICTURE_452.png,COPS,5ef63fc6a3fa221022fb6201,16/03/1997,2020-08-27_15h43.40.269,proactive3.2,2020.1.2,Win32,60,5f47c0b9b035471e11593a5c,5f47c676a258f80be388f66b,2,,,,,,watch,,,,,,0,46,46,0,1,1,2,,,,,,,,,,,,,,,,,,,,,,,,,,,,,,,,,,,,,,,,,,,,,,,,,,,,,,,,,,,,,,,,,,,,,,,,,,,
,,,,,,,,,,stimuli/images/PICTURE_93.png,GIRL,5ef63fc6a3fa221022fb6201,16/03/1997,2020-08-27_15h43.40.269,proactive3.2,2020.1.2,Win32,60,5f47c0b9b035471e11593a5c,5f47c676a258f80be388f66b,2,,,,,,skateboard,,,,,,0,47,47,31,1,4,2,,,,,,,,,,,,,,,,,,,,,,,,,,,,,,,,,,,,,,,,,,,,,,,,,,,,,,,,,,,,,,,,,,,,,,,,,,,
,,,,,,,,,,stimuli/images/PICTURE_123.png,SALE,5ef63fc6a3fa221022fb6201,16/03/1997,2020-08-27_15h43.40.269,proactive3.2,2020.1.2,Win32,60,5f47c0b9b035471e11593a5c,5f47c676a258f80be388f66b,2,,,,,,dart,,,,,,0,48,48,8,1,1,2,,,,,,,,,,,,,,,,,,,,,,,,,,,,,,,,,,,,,,,,,,,,,,,,,,,,,,,,,,,,,,,,,,,,,,,,,,,
,,,,,,,,,,stimuli/images/PICTURE_18.png,RIVER,5ef63fc6a3fa221022fb6201,16/03/1997,2020-08-27_15h43.40.269,proactive3.2,2020.1.2,Win32,60,5f47c0b9b035471e11593a5c,5f47c676a258f80be388f66b,2,,,,,,planet,,,,,,0,49,49,22,1,3,2,,,,,,,,,,,,,,,,,,,,,,,,,,,,,,,,,,,,,,,,,,,,,,,,,,,,,,,,,,,,,,,,,,,,,,,,,,,
,,,,,,,,,,stimuli/images/PICTURE_405.png,HOUSE,5ef63fc6a3fa221022fb6201,16/03/1997,2020-08-27_15h43.40.269,proactive3.2,2020.1.2,Win32,60,5f47c0b9b035471e11593a5c,5f47c676a258f80be388f66b,2,,,,,,anchor,,,,,,0,50,50,2,1,1,2,,,,,,,,,,,,,,,,,,,,,,,,,,,,,,,,,,,,,,,,,,,,,,,,,,,,,,,,,,,,,,,,,,,,,,,,,,,
,,,,,,,,,,stimuli/images/PICTURE_208.png,SPIRIT,5ef63fc6a3fa221022fb6201,16/03/1997,2020-08-27_15h43.40.269,proactive3.2,2020.1.2,Win32,60,5f47c0b9b035471e11593a5c,5f47c676a258f80be388f66b,2,,,,,,microphone,,,,,,0,51,51,28,1,3,2,,,,,,,,,,,,,,,,,,,,,,,,,,,,,,,,,,,,,,,,,,,,,,,,,,,,,,,,,,,,,,,,,,,,,,,,,,,
,,,,,,,,,,stimuli/images/PICTURE_348.png,DUDE,5ef63fc6a3fa221022fb6201,16/03/1997,2020-08-27_15h43.40.269,proactive3.2,2020.1.2,Win32,60,5f47c0b9b035471e11593a5c,5f47c676a258f80be388f66b,2,,,,,,pepper,,,,,,0,52,52,59,1,6,2,,,,,,,,,,,,,,,,,,,,,,,,,,,,,,,,,,,,,,,,,,,,,,,,,,,,,,,,,,,,,,,,,,,,,,,,,,,
,,,,,,,,,,stimuli/images/PICTURE_470.png,MOMENT,5ef63fc6a3fa221022fb6201,16/03/1997,2020-08-27_15h43.40.269,proactive3.2,2020.1.2,Win32,60,5f47c0b9b035471e11593a5c,5f47c676a258f80be388f66b,2,,,,,,motorbike,,,,,,0,53,53,40,1,5,2,,,,,,,,,,,,,,,,,,,,,,,,,,,,,,,,,,,,,,,,,,,,,,,,,,,,,,,,,,,,,,,,,,,,,,,,,,,
,,,,,,,,,,stimuli/images/PICTURE_509.png,BATH,5ef63fc6a3fa221022fb6201,16/03/1997,2020-08-27_15h43.40.269,proactive3.2,2020.1.2,Win32,60,5f47c0b9b035471e11593a5c,5f47c676a258f80be388f66b,2,,,,,,telephone,,,,,,0,54,54,15,1,2,2,,,,,,,,,,,,,,,,,,,,,,,,,,,,,,,,,,,,,,,,,,,,,,,,,,,,,,,,,,,,,,,,,,,,,,,,,,,
,,,,,,,,,,stimuli/images/PICTURE_68.png,KIND,5ef63fc6a3fa221022fb6201,16/03/1997,2020-08-27_15h43.40.269,proactive3.2,2020.1.2,Win32,60,5f47c0b9b035471e11593a5c,5f47c676a258f80be388f66b,2,,,,,,candle,,,,,,0,55,55,23,1,3,2,,,,,,,,,,,,,,,,,,,,,,,,,,,,,,,,,,,,,,,,,,,,,,,,,,,,,,,,,,,,,,,,,,,,,,,,,,,
,,,,,,,,,,stimuli/images/PICTURE_215.png,FOOD,5ef63fc6a3fa221022fb6201,16/03/1997,2020-08-27_15h43.40.269,proactive3.2,2020.1.2,Win32,60,5f47c0b9b035471e11593a5c,5f47c676a258f80be388f66b,2,,,,,,boot,,,,,,0,56,56,5,1,1,2,,,,,,,,,,,,,,,,,,,,,,,,,,,,,,,,,,,,,,,,,,,,,,,,,,,,,,,,,,,,,,,,,,,,,,,,,,,
,,,,,,,,,,stimuli/images/PICTURE_564.png,PLENTY,5ef63fc6a3fa221022fb6201,16/03/1997,2020-08-27_15h43.40.269,proactive3.2,2020.1.2,Win32,60,5f47c0b9b035471e11593a5c,5f47c676a258f80be388f66b,2,,,,,,spoon,,,,,,0,57,57,11,1,2,2,,,,,,,,,,,,,,,,,,,,,,,,,,,,,,,,,,,,,,,,,,,,,,,,,,,,,,,,,,,,,,,,,,,,,,,,,,,
,,,,,,,,,,stimuli/images/PICTURE_2.png,JUNGLE,5ef63fc6a3fa221022fb6201,16/03/1997,2020-08-27_15h43.40.269,proactive3.2,2020.1.2,Win32,60,5f47c0b9b035471e11593a5c,5f47c676a258f80be388f66b,2,,,,,,tyre,,,,,,0,58,58,1,1,1,2,,,,,,,,,,,,,,,,,,,,,,,,,,,,,,,,,,,,,,,,,,,,,,,,,,,,,,,,,,,,,,,,,,,,,,,,,,,
,,?,0.001335,0,,,,,,stimuli/images/PICTURE_33.png,COPS,5ef63fc6a3fa221022fb6201,16/03/1997,2020-08-27_15h43.40.269,proactive3.2,2020.1.2,Win32,60,5f47c0b9b035471e11593a5c,5f47c676a258f80be388f66b,2,,,,,,frame,,,,,,,,,,,3,2,0,0,0,29,1,,,,,,,,,,,,,,,,,,,,,,,,,,,,,,,,,,,,,,,,,,,,,,,,,,,,,,,,,,,,,,,,,,,,,,
,,?,0.00086,0,,,,,,stimuli/images/PICTURE_491.png,SERIES,5ef63fc6a3fa221022fb6201,16/03/1997,2020-08-27_15h43.40.269,proactive3.2,2020.1.2,Win32,60,5f47c0b9b035471e11593a5c,5f47c676a258f80be388f66b,2,,,,,,rug,,,,,,,,,,,4,2,0,1,1,39,1,,,,,,,,,,,,,,,,,,,,,,,,,,,,,,,,,,,,,,,,,,,,,,,,,,,,,,,,,,,,,,,,,,,,,,
,,?,0.000815,0,,,,,,stimuli/images/PICTURE_692.png,DUDE,5ef63fc6a3fa221022fb6201,16/03/1997,2020-08-27_15h43.40.269,proactive3.2,2020.1.2,Win32,60,5f47c0b9b035471e11593a5c,5f47c676a258f80be388f66b,2,,,,,,cherry,,,,,,,,,,,5,2,0,2,2,47,1,,,,,,,,,,,,,,,,,,,,,,,,,,,,,,,,,,,,,,,,,,,,,,,,,,,,,,,,,,,,,,,,,,,,,,
,,?,0.001085,0,,,,,,stimuli/images/PICTURE_2.png,JUNGLE,5ef63fc6a3fa221022fb6201,16/03/1997,2020-08-27_15h43.40.269,proactive3.2,2020.1.2,Win32,60,5f47c0b9b035471e11593a5c,5f47c676a258f80be388f66b,2,,,,,,tyre,,,,,,,,,,,1,2,0,3,3,1,1,,,,,,,,,,,,,,,,,,,,,,,,,,,,,,,,,,,,,,,,,,,,,,,,,,,,,,,,,,,,,,,,,,,,,,
,,?,0.000935,0,,,,,,stimuli/images/PICTURE_57.png,NATION,5ef63fc6a3fa221022fb6201,16/03/1997,2020-08-27_15h43.40.269,proactive3.2,2020.1.2,Win32,60,5f47c0b9b035471e11593a5c,5f47c676a258f80be388f66b,2,,,,,,stamp,,,,,,,,,,,3,2,0,4,4,21,1,,,,,,,,,,,,,,,,,,,,,,,,,,,,,,,,,,,,,,,,,,,,,,,,,,,,,,,,,,,,,,,,,,,,,,
,,?,0.00082,0,,,,,,stimuli/images/PICTURE_452.png,COPS,5ef63fc6a3fa221022fb6201,16/03/1997,2020-08-27_15h43.40.269,proactive3.2,2020.1.2,Win32,60,5f47c0b9b035471e11593a5c,5f47c676a258f80be388f66b,2,,,,,,watch,,,,,,,,,,,1,2,0,5,5,0,1,,,,,,,,,,,,,,,,,,,,,,,,,,,,,,,,,,,,,,,,,,,,,,,,,,,,,,,,,,,,,,,,,,,,,,
,,?,0.00092,0,,,,,,stimuli/images/PICTURE_2.png,YARD,5ef63fc6a3fa221022fb6201,16/03/1997,2020-08-27_15h43.40.269,proactive3.2,2020.1.2,Win32,60,5f47c0b9b035471e11593a5c,5f47c676a258f80be388f66b,2,,,,,,tyre,,,,,,,,,,,6,2,0,6,6,55,1,,,,,,,,,,,,,,,,,,,,,,,,,,,,,,,,,,,,,,,,,,,,,,,,,,,,,,,,,,,,,,,,,,,,,,
,,?,0.00081,0,,,,,,stimuli/images/PICTURE_215.png,BOYS,5ef63fc6a3fa221022fb6201,16/03/1997,2020-08-27_15h43.40.269,proactive3.2,2020.1.2,Win32,60,5f47c0b9b035471e11593a5c,5f47c676a258f80be388f66b,2,,,,,,boot,,,,,,,,,,,3,2,0,7,7,24,1,,,,,,,,,,,,,,,,,,,,,,,,,,,,,,,,,,,,,,,,,,,,,,,,,,,,,,,,,,,,,,,,,,,,,,
,,PLENTY,9.86224,1,,,,,,stimuli/images/PICTURE_564.png,PLENTY,5ef63fc6a3fa221022fb6201,16/03/1997,2020-08-27_15h43.40.269,proactive3.2,2020.1.2,Win32,60,5f47c0b9b035471e11593a5c,5f47c676a258f80be388f66b,2,,,,,,spoon,,,,,,,,,,,2,2,0,8,8,11,1,,,,,,,,,,,,,,,,,,,,,,,,,,,,,,,,,,,,,,,,,,,,,,,,,,,,,,,,,,,,,,,,,,,,,,
,,?,0.00122,0,,,,,,stimuli/images/PICTURE_311.png,TOILET,5ef63fc6a3fa221022fb6201,16/03/1997,2020-08-27_15h43.40.269,proactive3.2,2020.1.2,Win32,60,5f47c0b9b035471e11593a5c,5f47c676a258f80be388f66b,2,,,,,,razor,,,,,,,,,,,6,2,0,9,9,54,1,,,,,,,,,,,,,,,,,,,,,,,,,,,,,,,,,,,,,,,,,,,,,,,,,,,,,,,,,,,,,,,,,,,,,,
,,?,0.000835,0,,,,,,stimuli/images/PICTURE_655.png,SALE,5ef63fc6a3fa221022fb6201,16/03/1997,2020-08-27_15h43.40.269,proactive3.2,2020.1.2,Win32,60,5f47c0b9b035471e11593a5c,5f47c676a258f80be388f66b,2,,,,,,megaphone,,,,,,,,,,,6,2,0,10,10,57,1,,,,,,,,,,,,,,,,,,,,,,,,,,,,,,,,,,,,,,,,,,,,,,,,,,,,,,,,,,,,,,,,,,,,,,
,,?,0.00322,0,,,,,,stimuli/images/PICTURE_285.png,WRITER,5ef63fc6a3fa221022fb6201,16/03/1997,2020-08-27_15h43.40.269,proactive3.2,2020.1.2,Win32,60,5f47c0b9b035471e11593a5c,5f47c676a258f80be388f66b,2,,,,,,carrot,,,,,,,,,,,1,2,0,11,11,6,1,,,,,,,,,,,,,,,,,,,,,,,,,,,,,,,,,,,,,,,,,,,,,,,,,,,,,,,,,,,,,,,,,,,,,,
,,JUNGLE,10.296745,1,,,,,,stimuli/images/PICTURE_405.png,JUNGLE,5ef63fc6a3fa221022fb6201,16/03/1997,2020-08-27_15h43.40.269,proactive3.2,2020.1.2,Win32,60,5f47c0b9b035471e11593a5c,5f47c676a258f80be388f66b,2,,,,,,anchor,,,,,,,,,,,2,2,0,12,12,13,1,,,,,,,,,,,,,,,,,,,,,,,,,,,,,,,,,,,,,,,,,,,,,,,,,,,,,,,,,,,,,,,,,,,,,,
,,?,0.001145,0,,,,,,stimuli/images/PICTURE_356.png,CANDY,5ef63fc6a3fa221022fb6201,16/03/1997,2020-08-27_15h43.40.269,proactive3.2,2020.1.2,Win32,60,5f47c0b9b035471e11593a5c,5f47c676a258f80be388f66b,2,,,,,,pawn,,,,,,,,,,,5,2,0,13,13,46,1,,,,,,,,,,,,,,,,,,,,,,,,,,,,,,,,,,,,,,,,,,,,,,,,,,,,,,,,,,,,,,,,,,,,,,
,,?,0.00096,0,,,,,,stimuli/images/PICTURE_215.png,LEADER,5ef63fc6a3fa221022fb6201,16/03/1997,2020-08-27_15h43.40.269,proactive3.2,2020.1.2,Win32,60,5f47c0b9b035471e11593a5c,5f47c676a258f80be388f66b,2,,,,,,boot,,,,,,,,,,,5,2,0,14,14,43,1,,,,,,,,,,,,,,,,,,,,,,,,,,,,,,,,,,,,,,,,,,,,,,,,,,,,,,,,,,,,,,,,,,,,,,
,,?,0.000835,0,,,,,,stimuli/images/PICTURE_95.png,NIGHT,5ef63fc6a3fa221022fb6201,16/03/1997,2020-08-27_15h43.40.269,proactive3.2,2020.1.2,Win32,60,5f47c0b9b035471e11593a5c,5f47c676a258f80be388f66b,2,,,,,,suitcase,,,,,,,,,,,4,2,0,15,15,37,1,,,,,,,,,,,,,,,,,,,,,,,,,,,,,,,,,,,,,,,,,,,,,,,,,,,,,,,,,,,,,,,,,,,,,,
,,?,0.000795,0,,,,,,stimuli/images/PICTURE_348.png,TOILET,5ef63fc6a3fa221022fb6201,16/03/1997,2020-08-27_15h43.40.269,proactive3.2,2020.1.2,Win32,60,5f47c0b9b035471e11593a5c,5f47c676a258f80be388f66b,2,,,,,,pepper,,,,,,,,,,,1,2,0,16,16,4,1,,,,,,,,,,,,,,,,,,,,,,,,,,,,,,,,,,,,,,,,,,,,,,,,,,,,,,,,,,,,,,,,,,,,,,
,,?,0.001455,0,,,,,,stimuli/images/PICTURE_32.png,LETTER,5ef63fc6a3fa221022fb6201,16/03/1997,2020-08-27_15h43.40.269,proactive3.2,2020.1.2,Win32,60,5f47c0b9b035471e11593a5c,5f47c676a258f80be388f66b,2,,,,,,crown,,,,,,,,,,,6,2,0,17,17,56,1,,,,,,,,,,,,,,,,,,,,,,,,,,,,,,,,,,,,,,,,,,,,,,,,,,,,,,,,,,,,,,,,,,,,,,
,,?,0.001215,0,,,,,,stimuli/images/PICTURE_750.png,POLICY,5ef63fc6a3fa221022fb6201,16/03/1997,2020-08-27_15h43.40.269,proactive3.2,2020.1.2,Win32,60,5f47c0b9b035471e11593a5c,5f47c676a258f80be388f66b,2,,,,,,kettle,,,,,,,,,,,5,2,0,18,18,44,1,,,,,,,,,,,,,,,,,,,,,,,,,,,,,,,,,,,,,,,,,,,,,,,,,,,,,,,,,,,,,,,,,,,,,,
,,?,0.000825,0,,,,,,stimuli/images/PICTURE_509.png,MILLER,5ef63fc6a3fa221022fb6201,16/03/1997,2020-08-27_15h43.40.269,proactive3.2,2020.1.2,Win32,60,5f47c0b9b035471e11593a5c,5f47c676a258f80be388f66b,2,,,,,,telephone,,,,,,,,,,,5,2,0,19,19,49,1,,,,,,,,,,,,,,,,,,,,,,,,,,,,,,,,,,,,,,,,,,,,,,,,,,,,,,,,,,,,,,,,,,,,,,
,,?,0.00081,0,,,,,,stimuli/images/PICTURE_453.png,FAMILY,5ef63fc6a3fa221022fb6201,16/03/1997,2020-08-27_15h43.40.269,proactive3.2,2020.1.2,Win32,60,5f47c0b9b035471e11593a5c,5f47c676a258f80be388f66b,2,,,,,,scissors,,,,,,,,,,,5,2,0,20,20,48,1,,,,,,,,,,,,,,,,,,,,,,,,,,,,,,,,,,,,,,,,,,,,,,,,,,,,,,,,,,,,,,,,,,,,,,
,,?,0.000765,0,,,,,,stimuli/images/PICTURE_314.png,SPEECH,5ef63fc6a3fa221022fb6201,16/03/1997,2020-08-27_15h43.40.269,proactive3.2,2020.1.2,Win32,60,5f47c0b9b035471e11593a5c,5f47c676a258f80be388f66b,2,,,,,,perfume,,,,,,,,,,,4,2,0,21,21,35,1,,,,,,,,,,,,,,,,,,,,,,,,,,,,,,,,,,,,,,,,,,,,,,,,,,,,,,,,,,,,,,,,,,,,,,
,,?,0.00075,0,,,,,,stimuli/images/PICTURE_93.png,GIRL,5ef63fc6a3fa221022fb6201,16/03/1997,2020-08-27_15h43.40.269,proactive3.2,2020.1.2,Win32,60,5f47c0b9b035471e11593a5c,5f47c676a258f80be388f66b,2,,,,,,skateboard,,,,,,,,,,,4,2,0,22,22,31,1,,,,,,,,,,,,,,,,,,,,,,,,,,,,,,,,,,,,,,,,,,,,,,,,,,,,,,,,,,,,,,,,,,,,,,
,,?,0.000795,0,,,,,,stimuli/images/PICTURE_311.png,FLESH,5ef63fc6a3fa221022fb6201,16/03/1997,2020-08-27_15h43.40.269,proactive3.2,2020.1.2,Win32,60,5f47c0b9b035471e11593a5c,5f47c676a258f80be388f66b,2,,,,,,razor,,,,,,,,,,,1,2,0,23,23,3,1,,,,,,,,,,,,,,,,,,,,,,,,,,,,,,,,,,,,,,,,,,,,,,,,,,,,,,,,,,,,,,,,,,,,,,
,,COPS,12.22907,1,,,,,,stimuli/images/PICTURE_654.png,COPS,5ef63fc6a3fa221022fb6201,16/03/1997,2020-08-27_15h43.40.269,proactive3.2,2020.1.2,Win32,60,5f47c0b9b035471e11593a5c,5f47c676a258f80be388f66b,2,,,,,,pencil,,,,,,,,,,,2,2,0,24,24,10,1,,,,,,,,,,,,,,,,,,,,,,,,,,,,,,,,,,,,,,,,,,,,,,,,,,,,,,,,,,,,,,,,,,,,,,
,,?,0.001205,0,,,,,,stimuli/images/PICTURE_708.png,VALLEY,5ef63fc6a3fa221022fb6201,16/03/1997,2020-08-27_15h43.40.269,proactive3.2,2020.1.2,Win32,60,5f47c0b9b035471e11593a5c,5f47c676a258f80be388f66b,2,,,,,,monkey,,,,,,,,,,,5,2,0,25,25,45,1,,,,,,,,,,,,,,,,,,,,,,,,,,,,,,,,,,,,,,,,,,,,,,,,,,,,,,,,,,,,,,,,,,,,,,
,,LEADER,8.805315,1,,,,,,stimuli/images/PICTURE_327.png,LEADER,5ef63fc6a3fa221022fb6201,16/03/1997,2020-08-27_15h43.40.269,proactive3.2,2020.1.2,Win32,60,5f47c0b9b035471e11593a5c,5f47c676a258f80be388f66b,2,,,,,,helmet,,,,,,,,,,,2,2,0,26,26,17,1,,,,,,,,,,,,,,,,,,,,,,,,,,,,,,,,,,,,,,,,,,,,,,,,,,,,,,,,,,,,,,,,,,,,,,
,,?,0.001145,0,,,,,,stimuli/images/PICTURE_18.png,RIVER,5ef63fc6a3fa221022fb6201,16/03/1997,2020-08-27_15h43.40.269,proactive3.2,2020.1.2,Win32,60,5f47c0b9b035471e11593a5c,5f47c676a258f80be388f66b,2,,,,,,planet,,,,,,,,,,,3,2,0,27,27,22,1,,,,,,,,,,,,,,,,,,,,,,,,,,,,,,,,,,,,,,,,,,,,,,,,,,,,,,,,,,,,,,,,,,,,,,
,,?,0.00091,0,,,,,,stimuli/images/PICTURE_654.png,YEAR,5ef63fc6a3fa221022fb6201,16/03/1997,2020-08-27_15h43.40.269,proactive3.2,2020.1.2,Win32,60,5f47c0b9b035471e11593a5c,5f47c676a258f80be388f66b,2,,,,,,pencil,,,,,,,,,,,5,2,0,28,28,41,1,,,,,,,,,,,,,,,,,,,,,,,,,,,,,,,,,,,,,,,,,,,,,,,,,,,,,,,,,,,,,,,,,,,,,,
,,?,0.000795,0,,,,,,stimuli/images/PICTURE_297.png,BODY,5ef63fc6a3fa221022fb6201,16/03/1997,2020-08-27_15h43.40.269,proactive3.2,2020.1.2,Win32,60,5f47c0b9b035471e11593a5c,5f47c676a258f80be388f66b,2,,,,,,aeroplane,,,,,,,,,,,6,2,0,29,29,51,1,,,,,,,,,,,,,,,,,,,,,,,,,,,,,,,,,,,,,,,,,,,,,,,,,,,,,,,,,,,,,,,,,,,,,,
,,?,0.00089,0,,,,,,stimuli/images/PICTURE_285.png,PRINCE,5ef63fc6a3fa221022fb6201,16/03/1997,2020-08-27_15h43.40.269,proactive3.2,2020.1.2,Win32,60,5f47c0b9b035471e11593a5c,5f47c676a258f80be388f66b,2,,,,,,carrot,,,,,,,,,,,3,2,0,30,30,20,1,,,,,,,,,,,,,,,,,,,,,,,,,,,,,,,,,,,,,,,,,,,,,,,,,,,,,,,,,,,,,,,,,,,,,,
,,?,0.000985,0,,,,,,stimuli/images/PICTURE_667.png,GLASS,5ef63fc6a3fa221022fb6201,16/03/1997,2020-08-27_15h43.40.269,proactive3.2,2020.1.2,Win32,60,5f47c0b9b035471e11593a5c,5f47c676a258f80be388f66b,2,,,,,,daisy,,,,,,,,,,,3,2,0,31,31,27,1,,,,,,,,,,,,,,,,,,,,,,,,,,,,,,,,,,,,,,,,,,,,,,,,,,,,,,,,,,,,,,,,,,,,,,
,,HOTEL,10.84177,1,,,,,,stimuli/images/PICTURE_160.png,HOTEL,5ef63fc6a3fa221022fb6201,16/03/1997,2020-08-27_15h43.40.269,proactive3.2,2020.1.2,Win32,60,5f47c0b9b035471e11593a5c,5f47c676a258f80be388f66b,2,,,,,,wheelbarrow,,,,,,,,,,,2,2,0,32,32,16,1,,,,,,,,,,,,,,,,,,,,,,,,,,,,,,,,,,,,,,,,,,,,,,,,,,,,,,,,,,,,,,,,,,,,,,
,,CLOCK,8.990435,1,,,,,,stimuli/images/PICTURE_296.png,CLOCK,5ef63fc6a3fa221022fb6201,16/03/1997,2020-08-27_15h43.40.269,proactive3.2,2020.1.2,Win32,60,5f47c0b9b035471e11593a5c,5f47c676a258f80be388f66b,2,,,,,,bolt,,,,,,,,,,,2,2,0,33,33,18,1,,,,,,,,,,,,,,,,,,,,,,,,,,,,,,,,,,,,,,,,,,,,,,,,,,,,,,,,,,,,,,,,,,,,,,
,,?,0.00199,0,,,,,,stimuli/images/PICTURE_123.png,SALE,5ef63fc6a3fa221022fb6201,16/03/1997,2020-08-27_15h43.40.269,proactive3.2,2020.1.2,Win32,60,5f47c0b9b035471e11593a5c,5f47c676a258f80be388f66b,2,,,,,,dart,,,,,,,,,,,1,2,0,34,34,8,1,,,,,,,,,,,,,,,,,,,,,,,,,,,,,,,,,,,,,,,,,,,,,,,,,,,,,,,,,,,,,,,,,,,,,,
,,?,0.001525,0,,,,,,stimuli/images/PICTURE_215.png,FOOD,5ef63fc6a3fa221022fb6201,16/03/1997,2020-08-27_15h43.40.269,proactive3.2,2020.1.2,Win32,60,5f47c0b9b035471e11593a5c,5f47c676a258f80be388f66b,2,,,,,,boot,,,,,,,,,,,1,2,0,35,35,5,1,,,,,,,,,,,,,,,,,,,,,,,,,,,,,,,,,,,,,,,,,,,,,,,,,,,,,,,,,,,,,,,,,,,,,,
,,?,0.000915,0,,,,,,stimuli/images/PICTURE_141.png,CLIENT,5ef63fc6a3fa221022fb6201,16/03/1997,2020-08-27_15h43.40.269,proactive3.2,2020.1.2,Win32,60,5f47c0b9b035471e11593a5c,5f47c676a258f80be388f66b,2,,,,,,sunflower,,,,,,,,,,,4,2,0,36,36,30,1,,,,,,,,,,,,,,,,,,,,,,,,,,,,,,,,,,,,,,,,,,,,,,,,,,,,,,,,,,,,,,,,,,,,,,
,,?,0.00082,0,,,,,,stimuli/images/PICTURE_405.png,HOUSE,5ef63fc6a3fa221022fb6201,16/03/1997,2020-08-27_15h43.40.269,proactive3.2,2020.1.2,Win32,60,5f47c0b9b035471e11593a5c,5f47c676a258f80be388f66b,2,,,,,,anchor,,,,,,,,,,,1,2,0,37,37,2,1,,,,,,,,,,,,,,,,,,,,,,,,,,,,,,,,,,,,,,,,,,,,,,,,,,,,,,,,,,,,,,,,,,,,,,
,,?,0.000825,0,,,,,,stimuli/images/PICTURE_504.png,HOUSE,5ef63fc6a3fa221022fb6201,16/03/1997,2020-08-27_15h43.40.269,proactive3.2,2020.1.2,Win32,60,5f47c0b9b035471e11593a5c,5f47c676a258f80be388f66b,2,,,,,,wheel,,,,,,,,,,,4,2,0,38,38,36,1,,,,,,,,,,,,,,,,,,,,,,,,,,,,,,,,,,,,,,,,,,,,,,,,,,,,,,,,,,,,,,,,,,,,,,
,,?,0.00081,0,,,,,,stimuli/images/PICTURE_147.png,LEADER,5ef63fc6a3fa221022fb6201,16/03/1997,2020-08-27_15h43.40.269,proactive3.2,2020.1.2,Win32,60,5f47c0b9b035471e11593a5c,5f47c676a258f80be388f66b,2,,,,,,hanger,,,,,,,,,,,4,2,0,39,39,33,1,,,,,,,,,,,,,,,,,,,,,,,,,,,,,,,,,,,,,,,,,,,,,,,,,,,,,,,,,,,,,,,,,,,,,,
,,?,0.0011,0,,,,,,stimuli/images/PICTURE_68.png,KIND,5ef63fc6a3fa221022fb6201,16/03/1997,2020-08-27_15h43.40.269,proactive3.2,2020.1.2,Win32,60,5f47c0b9b035471e11593a5c,5f47c676a258f80be388f66b,2,,,,,,candle,,,,,,,,,,,3,2,0,40,40,23,1,,,,,,,,,,,,,,,,,,,,,,,,,,,,,,,,,,,,,,,,,,,,,,,,,,,,,,,,,,,,,,,,,,,,,,
,,?,0.00082,0,,,,,,stimuli/images/PICTURE_177.png,HOUSE,5ef63fc6a3fa221022fb6201,16/03/1997,2020-08-27_15h43.40.269,proactive3.2,2020.1.2,Win32,60,5f47c0b9b035471e11593a5c,5f47c676a258f80be388f66b,2,,,,,,mushroom,,,,,,,,,,,3,2,0,41,41,25,1,,,,,,,,,,,,,,,,,,,,,,,,,,,,,,,,,,,,,,,,,,,,,,,,,,,,,,,,,,,,,,,,,,,,,,
,,?,0.00078,0,,,,,,stimuli/images/PICTURE_487.png,ROOF,5ef63fc6a3fa221022fb6201,16/03/1997,2020-08-27_15h43.40.269,proactive3.2,2020.1.2,Win32,60,5f47c0b9b035471e11593a5c,5f47c676a258f80be388f66b,2,,,,,,basket,,,,,,,,,,,6,2,0,42,42,50,1,,,,,,,,,,,,,,,,,,,,,,,,,,,,,,,,,,,,,,,,,,,,,,,,,,,,,,,,,,,,,,,,,,,,,,
,,?,0.000815,0,,,,,,stimuli/images/PICTURE_509.png,SHOTS,5ef63fc6a3fa221022fb6201,16/03/1997,2020-08-27_15h43.40.269,proactive3.2,2020.1.2,Win32,60,5f47c0b9b035471e11593a5c,5f47c676a258f80be388f66b,2,,,,,,telephone,,,,,,,,,,,1,2,0,43,43,7,1,,,,,,,,,,,,,,,,,,,,,,,,,,,,,,,,,,,,,,,,,,,,,,,,,,,,,,,,,,,,,,,,,,,,,,
,,PHOTO,6.11764,1,,,,,,stimuli/images/PICTURE_677.png,PHOTO,5ef63fc6a3fa221022fb6201,16/03/1997,2020-08-27_15h43.40.269,proactive3.2,2020.1.2,Win32,60,5f47c0b9b035471e11593a5c,5f47c676a258f80be388f66b,2,,,,,,map,,,,,,,,,,,2,2,0,44,44,14,1,,,,,,,,,,,,,,,,,,,,,,,,,,,,,,,,,,,,,,,,,,,,,,,,,,,,,,,,,,,,,,,,,,,,,,
,,?,0.00125,0,,,,,,stimuli/images/PICTURE_688.png,CLOCK,5ef63fc6a3fa221022fb6201,16/03/1997,2020-08-27_15h43.40.269,proactive3.2,2020.1.2,Win32,60,5f47c0b9b035471e11593a5c,5f47c676a258f80be388f66b,2,,,,,,runner,,,,,,,,,,,5,2,0,45,45,42,1,,,,,,,,,,,,,,,,,,,,,,,,,,,,,,,,,,,,,,,,,,,,,,,,,,,,,,,,,,,,,,,,,,,,,,
,,?,0.00083,0,,,,,,stimuli/images/PICTURE_470.png,MOMENT,5ef63fc6a3fa221022fb6201,16/03/1997,2020-08-27_15h43.40.269,proactive3.2,2020.1.2,Win32,60,5f47c0b9b035471e11593a5c,5f47c676a258f80be388f66b,2,,,,,,motorbike,,,,,,,,,,,5,2,0,46,46,40,1,,,,,,,,,,,,,,,,,,,,,,,,,,,,,,,,,,,,,,,,,,,,,,,,,,,,,,,,,,,,,,,,,,,,,,
,,?,0.00105,0,,,,,,stimuli/images/PICTURE_403.png,FAMILY,5ef63fc6a3fa221022fb6201,16/03/1997,2020-08-27_15h43.40.269,proactive3.2,2020.1.2,Win32,60,5f47c0b9b035471e11593a5c,5f47c676a258f80be388f66b,2,,,,,,cathedral,,,,,,,,,,,1,2,0,47,47,9,1,,,,,,,,,,,,,,,,,,,,,,,,,,,,,,,,,,,,,,,,,,,,,,,,,,,,,,,,,,,,,,,,,,,,,,
,,?,0.001065,0,,,,,,stimuli/images/PICTURE_208.png,SPIRIT,5ef63fc6a3fa221022fb6201,16/03/1997,2020-08-27_15h43.40.269,proactive3.2,2020.1.2,Win32,60,5f47c0b9b035471e11593a5c,5f47c676a258f80be388f66b,2,,,,,,microphone,,,,,,,,,,,3,2,0,48,48,28,1,,,,,,,,,,,,,,,,,,,,,,,,,,,,,,,,,,,,,,,,,,,,,,,,,,,,,,,,,,,,,,,,,,,,,,
,,BATH,10.795415,1,,,,,,stimuli/images/PICTURE_509.png,BATH,5ef63fc6a3fa221022fb6201,16/03/1997,2020-08-27_15h43.40.269,proactive3.2,2020.1.2,Win32,60,5f47c0b9b035471e11593a5c,5f47c676a258f80be388f66b,2,,,,,,telephone,,,,,,,,,,,2,2,0,49,49,15,1,,,,,,,,,,,,,,,,,,,,,,,,,,,,,,,,,,,,,,,,,,,,,,,,,,,,,,,,,,,,,,,,,,,,,,
,,?,0.00121,0,,,,,,stimuli/images/PICTURE_470.png,BEAUTY,5ef63fc6a3fa221022fb6201,16/03/1997,2020-08-27_15h43.40.269,proactive3.2,2020.1.2,Win32,60,5f47c0b9b035471e11593a5c,5f47c676a258f80be388f66b,2,,,,,,motorbike,,,,,,,,,,,3,2,0,50,50,26,1,,,,,,,,,,,,,,,,,,,,,,,,,,,,,,,,,,,,,,,,,,,,,,,,,,,,,,,,,,,,,,,,,,,,,,
,,?,0.00089,0,,,,,,stimuli/images/PICTURE_2.png,AREA,5ef63fc6a3fa221022fb6201,16/03/1997,2020-08-27_15h43.40.269,proactive3.2,2020.1.2,Win32,60,5f47c0b9b035471e11593a5c,5f47c676a258f80be388f66b,2,,,,,,tyre,,,,,,,,,,,4,2,0,51,51,32,1,,,,,,,,,,,,,,,,,,,,,,,,,,,,,,,,,,,,,,,,,,,,,,,,,,,,,,,,,,,,,,,,,,,,,,
,,?,0.00078,0,,,,,,stimuli/images/PICTURE_487.png,POLICY,5ef63fc6a3fa221022fb6201,16/03/1997,2020-08-27_15h43.40.269,proactive3.2,2020.1.2,Win32,60,5f47c0b9b035471e11593a5c,5f47c676a258f80be388f66b,2,,,,,,basket,,,,,,,,,,,4,2,0,52,52,34,1,,,,,,,,,,,,,,,,,,,,,,,,,,,,,,,,,,,,,,,,,,,,,,,,,,,,,,,,,,,,,,,,,,,,,,
,,?,0.00079,0,,,,,,stimuli/images/PICTURE_57.png,CANDY,5ef63fc6a3fa221022fb6201,16/03/1997,2020-08-27_15h43.40.269,proactive3.2,2020.1.2,Win32,60,5f47c0b9b035471e11593a5c,5f47c676a258f80be388f66b,2,,,,,,stamp,,,,,,,,,,,6,2,0,53,53,52,1,,,,,,,,,,,,,,,,,,,,,,,,,,,,,,,,,,,,,,,,,,,,,,,,,,,,,,,,,,,,,,,,,,,,,,
,,CASINO,9.26554,1,,,,,,stimuli/images/PICTURE_57.png,CASINO,5ef63fc6a3fa221022fb6201,16/03/1997,2020-08-27_15h43.40.269,proactive3.2,2020.1.2,Win32,60,5f47c0b9b035471e11593a5c,5f47c676a258f80be388f66b,2,,,,,,stamp,,,,,,,,,,,2,2,0,54,54,12,1,,,,,,,,,,,,,,,,,,,,,,,,,,,,,,,,,,,,,,,,,,,,,,,,,,,,,,,,,,,,,,,,,,,,,,
,,?,0.001175,0,,,,,,stimuli/images/PICTURE_509.png,APPLE,5ef63fc6a3fa221022fb6201,16/03/1997,2020-08-27_15h43.40.269,proactive3.2,2020.1.2,Win32,60,5f47c0b9b035471e11593a5c,5f47c676a258f80be388f66b,2,,,,,,telephone,,,,,,,,,,,4,2,0,55,55,38,1,,,,,,,,,,,,,,,,,,,,,,,,,,,,,,,,,,,,,,,,,,,,,,,,,,,,,,,,,,,,,,,,,,,,,,
,,?,0.000785,0,,,,,,stimuli/images/PICTURE_405.png,JUNGLE,5ef63fc6a3fa221022fb6201,16/03/1997,2020-08-27_15h43.40.269,proactive3.2,2020.1.2,Win32,60,5f47c0b9b035471e11593a5c,5f47c676a258f80be388f66b,2,,,,,,anchor,,,,,,,,,,,6,2,0,56,56,58,1,,,,,,,,,,,,,,,,,,,,,,,,,,,,,,,,,,,,,,,,,,,,,,,,,,,,,,,,,,,,,,,,,,,,,,
,,?,0.000775,0,,,,,,stimuli/images/PICTURE_348.png,DUDE,5ef63fc6a3fa221022fb6201,16/03/1997,2020-08-27_15h43.40.269,proactive3.2,2020.1.2,Win32,60,5f47c0b9b035471e11593a5c,5f47c676a258f80be388f66b,2,,,,,,pepper,,,,,,,,,,,6,2,0,57,57,59,1,,,,,,,,,,,,,,,,,,,,,,,,,,,,,,,,,,,,,,,,,,,,,,,,,,,,,,,,,,,,,,,,,,,,,,
,,PENNY,10.8492,1,,,,,,stimuli/images/PICTURE_255.png,PENNY,5ef63fc6a3fa221022fb6201,16/03/1997,2020-08-27_15h43.40.269,proactive3.2,2020.1.2,Win32,60,5f47c0b9b035471e11593a5c,5f47c676a258f80be388f66b,2,,,,,,shovel,,,,,,,,,,,2,2,0,58,58,19,1,,,,,,,,,,,,,,,,,,,,,,,,,,,,,,,,,,,,,,,,,,,,,,,,,,,,,,,,,,,,,,,,,,,,,,
,,?,0.001265,0,,,,,,stimuli/images/PICTURE_677.png,FAMILY,5ef63fc6a3fa221022fb6201,16/03/1997,2020-08-27_15h43.40.269,proactive3.2,2020.1.2,Win32,60,5f47c0b9b035471e11593a5c,5f47c676a258f80be388f66b,2,,,,,,map,,,,,,,,,,,6,2,0,59,59,53,1,,,,,,,,,,,,,,,,,,,,,,,,,,,,,,,,,,,,,,,,,,,,,,,,,,,,,,,,,,,,,,,,,,,,,,
,,,,,,,,,,,,5ef63fc6a3fa221022fb6201,16/03/1997,2020-08-27_15h43.40.269,proactive3.2,2020.1.2,Win32,60,5f47c0b9b035471e11593a5c,5f47c676a258f80be388f66b,2,,,,,,,,,,,,,,,,,,,,,,,,0,0,0,2,1,stimuli/learn-block3.csv,,,,,,,,,,,,,,,,,,,,,,,,,,,,,,,,,,,,,,,,,,,,,,,,,,,,,,,,,,,,,,,,
,,,,,,,,,,stimuli/images/PICTURE_285.png,LIFE,5ef63fc6a3fa221022fb6201,16/03/1997,2020-08-27_15h43.40.269,proactive3.2,2020.1.2,Win32,60,5f47c0b9b035471e11593a5c,5f47c676a258f80be388f66b,2,,,,,,carrot,,,,,,0,0,0,33,1,4,1,,,,,,,,,,,,,,,,,,,,,,,,,,,,,,,,,,,,,,,,,,,,,,,,,,,,,,,,,,,,,,,,,,,,,,,,,,,
,,,,,,,,,,stimuli/images/PICTURE_467.png,POLICY,5ef63fc6a3fa221022fb6201,16/03/1997,2020-08-27_15h43.40.269,proactive3.2,2020.1.2,Win32,60,5f47c0b9b035471e11593a5c,5f47c676a258f80be388f66b,2,,,,,,peg,,,,,,0,1,1,53,1,6,1,,,,,,,,,,,,,,,,,,,,,,,,,,,,,,,,,,,,,,,,,,,,,,,,,,,,,,,,,,,,,,,,,,,,,,,,,,,
,,,,,,,,,,stimuli/images/PICTURE_95.png,MILLER,5ef63fc6a3fa221022fb6201,16/03/1997,2020-08-27_15h43.40.269,proactive3.2,2020.1.2,Win32,60,5f47c0b9b035471e11593a5c,5f47c676a258f80be388f66b,2,,,,,,suitcase,,,,,,0,2,2,56,1,6,1,,,,,,,,,,,,,,,,,,,,,,,,,,,,,,,,,,,,,,,,,,,,,,,,,,,,,,,,,,,,,,,,,,,,,,,,,,,
,,,,,,,,,,stimuli/images/PICTURE_339.png,CLIENT,5ef63fc6a3fa221022fb6201,16/03/1997,2020-08-27_15h43.40.269,proactive3.2,2020.1.2,Win32,60,5f47c0b9b035471e11593a5c,5f47c676a258f80be388f66b,2,,,,,,backpack,,,,,,0,3,3,11,1,2,1,,,,,,,,,,,,,,,,,,,,,,,,,,,,,,,,,,,,,,,,,,,,,,,,,,,,,,,,,,,,,,,,,,,,,,,,,,,
,,,,,,,,,,stimuli/images/PICTURE_685.png,PENNY,5ef63fc6a3fa221022fb6201,16/03/1997,2020-08-27_15h43.40.269,proactive3.2,2020.1.2,Win32,60,5f47c0b9b035471e11593a5c,5f47c676a258f80be388f66b,2,,,,,,goose,,,,,,0,4,4,4,1,1,1,,,,,,,,,,,,,,,,,,,,,,,,,,,,,,,,,,,,,,,,,,,,,,,,,,,,,,,,,,,,,,,,,,,,,,,,,,,
,,,,,,,,,,stimuli/images/PICTURE_203.png,NIGHT,5ef63fc6a3fa221022fb6201,16/03/1997,2020-08-27_15h43.40.269,proactive3.2,2020.1.2,Win32,60,5f47c0b9b035471e11593a5c,5f47c676a258f80be388f66b,2,,,,,,cap,,,,,,0,5,5,2,1,1,1,,,,,,,,,,,,,,,,,,,,,,,,,,,,,,,,,,,,,,,,,,,,,,,,,,,,,,,,,,,,,,,,,,,,,,,,,,,
,,,,,,,,,,stimuli/images/PICTURE_340.png,VALLEY,5ef63fc6a3fa221022fb6201,16/03/1997,2020-08-27_15h43.40.269,proactive3.2,2020.1.2,Win32,60,5f47c0b9b035471e11593a5c,5f47c676a258f80be388f66b,2,,,,,,mirror,,,,,,0,6,6,54,1,6,1,,,,,,,,,,,,,,,,,,,,,,,,,,,,,,,,,,,,,,,,,,,,,,,,,,,,,,,,,,,,,,,,,,,,,,,,,,,
,,,,,,,,,,stimuli/images/PICTURE_403.png,TOILET,5ef63fc6a3fa221022fb6201,16/03/1997,2020-08-27_15h43.40.269,proactive3.2,2020.1.2,Win32,60,5f47c0b9b035471e11593a5c,5f47c676a258f80be388f66b,2,,,,,,cathedral,,,,,,0,7,7,25,1,3,1,,,,,,,,,,,,,,,,,,,,,,,,,,,,,,,,,,,,,,,,,,,,,,,,,,,,,,,,,,,,,,,,,,,,,,,,,,,
,,,,,,,,,,stimuli/images/PICTURE_504.png,ARTIST,5ef63fc6a3fa221022fb6201,16/03/1997,2020-08-27_15h43.40.269,proactive3.2,2020.1.2,Win32,60,5f47c0b9b035471e11593a5c,5f47c676a258f80be388f66b,2,,,,,,wheel,,,,,,0,8,8,49,1,5,1,,,,,,,,,,,,,,,,,,,,,,,,,,,,,,,,,,,,,,,,,,,,,,,,,,,,,,,,,,,,,,,,,,,,,,,,,,,
,,,,,,,,,,stimuli/images/PICTURE_654.png,MONTH,5ef63fc6a3fa221022fb6201,16/03/1997,2020-08-27_15h43.40.269,proactive3.2,2020.1.2,Win32,60,5f47c0b9b035471e11593a5c,5f47c676a258f80be388f66b,2,,,,,,pencil,,,,,,0,9,9,29,1,3,1,,,,,,,,,,,,,,,,,,,,,,,,,,,,,,,,,,,,,,,,,,,,,,,,,,,,,,,,,,,,,,,,,,,,,,,,,,,
,,,,,,,,,,stimuli/images/PICTURE_177.png,WRITER,5ef63fc6a3fa221022fb6201,16/03/1997,2020-08-27_15h43.40.269,proactive3.2,2020.1.2,Win32,60,5f47c0b9b035471e11593a5c,5f47c676a258f80be388f66b,2,,,,,,mushroom,,,,,,0,10,10,41,1,5,1,,,,,,,,,,,,,,,,,,,,,,,,,,,,,,,,,,,,,,,,,,,,,,,,,,,,,,,,,,,,,,,,,,,,,,,,,,,
,,,,,,,,,,stimuli/images/PICTURE_383.png,WRITER,5ef63fc6a3fa221022fb6201,16/03/1997,2020-08-27_15h43.40.269,proactive3.2,2020.1.2,Win32,60,5f47c0b9b035471e11593a5c,5f47c676a258f80be388f66b,2,,,,,,coin,,,,,,0,11,11,28,1,3,1,,,,,,,,,,,,,,,,,,,,,,,,,,,,,,,,,,,,,,,,,,,,,,,,,,,,,,,,,,,,,,,,,,,,,,,,,,,
,,,,,,,,,,stimuli/images/PICTURE_504.png,YEAR,5ef63fc6a3fa221022fb6201,16/03/1997,2020-08-27_15h43.40.269,proactive3.2,2020.1.2,Win32,60,5f47c0b9b035471e11593a5c,5f47c676a258f80be388f66b,2,,,,,,wheel,,,,,,0,12,12,13,1,2,1,,,,,,,,,,,,,,,,,,,,,,,,,,,,,,,,,,,,,,,,,,,,,,,,,,,,,,,,,,,,,,,,,,,,,,,,,,,
,,,,,,,,,,stimuli/images/PICTURE_675.png,SALE,5ef63fc6a3fa221022fb6201,16/03/1997,2020-08-27_15h43.40.269,proactive3.2,2020.1.2,Win32,60,5f47c0b9b035471e11593a5c,5f47c676a258f80be388f66b,2,,,,,,windmill,,,,,,0,13,13,47,1,5,1,,,,,,,,,,,,,,,,,,,,,,,,,,,,,,,,,,,,,,,,,,,,,,,,,,,,,,,,,,,,,,,,,,,,,,,,,,,
,,,,,,,,,,stimuli/images/PICTURE_667.png,RIVER,5ef63fc6a3fa221022fb6201,16/03/1997,2020-08-27_15h43.40.269,proactive3.2,2020.1.2,Win32,60,5f47c0b9b035471e11593a5c,5f47c676a258f80be388f66b,2,,,,,,daisy,,,,,,0,14,14,10,1,2,1,,,,,,,,,,,,,,,,,,,,,,,,,,,,,,,,,,,,,,,,,,,,,,,,,,,,,,,,,,,,,,,,,,,,,,,,,,,
,,,,,,,,,,stimuli/images/PICTURE_405.png,PLENTY,5ef63fc6a3fa221022fb6201,16/03/1997,2020-08-27_15h43.40.269,proactive3.2,2020.1.2,Win32,60,5f47c0b9b035471e11593a5c,5f47c676a258f80be388f66b,2,,,,,,anchor,,,,,,0,15,15,23,1,3,1,,,,,,,,,,,,,,,,,,,,,,,,,,,,,,,,,,,,,,,,,,,,,,,,,,,,,,,,,,,,,,,,,,,,,,,,,,,
,,,,,,,,,,stimuli/images/PICTURE_68.png,ROOF,5ef63fc6a3fa221022fb6201,16/03/1997,2020-08-27_15h43.40.269,proactive3.2,2020.1.2,Win32,60,5f47c0b9b035471e11593a5c,5f47c676a258f80be388f66b,2,,,,,,candle,,,,,,0,16,16,38,1,4,1,,,,,,,,,,,,,,,,,,,,,,,,,,,,,,,,,,,,,,,,,,,,,,,,,,,,,,,,,,,,,,,,,,,,,,,,,,,
,,,,,,,,,,stimuli/images/PICTURE_296.png,LOTS,5ef63fc6a3fa221022fb6201,16/03/1997,2020-08-27_15h43.40.269,proactive3.2,2020.1.2,Win32,60,5f47c0b9b035471e11593a5c,5f47c676a258f80be388f66b,2,,,,,,bolt,,,,,,0,17,17,9,1,1,1,,,,,,,,,,,,,,,,,,,,,,,,,,,,,,,,,,,,,,,,,,,,,,,,,,,,,,,,,,,,,,,,,,,,,,,,,,,
,,,,,,,,,,stimuli/images/PICTURE_203.png,GODS,5ef63fc6a3fa221022fb6201,16/03/1997,2020-08-27_15h43.40.269,proactive3.2,2020.1.2,Win32,60,5f47c0b9b035471e11593a5c,5f47c676a258f80be388f66b,2,,,,,,cap,,,,,,0,18,18,30,1,4,1,,,,,,,,,,,,,,,,,,,,,,,,,,,,,,,,,,,,,,,,,,,,,,,,,,,,,,,,,,,,,,,,,,,,,,,,,,,
,,,,,,,,,,stimuli/images/PICTURE_380.png,CANDY,5ef63fc6a3fa221022fb6201,16/03/1997,2020-08-27_15h43.40.269,proactive3.2,2020.1.2,Win32,60,5f47c0b9b035471e11593a5c,5f47c676a258f80be388f66b,2,,,,,,gorilla,,,,,,0,19,19,0,1,1,1,,,,,,,,,,,,,,,,,,,,,,,,,,,,,,,,,,,,,,,,,,,,,,,,,,,,,,,,,,,,,,,,,,,,,,,,,,,
,,,,,,,,,,stimuli/images/PICTURE_147.png,WOMEN,5ef63fc6a3fa221022fb6201,16/03/1997,2020-08-27_15h43.40.269,proactive3.2,2020.1.2,Win32,60,5f47c0b9b035471e11593a5c,5f47c676a258f80be388f66b,2,,,,,,hanger,,,,,,0,20,20,7,1,1,1,,,,,,,,,,,,,,,,,,,,,,,,,,,,,,,,,,,,,,,,,,,,,,,,,,,,,,,,,,,,,,,,,,,,,,,,,,,
,,,,,,,,,,stimuli/images/PICTURE_32.png,PILLS,5ef63fc6a3fa221022fb6201,16/03/1997,2020-08-27_15h43.40.269,proactive3.2,2020.1.2,Win32,60,5f47c0b9b035471e11593a5c,5f47c676a258f80be388f66b,2,,,,,,crown,,,,,,0,21,21,18,1,2,1,,,,,,,,,,,,,,,,,,,,,,,,,,,,,,,,,,,,,,,,,,,,,,,,,,,,,,,,,,,,,,,,,,,,,,,,,,,
,,,,,,,,,,stimuli/images/PICTURE_85.png,NATION,5ef63fc6a3fa221022fb6201,16/03/1997,2020-08-27_15h43.40.269,proactive3.2,2020.1.2,Win32,60,5f47c0b9b035471e11593a5c,5f47c676a258f80be388f66b,2,,,,,,diamond,,,,,,0,22,22,5,1,1,1,,,,,,,,,,,,,,,,,,,,,,,,,,,,,,,,,,,,,,,,,,,,,,,,,,,,,,,,,,,,,,,,,,,,,,,,,,,
,,,,,,,,,,stimuli/images/PICTURE_108.png,POLICY,5ef63fc6a3fa221022fb6201,16/03/1997,2020-08-27_15h43.40.269,proactive3.2,2020.1.2,Win32,60,5f47c0b9b035471e11593a5c,5f47c676a258f80be388f66b,2,,,,,,calendar,,,,,,0,23,23,22,1,3,1,,,,,,,,,,,,,,,,,,,,,,,,,,,,,,,,,,,,,,,,,,,,,,,,,,,,,,,,,,,,,,,,,,,,,,,,,,,
,,,,,,,,,,stimuli/images/PICTURE_308.png,FAMILY,5ef63fc6a3fa221022fb6201,16/03/1997,2020-08-27_15h43.40.269,proactive3.2,2020.1.2,Win32,60,5f47c0b9b035471e11593a5c,5f47c676a258f80be388f66b,2,,,,,,dice,,,,,,0,24,24,36,1,4,1,,,,,,,,,,,,,,,,,,,,,,,,,,,,,,,,,,,,,,,,,,,,,,,,,,,,,,,,,,,,,,,,,,,,,,,,,,,
,,,,,,,,,,stimuli/images/PICTURE_708.png,RECORD,5ef63fc6a3fa221022fb6201,16/03/1997,2020-08-27_15h43.40.269,proactive3.2,2020.1.2,Win32,60,5f47c0b9b035471e11593a5c,5f47c676a258f80be388f66b,2,,,,,,monkey,,,,,,0,25,25,58,1,6,1,,,,,,,,,,,,,,,,,,,,,,,,,,,,,,,,,,,,,,,,,,,,,,,,,,,,,,,,,,,,,,,,,,,,,,,,,,,
,,,,,,,,,,stimuli/images/PICTURE_677.png,APPLE,5ef63fc6a3fa221022fb6201,16/03/1997,2020-08-27_15h43.40.269,proactive3.2,2020.1.2,Win32,60,5f47c0b9b035471e11593a5c,5f47c676a258f80be388f66b,2,,,,,,map,,,,,,0,26,26,43,1,5,1,,,,,,,,,,,,,,,,,,,,,,,,,,,,,,,,,,,,,,,,,,,,,,,,,,,,,,,,,,,,,,,,,,,,,,,,,,,
,,,,,,,,,,stimuli/images/PICTURE_469.png,AGENT,5ef63fc6a3fa221022fb6201,16/03/1997,2020-08-27_15h43.40.269,proactive3.2,2020.1.2,Win32,60,5f47c0b9b035471e11593a5c,5f47c676a258f80be388f66b,2,,,,,,stool,,,,,,0,27,27,16,1,2,1,,,,,,,,,,,,,,,,,,,,,,,,,,,,,,,,,,,,,,,,,,,,,,,,,,,,,,,,,,,,,,,,,,,,,,,,,,,
,,,,,,,,,,stimuli/images/PICTURE_95.png,HONEY,5ef63fc6a3fa221022fb6201,16/03/1997,2020-08-27_15h43.40.269,proactive3.2,2020.1.2,Win32,60,5f47c0b9b035471e11593a5c,5f47c676a258f80be388f66b,2,,,,,,suitcase,,,,,,0,28,28,44,1,5,1,,,,,,,,,,,,,,,,,,,,,,,,,,,,,,,,,,,,,,,,,,,,,,,,,,,,,,,,,,,,,,,,,,,,,,,,,,,
,,,,,,,,,,stimuli/images/PICTURE_68.png,MILE,5ef63fc6a3fa221022fb6201,16/03/1997,2020-08-27_15h43.40.269,proactive3.2,2020.1.2,Win32,60,5f47c0b9b035471e11593a5c,5f47c676a258f80be388f66b,2,,,,,,candle,,,,,,0,29,29,51,1,6,1,,,,,,,,,,,,,,,,,,,,,,,,,,,,,,,,,,,,,,,,,,,,,,,,,,,,,,,,,,,,,,,,,,,,,,,,,,,
,,,,,,,,,,stimuli/images/PICTURE_744.png,WEAPON,5ef63fc6a3fa221022fb6201,16/03/1997,2020-08-27_15h43.40.269,proactive3.2,2020.1.2,Win32,60,5f47c0b9b035471e11593a5c,5f47c676a258f80be388f66b,2,,,,,,ring,,,,,,0,30,30,50,1,6,1,,,,,,,,,,,,,,,,,,,,,,,,,,,,,,,,,,,,,,,,,,,,,,,,,,,,,,,,,,,,,,,,,,,,,,,,,,,
,,,,,,,,,,stimuli/images/PICTURE_33.png,FRIEND,5ef63fc6a3fa221022fb6201,16/03/1997,2020-08-27_15h43.40.269,proactive3.2,2020.1.2,Win32,60,5f47c0b9b035471e11593a5c,5f47c676a258f80be388f66b,2,,,,,,frame,,,,,,0,31,31,8,1,1,1,,,,,,,,,,,,,,,,,,,,,,,,,,,,,,,,,,,,,,,,,,,,,,,,,,,,,,,,,,,,,,,,,,,,,,,,,,,
,,,,,,,,,,stimuli/images/PICTURE_405.png,YEAR,5ef63fc6a3fa221022fb6201,16/03/1997,2020-08-27_15h43.40.269,proactive3.2,2020.1.2,Win32,60,5f47c0b9b035471e11593a5c,5f47c676a258f80be388f66b,2,,,,,,anchor,,,,,,0,32,32,34,1,4,1,,,,,,,,,,,,,,,,,,,,,,,,,,,,,,,,,,,,,,,,,,,,,,,,,,,,,,,,,,,,,,,,,,,,,,,,,,,
,,,,,,,,,,stimuli/images/PICTURE_491.png,GLASS,5ef63fc6a3fa221022fb6201,16/03/1997,2020-08-27_15h43.40.269,proactive3.2,2020.1.2,Win32,60,5f47c0b9b035471e11593a5c,5f47c676a258f80be388f66b,2,,,,,,rug,,,,,,0,33,33,14,1,2,1,,,,,,,,,,,,,,,,,,,,,,,,,,,,,,,,,,,,,,,,,,,,,,,,,,,,,,,,,,,,,,,,,,,,,,,,,,,
,,,,,,,,,,stimuli/images/PICTURE_108.png,FLIGHT,5ef63fc6a3fa221022fb6201,16/03/1997,2020-08-27_15h43.40.269,proactive3.2,2020.1.2,Win32,60,5f47c0b9b035471e11593a5c,5f47c676a258f80be388f66b,2,,,,,,calendar,,,,,,0,34,34,59,1,6,1,,,,,,,,,,,,,,,,,,,,,,,,,,,,,,,,,,,,,,,,,,,,,,,,,,,,,,,,,,,,,,,,,,,,,,,,,,,
,,,,,,,,,,stimuli/images/PICTURE_383.png,SERIES,5ef63fc6a3fa221022fb6201,16/03/1997,2020-08-27_15h43.40.269,proactive3.2,2020.1.2,Win32,60,5f47c0b9b035471e11593a5c,5f47c676a258f80be388f66b,2,,,,,,coin,,,,,,0,35,35,46,1,5,1,,,,,,,,,,,,,,,,,,,,,,,,,,,,,,,,,,,,,,,,,,,,,,,,,,,,,,,,,,,,,,,,,,,,,,,,,,,
,,,,,,,,,,stimuli/images/PICTURE_750.png,HOTEL,5ef63fc6a3fa221022fb6201,16/03/1997,2020-08-27_15h43.40.269,proactive3.2,2020.1.2,Win32,60,5f47c0b9b035471e11593a5c,5f47c676a258f80be388f66b,2,,,,,,kettle,,,,,,0,36,36,27,1,3,1,,,,,,,,,,,,,,,,,,,,,,,,,,,,,,,,,,,,,,,,,,,,,,,,,,,,,,,,,,,,,,,,,,,,,,,,,,,
,,,,,,,,,,stimuli/images/PICTURE_655.png,TOILET,5ef63fc6a3fa221022fb6201,16/03/1997,2020-08-27_15h43.40.269,proactive3.2,2020.1.2,Win32,60,5f47c0b9b035471e11593a5c,5f47c676a258f80be388f66b,2,,,,,,megaphone,,,,,,0,37,37,12,1,2,1,,,,,,,,,,,,,,,,,,,,,,,,,,,,,,,,,,,,,,,,,,,,,,,,,,,,,,,,,,,,,,,,,,,,,,,,,,,
,,,,,,,,,,stimuli/images/PICTURE_208.png,SYSTEM,5ef63fc6a3fa221022fb6201,16/03/1997,2020-08-27_15h43.40.269,proactive3.2,2020.1.2,Win32,60,5f47c0b9b035471e11593a5c,5f47c676a258f80be388f66b,2,,,,,,microphone,,,,,,0,38,38,32,1,4,1,,,,,,,,,,,,,,,,,,,,,,,,,,,,,,,,,,,,,,,,,,,,,,,,,,,,,,,,,,,,,,,,,,,,,,,,,,,
,,,,,,,,,,stimuli/images/PICTURE_297.png,RIVER,5ef63fc6a3fa221022fb6201,16/03/1997,2020-08-27_15h43.40.269,proactive3.2,2020.1.2,Win32,60,5f47c0b9b035471e11593a5c,5f47c676a258f80be388f66b,2,,,,,,aeroplane,,,,,,0,39,39,39,1,4,1,,,,,,,,,,,,,,,,,,,,,,,,,,,,,,,,,,,,,,,,,,,,,,,,,,,,,,,,,,,,,,,,,,,,,,,,,,,
,,,,,,,,,,stimuli/images/PICTURE_147.png,YEAR,5ef63fc6a3fa221022fb6201,16/03/1997,2020-08-27_15h43.40.269,proactive3.2,2020.1.2,Win32,60,5f47c0b9b035471e11593a5c,5f47c676a258f80be388f66b,2,,,,,,hanger,,,,,,0,40,40,21,1,3,1,,,,,,,,,,,,,,,,,,,,,,,,,,,,,,,,,,,,,,,,,,,,,,,,,,,,,,,,,,,,,,,,,,,,,,,,,,,
,,,,,,,,,,stimuli/images/PICTURE_380.png,HONEY,5ef63fc6a3fa221022fb6201,16/03/1997,2020-08-27_15h43.40.269,proactive3.2,2020.1.2,Win32,60,5f47c0b9b035471e11593a5c,5f47c676a258f80be388f66b,2,,,,,,gorilla,,,,,,0,41,41,19,1,2,1,,,,,,,,,,,,,,,,,,,,,,,,,,,,,,,,,,,,,,,,,,,,,,,,,,,,,,,,,,,,,,,,,,,,,,,,,,,
,,,,,,,,,,stimuli/images/PICTURE_85.png,TOILET,5ef63fc6a3fa221022fb6201,16/03/1997,2020-08-27_15h43.40.269,proactive3.2,2020.1.2,Win32,60,5f47c0b9b035471e11593a5c,5f47c676a258f80be388f66b,2,,,,,,diamond,,,,,,0,42,42,48,1,5,1,,,,,,,,,,,,,,,,,,,,,,,,,,,,,,,,,,,,,,,,,,,,,,,,,,,,,,,,,,,,,,,,,,,,,,,,,,,
,,,,,,,,,,stimuli/images/PICTURE_32.png,KIND,5ef63fc6a3fa221022fb6201,16/03/1997,2020-08-27_15h43.40.269,proactive3.2,2020.1.2,Win32,60,5f47c0b9b035471e11593a5c,5f47c676a258f80be388f66b,2,,,,,,crown,,,,,,0,43,43,35,1,4,1,,,,,,,,,,,,,,,,,,,,,,,,,,,,,,,,,,,,,,,,,,,,,,,,,,,,,,,,,,,,,,,,,,,,,,,,,,,
,,,,,,,,,,stimuli/images/PICTURE_504.png,COPS,5ef63fc6a3fa221022fb6201,16/03/1997,2020-08-27_15h43.40.269,proactive3.2,2020.1.2,Win32,60,5f47c0b9b035471e11593a5c,5f47c676a258f80be388f66b,2,,,,,,wheel,,,,,,0,44,44,52,1,6,1,,,,,,,,,,,,,,,,,,,,,,,,,,,,,,,,,,,,,,,,,,,,,,,,,,,,,,,,,,,,,,,,,,,,,,,,,,,
,,,,,,,,,,stimuli/images/PICTURE_491.png,RIVER,5ef63fc6a3fa221022fb6201,16/03/1997,2020-08-27_15h43.40.269,proactive3.2,2020.1.2,Win32,60,5f47c0b9b035471e11593a5c,5f47c676a258f80be388f66b,2,,,,,,rug,,,,,,0,45,45,6,1,1,1,,,,,,,,,,,,,,,,,,,,,,,,,,,,,,,,,,,,,,,,,,,,,,,,,,,,,,,,,,,,,,,,,,,,,,,,,,,
,,,,,,,,,,stimuli/images/PICTURE_327.png,CASINO,5ef63fc6a3fa221022fb6201,16/03/1997,2020-08-27_15h43.40.269,proactive3.2,2020.1.2,Win32,60,5f47c0b9b035471e11593a5c,5f47c676a258f80be388f66b,2,,,,,,helmet,,,,,,0,46,46,20,1,3,1,,,,,,,,,,,,,,,,,,,,,,,,,,,,,,,,,,,,,,,,,,,,,,,,,,,,,,,,,,,,,,,,,,,,,,,,,,,
,,,,,,,,,,stimuli/images/PICTURE_233.png,LOTS,5ef63fc6a3fa221022fb6201,16/03/1997,2020-08-27_15h43.40.269,proactive3.2,2020.1.2,Win32,60,5f47c0b9b035471e11593a5c,5f47c676a258f80be388f66b,2,,,,,,salt,,,,,,0,47,47,42,1,5,1,,,,,,,,,,,,,,,,,,,,,,,,,,,,,,,,,,,,,,,,,,,,,,,,,,,,,,,,,,,,,,,,,,,,,,,,,,,
,,,,,,,,,,stimuli/images/PICTURE_2.png,FLIGHT,5ef63fc6a3fa221022fb6201,16/03/1997,2020-08-27_15h43.40.269,proactive3.2,2020.1.2,Win32,60,5f47c0b9b035471e11593a5c,5f47c676a258f80be388f66b,2,,,,,,tyre,,,,,,0,48,48,15,1,2,1,,,,,,,,,,,,,,,,,,,,,,,,,,,,,,,,,,,,,,,,,,,,,,,,,,,,,,,,,,,,,,,,,,,,,,,,,,,
,,,,,,,,,,stimuli/images/PICTURE_487.png,GIRL,5ef63fc6a3fa221022fb6201,16/03/1997,2020-08-27_15h43.40.269,proactive3.2,2020.1.2,Win32,60,5f47c0b9b035471e11593a5c,5f47c676a258f80be388f66b,2,,,,,,basket,,,,,,0,49,49,45,1,5,1,,,,,,,,,,,,,,,,,,,,,,,,,,,,,,,,,,,,,,,,,,,,,,,,,,,,,,,,,,,,,,,,,,,,,,,,,,,
,,,,,,,,,,stimuli/images/PICTURE_449.png,DUDE,5ef63fc6a3fa221022fb6201,16/03/1997,2020-08-27_15h43.40.269,proactive3.2,2020.1.2,Win32,60,5f47c0b9b035471e11593a5c,5f47c676a258f80be388f66b,2,,,,,,bench,,,,,,0,50,50,17,1,2,1,,,,,,,,,,,,,,,,,,,,,,,,,,,,,,,,,,,,,,,,,,,,,,,,,,,,,,,,,,,,,,,,,,,,,,,,,,,
,,,,,,,,,,stimuli/images/PICTURE_327.png,SERIES,5ef63fc6a3fa221022fb6201,16/03/1997,2020-08-27_15h43.40.269,proactive3.2,2020.1.2,Win32,60,5f47c0b9b035471e11593a5c,5f47c676a258f80be388f66b,2,,,,,,helmet,,,,,,0,51,51,3,1,1,1,,,,,,,,,,,,,,,,,,,,,,,,,,,,,,,,,,,,,,,,,,,,,,,,,,,,,,,,,,,,,,,,,,,,,,,,,,,
,,,,,,,,,,stimuli/images/PICTURE_42.png,BOYS,5ef63fc6a3fa221022fb6201,16/03/1997,2020-08-27_15h43.40.269,proactive3.2,2020.1.2,Win32,60,5f47c0b9b035471e11593a5c,5f47c676a258f80be388f66b,2,,,,,,pear,,,,,,0,52,52,55,1,6,1,,,,,,,,,,,,,,,,,,,,,,,,,,,,,,,,,,,,,,,,,,,,,,,,,,,,,,,,,,,,,,,,,,,,,,,,,,,
,,,,,,,,,,stimuli/images/PICTURE_296.png,LIFE,5ef63fc6a3fa221022fb6201,16/03/1997,2020-08-27_15h43.40.269,proactive3.2,2020.1.2,Win32,60,5f47c0b9b035471e11593a5c,5f47c676a258f80be388f66b,2,,,,,,bolt,,,,,,0,53,53,57,1,6,1,,,,,,,,,,,,,,,,,,,,,,,,,,,,,,,,,,,,,,,,,,,,,,,,,,,,,,,,,,,,,,,,,,,,,,,,,,,
,,,,,,,,,,stimuli/images/PICTURE_95.png,BOYS,5ef63fc6a3fa221022fb6201,16/03/1997,2020-08-27_15h43.40.269,proactive3.2,2020.1.2,Win32,60,5f47c0b9b035471e11593a5c,5f47c676a258f80be388f66b,2,,,,,,suitcase,,,,,,0,54,54,1,1,1,1,,,,,,,,,,,,,,,,,,,,,,,,,,,,,,,,,,,,,,,,,,,,,,,,,,,,,,,,,,,,,,,,,,,,,,,,,,,
,,,,,,,,,,stimuli/images/PICTURE_564.png,BATH,5ef63fc6a3fa221022fb6201,16/03/1997,2020-08-27_15h43.40.269,proactive3.2,2020.1.2,Win32,60,5f47c0b9b035471e11593a5c,5f47c676a258f80be388f66b,2,,,,,,spoon,,,,,,0,55,55,26,1,3,1,,,,,,,,,,,,,,,,,,,,,,,,,,,,,,,,,,,,,,,,,,,,,,,,,,,,,,,,,,,,,,,,,,,,,,,,,,,
,,,,,,,,,,stimuli/images/PICTURE_57.png,MOMENT,5ef63fc6a3fa221022fb6201,16/03/1997,2020-08-27_15h43.40.269,proactive3.2,2020.1.2,Win32,60,5f47c0b9b035471e11593a5c,5f47c676a258f80be388f66b,2,,,,,,stamp,,,,,,0,56,56,37,1,4,1,,,,,,,,,,,,,,,,,,,,,,,,,,,,,,,,,,,,,,,,,,,,,,,,,,,,,,,,,,,,,,,,,,,,,,,,,,,
,,,,,,,,,,stimuli/images/PICTURE_403.png,RIVER,5ef63fc6a3fa221022fb6201,16/03/1997,2020-08-27_15h43.40.269,proactive3.2,2020.1.2,Win32,60,5f47c0b9b035471e11593a5c,5f47c676a258f80be388f66b,2,,,,,,cathedral,,,,,,0,57,57,40,1,5,1,,,,,,,,,,,,,,,,,,,,,,,,,,,,,,,,,,,,,,,,,,,,,,,,,,,,,,,,,,,,,,,,,,,,,,,,,,,
,,,,,,,,,,stimuli/images/PICTURE_403.png,WRITER,5ef63fc6a3fa221022fb6201,16/03/1997,2020-08-27_15h43.40.269,proactive3.2,2020.1.2,Win32,60,5f47c0b9b035471e11593a5c,5f47c676a258f80be388f66b,2,,,,,,cathedral,,,,,,0,58,58,31,1,4,1,,,,,,,,,,,,,,,,,,,,,,,,,,,,,,,,,,,,,,,,,,,,,,,,,,,,,,,,,,,,,,,,,,,,,,,,,,,
,,?,0.00114,0,,,,,,stimuli/images/PICTURE_340.png,VALLEY,5ef63fc6a3fa221022fb6201,16/03/1997,2020-08-27_15h43.40.269,proactive3.2,2020.1.2,Win32,60,5f47c0b9b035471e11593a5c,5f47c676a258f80be388f66b,2,,,,,,mirror,,,,,,,,,,,6,1,0,0,0,54,1,,,,,,,,,,,,,,,,,,,,,,,,,,,,,,,,,,,,,,,,,,,,,,,,,,,,,,,,,,,,,,,,,,,,,,
,,?,0.00088,0,,,,,,stimuli/images/PICTURE_308.png,FAMILY,5ef63fc6a3fa221022fb6201,16/03/1997,2020-08-27_15h43.40.269,proactive3.2,2020.1.2,Win32,60,5f47c0b9b035471e11593a5c,5f47c676a258f80be388f66b,2,,,,,,dice,,,,,,,,,,,4,1,0,1,1,36,1,,,,,,,,,,,,,,,,,,,,,,,,,,,,,,,,,,,,,,,,,,,,,,,,,,,,,,,,,,,,,,,,,,,,,,
,,?,0.000885,0,,,,,,stimuli/images/PICTURE_327.png,SERIES,5ef63fc6a3fa221022fb6201,16/03/1997,2020-08-27_15h43.40.269,proactive3.2,2020.1.2,Win32,60,5f47c0b9b035471e11593a5c,5f47c676a258f80be388f66b,2,,,,,,helmet,,,,,,,,,,,1,1,0,2,2,3,1,,,,,,,,,,,,,,,,,,,,,,,,,,,,,,,,,,,,,,,,,,,,,,,,,,,,,,,,,,,,,,,,,,,,,,
,,?,0.000805,0,,,,,,stimuli/images/PICTURE_297.png,RIVER,5ef63fc6a3fa221022fb6201,16/03/1997,2020-08-27_15h43.40.269,proactive3.2,2020.1.2,Win32,60,5f47c0b9b035471e11593a5c,5f47c676a258f80be388f66b,2,,,,,,aeroplane,,,,,,,,,,,4,1,0,3,3,39,1,,,,,,,,,,,,,,,,,,,,,,,,,,,,,,,,,,,,,,,,,,,,,,,,,,,,,,,,,,,,,,,,,,,,,,
,,?,0.00279,0,,,,,,stimuli/images/PICTURE_327.png,CASINO,5ef63fc6a3fa221022fb6201,16/03/1997,2020-08-27_15h43.40.269,proactive3.2,2020.1.2,Win32,60,5f47c0b9b035471e11593a5c,5f47c676a258f80be388f66b,2,,,,,,helmet,,,,,,,,,,,3,1,0,4,4,20,1,,,,,,,,,,,,,,,,,,,,,,,,,,,,,,,,,,,,,,,,,,,,,,,,,,,,,,,,,,,,,,,,,,,,,,
,,?,0.000815,0,,,,,,stimuli/images/PICTURE_380.png,CANDY,5ef63fc6a3fa221022fb6201,16/03/1997,2020-08-27_15h43.40.269,proactive3.2,2020.1.2,Win32,60,5f47c0b9b035471e11593a5c,5f47c676a258f80be388f66b,2,,,,,,gorilla,,,,,,,,,,,1,1,0,5,5,0,1,,,,,,,,,,,,,,,,,,,,,,,,,,,,,,,,,,,,,,,,,,,,,,,,,,,,,,,,,,,,,,,,,,,,,,
,,?,0.000845,0,,,,,,stimuli/images/PICTURE_95.png,HONEY,5ef63fc6a3fa221022fb6201,16/03/1997,2020-08-27_15h43.40.269,proactive3.2,2020.1.2,Win32,60,5f47c0b9b035471e11593a5c,5f47c676a258f80be388f66b,2,,,,,,suitcase,,,,,,,,,,,5,1,0,6,6,44,1,,,,,,,,,,,,,,,,,,,,,,,,,,,,,,,,,,,,,,,,,,,,,,,,,,,,,,,,,,,,,,,,,,,,,,
,,?,0.00076,0,,,,,,stimuli/images/PICTURE_677.png,APPLE,5ef63fc6a3fa221022fb6201,16/03/1997,2020-08-27_15h43.40.269,proactive3.2,2020.1.2,Win32,60,5f47c0b9b035471e11593a5c,5f47c676a258f80be388f66b,2,,,,,,map,,,,,,,,,,,5,1,0,7,7,43,1,,,,,,,,,,,,,,,,,,,,,,,,,,,,,,,,,,,,,,,,,,,,,,,,,,,,,,,,,,,,,,,,,,,,,,
,,?,0.000765,0,,,,,,stimuli/images/PICTURE_147.png,WOMEN,5ef63fc6a3fa221022fb6201,16/03/1997,2020-08-27_15h43.40.269,proactive3.2,2020.1.2,Win32,60,5f47c0b9b035471e11593a5c,5f47c676a258f80be388f66b,2,,,,,,hanger,,,,,,,,,,,1,1,0,8,8,7,1,,,,,,,,,,,,,,,,,,,,,,,,,,,,,,,,,,,,,,,,,,,,,,,,,,,,,,,,,,,,,,,,,,,,,,
,,TOILE,15.006225,0,,,,,,stimuli/images/PICTURE_655.png,TOILET,5ef63fc6a3fa221022fb6201,16/03/1997,2020-08-27_15h43.40.269,proactive3.2,2020.1.2,Win32,60,5f47c0b9b035471e11593a5c,5f47c676a258f80be388f66b,2,,,,,,megaphone,,,,,,,,,,,2,1,0,9,9,12,1,,,,,,,,,,,,,,,,,,,,,,,,,,,,,,,,,,,,,,,,,,,,,,,,,,,,,,,,,,,,,,,,,,,,,,
,,?,0.001215,0,,,,,,stimuli/images/PICTURE_233.png,LOTS,5ef63fc6a3fa221022fb6201,16/03/1997,2020-08-27_15h43.40.269,proactive3.2,2020.1.2,Win32,60,5f47c0b9b035471e11593a5c,5f47c676a258f80be388f66b,2,,,,,,salt,,,,,,,,,,,5,1,0,10,10,42,1,,,,,,,,,,,,,,,,,,,,,,,,,,,,,,,,,,,,,,,,,,,,,,,,,,,,,,,,,,,,,,,,,,,,,,
,,?,0.000855,0,,,,,,stimuli/images/PICTURE_403.png,WRITER,5ef63fc6a3fa221022fb6201,16/03/1997,2020-08-27_15h43.40.269,proactive3.2,2020.1.2,Win32,60,5f47c0b9b035471e11593a5c,5f47c676a258f80be388f66b,2,,,,,,cathedral,,,,,,,,,,,4,1,0,11,11,31,1,,,,,,,,,,,,,,,,,,,,,,,,,,,,,,,,,,,,,,,,,,,,,,,,,,,,,,,,,,,,,,,,,,,,,,
,,?,0.000805,0,,,,,,stimuli/images/PICTURE_750.png,HOTEL,5ef63fc6a3fa221022fb6201,16/03/1997,2020-08-27_15h43.40.269,proactive3.2,2020.1.2,Win32,60,5f47c0b9b035471e11593a5c,5f47c676a258f80be388f66b,2,,,,,,kettle,,,,,,,,,,,3,1,0,12,12,27,1,,,,,,,,,,,,,,,,,,,,,,,,,,,,,,,,,,,,,,,,,,,,,,,,,,,,,,,,,,,,,,,,,,,,,,
,,?,0.000865,0,,,,,,stimuli/images/PICTURE_85.png,TOILET,5ef63fc6a3fa221022fb6201,16/03/1997,2020-08-27_15h43.40.269,proactive3.2,2020.1.2,Win32,60,5f47c0b9b035471e11593a5c,5f47c676a258f80be388f66b,2,,,,,,diamond,,,,,,,,,,,5,1,0,13,13,48,1,,,,,,,,,,,,,,,,,,,,,,,,,,,,,,,,,,,,,,,,,,,,,,,,,,,,,,,,,,,,,,,,,,,,,,
,,?,0.000875,0,,,,,,stimuli/images/PICTURE_383.png,SERIES,5ef63fc6a3fa221022fb6201,16/03/1997,2020-08-27_15h43.40.269,proactive3.2,2020.1.2,Win32,60,5f47c0b9b035471e11593a5c,5f47c676a258f80be388f66b,2,,,,,,coin,,,,,,,,,,,5,1,0,14,14,46,1,,,,,,,,,,,,,,,,,,,,,,,,,,,,,,,,,,,,,,,,,,,,,,,,,,,,,,,,,,,,,,,,,,,,,,
,,?,0.000795,0,,,,,,stimuli/images/PICTURE_296.png,LOTS,5ef63fc6a3fa221022fb6201,16/03/1997,2020-08-27_15h43.40.269,proactive3.2,2020.1.2,Win32,60,5f47c0b9b035471e11593a5c,5f47c676a258f80be388f66b,2,,,,,,bolt,,,,,,,,,,,1,1,0,15,15,9,1,,,,,,,,,,,,,,,,,,,,,,,,,,,,,,,,,,,,,,,,,,,,,,,,,,,,,,,,,,,,,,,,,,,,,,
,,?,0.00078,0,,,,,,stimuli/images/PICTURE_42.png,BOYS,5ef63fc6a3fa221022fb6201,16/03/1997,2020-08-27_15h43.40.269,proactive3.2,2020.1.2,Win32,60,5f47c0b9b035471e11593a5c,5f47c676a258f80be388f66b,2,,,,,,pear,,,,,,,,,,,6,1,0,16,16,55,1,,,,,,,,,,,,,,,,,,,,,,,,,,,,,,,,,,,,,,,,,,,,,,,,,,,,,,,,,,,,,,,,,,,,,,
,,?,0.00092,0,,,,,,stimuli/images/PICTURE_405.png,YEAR,5ef63fc6a3fa221022fb6201,16/03/1997,2020-08-27_15h43.40.269,proactive3.2,2020.1.2,Win32,60,5f47c0b9b035471e11593a5c,5f47c676a258f80be388f66b,2,,,,,,anchor,,,,,,,,,,,4,1,0,17,17,34,1,,,,,,,,,,,,,,,,,,,,,,,,,,,,,,,,,,,,,,,,,,,,,,,,,,,,,,,,,,,,,,,,,,,,,,
,,?,0.001,0,,,,,,stimuli/images/PICTURE_405.png,PLENTY,5ef63fc6a3fa221022fb6201,16/03/1997,2020-08-27_15h43.40.269,proactive3.2,2020.1.2,Win32,60,5f47c0b9b035471e11593a5c,5f47c676a258f80be388f66b,2,,,,,,anchor,,,,,,,,,,,3,1,0,18,18,23,1,,,,,,,,,,,,,,,,,,,,,,,,,,,,,,,,,,,,,,,,,,,,,,,,,,,,,,,,,,,,,,,,,,,,,,
,,?,0.0008,0,,,,,,stimuli/images/PICTURE_564.png,BATH,5ef63fc6a3fa221022fb6201,16/03/1997,2020-08-27_15h43.40.269,proactive3.2,2020.1.2,Win32,60,5f47c0b9b035471e11593a5c,5f47c676a258f80be388f66b,2,,,,,,spoon,,,,,,,,,,,3,1,0,19,19,26,1,,,,,,,,,,,,,,,,,,,,,,,,,,,,,,,,,,,,,,,,,,,,,,,,,,,,,,,,,,,,,,,,,,,,,,
,,?,0.00077,0,,,,,,stimuli/images/PICTURE_108.png,POLICY,5ef63fc6a3fa221022fb6201,16/03/1997,2020-08-27_15h43.40.269,proactive3.2,2020.1.2,Win32,60,5f47c0b9b035471e11593a5c,5f47c676a258f80be388f66b,2,,,,,,calendar,,,,,,,,,,,3,1,0,20,20,22,1,,,,,,,,,,,,,,,,,,,,,,,,,,,,,,,,,,,,,,,,,,,,,,,,,,,,,,,,,,,,,,,,,,,,,,
,,CLIENT,7.768705,1,,,,,,stimuli/images/PICTURE_339.png,CLIENT,5ef63fc6a3fa221022fb6201,16/03/1997,2020-08-27_15h43.40.269,proactive3.2,2020.1.2,Win32,60,5f47c0b9b035471e11593a5c,5f47c676a258f80be388f66b,2,,,,,,backpack,,,,,,,,,,,2,1,0,21,21,11,1,,,,,,,,,,,,,,,,,,,,,,,,,,,,,,,,,,,,,,,,,,,,,,,,,,,,,,,,,,,,,,,,,,,,,,
,,?,0.001155,0,,,,,,stimuli/images/PICTURE_68.png,ROOF,5ef63fc6a3fa221022fb6201,16/03/1997,2020-08-27_15h43.40.269,proactive3.2,2020.1.2,Win32,60,5f47c0b9b035471e11593a5c,5f47c676a258f80be388f66b,2,,,,,,candle,,,,,,,,,,,4,1,0,22,22,38,1,,,,,,,,,,,,,,,,,,,,,,,,,,,,,,,,,,,,,,,,,,,,,,,,,,,,,,,,,,,,,,,,,,,,,,
,,?,0.000805,0,,,,,,stimuli/images/PICTURE_208.png,SYSTEM,5ef63fc6a3fa221022fb6201,16/03/1997,2020-08-27_15h43.40.269,proactive3.2,2020.1.2,Win32,60,5f47c0b9b035471e11593a5c,5f47c676a258f80be388f66b,2,,,,,,microphone,,,,,,,,,,,4,1,0,23,23,32,1,,,,,,,,,,,,,,,,,,,,,,,,,,,,,,,,,,,,,,,,,,,,,,,,,,,,,,,,,,,,,,,,,,,,,,
,,?,0.00159,0,,,,,,stimuli/images/PICTURE_33.png,FRIEND,5ef63fc6a3fa221022fb6201,16/03/1997,2020-08-27_15h43.40.269,proactive3.2,2020.1.2,Win32,60,5f47c0b9b035471e11593a5c,5f47c676a258f80be388f66b,2,,,,,,frame,,,,,,,,,,,1,1,0,24,24,8,1,,,,,,,,,,,,,,,,,,,,,,,,,,,,,,,,,,,,,,,,,,,,,,,,,,,,,,,,,,,,,,,,,,,,,,
,,FLIGHT,6.768675,1,,,,,,stimuli/images/PICTURE_2.png,FLIGHT,5ef63fc6a3fa221022fb6201,16/03/1997,2020-08-27_15h43.40.269,proactive3.2,2020.1.2,Win32,60,5f47c0b9b035471e11593a5c,5f47c676a258f80be388f66b,2,,,,,,tyre,,,,,,,,,,,2,1,0,25,25,15,1,,,,,,,,,,,,,,,,,,,,,,,,,,,,,,,,,,,,,,,,,,,,,,,,,,,,,,,,,,,,,,,,,,,,,,
,,HONEY,5.95996,1,,,,,,stimuli/images/PICTURE_380.png,HONEY,5ef63fc6a3fa221022fb6201,16/03/1997,2020-08-27_15h43.40.269,proactive3.2,2020.1.2,Win32,60,5f47c0b9b035471e11593a5c,5f47c676a258f80be388f66b,2,,,,,,gorilla,,,,,,,,,,,2,1,0,26,26,19,1,,,,,,,,,,,,,,,,,,,,,,,,,,,,,,,,,,,,,,,,,,,,,,,,,,,,,,,,,,,,,,,,,,,,,,
,,?,0.0011,0,,,,,,stimuli/images/PICTURE_654.png,MONTH,5ef63fc6a3fa221022fb6201,16/03/1997,2020-08-27_15h43.40.269,proactive3.2,2020.1.2,Win32,60,5f47c0b9b035471e11593a5c,5f47c676a258f80be388f66b,2,,,,,,pencil,,,,,,,,,,,3,1,0,27,27,29,1,,,,,,,,,,,,,,,,,,,,,,,,,,,,,,,,,,,,,,,,,,,,,,,,,,,,,,,,,,,,,,,,,,,,,,
,,RIVER,5.225325,1,,,,,,stimuli/images/PICTURE_667.png,RIVER,5ef63fc6a3fa221022fb6201,16/03/1997,2020-08-27_15h43.40.269,proactive3.2,2020.1.2,Win32,60,5f47c0b9b035471e11593a5c,5f47c676a258f80be388f66b,2,,,,,,daisy,,,,,,,,,,,2,1,0,28,28,10,1,,,,,,,,,,,,,,,,,,,,,,,,,,,,,,,,,,,,,,,,,,,,,,,,,,,,,,,,,,,,,,,,,,,,,,
,,GLASS,8.20814,1,,,,,,stimuli/images/PICTURE_491.png,GLASS,5ef63fc6a3fa221022fb6201,16/03/1997,2020-08-27_15h43.40.269,proactive3.2,2020.1.2,Win32,60,5f47c0b9b035471e11593a5c,5f47c676a258f80be388f66b,2,,,,,,rug,,,,,,,,,,,2,1,0,29,29,14,1,,,,,,,,,,,,,,,,,,,,,,,,,,,,,,,,,,,,,,,,,,,,,,,,,,,,,,,,,,,,,,,,,,,,,,
,,?,0.001175,0,,,,,,stimuli/images/PICTURE_177.png,WRITER,5ef63fc6a3fa221022fb6201,16/03/1997,2020-08-27_15h43.40.269,proactive3.2,2020.1.2,Win32,60,5f47c0b9b035471e11593a5c,5f47c676a258f80be388f66b,2,,,,,,mushroom,,,,,,,,,,,5,1,0,30,30,41,1,,,,,,,,,,,,,,,,,,,,,,,,,,,,,,,,,,,,,,,,,,,,,,,,,,,,,,,,,,,,,,,,,,,,,,
,,?,0.000995,0,,,,,,stimuli/images/PICTURE_383.png,WRITER,5ef63fc6a3fa221022fb6201,16/03/1997,2020-08-27_15h43.40.269,proactive3.2,2020.1.2,Win32,60,5f47c0b9b035471e11593a5c,5f47c676a258f80be388f66b,2,,,,,,coin,,,,,,,,,,,3,1,0,31,31,28,1,,,,,,,,,,,,,,,,,,,,,,,,,,,,,,,,,,,,,,,,,,,,,,,,,,,,,,,,,,,,,,,,,,,,,,
,,?,0.001245,0,,,,,,stimuli/images/PICTURE_95.png,BOYS,5ef63fc6a3fa221022fb6201,16/03/1997,2020-08-27_15h43.40.269,proactive3.2,2020.1.2,Win32,60,5f47c0b9b035471e11593a5c,5f47c676a258f80be388f66b,2,,,,,,suitcase,,,,,,,,,,,1,1,0,32,32,1,1,,,,,,,,,,,,,,,,,,,,,,,,,,,,,,,,,,,,,,,,,,,,,,,,,,,,,,,,,,,,,,,,,,,,,,
,,?,0.000755,0,,,,,,stimuli/images/PICTURE_57.png,MOMENT,5ef63fc6a3fa221022fb6201,16/03/1997,2020-08-27_15h43.40.269,proactive3.2,2020.1.2,Win32,60,5f47c0b9b035471e11593a5c,5f47c676a258f80be388f66b,2,,,,,,stamp,,,,,,,,,,,4,1,0,33,33,37,1,,,,,,,,,,,,,,,,,,,,,,,,,,,,,,,,,,,,,,,,,,,,,,,,,,,,,,,,,,,,,,,,,,,,,,
,,?,0.000795,0,,,,,,stimuli/images/PICTURE_203.png,GODS,5ef63fc6a3fa221022fb6201,16/03/1997,2020-08-27_15h43.40.269,proactive3.2,2020.1.2,Win32,60,5f47c0b9b035471e11593a5c,5f47c676a258f80be388f66b,2,,,,,,cap,,,,,,,,,,,4,1,0,34,34,30,1,,,,,,,,,,,,,,,,,,,,,,,,,,,,,,,,,,,,,,,,,,,,,,,,,,,,,,,,,,,,,,,,,,,,,,
,,?,0.00079,0,,,,,,stimuli/images/PICTURE_708.png,RECORD,5ef63fc6a3fa221022fb6201,16/03/1997,2020-08-27_15h43.40.269,proactive3.2,2020.1.2,Win32,60,5f47c0b9b035471e11593a5c,5f47c676a258f80be388f66b,2,,,,,,monkey,,,,,,,,,,,6,1,0,35,35,58,1,,,,,,,,,,,,,,,,,,,,,,,,,,,,,,,,,,,,,,,,,,,,,,,,,,,,,,,,,,,,,,,,,,,,,,
,,?,0.00086,0,,,,,,stimuli/images/PICTURE_95.png,MILLER,5ef63fc6a3fa221022fb6201,16/03/1997,2020-08-27_15h43.40.269,proactive3.2,2020.1.2,Win32,60,5f47c0b9b035471e11593a5c,5f47c676a258f80be388f66b,2,,,,,,suitcase,,,,,,,,,,,6,1,0,36,36,56,1,,,,,,,,,,,,,,,,,,,,,,,,,,,,,,,,,,,,,,,,,,,,,,,,,,,,,,,,,,,,,,,,,,,,,,
,,?,0.001235,0,,,,,,stimuli/images/PICTURE_467.png,POLICY,5ef63fc6a3fa221022fb6201,16/03/1997,2020-08-27_15h43.40.269,proactive3.2,2020.1.2,Win32,60,5f47c0b9b035471e11593a5c,5f47c676a258f80be388f66b,2,,,,,,peg,,,,,,,,,,,6,1,0,37,37,53,1,,,,,,,,,,,,,,,,,,,,,,,,,,,,,,,,,,,,,,,,,,,,,,,,,,,,,,,,,,,,,,,,,,,,,,
,,?,0.00092,0,,,,,,stimuli/images/PICTURE_403.png,TOILET,5ef63fc6a3fa221022fb6201,16/03/1997,2020-08-27_15h43.40.269,proactive3.2,2020.1.2,Win32,60,5f47c0b9b035471e11593a5c,5f47c676a258f80be388f66b,2,,,,,,cathedral,,,,,,,,,,,3,1,0,38,38,25,1,,,,,,,,,,,,,,,,,,,,,,,,,,,,,,,,,,,,,,,,,,,,,,,,,,,,,,,,,,,,,,,,,,,,,,
,,?,0.001095,0,,,,,,stimuli/images/PICTURE_675.png,SALE,5ef63fc6a3fa221022fb6201,16/03/1997,2020-08-27_15h43.40.269,proactive3.2,2020.1.2,Win32,60,5f47c0b9b035471e11593a5c,5f47c676a258f80be388f66b,2,,,,,,windmill,,,,,,,,,,,5,1,0,39,39,47,1,,,,,,,,,,,,,,,,,,,,,,,,,,,,,,,,,,,,,,,,,,,,,,,,,,,,,,,,,,,,,,,,,,,,,,
,,?,0.00081,0,,,,,,stimuli/images/PICTURE_487.png,GIRL,5ef63fc6a3fa221022fb6201,16/03/1997,2020-08-27_15h43.40.269,proactive3.2,2020.1.2,Win32,60,5f47c0b9b035471e11593a5c,5f47c676a258f80be388f66b,2,,,,,,basket,,,,,,,,,,,5,1,0,40,40,45,1,,,,,,,,,,,,,,,,,,,,,,,,,,,,,,,,,,,,,,,,,,,,,,,,,,,,,,,,,,,,,,,,,,,,,,
,,?,0.00089,0,,,,,,stimuli/images/PICTURE_504.png,ARTIST,5ef63fc6a3fa221022fb6201,16/03/1997,2020-08-27_15h43.40.269,proactive3.2,2020.1.2,Win32,60,5f47c0b9b035471e11593a5c,5f47c676a258f80be388f66b,2,,,,,,wheel,,,,,,,,,,,5,1,0,41,41,49,1,,,,,,,,,,,,,,,,,,,,,,,,,,,,,,,,,,,,,,,,,,,,,,,,,,,,,,,,,,,,,,,,,,,,,,
,,?,0.000835,0,,,,,,stimuli/images/PICTURE_744.png,WEAPON,5ef63fc6a3fa221022fb6201,16/03/1997,2020-08-27_15h43.40.269,proactive3.2,2020.1.2,Win32,60,5f47c0b9b035471e11593a5c,5f47c676a258f80be388f66b,2,,,,,,ring,,,,,,,,,,,6,1,0,42,42,50,1,,,,,,,,,,,,,,,,,,,,,,,,,,,,,,,,,,,,,,,,,,,,,,,,,,,,,,,,,,,,,,,,,,,,,,
,,?,0.00077,0,,,,,,stimuli/images/PICTURE_203.png,NIGHT,5ef63fc6a3fa221022fb6201,16/03/1997,2020-08-27_15h43.40.269,proactive3.2,2020.1.2,Win32,60,5f47c0b9b035471e11593a5c,5f47c676a258f80be388f66b,2,,,,,,cap,,,,,,,,,,,1,1,0,43,43,2,1,,,,,,,,,,,,,,,,,,,,,,,,,,,,,,,,,,,,,,,,,,,,,,,,,,,,,,,,,,,,,,,,,,,,,,
,,?,0.000875,0,,,,,,stimuli/images/PICTURE_285.png,LIFE,5ef63fc6a3fa221022fb6201,16/03/1997,2020-08-27_15h43.40.269,proactive3.2,2020.1.2,Win32,60,5f47c0b9b035471e11593a5c,5f47c676a258f80be388f66b,2,,,,,,carrot,,,,,,,,,,,4,1,0,44,44,33,1,,,,,,,,,,,,,,,,,,,,,,,,,,,,,,,,,,,,,,,,,,,,,,,,,,,,,,,,,,,,,,,,,,,,,,
,,?,0.00082,0,,,,,,stimuli/images/PICTURE_85.png,NATION,5ef63fc6a3fa221022fb6201,16/03/1997,2020-08-27_15h43.40.269,proactive3.2,2020.1.2,Win32,60,5f47c0b9b035471e11593a5c,5f47c676a258f80be388f66b,2,,,,,,diamond,,,,,,,,,,,1,1,0,45,45,5,1,,,,,,,,,,,,,,,,,,,,,,,,,,,,,,,,,,,,,,,,,,,,,,,,,,,,,,,,,,,,,,,,,,,,,,
,,?,0.000975,0,,,,,,stimuli/images/PICTURE_340.png,LETTER,5ef63fc6a3fa221022fb6201,16/03/1997,2020-08-27_15h43.40.269,proactive3.2,2020.1.2,Win32,60,5f47c0b9b035471e11593a5c,5f47c676a258f80be388f66b,2,,,,,,mirror,,,,,,,,,,,3,1,0,46,46,24,1,,,,,,,,,,,,,,,,,,,,,,,,,,,,,,,,,,,,,,,,,,,,,,,,,,,,,,,,,,,,,,,,,,,,,,
,,?,0.0036,0,,,,,,stimuli/images/PICTURE_147.png,YEAR,5ef63fc6a3fa221022fb6201,16/03/1997,2020-08-27_15h43.40.269,proactive3.2,2020.1.2,Win32,60,5f47c0b9b035471e11593a5c,5f47c676a258f80be388f66b,2,,,,,,hanger,,,,,,,,,,,3,1,0,47,47,21,1,,,,,,,,,,,,,,,,,,,,,,,,,,,,,,,,,,,,,,,,,,,,,,,,,,,,,,,,,,,,,,,,,,,,,,
,,?,0.00083,0,,,,,,stimuli/images/PICTURE_403.png,RIVER,5ef63fc6a3fa221022fb6201,16/03/1997,2020-08-27_15h43.40.269,proactive3.2,2020.1.2,Win32,60,5f47c0b9b035471e11593a5c,5f47c676a258f80be388f66b,2,,,,,,cathedral,,,,,,,,,,,5,1,0,48,48,40,1,,,,,,,,,,,,,,,,,,,,,,,,,,,,,,,,,,,,,,,,,,,,,,,,,,,,,,,,,,,,,,,,,,,,,,
,,AGENT,8.945465,1,,,,,,stimuli/images/PICTURE_469.png,AGENT,5ef63fc6a3fa221022fb6201,16/03/1997,2020-08-27_15h43.40.269,proactive3.2,2020.1.2,Win32,60,5f47c0b9b035471e11593a5c,5f47c676a258f80be388f66b,2,,,,,,stool,,,,,,,,,,,2,1,0,49,49,16,1,,,,,,,,,,,,,,,,,,,,,,,,,,,,,,,,,,,,,,,,,,,,,,,,,,,,,,,,,,,,,,,,,,,,,,
,,?,0.00121,0,,,,,,stimuli/images/PICTURE_68.png,MILE,5ef63fc6a3fa221022fb6201,16/03/1997,2020-08-27_15h43.40.269,proactive3.2,2020.1.2,Win32,60,5f47c0b9b035471e11593a5c,5f47c676a258f80be388f66b,2,,,,,,candle,,,,,,,,,,,6,1,0,50,50,51,1,,,,,,,,,,,,,,,,,,,,,,,,,,,,,,,,,,,,,,,,,,,,,,,,,,,,,,,,,,,,,,,,,,,,,,
,,?,0.000845,0,,,,,,stimuli/images/PICTURE_504.png,COPS,5ef63fc6a3fa221022fb6201,16/03/1997,2020-08-27_15h43.40.269,proactive3.2,2020.1.2,Win32,60,5f47c0b9b035471e11593a5c,5f47c676a258f80be388f66b,2,,,,,,wheel,,,,,,,,,,,6,1,0,51,51,52,1,,,,,,,,,,,,,,,,,,,,,,,,,,,,,,,,,,,,,,,,,,,,,,,,,,,,,,,,,,,,,,,,,,,,,,
,,?,0.00137,0,,,,,,stimuli/images/PICTURE_32.png,KIND,5ef63fc6a3fa221022fb6201,16/03/1997,2020-08-27_15h43.40.269,proactive3.2,2020.1.2,Win32,60,5f47c0b9b035471e11593a5c,5f47c676a258f80be388f66b,2,,,,,,crown,,,,,,,,,,,4,1,0,52,52,35,1,,,,,,,,,,,,,,,,,,,,,,,,,,,,,,,,,,,,,,,,,,,,,,,,,,,,,,,,,,,,,,,,,,,,,,
,,?,0.00087,0,,,,,,stimuli/images/PICTURE_108.png,FLIGHT,5ef63fc6a3fa221022fb6201,16/03/1997,2020-08-27_15h43.40.269,proactive3.2,2020.1.2,Win32,60,5f47c0b9b035471e11593a5c,5f47c676a258f80be388f66b,2,,,,,,calendar,,,,,,,,,,,6,1,0,53,53,59,1,,,,,,,,,,,,,,,,,,,,,,,,,,,,,,,,,,,,,,,,,,,,,,,,,,,,,,,,,,,,,,,,,,,,,,
,,?,0.00083,0,,,,,,stimuli/images/PICTURE_296.png,LIFE,5ef63fc6a3fa221022fb6201,16/03/1997,2020-08-27_15h43.40.269,proactive3.2,2020.1.2,Win32,60,5f47c0b9b035471e11593a5c,5f47c676a258f80be388f66b,2,,,,,,bolt,,,,,,,,,,,6,1,0,54,54,57,1,,,,,,,,,,,,,,,,,,,,,,,,,,,,,,,,,,,,,,,,,,,,,,,,,,,,,,,,,,,,,,,,,,,,,,
,,DUDE,4.632635,1,,,,,,stimuli/images/PICTURE_449.png,DUDE,5ef63fc6a3fa221022fb6201,16/03/1997,2020-08-27_15h43.40.269,proactive3.2,2020.1.2,Win32,60,5f47c0b9b035471e11593a5c,5f47c676a258f80be388f66b,2,,,,,,bench,,,,,,,,,,,2,1,0,55,55,17,1,,,,,,,,,,,,,,,,,,,,,,,,,,,,,,,,,,,,,,,,,,,,,,,,,,,,,,,,,,,,,,,,,,,,,,
,,PILLS,7.07704,1,,,,,,stimuli/images/PICTURE_32.png,PILLS,5ef63fc6a3fa221022fb6201,16/03/1997,2020-08-27_15h43.40.269,proactive3.2,2020.1.2,Win32,60,5f47c0b9b035471e11593a5c,5f47c676a258f80be388f66b,2,,,,,,crown,,,,,,,,,,,2,1,0,56,56,18,1,,,,,,,,,,,,,,,,,,,,,,,,,,,,,,,,,,,,,,,,,,,,,,,,,,,,,,,,,,,,,,,,,,,,,,
,,?,0.001265,0,,,,,,stimuli/images/PICTURE_491.png,RIVER,5ef63fc6a3fa221022fb6201,16/03/1997,2020-08-27_15h43.40.269,proactive3.2,2020.1.2,Win32,60,5f47c0b9b035471e11593a5c,5f47c676a258f80be388f66b,2,,,,,,rug,,,,,,,,,,,1,1,0,57,57,6,1,,,,,,,,,,,,,,,,,,,,,,,,,,,,,,,,,,,,,,,,,,,,,,,,,,,,,,,,,,,,,,,,,,,,,,
,,YEAR,5.80791,1,,,,,,stimuli/images/PICTURE_504.png,YEAR,5ef63fc6a3fa221022fb6201,16/03/1997,2020-08-27_15h43.40.269,proactive3.2,2020.1.2,Win32,60,5f47c0b9b035471e11593a5c,5f47c676a258f80be388f66b,2,,,,,,wheel,,,,,,,,,,,2,1,0,58,58,13,1,,,,,,,,,,,,,,,,,,,,,,,,,,,,,,,,,,,,,,,,,,,,,,,,,,,,,,,,,,,,,,,,,,,,,,
,,?,0.00149,0,,,,,,stimuli/images/PICTURE_685.png,PENNY,5ef63fc6a3fa221022fb6201,16/03/1997,2020-08-27_15h43.40.269,proactive3.2,2020.1.2,Win32,60,5f47c0b9b035471e11593a5c,5f47c676a258f80be388f66b,2,,,,,,goose,,,,,,,,,,,1,1,0,59,59,4,1,,,,,,,,,,,,,,,,,,,,,,,,,,,,,,,,,,,,,,,,,,,,,,,,,,,,,,,,,,,,,,,,,,,,,,
,,,,,,,,,,,,5ef63fc6a3fa221022fb6201,16/03/1997,2020-08-27_15h43.40.269,proactive3.2,2020.1.2,Win32,60,5f47c0b9b035471e11593a5c,5f47c676a258f80be388f66b,2,,,,,,,,,,,,,,,,,,,,,,,,0,1,1,1,1,stimuli/learn-block2.csv,,,,,,,,,,,,,,,,,,,,,,,,,,,,,,,,,,,,,,,,,,,,,,,,,,,,,,,,,,,,,,,,
,,,,,,,,,,stimuli/images/PICTURE_85.png,THING,5ef63fc6a3fa221022fb6201,16/03/1997,2020-08-27_15h43.40.269,proactive3.2,2020.1.2,Win32,60,5f47c0b9b035471e11593a5c,5f47c676a258f80be388f66b,2,,,,,,diamond,,,,,,0,0,0,15,1,2,0,,,,,,,,,,,,,,,,,,,,,,,,,,,,,,,,,,,,,,,,,,,,,,,,,,,,,,,,,,,,,,,,,,,,,,,,,,,
,,,,,,,,,,stimuli/images/PICTURE_123.png,ADVICE,5ef63fc6a3fa221022fb6201,16/03/1997,2020-08-27_15h43.40.269,proactive3.2,2020.1.2,Win32,60,5f47c0b9b035471e11593a5c,5f47c676a258f80be388f66b,2,,,,,,dart,,,,,,0,1,1,50,1,6,0,,,,,,,,,,,,,,,,,,,,,,,,,,,,,,,,,,,,,,,,,,,,,,,,,,,,,,,,,,,,,,,,,,,,,,,,,,,
,,,,,,,,,,stimuli/images/PICTURE_380.png,DEATH,5ef63fc6a3fa221022fb6201,16/03/1997,2020-08-27_15h43.40.269,proactive3.2,2020.1.2,Win32,60,5f47c0b9b035471e11593a5c,5f47c676a258f80be388f66b,2,,,,,,gorilla,,,,,,0,2,2,49,1,5,0,,,,,,,,,,,,,,,,,,,,,,,,,,,,,,,,,,,,,,,,,,,,,,,,,,,,,,,,,,,,,,,,,,,,,,,,,,,
,,,,,,,,,,stimuli/images/PICTURE_491.png,WRITER,5ef63fc6a3fa221022fb6201,16/03/1997,2020-08-27_15h43.40.269,proactive3.2,2020.1.2,Win32,60,5f47c0b9b035471e11593a5c,5f47c676a258f80be388f66b,2,,,,,,rug,,,,,,0,3,3,57,1,6,0,,,,,,,,,,,,,,,,,,,,,,,,,,,,,,,,,,,,,,,,,,,,,,,,,,,,,,,,,,,,,,,,,,,,,,,,,,,
,,,,,,,,,,stimuli/images/PICTURE_233.png,WOMEN,5ef63fc6a3fa221022fb6201,16/03/1997,2020-08-27_15h43.40.269,proactive3.2,2020.1.2,Win32,60,5f47c0b9b035471e11593a5c,5f47c676a258f80be388f66b,2,,,,,,salt,,,,,,0,4,4,38,1,4,0,,,,,,,,,,,,,,,,,,,,,,,,,,,,,,,,,,,,,,,,,,,,,,,,,,,,,,,,,,,,,,,,,,,,,,,,,,,
,,,,,,,,,,stimuli/images/PICTURE_311.png,BEAUTY,5ef63fc6a3fa221022fb6201,16/03/1997,2020-08-27_15h43.40.269,proactive3.2,2020.1.2,Win32,60,5f47c0b9b035471e11593a5c,5f47c676a258f80be388f66b,2,,,,,,razor,,,,,,0,5,5,13,1,2,0,,,,,,,,,,,,,,,,,,,,,,,,,,,,,,,,,,,,,,,,,,,,,,,,,,,,,,,,,,,,,,,,,,,,,,,,,,,
,,,,,,,,,,stimuli/images/PICTURE_215.png,PLENTY,5ef63fc6a3fa221022fb6201,16/03/1997,2020-08-27_15h43.40.269,proactive3.2,2020.1.2,Win32,60,5f47c0b9b035471e11593a5c,5f47c676a258f80be388f66b,2,,,,,,boot,,,,,,0,6,6,37,1,4,0,,,,,,,,,,,,,,,,,,,,,,,,,,,,,,,,,,,,,,,,,,,,,,,,,,,,,,,,,,,,,,,,,,,,,,,,,,,
,,,,,,,,,,stimuli/images/PICTURE_453.png,PLENTY,5ef63fc6a3fa221022fb6201,16/03/1997,2020-08-27_15h43.40.269,proactive3.2,2020.1.2,Win32,60,5f47c0b9b035471e11593a5c,5f47c676a258f80be388f66b,2,,,,,,scissors,,,,,,0,7,7,56,1,6,0,,,,,,,,,,,,,,,,,,,,,,,,,,,,,,,,,,,,,,,,,,,,,,,,,,,,,,,,,,,,,,,,,,,,,,,,,,,
,,,,,,,,,,stimuli/images/PICTURE_285.png,ADVICE,5ef63fc6a3fa221022fb6201,16/03/1997,2020-08-27_15h43.40.269,proactive3.2,2020.1.2,Win32,60,5f47c0b9b035471e11593a5c,5f47c676a258f80be388f66b,2,,,,,,carrot,,,,,,0,8,8,12,1,2,0,,,,,,,,,,,,,,,,,,,,,,,,,,,,,,,,,,,,,,,,,,,,,,,,,,,,,,,,,,,,,,,,,,,,,,,,,,,
,,,,,,,,,,stimuli/images/PICTURE_688.png,CASINO,5ef63fc6a3fa221022fb6201,16/03/1997,2020-08-27_15h43.40.269,proactive3.2,2020.1.2,Win32,60,5f47c0b9b035471e11593a5c,5f47c676a258f80be388f66b,2,,,,,,runner,,,,,,0,9,9,2,1,1,0,,,,,,,,,,,,,,,,,,,,,,,,,,,,,,,,,,,,,,,,,,,,,,,,,,,,,,,,,,,,,,,,,,,,,,,,,,,
,,,,,,,,,,stimuli/images/PICTURE_509.png,PHOTO,5ef63fc6a3fa221022fb6201,16/03/1997,2020-08-27_15h43.40.269,proactive3.2,2020.1.2,Win32,60,5f47c0b9b035471e11593a5c,5f47c676a258f80be388f66b,2,,,,,,telephone,,,,,,0,10,10,21,1,3,0,,,,,,,,,,,,,,,,,,,,,,,,,,,,,,,,,,,,,,,,,,,,,,,,,,,,,,,,,,,,,,,,,,,,,,,,,,,
,,,,,,,,,,stimuli/images/PICTURE_504.png,BODY,5ef63fc6a3fa221022fb6201,16/03/1997,2020-08-27_15h43.40.269,proactive3.2,2020.1.2,Win32,60,5f47c0b9b035471e11593a5c,5f47c676a258f80be388f66b,2,,,,,,wheel,,,,,,0,11,11,8,1,1,0,,,,,,,,,,,,,,,,,,,,,,,,,,,,,,,,,,,,,,,,,,,,,,,,,,,,,,,,,,,,,,,,,,,,,,,,,,,
,,,,,,,,,,stimuli/images/PICTURE_356.png,DANGER,5ef63fc6a3fa221022fb6201,16/03/1997,2020-08-27_15h43.40.269,proactive3.2,2020.1.2,Win32,60,5f47c0b9b035471e11593a5c,5f47c676a258f80be388f66b,2,,,,,,pawn,,,,,,0,12,12,55,1,6,0,,,,,,,,,,,,,,,,,,,,,,,,,,,,,,,,,,,,,,,,,,,,,,,,,,,,,,,,,,,,,,,,,,,,,,,,,,,
,,,,,,,,,,stimuli/images/PICTURE_677.png,MILE,5ef63fc6a3fa221022fb6201,16/03/1997,2020-08-27_15h43.40.269,proactive3.2,2020.1.2,Win32,60,5f47c0b9b035471e11593a5c,5f47c676a258f80be388f66b,2,,,,,,map,,,,,,0,13,13,30,1,4,0,,,,,,,,,,,,,,,,,,,,,,,,,,,,,,,,,,,,,,,,,,,,,,,,,,,,,,,,,,,,,,,,,,,,,,,,,,,
,,,,,,,,,,stimuli/images/PICTURE_692.png,MONTH,5ef63fc6a3fa221022fb6201,16/03/1997,2020-08-27_15h43.40.269,proactive3.2,2020.1.2,Win32,60,5f47c0b9b035471e11593a5c,5f47c676a258f80be388f66b,2,,,,,,cherry,,,,,,0,14,14,16,1,2,0,,,,,,,,,,,,,,,,,,,,,,,,,,,,,,,,,,,,,,,,,,,,,,,,,,,,,,,,,,,,,,,,,,,,,,,,,,,
,,,,,,,,,,stimuli/images/PICTURE_449.png,THING,5ef63fc6a3fa221022fb6201,16/03/1997,2020-08-27_15h43.40.269,proactive3.2,2020.1.2,Win32,60,5f47c0b9b035471e11593a5c,5f47c676a258f80be388f66b,2,,,,,,bench,,,,,,0,15,15,59,1,6,0,,,,,,,,,,,,,,,,,,,,,,,,,,,,,,,,,,,,,,,,,,,,,,,,,,,,,,,,,,,,,,,,,,,,,,,,,,,
,,,,,,,,,,stimuli/images/PICTURE_708.png,CLIENT,5ef63fc6a3fa221022fb6201,16/03/1997,2020-08-27_15h43.40.269,proactive3.2,2020.1.2,Win32,60,5f47c0b9b035471e11593a5c,5f47c676a258f80be388f66b,2,,,,,,monkey,,,,,,0,16,16,5,1,1,0,,,,,,,,,,,,,,,,,,,,,,,,,,,,,,,,,,,,,,,,,,,,,,,,,,,,,,,,,,,,,,,,,,,,,,,,,,,
,,,,,,,,,,stimuli/images/PICTURE_453.png,DUDE,5ef63fc6a3fa221022fb6201,16/03/1997,2020-08-27_15h43.40.269,proactive3.2,2020.1.2,Win32,60,5f47c0b9b035471e11593a5c,5f47c676a258f80be388f66b,2,,,,,,scissors,,,,,,0,17,17,27,1,3,0,,,,,,,,,,,,,,,,,,,,,,,,,,,,,,,,,,,,,,,,,,,,,,,,,,,,,,,,,,,,,,,,,,,,,,,,,,,
,,,,,,,,,,stimuli/images/PICTURE_311.png,FRIEND,5ef63fc6a3fa221022fb6201,16/03/1997,2020-08-27_15h43.40.269,proactive3.2,2020.1.2,Win32,60,5f47c0b9b035471e11593a5c,5f47c676a258f80be388f66b,2,,,,,,razor,,,,,,0,18,18,34,1,4,0,,,,,,,,,,,,,,,,,,,,,,,,,,,,,,,,,,,,,,,,,,,,,,,,,,,,,,,,,,,,,,,,,,,,,,,,,,,
,,,,,,,,,,stimuli/images/PICTURE_151.png,GIRL,5ef63fc6a3fa221022fb6201,16/03/1997,2020-08-27_15h43.40.269,proactive3.2,2020.1.2,Win32,60,5f47c0b9b035471e11593a5c,5f47c676a258f80be388f66b,2,,,,,,tray,,,,,,0,19,19,19,1,2,0,,,,,,,,,,,,,,,,,,,,,,,,,,,,,,,,,,,,,,,,,,,,,,,,,,,,,,,,,,,,,,,,,,,,,,,,,,,
,,,,,,,,,,stimuli/images/PICTURE_469.png,LETTER,5ef63fc6a3fa221022fb6201,16/03/1997,2020-08-27_15h43.40.269,proactive3.2,2020.1.2,Win32,60,5f47c0b9b035471e11593a5c,5f47c676a258f80be388f66b,2,,,,,,stool,,,,,,0,20,20,42,1,5,0,,,,,,,,,,,,,,,,,,,,,,,,,,,,,,,,,,,,,,,,,,,,,,,,,,,,,,,,,,,,,,,,,,,,,,,,,,,
,,,,,,,,,,stimuli/images/PICTURE_470.png,CASINO,5ef63fc6a3fa221022fb6201,16/03/1997,2020-08-27_15h43.40.269,proactive3.2,2020.1.2,Win32,60,5f47c0b9b035471e11593a5c,5f47c676a258f80be388f66b,2,,,,,,motorbike,,,,,,0,21,21,36,1,4,0,,,,,,,,,,,,,,,,,,,,,,,,,,,,,,,,,,,,,,,,,,,,,,,,,,,,,,,,,,,,,,,,,,,,,,,,,,,
,,,,,,,,,,stimuli/images/PICTURE_177.png,CARS,5ef63fc6a3fa221022fb6201,16/03/1997,2020-08-27_15h43.40.269,proactive3.2,2020.1.2,Win32,60,5f47c0b9b035471e11593a5c,5f47c676a258f80be388f66b,2,,,,,,mushroom,,,,,,0,22,22,35,1,4,0,,,,,,,,,,,,,,,,,,,,,,,,,,,,,,,,,,,,,,,,,,,,,,,,,,,,,,,,,,,,,,,,,,,,,,,,,,,
,,,,,,,,,,stimuli/images/PICTURE_314.png,GODS,5ef63fc6a3fa221022fb6201,16/03/1997,2020-08-27_15h43.40.269,proactive3.2,2020.1.2,Win32,60,5f47c0b9b035471e11593a5c,5f47c676a258f80be388f66b,2,,,,,,perfume,,,,,,0,23,23,11,1,2,0,,,,,,,,,,,,,,,,,,,,,,,,,,,,,,,,,,,,,,,,,,,,,,,,,,,,,,,,,,,,,,,,,,,,,,,,,,,
,,,,,,,,,,stimuli/images/PICTURE_160.png,LEADER,5ef63fc6a3fa221022fb6201,16/03/1997,2020-08-27_15h43.40.269,proactive3.2,2020.1.2,Win32,60,5f47c0b9b035471e11593a5c,5f47c676a258f80be388f66b,2,,,,,,wheelbarrow,,,,,,0,24,24,3,1,1,0,,,,,,,,,,,,,,,,,,,,,,,,,,,,,,,,,,,,,,,,,,,,,,,,,,,,,,,,,,,,,,,,,,,,,,,,,,,
,,,,,,,,,,stimuli/images/PICTURE_208.png,LOTS,5ef63fc6a3fa221022fb6201,16/03/1997,2020-08-27_15h43.40.269,proactive3.2,2020.1.2,Win32,60,5f47c0b9b035471e11593a5c,5f47c676a258f80be388f66b,2,,,,,,microphone,,,,,,0,25,25,10,1,2,0,,,,,,,,,,,,,,,,,,,,,,,,,,,,,,,,,,,,,,,,,,,,,,,,,,,,,,,,,,,,,,,,,,,,,,,,,,,
,,,,,,,,,,stimuli/images/PICTURE_708.png,PENNY,5ef63fc6a3fa221022fb6201,16/03/1997,2020-08-27_15h43.40.269,proactive3.2,2020.1.2,Win32,60,5f47c0b9b035471e11593a5c,5f47c676a258f80be388f66b,2,,,,,,monkey,,,,,,0,26,26,31,1,4,0,,,,,,,,,,,,,,,,,,,,,,,,,,,,,,,,,,,,,,,,,,,,,,,,,,,,,,,,,,,,,,,,,,,,,,,,,,,
,,,,,,,,,,stimuli/images/PICTURE_308.png,KIND,5ef63fc6a3fa221022fb6201,16/03/1997,2020-08-27_15h43.40.269,proactive3.2,2020.1.2,Win32,60,5f47c0b9b035471e11593a5c,5f47c676a258f80be388f66b,2,,,,,,dice,,,,,,0,27,27,54,1,6,0,,,,,,,,,,,,,,,,,,,,,,,,,,,,,,,,,,,,,,,,,,,,,,,,,,,,,,,,,,,,,,,,,,,,,,,,,,,
,,,,,,,,,,stimuli/images/PICTURE_654.png,VALLEY,5ef63fc6a3fa221022fb6201,16/03/1997,2020-08-27_15h43.40.269,proactive3.2,2020.1.2,Win32,60,5f47c0b9b035471e11593a5c,5f47c676a258f80be388f66b,2,,,,,,pencil,,,,,,0,28,28,1,1,1,0,,,,,,,,,,,,,,,,,,,,,,,,,,,,,,,,,,,,,,,,,,,,,,,,,,,,,,,,,,,,,,,,,,,,,,,,,,,
,,,,,,,,,,stimuli/images/PICTURE_491.png,ROOF,5ef63fc6a3fa221022fb6201,16/03/1997,2020-08-27_15h43.40.269,proactive3.2,2020.1.2,Win32,60,5f47c0b9b035471e11593a5c,5f47c676a258f80be388f66b,2,,,,,,rug,,,,,,0,29,29,24,1,3,0,,,,,,,,,,,,,,,,,,,,,,,,,,,,,,,,,,,,,,,,,,,,,,,,,,,,,,,,,,,,,,,,,,,,,,,,,,,
,,,,,,,,,,stimuli/images/PICTURE_208.png,MONTH,5ef63fc6a3fa221022fb6201,16/03/1997,2020-08-27_15h43.40.269,proactive3.2,2020.1.2,Win32,60,5f47c0b9b035471e11593a5c,5f47c676a258f80be388f66b,2,,,,,,microphone,,,,,,0,30,30,53,1,6,0,,,,,,,,,,,,,,,,,,,,,,,,,,,,,,,,,,,,,,,,,,,,,,,,,,,,,,,,,,,,,,,,,,,,,,,,,,,
,,,,,,,,,,stimuli/images/PICTURE_233.png,IDEAS,5ef63fc6a3fa221022fb6201,16/03/1997,2020-08-27_15h43.40.269,proactive3.2,2020.1.2,Win32,60,5f47c0b9b035471e11593a5c,5f47c676a258f80be388f66b,2,,,,,,salt,,,,,,0,31,31,28,1,3,0,,,,,,,,,,,,,,,,,,,,,,,,,,,,,,,,,,,,,,,,,,,,,,,,,,,,,,,,,,,,,,,,,,,,,,,,,,,
,,,,,,,,,,stimuli/images/PICTURE_95.png,STYLE,5ef63fc6a3fa221022fb6201,16/03/1997,2020-08-27_15h43.40.269,proactive3.2,2020.1.2,Win32,60,5f47c0b9b035471e11593a5c,5f47c676a258f80be388f66b,2,,,,,,suitcase,,,,,,0,32,32,25,1,3,0,,,,,,,,,,,,,,,,,,,,,,,,,,,,,,,,,,,,,,,,,,,,,,,,,,,,,,,,,,,,,,,,,,,,,,,,,,,
,,,,,,,,,,stimuli/images/PICTURE_302.png,FAMILY,5ef63fc6a3fa221022fb6201,16/03/1997,2020-08-27_15h43.40.269,proactive3.2,2020.1.2,Win32,60,5f47c0b9b035471e11593a5c,5f47c676a258f80be388f66b,2,,,,,,taxi,,,,,,0,33,33,18,1,2,0,,,,,,,,,,,,,,,,,,,,,,,,,,,,,,,,,,,,,,,,,,,,,,,,,,,,,,,,,,,,,,,,,,,,,,,,,,,
,,,,,,,,,,stimuli/images/PICTURE_708.png,YARD,5ef63fc6a3fa221022fb6201,16/03/1997,2020-08-27_15h43.40.269,proactive3.2,2020.1.2,Win32,60,5f47c0b9b035471e11593a5c,5f47c676a258f80be388f66b,2,,,,,,monkey,,,,,,0,34,34,29,1,3,0,,,,,,,,,,,,,,,,,,,,,,,,,,,,,,,,,,,,,,,,,,,,,,,,,,,,,,,,,,,,,,,,,,,,,,,,,,,
,,,,,,,,,,stimuli/images/PICTURE_487.png,FLIGHT,5ef63fc6a3fa221022fb6201,16/03/1997,2020-08-27_15h43.40.269,proactive3.2,2020.1.2,Win32,60,5f47c0b9b035471e11593a5c,5f47c676a258f80be388f66b,2,,,,,,basket,,,,,,0,35,35,9,1,1,0,,,,,,,,,,,,,,,,,,,,,,,,,,,,,,,,,,,,,,,,,,,,,,,,,,,,,,,,,,,,,,,,,,,,,,,,,,,
,,,,,,,,,,stimuli/images/PICTURE_123.png,ADVICE,5ef63fc6a3fa221022fb6201,16/03/1997,2020-08-27_15h43.40.269,proactive3.2,2020.1.2,Win32,60,5f47c0b9b035471e11593a5c,5f47c676a258f80be388f66b,2,,,,,,dart,,,,,,0,36,36,40,1,5,0,,,,,,,,,,,,,,,,,,,,,,,,,,,,,,,,,,,,,,,,,,,,,,,,,,,,,,,,,,,,,,,,,,,,,,,,,,,
,,,,,,,,,,stimuli/images/PICTURE_488.png,STYLE,5ef63fc6a3fa221022fb6201,16/03/1997,2020-08-27_15h43.40.269,proactive3.2,2020.1.2,Win32,60,5f47c0b9b035471e11593a5c,5f47c676a258f80be388f66b,2,,,,,,sun,,,,,,0,37,37,33,1,4,0,,,,,,,,,,,,,,,,,,,,,,,,,,,,,,,,,,,,,,,,,,,,,,,,,,,,,,,,,,,,,,,,,,,,,,,,,,,
,,,,,,,,,,stimuli/images/PICTURE_675.png,WEAPON,5ef63fc6a3fa221022fb6201,16/03/1997,2020-08-27_15h43.40.269,proactive3.2,2020.1.2,Win32,60,5f47c0b9b035471e11593a5c,5f47c676a258f80be388f66b,2,,,,,,windmill,,,,,,0,38,38,32,1,4,0,,,,,,,,,,,,,,,,,,,,,,,,,,,,,,,,,,,,,,,,,,,,,,,,,,,,,,,,,,,,,,,,,,,,,,,,,,,
,,,,,,,,,,stimuli/images/PICTURE_160.png,FEET,5ef63fc6a3fa221022fb6201,16/03/1997,2020-08-27_15h43.40.269,proactive3.2,2020.1.2,Win32,60,5f47c0b9b035471e11593a5c,5f47c676a258f80be388f66b,2,,,,,,wheelbarrow,,,,,,0,39,39,58,1,6,0,,,,,,,,,,,,,,,,,,,,,,,,,,,,,,,,,,,,,,,,,,,,,,,,,,,,,,,,,,,,,,,,,,,,,,,,,,,
,,,,,,,,,,stimuli/images/PICTURE_203.png,ARTIST,5ef63fc6a3fa221022fb6201,16/03/1997,2020-08-27_15h43.40.269,proactive3.2,2020.1.2,Win32,60,5f47c0b9b035471e11593a5c,5f47c676a258f80be388f66b,2,,,,,,cap,,,,,,0,40,40,26,1,3,0,,,,,,,,,,,,,,,,,,,,,,,,,,,,,,,,,,,,,,,,,,,,,,,,,,,,,,,,,,,,,,,,,,,,,,,,,,,
,,,,,,,,,,stimuli/images/PICTURE_688.png,WOMEN,5ef63fc6a3fa221022fb6201,16/03/1997,2020-08-27_15h43.40.269,proactive3.2,2020.1.2,Win32,60,5f47c0b9b035471e11593a5c,5f47c676a258f80be388f66b,2,,,,,,runner,,,,,,0,41,41,14,1,2,0,,,,,,,,,,,,,,,,,,,,,,,,,,,,,,,,,,,,,,,,,,,,,,,,,,,,,,,,,,,,,,,,,,,,,,,,,,,
,,,,,,,,,,stimuli/images/PICTURE_667.png,PLENTY,5ef63fc6a3fa221022fb6201,16/03/1997,2020-08-27_15h43.40.269,proactive3.2,2020.1.2,Win32,60,5f47c0b9b035471e11593a5c,5f47c676a258f80be388f66b,2,,,,,,daisy,,,,,,0,42,42,41,1,5,0,,,,,,,,,,,,,,,,,,,,,,,,,,,,,,,,,,,,,,,,,,,,,,,,,,,,,,,,,,,,,,,,,,,,,,,,,,,
,,,,,,,,,,stimuli/images/PICTURE_32.png,JUNGLE,5ef63fc6a3fa221022fb6201,16/03/1997,2020-08-27_15h43.40.269,proactive3.2,2020.1.2,Win32,60,5f47c0b9b035471e11593a5c,5f47c676a258f80be388f66b,2,,,,,,crown,,,,,,0,43,43,45,1,5,0,,,,,,,,,,,,,,,,,,,,,,,,,,,,,,,,,,,,,,,,,,,,,,,,,,,,,,,,,,,,,,,,,,,,,,,,,,,
,,,,,,,,,,stimuli/images/PICTURE_208.png,THING,5ef63fc6a3fa221022fb6201,16/03/1997,2020-08-27_15h43.40.269,proactive3.2,2020.1.2,Win32,60,5f47c0b9b035471e11593a5c,5f47c676a258f80be388f66b,2,,,,,,microphone,,,,,,0,44,44,47,1,5,0,,,,,,,,,,,,,,,,,,,,,,,,,,,,,,,,,,,,,,,,,,,,,,,,,,,,,,,,,,,,,,,,,,,,,,,,,,,
,,,,,,,,,,stimuli/images/PICTURE_255.png,AREA,5ef63fc6a3fa221022fb6201,16/03/1997,2020-08-27_15h43.40.269,proactive3.2,2020.1.2,Win32,60,5f47c0b9b035471e11593a5c,5f47c676a258f80be388f66b,2,,,,,,shovel,,,,,,0,45,45,22,1,3,0,,,,,,,,,,,,,,,,,,,,,,,,,,,,,,,,,,,,,,,,,,,,,,,,,,,,,,,,,,,,,,,,,,,,,,,,,,,
,,,,,,,,,,stimuli/images/PICTURE_339.png,PLENTY,5ef63fc6a3fa221022fb6201,16/03/1997,2020-08-27_15h43.40.269,proactive3.2,2020.1.2,Win32,60,5f47c0b9b035471e11593a5c,5f47c676a258f80be388f66b,2,,,,,,backpack,,,,,,0,46,46,0,1,1,0,,,,,,,,,,,,,,,,,,,,,,,,,,,,,,,,,,,,,,,,,,,,,,,,,,,,,,,,,,,,,,,,,,,,,,,,,,,
,,,,,,,,,,stimuli/images/PICTURE_380.png,PHOTO,5ef63fc6a3fa221022fb6201,16/03/1997,2020-08-27_15h43.40.269,proactive3.2,2020.1.2,Win32,60,5f47c0b9b035471e11593a5c,5f47c676a258f80be388f66b,2,,,,,,gorilla,,,,,,0,47,47,52,1,6,0,,,,,,,,,,,,,,,,,,,,,,,,,,,,,,,,,,,,,,,,,,,,,,,,,,,,,,,,,,,,,,,,,,,,,,,,,,,
,,,,,,,,,,stimuli/images/PICTURE_467.png,DEMON,5ef63fc6a3fa221022fb6201,16/03/1997,2020-08-27_15h43.40.269,proactive3.2,2020.1.2,Win32,60,5f47c0b9b035471e11593a5c,5f47c676a258f80be388f66b,2,,,,,,peg,,,,,,0,48,48,23,1,3,0,,,,,,,,,,,,,,,,,,,,,,,,,,,,,,,,,,,,,,,,,,,,,,,,,,,,,,,,,,,,,,,,,,,,,,,,,,,
,,,,,,,,,,stimuli/images/PICTURE_469.png,ARTIST,5ef63fc6a3fa221022fb6201,16/03/1997,2020-08-27_15h43.40.269,proactive3.2,2020.1.2,Win32,60,5f47c0b9b035471e11593a5c,5f47c676a258f80be388f66b,2,,,,,,stool,,,,,,0,49,49,6,1,1,0,,,,,,,,,,,,,,,,,,,,,,,,,,,,,,,,,,,,,,,,,,,,,,,,,,,,,,,,,,,,,,,,,,,,,,,,,,,
,,,,,,,,,,stimuli/images/PICTURE_147.png,MOMENT,5ef63fc6a3fa221022fb6201,16/03/1997,2020-08-27_15h43.40.269,proactive3.2,2020.1.2,Win32,60,5f47c0b9b035471e11593a5c,5f47c676a258f80be388f66b,2,,,,,,hanger,,,,,,0,50,50,51,1,6,0,,,,,,,,,,,,,,,,,,,,,,,,,,,,,,,,,,,,,,,,,,,,,,,,,,,,,,,,,,,,,,,,,,,,,,,,,,,
,,,,,,,,,,stimuli/images/PICTURE_667.png,BATH,5ef63fc6a3fa221022fb6201,16/03/1997,2020-08-27_15h43.40.269,proactive3.2,2020.1.2,Win32,60,5f47c0b9b035471e11593a5c,5f47c676a258f80be388f66b,2,,,,,,daisy,,,,,,0,51,51,4,1,1,0,,,,,,,,,,,,,,,,,,,,,,,,,,,,,,,,,,,,,,,,,,,,,,,,,,,,,,,,,,,,,,,,,,,,,,,,,,,
,,,,,,,,,,stimuli/images/PICTURE_348.png,SPEECH,5ef63fc6a3fa221022fb6201,16/03/1997,2020-08-27_15h43.40.269,proactive3.2,2020.1.2,Win32,60,5f47c0b9b035471e11593a5c,5f47c676a258f80be388f66b,2,,,,,,pepper,,,,,,0,52,52,20,1,3,0,,,,,,,,,,,,,,,,,,,,,,,,,,,,,,,,,,,,,,,,,,,,,,,,,,,,,,,,,,,,,,,,,,,,,,,,,,,
,,,,,,,,,,stimuli/images/PICTURE_68.png,MILE,5ef63fc6a3fa221022fb6201,16/03/1997,2020-08-27_15h43.40.269,proactive3.2,2020.1.2,Win32,60,5f47c0b9b035471e11593a5c,5f47c676a258f80be388f66b,2,,,,,,candle,,,,,,0,53,53,44,1,5,0,,,,,,,,,,,,,,,,,,,,,,,,,,,,,,,,,,,,,,,,,,,,,,,,,,,,,,,,,,,,,,,,,,,,,,,,,,,
,,,,,,,,,,stimuli/images/PICTURE_744.png,SAKE,5ef63fc6a3fa221022fb6201,16/03/1997,2020-08-27_15h43.40.269,proactive3.2,2020.1.2,Win32,60,5f47c0b9b035471e11593a5c,5f47c676a258f80be388f66b,2,,,,,,ring,,,,,,0,54,54,17,1,2,0,,,,,,,,,,,,,,,,,,,,,,,,,,,,,,,,,,,,,,,,,,,,,,,,,,,,,,,,,,,,,,,,,,,,,,,,,,,
,,,,,,,,,,stimuli/images/PICTURE_327.png,BEAUTY,5ef63fc6a3fa221022fb6201,16/03/1997,2020-08-27_15h43.40.269,proactive3.2,2020.1.2,Win32,60,5f47c0b9b035471e11593a5c,5f47c676a258f80be388f66b,2,,,,,,helmet,,,,,,0,55,55,48,1,5,0,,,,,,,,,,,,,,,,,,,,,,,,,,,,,,,,,,,,,,,,,,,,,,,,,,,,,,,,,,,,,,,,,,,,,,,,,,,
,,,,,,,,,,stimuli/images/PICTURE_314.png,SAKE,5ef63fc6a3fa221022fb6201,16/03/1997,2020-08-27_15h43.40.269,proactive3.2,2020.1.2,Win32,60,5f47c0b9b035471e11593a5c,5f47c676a258f80be388f66b,2,,,,,,perfume,,,,,,0,56,56,7,1,1,0,,,,,,,,,,,,,,,,,,,,,,,,,,,,,,,,,,,,,,,,,,,,,,,,,,,,,,,,,,,,,,,,,,,,,,,,,,,
,,,,,,,,,,stimuli/images/PICTURE_248.png,DOZEN,5ef63fc6a3fa221022fb6201,16/03/1997,2020-08-27_15h43.40.269,proactive3.2,2020.1.2,Win32,60,5f47c0b9b035471e11593a5c,5f47c676a258f80be388f66b,2,,,,,,cart,,,,,,0,57,57,39,1,4,0,,,,,,,,,,,,,,,,,,,,,,,,,,,,,,,,,,,,,,,,,,,,,,,,,,,,,,,,,,,,,,,,,,,,,,,,,,,
,,,,,,,,,,stimuli/images/PICTURE_744.png,SYSTEM,5ef63fc6a3fa221022fb6201,16/03/1997,2020-08-27_15h43.40.269,proactive3.2,2020.1.2,Win32,60,5f47c0b9b035471e11593a5c,5f47c676a258f80be388f66b,2,,,,,,ring,,,,,,0,58,58,43,1,5,0,,,,,,,,,,,,,,,,,,,,,,,,,,,,,,,,,,,,,,,,,,,,,,,,,,,,,,,,,,,,,,,,,,,,,,,,,,,
,,?,0.0012,0,,,,,,stimuli/images/PICTURE_308.png,ESTATE,5ef63fc6a3fa221022fb6201,16/03/1997,2020-08-27_15h43.40.269,proactive3.2,2020.1.2,Win32,60,5f47c0b9b035471e11593a5c,5f47c676a258f80be388f66b,2,,,,,,dice,,,,,,,,,,,5,0,0,0,0,46,1,,,,,,,,,,,,,,,,,,,,,,,,,,,,,,,,,,,,,,,,,,,,,,,,,,,,,,,,,,,,,,,,,,,,,,
,,?,0.00081,0,,,,,,stimuli/images/PICTURE_177.png,CARS,5ef63fc6a3fa221022fb6201,16/03/1997,2020-08-27_15h43.40.269,proactive3.2,2020.1.2,Win32,60,5f47c0b9b035471e11593a5c,5f47c676a258f80be388f66b,2,,,,,,mushroom,,,,,,,,,,,4,0,0,1,1,35,1,,,,,,,,,,,,,,,,,,,,,,,,,,,,,,,,,,,,,,,,,,,,,,,,,,,,,,,,,,,,,,,,,,,,,,
,,?,0.000825,0,,,,,,stimuli/images/PICTURE_147.png,MOMENT,5ef63fc6a3fa221022fb6201,16/03/1997,2020-08-27_15h43.40.269,proactive3.2,2020.1.2,Win32,60,5f47c0b9b035471e11593a5c,5f47c676a258f80be388f66b,2,,,,,,hanger,,,,,,,,,,,6,0,0,2,2,51,1,,,,,,,,,,,,,,,,,,,,,,,,,,,,,,,,,,,,,,,,,,,,,,,,,,,,,,,,,,,,,,,,,,,,,,
,,?,0.001175,0,,,,,,stimuli/images/PICTURE_68.png,MILE,5ef63fc6a3fa221022fb6201,16/03/1997,2020-08-27_15h43.40.269,proactive3.2,2020.1.2,Win32,60,5f47c0b9b035471e11593a5c,5f47c676a258f80be388f66b,2,,,,,,candle,,,,,,,,,,,5,0,0,3,3,44,1,,,,,,,,,,,,,,,,,,,,,,,,,,,,,,,,,,,,,,,,,,,,,,,,,,,,,,,,,,,,,,,,,,,,,,
,,?,0.00089,0,,,,,,stimuli/images/PICTURE_255.png,AREA,5ef63fc6a3fa221022fb6201,16/03/1997,2020-08-27_15h43.40.269,proactive3.2,2020.1.2,Win32,60,5f47c0b9b035471e11593a5c,5f47c676a258f80be388f66b,2,,,,,,shovel,,,,,,,,,,,3,0,0,4,4,22,1,,,,,,,,,,,,,,,,,,,,,,,,,,,,,,,,,,,,,,,,,,,,,,,,,,,,,,,,,,,,,,,,,,,,,,
,,MONTH,9.951955,1,,,,,,stimuli/images/PICTURE_692.png,MONTH,5ef63fc6a3fa221022fb6201,16/03/1997,2020-08-27_15h43.40.269,proactive3.2,2020.1.2,Win32,60,5f47c0b9b035471e11593a5c,5f47c676a258f80be388f66b,2,,,,,,cherry,,,,,,,,,,,2,0,0,5,5,16,1,,,,,,,,,,,,,,,,,,,,,,,,,,,,,,,,,,,,,,,,,,,,,,,,,,,,,,,,,,,,,,,,,,,,,,
,,?,0.001145,0,,,,,,stimuli/images/PICTURE_667.png,BATH,5ef63fc6a3fa221022fb6201,16/03/1997,2020-08-27_15h43.40.269,proactive3.2,2020.1.2,Win32,60,5f47c0b9b035471e11593a5c,5f47c676a258f80be388f66b,2,,,,,,daisy,,,,,,,,,,,1,0,0,6,6,4,1,,,,,,,,,,,,,,,,,,,,,,,,,,,,,,,,,,,,,,,,,,,,,,,,,,,,,,,,,,,,,,,,,,,,,,
,,FAMILY,8.80499,1,,,,,,stimuli/images/PICTURE_302.png,FAMILY,5ef63fc6a3fa221022fb6201,16/03/1997,2020-08-27_15h43.40.269,proactive3.2,2020.1.2,Win32,60,5f47c0b9b035471e11593a5c,5f47c676a258f80be388f66b,2,,,,,,taxi,,,,,,,,,,,2,0,0,7,7,18,1,,,,,,,,,,,,,,,,,,,,,,,,,,,,,,,,,,,,,,,,,,,,,,,,,,,,,,,,,,,,,,,,,,,,,,
,,GODS,4.54477,1,,,,,,stimuli/images/PICTURE_314.png,GODS,5ef63fc6a3fa221022fb6201,16/03/1997,2020-08-27_15h43.40.269,proactive3.2,2020.1.2,Win32,60,5f47c0b9b035471e11593a5c,5f47c676a258f80be388f66b,2,,,,,,perfume,,,,,,,,,,,2,0,0,8,8,11,1,,,,,,,,,,,,,,,,,,,,,,,,,,,,,,,,,,,,,,,,,,,,,,,,,,,,,,,,,,,,,,,,,,,,,,
,,?,0.001185,0,,,,,,stimuli/images/PICTURE_233.png,IDEAS,5ef63fc6a3fa221022fb6201,16/03/1997,2020-08-27_15h43.40.269,proactive3.2,2020.1.2,Win32,60,5f47c0b9b035471e11593a5c,5f47c676a258f80be388f66b,2,,,,,,salt,,,,,,,,,,,3,0,0,9,9,28,1,,,,,,,,,,,,,,,,,,,,,,,,,,,,,,,,,,,,,,,,,,,,,,,,,,,,,,,,,,,,,,,,,,,,,,
,,?,0.000925,0,,,,,,stimuli/images/PICTURE_744.png,SYSTEM,5ef63fc6a3fa221022fb6201,16/03/1997,2020-08-27_15h43.40.269,proactive3.2,2020.1.2,Win32,60,5f47c0b9b035471e11593a5c,5f47c676a258f80be388f66b,2,,,,,,ring,,,,,,,,,,,5,0,0,10,10,43,1,,,,,,,,,,,,,,,,,,,,,,,,,,,,,,,,,,,,,,,,,,,,,,,,,,,,,,,,,,,,,,,,,,,,,,
,,BEAUTY,7.51809,1,,,,,,stimuli/images/PICTURE_311.png,BEAUTY,5ef63fc6a3fa221022fb6201,16/03/1997,2020-08-27_15h43.40.269,proactive3.2,2020.1.2,Win32,60,5f47c0b9b035471e11593a5c,5f47c676a258f80be388f66b,2,,,,,,razor,,,,,,,,,,,2,0,0,11,11,13,1,,,,,,,,,,,,,,,,,,,,,,,,,,,,,,,,,,,,,,,,,,,,,,,,,,,,,,,,,,,,,,,,,,,,,,
,,?,0.001125,0,,,,,,stimuli/images/PICTURE_487.png,FLIGHT,5ef63fc6a3fa221022fb6201,16/03/1997,2020-08-27_15h43.40.269,proactive3.2,2020.1.2,Win32,60,5f47c0b9b035471e11593a5c,5f47c676a258f80be388f66b,2,,,,,,basket,,,,,,,,,,,1,0,0,12,12,9,1,,,,,,,,,,,,,,,,,,,,,,,,,,,,,,,,,,,,,,,,,,,,,,,,,,,,,,,,,,,,,,,,,,,,,,
,,?,0.00085,0,,,,,,stimuli/images/PICTURE_453.png,DUDE,5ef63fc6a3fa221022fb6201,16/03/1997,2020-08-27_15h43.40.269,proactive3.2,2020.1.2,Win32,60,5f47c0b9b035471e11593a5c,5f47c676a258f80be388f66b,2,,,,,,scissors,,,,,,,,,,,3,0,0,13,13,27,1,,,,,,,,,,,,,,,,,,,,,,,,,,,,,,,,,,,,,,,,,,,,,,,,,,,,,,,,,,,,,,,,,,,,,,
