consent_key.keys,consent_key.rt,recalled,recalled_rt,recall_acc,example_recall.thisRepN,example_recall.thisTrialN,example_recall.thisN,example_recall.thisIndex,example_recall.ran,file,word,participant,please enter your date of birth (dd/mm/yyyy),date,expName,psychopyVersion,OS,frameRate,STUDY_ID,SESSION_ID,list,prac_learn_study_loop.thisRepN,prac_learn_study_loop.thisTrialN,prac_learn_study_loop.thisN,prac_learn_study_loop.thisIndex,prac_learn_study_loop.ran,image,prac_learn_test_loop.thisRepN,prac_learn_test_loop.thisTrialN,prac_learn_test_loop.thisN,prac_learn_test_loop.thisIndex,prac_learn_test_loop.ran,learn_study_loop.thisRepN,learn_study_loop.thisTrialN,learn_study_loop.thisN,learn_study_loop.thisIndex,learn_study_loop.ran,list_no,block_no,learn_test_loop.thisRepN,learn_test_loop.thisTrialN,learn_test_loop.thisN,learn_test_loop.thisIndex,learn_test_loop.ran,learn_blocks.thisRepN,learn_blocks.thisTrialN,learn_blocks.thisN,learn_blocks.thisIndex,learn_blocks.ran,block_csv,key_resp_13.keys,key_resp_13.rt,learn_blocks_loop.thisRepN,learn_blocks_loop.thisTrialN,learn_blocks_loop.thisN,learn_blocks_loop.thisIndex,learn_blocks_loop.ran,final_learn_test.thisRepN,final_learn_test.thisTrialN,final_learn_test.thisN,final_learn_test.thisIndex,final_learn_test.ran,prac_wm_test_loop.thisRepN,prac_wm_test_loop.thisTrialN,prac_wm_test_loop.thisN,prac_wm_test_loop.thisIndex,prac_wm_test_loop.ran,wm_recalled1,wm_recall_rt1,wm_probed1,wm_recall_acc1,wm_recalled2,wm_recall_rt2,wm_probed2,wm_recall_acc2,wm_recalled3,wm_recall_rt3,wm_probed3,wm_recall_acc3,wm_recalled4,wm_recall_rt4,wm_probed4,wm_recall_acc4,prac_wm_trial_loop.thisRepN,prac_wm_trial_loop.thisTrialN,prac_wm_trial_loop.thisN,prac_wm_trial_loop.thisIndex,prac_wm_trial_loop.ran,word1,image1,file1,item_type1,word2,image2,file2,item_type2,word4,image4,file4,item_type4,word3,image3,file3,item_type3,wm_test_loop.thisRepN,wm_test_loop.thisTrialN,wm_test_loop.thisN,wm_test_loop.thisIndex,wm_test_loop.ran,wm_trial_loop.thisRepN,wm_trial_loop.thisTrialN,wm_trial_loop.thisN,wm_trial_loop.thisIndex,wm_trial_loop.ran
y,53.61887,TOUGH,4.83745,1,0,0,0,0,1,stimuli/images/PICTURE_747.png,TOUGH,5ef7526666bcd205609299dd,29/04/1997,2020-08-27_15h45.05.804,proactive3.2,2020.1.2,Win32,60,5f47c0b9b035471e11593a5c,5f47c66f3306480b038c9b02,5,,,,,,,,,,,,,,,,,,,,,,,,,,,,,,,,,,,,,,,,,,,,,,,,,,,,,,,,,,,,,,,,,,,,,,,,,,,,,,,,,,,,,,,,,,,,,
,,,,,,,,,,stimuli/images/PICTURE_378.png,LOSS,5ef7526666bcd205609299dd,29/04/1997,2020-08-27_15h45.05.804,proactive3.2,2020.1.2,Win32,60,5f47c0b9b035471e11593a5c,5f47c66f3306480b038c9b02,5,0,0,0,2,1,lobster,,,,,,,,,,,,,,,,,,,,,,,,,,,,,,,,,,,,,,,,,,,,,,,,,,,,,,,,,,,,,,,,,,,,,,,,,,,,,,,,,,,,,,,
,,,,,,,,,,stimuli/images/PICTURE_727.png,CELL,5ef7526666bcd205609299dd,29/04/1997,2020-08-27_15h45.05.804,proactive3.2,2020.1.2,Win32,60,5f47c0b9b035471e11593a5c,5f47c66f3306480b038c9b02,5,0,1,1,1,1,hose,,,,,,,,,,,,,,,,,,,,,,,,,,,,,,,,,,,,,,,,,,,,,,,,,,,,,,,,,,,,,,,,,,,,,,,,,,,,,,,,,,,,,,,
,,,,,,,,,,stimuli/images/PICTURE_269.png,GENIUS,5ef7526666bcd205609299dd,29/04/1997,2020-08-27_15h45.05.804,proactive3.2,2020.1.2,Win32,60,5f47c0b9b035471e11593a5c,5f47c66f3306480b038c9b02,5,0,2,2,0,1,chameleon,,,,,,,,,,,,,,,,,,,,,,,,,,,,,,,,,,,,,,,,,,,,,,,,,,,,,,,,,,,,,,,,,,,,,,,,,,,,,,,,,,,,,,,
,,,,,,,,,,stimuli/images/PICTURE_697.png,KILLER,5ef7526666bcd205609299dd,29/04/1997,2020-08-27_15h45.05.804,proactive3.2,2020.1.2,Win32,60,5f47c0b9b035471e11593a5c,5f47c66f3306480b038c9b02,5,0,3,3,4,1,peach,,,,,,,,,,,,,,,,,,,,,,,,,,,,,,,,,,,,,,,,,,,,,,,,,,,,,,,,,,,,,,,,,,,,,,,,,,,,,,,,,,,,,,,
,,LOSS,2.99028,1,,,,,,stimuli/images/PICTURE_378.png,LOSS,5ef7526666bcd205609299dd,29/04/1997,2020-08-27_15h45.05.804,proactive3.2,2020.1.2,Win32,60,5f47c0b9b035471e11593a5c,5f47c66f3306480b038c9b02,5,,,,,,lobster,0,0,0,2,1,,,,,,,,,,,,,,,,,,,,,,,,,,,,,,,,,,,,,,,,,,,,,,,,,,,,,,,,,,,,,,,,,,,,,,,,,,,,,,,,,,
,,GENIUS,4.07666,1,,,,,,stimuli/images/PICTURE_269.png,GENIUS,5ef7526666bcd205609299dd,29/04/1997,2020-08-27_15h45.05.804,proactive3.2,2020.1.2,Win32,60,5f47c0b9b035471e11593a5c,5f47c66f3306480b038c9b02,5,,,,,,chameleon,0,1,1,0,1,,,,,,,,,,,,,,,,,,,,,,,,,,,,,,,,,,,,,,,,,,,,,,,,,,,,,,,,,,,,,,,,,,,,,,,,,,,,,,,,,,
,,DEVIL,4.54957,1,,,,,,stimuli/images/PICTURE_658.png,DEVIL,5ef7526666bcd205609299dd,29/04/1997,2020-08-27_15h45.05.804,proactive3.2,2020.1.2,Win32,60,5f47c0b9b035471e11593a5c,5f47c66f3306480b038c9b02,5,,,,,,crow,0,2,2,3,1,,,,,,,,,,,,,,,,,,,,,,,,,,,,,,,,,,,,,,,,,,,,,,,,,,,,,,,,,,,,,,,,,,,,,,,,,,,,,,,,,,
,,CELL,3.1146,1,,,,,,stimuli/images/PICTURE_727.png,CELL,5ef7526666bcd205609299dd,29/04/1997,2020-08-27_15h45.05.804,proactive3.2,2020.1.2,Win32,60,5f47c0b9b035471e11593a5c,5f47c66f3306480b038c9b02,5,,,,,,hose,0,3,3,1,1,,,,,,,,,,,,,,,,,,,,,,,,,,,,,,,,,,,,,,,,,,,,,,,,,,,,,,,,,,,,,,,,,,,,,,,,,,,,,,,,,,
,,KILLER,2.87598,1,,,,,,stimuli/images/PICTURE_697.png,KILLER,5ef7526666bcd205609299dd,29/04/1997,2020-08-27_15h45.05.804,proactive3.2,2020.1.2,Win32,60,5f47c0b9b035471e11593a5c,5f47c66f3306480b038c9b02,5,,,,,,peach,0,4,4,4,1,,,,,,,,,,,,,,,,,,,,,,,,,,,,,,,,,,,,,,,,,,,,,,,,,,,,,,,,,,,,,,,,,,,,,,,,,,,,,,,,,,
,,,,,,,,,,stimuli/images/PICTURE_708.png,VALLEY,5ef7526666bcd205609299dd,29/04/1997,2020-08-27_15h45.05.804,proactive3.2,2020.1.2,Win32,60,5f47c0b9b035471e11593a5c,5f47c66f3306480b038c9b02,5,,,,,,monkey,,,,,,0,0,0,45,1,5,2,,,,,,,,,,,,,,,,,,,,,,,,,,,,,,,,,,,,,,,,,,,,,,,,,,,,,,,,,,,,,,,,,,,,,,,,,,,
,,,,,,,,,,stimuli/images/PICTURE_33.png,COPS,5ef7526666bcd205609299dd,29/04/1997,2020-08-27_15h45.05.804,proactive3.2,2020.1.2,Win32,60,5f47c0b9b035471e11593a5c,5f47c66f3306480b038c9b02,5,,,,,,frame,,,,,,0,1,1,29,1,3,2,,,,,,,,,,,,,,,,,,,,,,,,,,,,,,,,,,,,,,,,,,,,,,,,,,,,,,,,,,,,,,,,,,,,,,,,,,,
,,,,,,,,,,stimuli/images/PICTURE_403.png,FAMILY,5ef7526666bcd205609299dd,29/04/1997,2020-08-27_15h45.05.804,proactive3.2,2020.1.2,Win32,60,5f47c0b9b035471e11593a5c,5f47c66f3306480b038c9b02,5,,,,,,cathedral,,,,,,0,2,2,9,1,1,2,,,,,,,,,,,,,,,,,,,,,,,,,,,,,,,,,,,,,,,,,,,,,,,,,,,,,,,,,,,,,,,,,,,,,,,,,,,
,,,,,,,,,,stimuli/images/PICTURE_255.png,PENNY,5ef7526666bcd205609299dd,29/04/1997,2020-08-27_15h45.05.804,proactive3.2,2020.1.2,Win32,60,5f47c0b9b035471e11593a5c,5f47c66f3306480b038c9b02,5,,,,,,shovel,,,,,,0,3,3,19,1,2,2,,,,,,,,,,,,,,,,,,,,,,,,,,,,,,,,,,,,,,,,,,,,,,,,,,,,,,,,,,,,,,,,,,,,,,,,,,,
,,,,,,,,,,stimuli/images/PICTURE_491.png,SERIES,5ef7526666bcd205609299dd,29/04/1997,2020-08-27_15h45.05.804,proactive3.2,2020.1.2,Win32,60,5f47c0b9b035471e11593a5c,5f47c66f3306480b038c9b02,5,,,,,,rug,,,,,,0,4,4,39,1,4,2,,,,,,,,,,,,,,,,,,,,,,,,,,,,,,,,,,,,,,,,,,,,,,,,,,,,,,,,,,,,,,,,,,,,,,,,,,,
,,,,,,,,,,stimuli/images/PICTURE_296.png,CLOCK,5ef7526666bcd205609299dd,29/04/1997,2020-08-27_15h45.05.804,proactive3.2,2020.1.2,Win32,60,5f47c0b9b035471e11593a5c,5f47c66f3306480b038c9b02,5,,,,,,bolt,,,,,,0,5,5,18,1,2,2,,,,,,,,,,,,,,,,,,,,,,,,,,,,,,,,,,,,,,,,,,,,,,,,,,,,,,,,,,,,,,,,,,,,,,,,,,,
,,,,,,,,,,stimuli/images/PICTURE_327.png,LEADER,5ef7526666bcd205609299dd,29/04/1997,2020-08-27_15h45.05.804,proactive3.2,2020.1.2,Win32,60,5f47c0b9b035471e11593a5c,5f47c66f3306480b038c9b02,5,,,,,,helmet,,,,,,0,6,6,17,1,2,2,,,,,,,,,,,,,,,,,,,,,,,,,,,,,,,,,,,,,,,,,,,,,,,,,,,,,,,,,,,,,,,,,,,,,,,,,,,
,,,,,,,,,,stimuli/images/PICTURE_655.png,SALE,5ef7526666bcd205609299dd,29/04/1997,2020-08-27_15h45.05.804,proactive3.2,2020.1.2,Win32,60,5f47c0b9b035471e11593a5c,5f47c66f3306480b038c9b02,5,,,,,,megaphone,,,,,,0,7,7,57,1,6,2,,,,,,,,,,,,,,,,,,,,,,,,,,,,,,,,,,,,,,,,,,,,,,,,,,,,,,,,,,,,,,,,,,,,,,,,,,,
,,,,,,,,,,stimuli/images/PICTURE_564.png,PLENTY,5ef7526666bcd205609299dd,29/04/1997,2020-08-27_15h45.05.804,proactive3.2,2020.1.2,Win32,60,5f47c0b9b035471e11593a5c,5f47c66f3306480b038c9b02,5,,,,,,spoon,,,,,,0,8,8,11,1,2,2,,,,,,,,,,,,,,,,,,,,,,,,,,,,,,,,,,,,,,,,,,,,,,,,,,,,,,,,,,,,,,,,,,,,,,,,,,,
,,,,,,,,,,stimuli/images/PICTURE_750.png,POLICY,5ef7526666bcd205609299dd,29/04/1997,2020-08-27_15h45.05.804,proactive3.2,2020.1.2,Win32,60,5f47c0b9b035471e11593a5c,5f47c66f3306480b038c9b02,5,,,,,,kettle,,,,,,0,9,9,44,1,5,2,,,,,,,,,,,,,,,,,,,,,,,,,,,,,,,,,,,,,,,,,,,,,,,,,,,,,,,,,,,,,,,,,,,,,,,,,,,
,,,,,,,,,,stimuli/images/PICTURE_405.png,HOUSE,5ef7526666bcd205609299dd,29/04/1997,2020-08-27_15h45.05.804,proactive3.2,2020.1.2,Win32,60,5f47c0b9b035471e11593a5c,5f47c66f3306480b038c9b02,5,,,,,,anchor,,,,,,0,10,10,2,1,1,2,,,,,,,,,,,,,,,,,,,,,,,,,,,,,,,,,,,,,,,,,,,,,,,,,,,,,,,,,,,,,,,,,,,,,,,,,,,
,,,,,,,,,,stimuli/images/PICTURE_677.png,FAMILY,5ef7526666bcd205609299dd,29/04/1997,2020-08-27_15h45.05.804,proactive3.2,2020.1.2,Win32,60,5f47c0b9b035471e11593a5c,5f47c66f3306480b038c9b02,5,,,,,,map,,,,,,0,11,11,53,1,6,2,,,,,,,,,,,,,,,,,,,,,,,,,,,,,,,,,,,,,,,,,,,,,,,,,,,,,,,,,,,,,,,,,,,,,,,,,,,
,,,,,,,,,,stimuli/images/PICTURE_285.png,WRITER,5ef7526666bcd205609299dd,29/04/1997,2020-08-27_15h45.05.804,proactive3.2,2020.1.2,Win32,60,5f47c0b9b035471e11593a5c,5f47c66f3306480b038c9b02,5,,,,,,carrot,,,,,,0,12,12,6,1,1,2,,,,,,,,,,,,,,,,,,,,,,,,,,,,,,,,,,,,,,,,,,,,,,,,,,,,,,,,,,,,,,,,,,,,,,,,,,,
,,,,,,,,,,stimuli/images/PICTURE_348.png,TOILET,5ef7526666bcd205609299dd,29/04/1997,2020-08-27_15h45.05.804,proactive3.2,2020.1.2,Win32,60,5f47c0b9b035471e11593a5c,5f47c66f3306480b038c9b02,5,,,,,,pepper,,,,,,0,13,13,4,1,1,2,,,,,,,,,,,,,,,,,,,,,,,,,,,,,,,,,,,,,,,,,,,,,,,,,,,,,,,,,,,,,,,,,,,,,,,,,,,
,,,,,,,,,,stimuli/images/PICTURE_356.png,CANDY,5ef7526666bcd205609299dd,29/04/1997,2020-08-27_15h45.05.804,proactive3.2,2020.1.2,Win32,60,5f47c0b9b035471e11593a5c,5f47c66f3306480b038c9b02,5,,,,,,pawn,,,,,,0,14,14,46,1,5,2,,,,,,,,,,,,,,,,,,,,,,,,,,,,,,,,,,,,,,,,,,,,,,,,,,,,,,,,,,,,,,,,,,,,,,,,,,,
,,,,,,,,,,stimuli/images/PICTURE_57.png,CANDY,5ef7526666bcd205609299dd,29/04/1997,2020-08-27_15h45.05.804,proactive3.2,2020.1.2,Win32,60,5f47c0b9b035471e11593a5c,5f47c66f3306480b038c9b02,5,,,,,,stamp,,,,,,0,15,15,52,1,6,2,,,,,,,,,,,,,,,,,,,,,,,,,,,,,,,,,,,,,,,,,,,,,,,,,,,,,,,,,,,,,,,,,,,,,,,,,,,
,,,,,,,,,,stimuli/images/PICTURE_654.png,COPS,5ef7526666bcd205609299dd,29/04/1997,2020-08-27_15h45.05.804,proactive3.2,2020.1.2,Win32,60,5f47c0b9b035471e11593a5c,5f47c66f3306480b038c9b02,5,,,,,,pencil,,,,,,0,16,16,10,1,2,2,,,,,,,,,,,,,,,,,,,,,,,,,,,,,,,,,,,,,,,,,,,,,,,,,,,,,,,,,,,,,,,,,,,,,,,,,,,
,,,,,,,,,,stimuli/images/PICTURE_487.png,POLICY,5ef7526666bcd205609299dd,29/04/1997,2020-08-27_15h45.05.804,proactive3.2,2020.1.2,Win32,60,5f47c0b9b035471e11593a5c,5f47c66f3306480b038c9b02,5,,,,,,basket,,,,,,0,17,17,34,1,4,2,,,,,,,,,,,,,,,,,,,,,,,,,,,,,,,,,,,,,,,,,,,,,,,,,,,,,,,,,,,,,,,,,,,,,,,,,,,
,,,,,,,,,,stimuli/images/PICTURE_57.png,CASINO,5ef7526666bcd205609299dd,29/04/1997,2020-08-27_15h45.05.804,proactive3.2,2020.1.2,Win32,60,5f47c0b9b035471e11593a5c,5f47c66f3306480b038c9b02,5,,,,,,stamp,,,,,,0,18,18,12,1,2,2,,,,,,,,,,,,,,,,,,,,,,,,,,,,,,,,,,,,,,,,,,,,,,,,,,,,,,,,,,,,,,,,,,,,,,,,,,,
,,,,,,,,,,stimuli/images/PICTURE_2.png,YARD,5ef7526666bcd205609299dd,29/04/1997,2020-08-27_15h45.05.804,proactive3.2,2020.1.2,Win32,60,5f47c0b9b035471e11593a5c,5f47c66f3306480b038c9b02,5,,,,,,tyre,,,,,,0,19,19,55,1,6,2,,,,,,,,,,,,,,,,,,,,,,,,,,,,,,,,,,,,,,,,,,,,,,,,,,,,,,,,,,,,,,,,,,,,,,,,,,,
,,,,,,,,,,stimuli/images/PICTURE_470.png,BEAUTY,5ef7526666bcd205609299dd,29/04/1997,2020-08-27_15h45.05.804,proactive3.2,2020.1.2,Win32,60,5f47c0b9b035471e11593a5c,5f47c66f3306480b038c9b02,5,,,,,,motorbike,,,,,,0,20,20,26,1,3,2,,,,,,,,,,,,,,,,,,,,,,,,,,,,,,,,,,,,,,,,,,,,,,,,,,,,,,,,,,,,,,,,,,,,,,,,,,,
,,,,,,,,,,stimuli/images/PICTURE_18.png,RIVER,5ef7526666bcd205609299dd,29/04/1997,2020-08-27_15h45.05.804,proactive3.2,2020.1.2,Win32,60,5f47c0b9b035471e11593a5c,5f47c66f3306480b038c9b02,5,,,,,,planet,,,,,,0,21,21,22,1,3,2,,,,,,,,,,,,,,,,,,,,,,,,,,,,,,,,,,,,,,,,,,,,,,,,,,,,,,,,,,,,,,,,,,,,,,,,,,,
,,,,,,,,,,stimuli/images/PICTURE_141.png,CLIENT,5ef7526666bcd205609299dd,29/04/1997,2020-08-27_15h45.05.804,proactive3.2,2020.1.2,Win32,60,5f47c0b9b035471e11593a5c,5f47c66f3306480b038c9b02,5,,,,,,sunflower,,,,,,0,22,22,30,1,4,2,,,,,,,,,,,,,,,,,,,,,,,,,,,,,,,,,,,,,,,,,,,,,,,,,,,,,,,,,,,,,,,,,,,,,,,,,,,
,,,,,,,,,,stimuli/images/PICTURE_509.png,SHOTS,5ef7526666bcd205609299dd,29/04/1997,2020-08-27_15h45.05.804,proactive3.2,2020.1.2,Win32,60,5f47c0b9b035471e11593a5c,5f47c66f3306480b038c9b02,5,,,,,,telephone,,,,,,0,23,23,7,1,1,2,,,,,,,,,,,,,,,,,,,,,,,,,,,,,,,,,,,,,,,,,,,,,,,,,,,,,,,,,,,,,,,,,,,,,,,,,,,
,,,,,,,,,,stimuli/images/PICTURE_297.png,BODY,5ef7526666bcd205609299dd,29/04/1997,2020-08-27_15h45.05.804,proactive3.2,2020.1.2,Win32,60,5f47c0b9b035471e11593a5c,5f47c66f3306480b038c9b02,5,,,,,,aeroplane,,,,,,0,24,24,51,1,6,2,,,,,,,,,,,,,,,,,,,,,,,,,,,,,,,,,,,,,,,,,,,,,,,,,,,,,,,,,,,,,,,,,,,,,,,,,,,
,,,,,,,,,,stimuli/images/PICTURE_405.png,JUNGLE,5ef7526666bcd205609299dd,29/04/1997,2020-08-27_15h45.05.804,proactive3.2,2020.1.2,Win32,60,5f47c0b9b035471e11593a5c,5f47c66f3306480b038c9b02,5,,,,,,anchor,,,,,,0,25,25,13,1,2,2,,,,,,,,,,,,,,,,,,,,,,,,,,,,,,,,,,,,,,,,,,,,,,,,,,,,,,,,,,,,,,,,,,,,,,,,,,,
,,,,,,,,,,stimuli/images/PICTURE_285.png,PRINCE,5ef7526666bcd205609299dd,29/04/1997,2020-08-27_15h45.05.804,proactive3.2,2020.1.2,Win32,60,5f47c0b9b035471e11593a5c,5f47c66f3306480b038c9b02,5,,,,,,carrot,,,,,,0,26,26,20,1,3,2,,,,,,,,,,,,,,,,,,,,,,,,,,,,,,,,,,,,,,,,,,,,,,,,,,,,,,,,,,,,,,,,,,,,,,,,,,,
,,,,,,,,,,stimuli/images/PICTURE_215.png,FOOD,5ef7526666bcd205609299dd,29/04/1997,2020-08-27_15h45.05.804,proactive3.2,2020.1.2,Win32,60,5f47c0b9b035471e11593a5c,5f47c66f3306480b038c9b02,5,,,,,,boot,,,,,,0,27,27,5,1,1,2,,,,,,,,,,,,,,,,,,,,,,,,,,,,,,,,,,,,,,,,,,,,,,,,,,,,,,,,,,,,,,,,,,,,,,,,,,,
,,,,,,,,,,stimuli/images/PICTURE_95.png,NIGHT,5ef7526666bcd205609299dd,29/04/1997,2020-08-27_15h45.05.804,proactive3.2,2020.1.2,Win32,60,5f47c0b9b035471e11593a5c,5f47c66f3306480b038c9b02,5,,,,,,suitcase,,,,,,0,28,28,37,1,4,2,,,,,,,,,,,,,,,,,,,,,,,,,,,,,,,,,,,,,,,,,,,,,,,,,,,,,,,,,,,,,,,,,,,,,,,,,,,
,,,,,,,,,,stimuli/images/PICTURE_509.png,MILLER,5ef7526666bcd205609299dd,29/04/1997,2020-08-27_15h45.05.804,proactive3.2,2020.1.2,Win32,60,5f47c0b9b035471e11593a5c,5f47c66f3306480b038c9b02,5,,,,,,telephone,,,,,,0,29,29,49,1,5,2,,,,,,,,,,,,,,,,,,,,,,,,,,,,,,,,,,,,,,,,,,,,,,,,,,,,,,,,,,,,,,,,,,,,,,,,,,,
,,,,,,,,,,stimuli/images/PICTURE_677.png,PHOTO,5ef7526666bcd205609299dd,29/04/1997,2020-08-27_15h45.05.804,proactive3.2,2020.1.2,Win32,60,5f47c0b9b035471e11593a5c,5f47c66f3306480b038c9b02,5,,,,,,map,,,,,,0,30,30,14,1,2,2,,,,,,,,,,,,,,,,,,,,,,,,,,,,,,,,,,,,,,,,,,,,,,,,,,,,,,,,,,,,,,,,,,,,,,,,,,,
,,,,,,,,,,stimuli/images/PICTURE_215.png,LEADER,5ef7526666bcd205609299dd,29/04/1997,2020-08-27_15h45.05.804,proactive3.2,2020.1.2,Win32,60,5f47c0b9b035471e11593a5c,5f47c66f3306480b038c9b02,5,,,,,,boot,,,,,,0,31,31,43,1,5,2,,,,,,,,,,,,,,,,,,,,,,,,,,,,,,,,,,,,,,,,,,,,,,,,,,,,,,,,,,,,,,,,,,,,,,,,,,,
,,,,,,,,,,stimuli/images/PICTURE_692.png,DUDE,5ef7526666bcd205609299dd,29/04/1997,2020-08-27_15h45.05.804,proactive3.2,2020.1.2,Win32,60,5f47c0b9b035471e11593a5c,5f47c66f3306480b038c9b02,5,,,,,,cherry,,,,,,0,32,32,47,1,5,2,,,,,,,,,,,,,,,,,,,,,,,,,,,,,,,,,,,,,,,,,,,,,,,,,,,,,,,,,,,,,,,,,,,,,,,,,,,
,,,,,,,,,,stimuli/images/PICTURE_509.png,BATH,5ef7526666bcd205609299dd,29/04/1997,2020-08-27_15h45.05.804,proactive3.2,2020.1.2,Win32,60,5f47c0b9b035471e11593a5c,5f47c66f3306480b038c9b02,5,,,,,,telephone,,,,,,0,33,33,15,1,2,2,,,,,,,,,,,,,,,,,,,,,,,,,,,,,,,,,,,,,,,,,,,,,,,,,,,,,,,,,,,,,,,,,,,,,,,,,,,
,,,,,,,,,,stimuli/images/PICTURE_215.png,BOYS,5ef7526666bcd205609299dd,29/04/1997,2020-08-27_15h45.05.804,proactive3.2,2020.1.2,Win32,60,5f47c0b9b035471e11593a5c,5f47c66f3306480b038c9b02,5,,,,,,boot,,,,,,0,34,34,24,1,3,2,,,,,,,,,,,,,,,,,,,,,,,,,,,,,,,,,,,,,,,,,,,,,,,,,,,,,,,,,,,,,,,,,,,,,,,,,,,
,,,,,,,,,,stimuli/images/PICTURE_147.png,LEADER,5ef7526666bcd205609299dd,29/04/1997,2020-08-27_15h45.05.804,proactive3.2,2020.1.2,Win32,60,5f47c0b9b035471e11593a5c,5f47c66f3306480b038c9b02,5,,,,,,hanger,,,,,,0,35,35,33,1,4,2,,,,,,,,,,,,,,,,,,,,,,,,,,,,,,,,,,,,,,,,,,,,,,,,,,,,,,,,,,,,,,,,,,,,,,,,,,,
,,,,,,,,,,stimuli/images/PICTURE_2.png,JUNGLE,5ef7526666bcd205609299dd,29/04/1997,2020-08-27_15h45.05.804,proactive3.2,2020.1.2,Win32,60,5f47c0b9b035471e11593a5c,5f47c66f3306480b038c9b02,5,,,,,,tyre,,,,,,0,36,36,1,1,1,2,,,,,,,,,,,,,,,,,,,,,,,,,,,,,,,,,,,,,,,,,,,,,,,,,,,,,,,,,,,,,,,,,,,,,,,,,,,
,,,,,,,,,,stimuli/images/PICTURE_311.png,TOILET,5ef7526666bcd205609299dd,29/04/1997,2020-08-27_15h45.05.804,proactive3.2,2020.1.2,Win32,60,5f47c0b9b035471e11593a5c,5f47c66f3306480b038c9b02,5,,,,,,razor,,,,,,0,37,37,54,1,6,2,,,,,,,,,,,,,,,,,,,,,,,,,,,,,,,,,,,,,,,,,,,,,,,,,,,,,,,,,,,,,,,,,,,,,,,,,,,
,,,,,,,,,,stimuli/images/PICTURE_452.png,COPS,5ef7526666bcd205609299dd,29/04/1997,2020-08-27_15h45.05.804,proactive3.2,2020.1.2,Win32,60,5f47c0b9b035471e11593a5c,5f47c66f3306480b038c9b02,5,,,,,,watch,,,,,,0,38,38,0,1,1,2,,,,,,,,,,,,,,,,,,,,,,,,,,,,,,,,,,,,,,,,,,,,,,,,,,,,,,,,,,,,,,,,,,,,,,,,,,,
,,,,,,,,,,stimuli/images/PICTURE_32.png,LETTER,5ef7526666bcd205609299dd,29/04/1997,2020-08-27_15h45.05.804,proactive3.2,2020.1.2,Win32,60,5f47c0b9b035471e11593a5c,5f47c66f3306480b038c9b02,5,,,,,,crown,,,,,,0,39,39,56,1,6,2,,,,,,,,,,,,,,,,,,,,,,,,,,,,,,,,,,,,,,,,,,,,,,,,,,,,,,,,,,,,,,,,,,,,,,,,,,,
,,,,,,,,,,stimuli/images/PICTURE_314.png,SPEECH,5ef7526666bcd205609299dd,29/04/1997,2020-08-27_15h45.05.804,proactive3.2,2020.1.2,Win32,60,5f47c0b9b035471e11593a5c,5f47c66f3306480b038c9b02,5,,,,,,perfume,,,,,,0,40,40,35,1,4,2,,,,,,,,,,,,,,,,,,,,,,,,,,,,,,,,,,,,,,,,,,,,,,,,,,,,,,,,,,,,,,,,,,,,,,,,,,,
,,,,,,,,,,stimuli/images/PICTURE_93.png,GIRL,5ef7526666bcd205609299dd,29/04/1997,2020-08-27_15h45.05.804,proactive3.2,2020.1.2,Win32,60,5f47c0b9b035471e11593a5c,5f47c66f3306480b038c9b02,5,,,,,,skateboard,,,,,,0,41,41,31,1,4,2,,,,,,,,,,,,,,,,,,,,,,,,,,,,,,,,,,,,,,,,,,,,,,,,,,,,,,,,,,,,,,,,,,,,,,,,,,,
,,,,,,,,,,stimuli/images/PICTURE_57.png,NATION,5ef7526666bcd205609299dd,29/04/1997,2020-08-27_15h45.05.804,proactive3.2,2020.1.2,Win32,60,5f47c0b9b035471e11593a5c,5f47c66f3306480b038c9b02,5,,,,,,stamp,,,,,,0,42,42,21,1,3,2,,,,,,,,,,,,,,,,,,,,,,,,,,,,,,,,,,,,,,,,,,,,,,,,,,,,,,,,,,,,,,,,,,,,,,,,,,,
,,,,,,,,,,stimuli/images/PICTURE_160.png,HOTEL,5ef7526666bcd205609299dd,29/04/1997,2020-08-27_15h45.05.804,proactive3.2,2020.1.2,Win32,60,5f47c0b9b035471e11593a5c,5f47c66f3306480b038c9b02,5,,,,,,wheelbarrow,,,,,,0,43,43,16,1,2,2,,,,,,,,,,,,,,,,,,,,,,,,,,,,,,,,,,,,,,,,,,,,,,,,,,,,,,,,,,,,,,,,,,,,,,,,,,,
,,,,,,,,,,stimuli/images/PICTURE_487.png,ROOF,5ef7526666bcd205609299dd,29/04/1997,2020-08-27_15h45.05.804,proactive3.2,2020.1.2,Win32,60,5f47c0b9b035471e11593a5c,5f47c66f3306480b038c9b02,5,,,,,,basket,,,,,,0,44,44,50,1,6,2,,,,,,,,,,,,,,,,,,,,,,,,,,,,,,,,,,,,,,,,,,,,,,,,,,,,,,,,,,,,,,,,,,,,,,,,,,,
,,,,,,,,,,stimuli/images/PICTURE_453.png,FAMILY,5ef7526666bcd205609299dd,29/04/1997,2020-08-27_15h45.05.804,proactive3.2,2020.1.2,Win32,60,5f47c0b9b035471e11593a5c,5f47c66f3306480b038c9b02,5,,,,,,scissors,,,,,,0,45,45,48,1,5,2,,,,,,,,,,,,,,,,,,,,,,,,,,,,,,,,,,,,,,,,,,,,,,,,,,,,,,,,,,,,,,,,,,,,,,,,,,,
,,,,,,,,,,stimuli/images/PICTURE_688.png,CLOCK,5ef7526666bcd205609299dd,29/04/1997,2020-08-27_15h45.05.804,proactive3.2,2020.1.2,Win32,60,5f47c0b9b035471e11593a5c,5f47c66f3306480b038c9b02,5,,,,,,runner,,,,,,0,46,46,42,1,5,2,,,,,,,,,,,,,,,,,,,,,,,,,,,,,,,,,,,,,,,,,,,,,,,,,,,,,,,,,,,,,,,,,,,,,,,,,,,
,,,,,,,,,,stimuli/images/PICTURE_667.png,GLASS,5ef7526666bcd205609299dd,29/04/1997,2020-08-27_15h45.05.804,proactive3.2,2020.1.2,Win32,60,5f47c0b9b035471e11593a5c,5f47c66f3306480b038c9b02,5,,,,,,daisy,,,,,,0,47,47,27,1,3,2,,,,,,,,,,,,,,,,,,,,,,,,,,,,,,,,,,,,,,,,,,,,,,,,,,,,,,,,,,,,,,,,,,,,,,,,,,,
,,,,,,,,,,stimuli/images/PICTURE_504.png,HOUSE,5ef7526666bcd205609299dd,29/04/1997,2020-08-27_15h45.05.804,proactive3.2,2020.1.2,Win32,60,5f47c0b9b035471e11593a5c,5f47c66f3306480b038c9b02,5,,,,,,wheel,,,,,,0,48,48,36,1,4,2,,,,,,,,,,,,,,,,,,,,,,,,,,,,,,,,,,,,,,,,,,,,,,,,,,,,,,,,,,,,,,,,,,,,,,,,,,,
,,,,,,,,,,stimuli/images/PICTURE_208.png,SPIRIT,5ef7526666bcd205609299dd,29/04/1997,2020-08-27_15h45.05.804,proactive3.2,2020.1.2,Win32,60,5f47c0b9b035471e11593a5c,5f47c66f3306480b038c9b02,5,,,,,,microphone,,,,,,0,49,49,28,1,3,2,,,,,,,,,,,,,,,,,,,,,,,,,,,,,,,,,,,,,,,,,,,,,,,,,,,,,,,,,,,,,,,,,,,,,,,,,,,
,,,,,,,,,,stimuli/images/PICTURE_2.png,AREA,5ef7526666bcd205609299dd,29/04/1997,2020-08-27_15h45.05.804,proactive3.2,2020.1.2,Win32,60,5f47c0b9b035471e11593a5c,5f47c66f3306480b038c9b02,5,,,,,,tyre,,,,,,0,50,50,32,1,4,2,,,,,,,,,,,,,,,,,,,,,,,,,,,,,,,,,,,,,,,,,,,,,,,,,,,,,,,,,,,,,,,,,,,,,,,,,,,
,,,,,,,,,,stimuli/images/PICTURE_68.png,KIND,5ef7526666bcd205609299dd,29/04/1997,2020-08-27_15h45.05.804,proactive3.2,2020.1.2,Win32,60,5f47c0b9b035471e11593a5c,5f47c66f3306480b038c9b02,5,,,,,,candle,,,,,,0,51,51,23,1,3,2,,,,,,,,,,,,,,,,,,,,,,,,,,,,,,,,,,,,,,,,,,,,,,,,,,,,,,,,,,,,,,,,,,,,,,,,,,,
,,,,,,,,,,stimuli/images/PICTURE_509.png,APPLE,5ef7526666bcd205609299dd,29/04/1997,2020-08-27_15h45.05.804,proactive3.2,2020.1.2,Win32,60,5f47c0b9b035471e11593a5c,5f47c66f3306480b038c9b02,5,,,,,,telephone,,,,,,0,52,52,38,1,4,2,,,,,,,,,,,,,,,,,,,,,,,,,,,,,,,,,,,,,,,,,,,,,,,,,,,,,,,,,,,,,,,,,,,,,,,,,,,
,,,,,,,,,,stimuli/images/PICTURE_470.png,MOMENT,5ef7526666bcd205609299dd,29/04/1997,2020-08-27_15h45.05.804,proactive3.2,2020.1.2,Win32,60,5f47c0b9b035471e11593a5c,5f47c66f3306480b038c9b02,5,,,,,,motorbike,,,,,,0,53,53,40,1,5,2,,,,,,,,,,,,,,,,,,,,,,,,,,,,,,,,,,,,,,,,,,,,,,,,,,,,,,,,,,,,,,,,,,,,,,,,,,,
,,,,,,,,,,stimuli/images/PICTURE_123.png,SALE,5ef7526666bcd205609299dd,29/04/1997,2020-08-27_15h45.05.804,proactive3.2,2020.1.2,Win32,60,5f47c0b9b035471e11593a5c,5f47c66f3306480b038c9b02,5,,,,,,dart,,,,,,0,54,54,8,1,1,2,,,,,,,,,,,,,,,,,,,,,,,,,,,,,,,,,,,,,,,,,,,,,,,,,,,,,,,,,,,,,,,,,,,,,,,,,,,
,,,,,,,,,,stimuli/images/PICTURE_311.png,FLESH,5ef7526666bcd205609299dd,29/04/1997,2020-08-27_15h45.05.804,proactive3.2,2020.1.2,Win32,60,5f47c0b9b035471e11593a5c,5f47c66f3306480b038c9b02,5,,,,,,razor,,,,,,0,55,55,3,1,1,2,,,,,,,,,,,,,,,,,,,,,,,,,,,,,,,,,,,,,,,,,,,,,,,,,,,,,,,,,,,,,,,,,,,,,,,,,,,
,,,,,,,,,,stimuli/images/PICTURE_654.png,YEAR,5ef7526666bcd205609299dd,29/04/1997,2020-08-27_15h45.05.804,proactive3.2,2020.1.2,Win32,60,5f47c0b9b035471e11593a5c,5f47c66f3306480b038c9b02,5,,,,,,pencil,,,,,,0,56,56,41,1,5,2,,,,,,,,,,,,,,,,,,,,,,,,,,,,,,,,,,,,,,,,,,,,,,,,,,,,,,,,,,,,,,,,,,,,,,,,,,,
,,,,,,,,,,stimuli/images/PICTURE_177.png,HOUSE,5ef7526666bcd205609299dd,29/04/1997,2020-08-27_15h45.05.804,proactive3.2,2020.1.2,Win32,60,5f47c0b9b035471e11593a5c,5f47c66f3306480b038c9b02,5,,,,,,mushroom,,,,,,0,57,57,25,1,3,2,,,,,,,,,,,,,,,,,,,,,,,,,,,,,,,,,,,,,,,,,,,,,,,,,,,,,,,,,,,,,,,,,,,,,,,,,,,
,,,,,,,,,,stimuli/images/PICTURE_405.png,JUNGLE,5ef7526666bcd205609299dd,29/04/1997,2020-08-27_15h45.05.804,proactive3.2,2020.1.2,Win32,60,5f47c0b9b035471e11593a5c,5f47c66f3306480b038c9b02,5,,,,,,anchor,,,,,,0,58,58,58,1,6,2,,,,,,,,,,,,,,,,,,,,,,,,,,,,,,,,,,,,,,,,,,,,,,,,,,,,,,,,,,,,,,,,,,,,,,,,,,,
,,?,0.002855,0,,,,,,stimuli/images/PICTURE_509.png,BATH,5ef7526666bcd205609299dd,29/04/1997,2020-08-27_15h45.05.804,proactive3.2,2020.1.2,Win32,60,5f47c0b9b035471e11593a5c,5f47c66f3306480b038c9b02,5,,,,,,telephone,,,,,,,,,,,2,2,0,0,0,15,1,,,,,,,,,,,,,,,,,,,,,,,,,,,,,,,,,,,,,,,,,,,,,,,,,,,,,,,,,,,,,,,,,,,,,,
,,?,0.002545,0,,,,,,stimuli/images/PICTURE_405.png,JUNGLE,5ef7526666bcd205609299dd,29/04/1997,2020-08-27_15h45.05.804,proactive3.2,2020.1.2,Win32,60,5f47c0b9b035471e11593a5c,5f47c66f3306480b038c9b02,5,,,,,,anchor,,,,,,,,,,,2,2,0,1,1,13,1,,,,,,,,,,,,,,,,,,,,,,,,,,,,,,,,,,,,,,,,,,,,,,,,,,,,,,,,,,,,,,,,,,,,,,
,,?,0.002515,0,,,,,,stimuli/images/PICTURE_68.png,KIND,5ef7526666bcd205609299dd,29/04/1997,2020-08-27_15h45.05.804,proactive3.2,2020.1.2,Win32,60,5f47c0b9b035471e11593a5c,5f47c66f3306480b038c9b02,5,,,,,,candle,,,,,,,,,,,3,2,0,2,2,23,1,,,,,,,,,,,,,,,,,,,,,,,,,,,,,,,,,,,,,,,,,,,,,,,,,,,,,,,,,,,,,,,,,,,,,,
,,?,0.004395,0,,,,,,stimuli/images/PICTURE_509.png,APPLE,5ef7526666bcd205609299dd,29/04/1997,2020-08-27_15h45.05.804,proactive3.2,2020.1.2,Win32,60,5f47c0b9b035471e11593a5c,5f47c66f3306480b038c9b02,5,,,,,,telephone,,,,,,,,,,,4,2,0,3,3,38,1,,,,,,,,,,,,,,,,,,,,,,,,,,,,,,,,,,,,,,,,,,,,,,,,,,,,,,,,,,,,,,,,,,,,,,
,,?,0.002665,0,,,,,,stimuli/images/PICTURE_2.png,YARD,5ef7526666bcd205609299dd,29/04/1997,2020-08-27_15h45.05.804,proactive3.2,2020.1.2,Win32,60,5f47c0b9b035471e11593a5c,5f47c66f3306480b038c9b02,5,,,,,,tyre,,,,,,,,,,,6,2,0,4,4,55,1,,,,,,,,,,,,,,,,,,,,,,,,,,,,,,,,,,,,,,,,,,,,,,,,,,,,,,,,,,,,,,,,,,,,,,
,,?,0.00299,0,,,,,,stimuli/images/PICTURE_147.png,LEADER,5ef7526666bcd205609299dd,29/04/1997,2020-08-27_15h45.05.804,proactive3.2,2020.1.2,Win32,60,5f47c0b9b035471e11593a5c,5f47c66f3306480b038c9b02,5,,,,,,hanger,,,,,,,,,,,4,2,0,5,5,33,1,,,,,,,,,,,,,,,,,,,,,,,,,,,,,,,,,,,,,,,,,,,,,,,,,,,,,,,,,,,,,,,,,,,,,,
,,?,0.002595,0,,,,,,stimuli/images/PICTURE_405.png,HOUSE,5ef7526666bcd205609299dd,29/04/1997,2020-08-27_15h45.05.804,proactive3.2,2020.1.2,Win32,60,5f47c0b9b035471e11593a5c,5f47c66f3306480b038c9b02,5,,,,,,anchor,,,,,,,,,,,1,2,0,6,6,2,1,,,,,,,,,,,,,,,,,,,,,,,,,,,,,,,,,,,,,,,,,,,,,,,,,,,,,,,,,,,,,,,,,,,,,,
,,?,0.004125,0,,,,,,stimuli/images/PICTURE_487.png,POLICY,5ef7526666bcd205609299dd,29/04/1997,2020-08-27_15h45.05.804,proactive3.2,2020.1.2,Win32,60,5f47c0b9b035471e11593a5c,5f47c66f3306480b038c9b02,5,,,,,,basket,,,,,,,,,,,4,2,0,7,7,34,1,,,,,,,,,,,,,,,,,,,,,,,,,,,,,,,,,,,,,,,,,,,,,,,,,,,,,,,,,,,,,,,,,,,,,,
,,?,0.00303,0,,,,,,stimuli/images/PICTURE_314.png,SPEECH,5ef7526666bcd205609299dd,29/04/1997,2020-08-27_15h45.05.804,proactive3.2,2020.1.2,Win32,60,5f47c0b9b035471e11593a5c,5f47c66f3306480b038c9b02,5,,,,,,perfume,,,,,,,,,,,4,2,0,8,8,35,1,,,,,,,,,,,,,,,,,,,,,,,,,,,,,,,,,,,,,,,,,,,,,,,,,,,,,,,,,,,,,,,,,,,,,,
,,?,0.00293,0,,,,,,stimuli/images/PICTURE_32.png,LETTER,5ef7526666bcd205609299dd,29/04/1997,2020-08-27_15h45.05.804,proactive3.2,2020.1.2,Win32,60,5f47c0b9b035471e11593a5c,5f47c66f3306480b038c9b02,5,,,,,,crown,,,,,,,,,,,6,2,0,9,9,56,1,,,,,,,,,,,,,,,,,,,,,,,,,,,,,,,,,,,,,,,,,,,,,,,,,,,,,,,,,,,,,,,,,,,,,,
,,?,0.003965,0,,,,,,stimuli/images/PICTURE_215.png,FOOD,5ef7526666bcd205609299dd,29/04/1997,2020-08-27_15h45.05.804,proactive3.2,2020.1.2,Win32,60,5f47c0b9b035471e11593a5c,5f47c66f3306480b038c9b02,5,,,,,,boot,,,,,,,,,,,1,2,0,10,10,5,1,,,,,,,,,,,,,,,,,,,,,,,,,,,,,,,,,,,,,,,,,,,,,,,,,,,,,,,,,,,,,,,,,,,,,,
,,?,0.00232,0,,,,,,stimuli/images/PICTURE_93.png,GIRL,5ef7526666bcd205609299dd,29/04/1997,2020-08-27_15h45.05.804,proactive3.2,2020.1.2,Win32,60,5f47c0b9b035471e11593a5c,5f47c66f3306480b038c9b02,5,,,,,,skateboard,,,,,,,,,,,4,2,0,11,11,31,1,,,,,,,,,,,,,,,,,,,,,,,,,,,,,,,,,,,,,,,,,,,,,,,,,,,,,,,,,,,,,,,,,,,,,,
,,?,0.001755,0,,,,,,stimuli/images/PICTURE_95.png,NIGHT,5ef7526666bcd205609299dd,29/04/1997,2020-08-27_15h45.05.804,proactive3.2,2020.1.2,Win32,60,5f47c0b9b035471e11593a5c,5f47c66f3306480b038c9b02,5,,,,,,suitcase,,,,,,,,,,,4,2,0,12,12,37,1,,,,,,,,,,,,,,,,,,,,,,,,,,,,,,,,,,,,,,,,,,,,,,,,,,,,,,,,,,,,,,,,,,,,,,
,,?,0.001695,0,,,,,,stimuli/images/PICTURE_654.png,COPS,5ef7526666bcd205609299dd,29/04/1997,2020-08-27_15h45.05.804,proactive3.2,2020.1.2,Win32,60,5f47c0b9b035471e11593a5c,5f47c66f3306480b038c9b02,5,,,,,,pencil,,,,,,,,,,,2,2,0,13,13,10,1,,,,,,,,,,,,,,,,,,,,,,,,,,,,,,,,,,,,,,,,,,,,,,,,,,,,,,,,,,,,,,,,,,,,,,
,,?,0.00146,0,,,,,,stimuli/images/PICTURE_405.png,JUNGLE,5ef7526666bcd205609299dd,29/04/1997,2020-08-27_15h45.05.804,proactive3.2,2020.1.2,Win32,60,5f47c0b9b035471e11593a5c,5f47c66f3306480b038c9b02,5,,,,,,anchor,,,,,,,,,,,6,2,0,14,14,58,1,,,,,,,,,,,,,,,,,,,,,,,,,,,,,,,,,,,,,,,,,,,,,,,,,,,,,,,,,,,,,,,,,,,,,,
,,?,0.0014,0,,,,,,stimuli/images/PICTURE_487.png,ROOF,5ef7526666bcd205609299dd,29/04/1997,2020-08-27_15h45.05.804,proactive3.2,2020.1.2,Win32,60,5f47c0b9b035471e11593a5c,5f47c66f3306480b038c9b02,5,,,,,,basket,,,,,,,,,,,6,2,0,15,15,50,1,,,,,,,,,,,,,,,,,,,,,,,,,,,,,,,,,,,,,,,,,,,,,,,,,,,,,,,,,,,,,,,,,,,,,,
,,?,0.001185,0,,,,,,stimuli/images/PICTURE_33.png,COPS,5ef7526666bcd205609299dd,29/04/1997,2020-08-27_15h45.05.804,proactive3.2,2020.1.2,Win32,60,5f47c0b9b035471e11593a5c,5f47c66f3306480b038c9b02,5,,,,,,frame,,,,,,,,,,,3,2,0,16,16,29,1,,,,,,,,,,,,,,,,,,,,,,,,,,,,,,,,,,,,,,,,,,,,,,,,,,,,,,,,,,,,,,,,,,,,,,
,,VALLEY,7.648545,0,,,,,,stimuli/images/PICTURE_453.png,FAMILY,5ef7526666bcd205609299dd,29/04/1997,2020-08-27_15h45.05.804,proactive3.2,2020.1.2,Win32,60,5f47c0b9b035471e11593a5c,5f47c66f3306480b038c9b02,5,,,,,,scissors,,,,,,,,,,,5,2,0,17,17,48,1,,,,,,,,,,,,,,,,,,,,,,,,,,,,,,,,,,,,,,,,,,,,,,,,,,,,,,,,,,,,,,,,,,,,,,
,,?,0.001905,0,,,,,,stimuli/images/PICTURE_141.png,CLIENT,5ef7526666bcd205609299dd,29/04/1997,2020-08-27_15h45.05.804,proactive3.2,2020.1.2,Win32,60,5f47c0b9b035471e11593a5c,5f47c66f3306480b038c9b02,5,,,,,,sunflower,,,,,,,,,,,4,2,0,18,18,30,1,,,,,,,,,,,,,,,,,,,,,,,,,,,,,,,,,,,,,,,,,,,,,,,,,,,,,,,,,,,,,,,,,,,,,,
,,YEAR,5.518415,1,,,,,,stimuli/images/PICTURE_654.png,YEAR,5ef7526666bcd205609299dd,29/04/1997,2020-08-27_15h45.05.804,proactive3.2,2020.1.2,Win32,60,5f47c0b9b035471e11593a5c,5f47c66f3306480b038c9b02,5,,,,,,pencil,,,,,,,,,,,5,2,0,19,19,41,1,,,,,,,,,,,,,,,,,,,,,,,,,,,,,,,,,,,,,,,,,,,,,,,,,,,,,,,,,,,,,,,,,,,,,,
,,?,0.00426,0,,,,,,stimuli/images/PICTURE_504.png,HOUSE,5ef7526666bcd205609299dd,29/04/1997,2020-08-27_15h45.05.804,proactive3.2,2020.1.2,Win32,60,5f47c0b9b035471e11593a5c,5f47c66f3306480b038c9b02,5,,,,,,wheel,,,,,,,,,,,4,2,0,20,20,36,1,,,,,,,,,,,,,,,,,,,,,,,,,,,,,,,,,,,,,,,,,,,,,,,,,,,,,,,,,,,,,,,,,,,,,,
,,?,0.002135,0,,,,,,stimuli/images/PICTURE_470.png,BEAUTY,5ef7526666bcd205609299dd,29/04/1997,2020-08-27_15h45.05.804,proactive3.2,2020.1.2,Win32,60,5f47c0b9b035471e11593a5c,5f47c66f3306480b038c9b02,5,,,,,,motorbike,,,,,,,,,,,3,2,0,21,21,26,1,,,,,,,,,,,,,,,,,,,,,,,,,,,,,,,,,,,,,,,,,,,,,,,,,,,,,,,,,,,,,,,,,,,,,,
,,VALLEY,4.900635,1,,,,,,stimuli/images/PICTURE_708.png,VALLEY,5ef7526666bcd205609299dd,29/04/1997,2020-08-27_15h45.05.804,proactive3.2,2020.1.2,Win32,60,5f47c0b9b035471e11593a5c,5f47c66f3306480b038c9b02,5,,,,,,monkey,,,,,,,,,,,5,2,0,22,22,45,1,,,,,,,,,,,,,,,,,,,,,,,,,,,,,,,,,,,,,,,,,,,,,,,,,,,,,,,,,,,,,,,,,,,,,,
,,POLICY,2.831795,1,,,,,,stimuli/images/PICTURE_750.png,POLICY,5ef7526666bcd205609299dd,29/04/1997,2020-08-27_15h45.05.804,proactive3.2,2020.1.2,Win32,60,5f47c0b9b035471e11593a5c,5f47c66f3306480b038c9b02,5,,,,,,kettle,,,,,,,,,,,5,2,0,23,23,44,1,,,,,,,,,,,,,,,,,,,,,,,,,,,,,,,,,,,,,,,,,,,,,,,,,,,,,,,,,,,,,,,,,,,,,,
,,?,0.00361,0,,,,,,stimuli/images/PICTURE_296.png,CLOCK,5ef7526666bcd205609299dd,29/04/1997,2020-08-27_15h45.05.804,proactive3.2,2020.1.2,Win32,60,5f47c0b9b035471e11593a5c,5f47c66f3306480b038c9b02,5,,,,,,bolt,,,,,,,,,,,2,2,0,24,24,18,1,,,,,,,,,,,,,,,,,,,,,,,,,,,,,,,,,,,,,,,,,,,,,,,,,,,,,,,,,,,,,,,,,,,,,,
,,?,0.00303,0,,,,,,stimuli/images/PICTURE_215.png,BOYS,5ef7526666bcd205609299dd,29/04/1997,2020-08-27_15h45.05.804,proactive3.2,2020.1.2,Win32,60,5f47c0b9b035471e11593a5c,5f47c66f3306480b038c9b02,5,,,,,,boot,,,,,,,,,,,3,2,0,25,25,24,1,,,,,,,,,,,,,,,,,,,,,,,,,,,,,,,,,,,,,,,,,,,,,,,,,,,,,,,,,,,,,,,,,,,,,,
,,DUDE,3.038455,1,,,,,,stimuli/images/PICTURE_692.png,DUDE,5ef7526666bcd205609299dd,29/04/1997,2020-08-27_15h45.05.804,proactive3.2,2020.1.2,Win32,60,5f47c0b9b035471e11593a5c,5f47c66f3306480b038c9b02,5,,,,,,cherry,,,,,,,,,,,5,2,0,26,26,47,1,,,,,,,,,,,,,,,,,,,,,,,,,,,,,,,,,,,,,,,,,,,,,,,,,,,,,,,,,,,,,,,,,,,,,,
,,?,0.00299,0,,,,,,stimuli/images/PICTURE_57.png,CANDY,5ef7526666bcd205609299dd,29/04/1997,2020-08-27_15h45.05.804,proactive3.2,2020.1.2,Win32,60,5f47c0b9b035471e11593a5c,5f47c66f3306480b038c9b02,5,,,,,,stamp,,,,,,,,,,,6,2,0,27,27,52,1,,,,,,,,,,,,,,,,,,,,,,,,,,,,,,,,,,,,,,,,,,,,,,,,,,,,,,,,,,,,,,,,,,,,,,
,,LEADER,6.005325,0,,,,,,stimuli/images/PICTURE_509.png,MILLER,5ef7526666bcd205609299dd,29/04/1997,2020-08-27_15h45.05.804,proactive3.2,2020.1.2,Win32,60,5f47c0b9b035471e11593a5c,5f47c66f3306480b038c9b02,5,,,,,,telephone,,,,,,,,,,,5,2,0,28,28,49,1,,,,,,,,,,,,,,,,,,,,,,,,,,,,,,,,,,,,,,,,,,,,,,,,,,,,,,,,,,,,,,,,,,,,,,
,,CANDY,2.83217,1,,,,,,stimuli/images/PICTURE_356.png,CANDY,5ef7526666bcd205609299dd,29/04/1997,2020-08-27_15h45.05.804,proactive3.2,2020.1.2,Win32,60,5f47c0b9b035471e11593a5c,5f47c66f3306480b038c9b02,5,,,,,,pawn,,,,,,,,,,,5,2,0,29,29,46,1,,,,,,,,,,,,,,,,,,,,,,,,,,,,,,,,,,,,,,,,,,,,,,,,,,,,,,,,,,,,,,,,,,,,,,
,,?,0.001315,0,,,,,,stimuli/images/PICTURE_285.png,PRINCE,5ef7526666bcd205609299dd,29/04/1997,2020-08-27_15h45.05.804,proactive3.2,2020.1.2,Win32,60,5f47c0b9b035471e11593a5c,5f47c66f3306480b038c9b02,5,,,,,,carrot,,,,,,,,,,,3,2,0,30,30,20,1,,,,,,,,,,,,,,,,,,,,,,,,,,,,,,,,,,,,,,,,,,,,,,,,,,,,,,,,,,,,,,,,,,,,,,
,,?,0.00077,0,,,,,,stimuli/images/PICTURE_311.png,TOILET,5ef7526666bcd205609299dd,29/04/1997,2020-08-27_15h45.05.804,proactive3.2,2020.1.2,Win32,60,5f47c0b9b035471e11593a5c,5f47c66f3306480b038c9b02,5,,,,,,razor,,,,,,,,,,,6,2,0,31,31,54,1,,,,,,,,,,,,,,,,,,,,,,,,,,,,,,,,,,,,,,,,,,,,,,,,,,,,,,,,,,,,,,,,,,,,,,
,,?,0.000715,0,,,,,,stimuli/images/PICTURE_509.png,SHOTS,5ef7526666bcd205609299dd,29/04/1997,2020-08-27_15h45.05.804,proactive3.2,2020.1.2,Win32,60,5f47c0b9b035471e11593a5c,5f47c66f3306480b038c9b02,5,,,,,,telephone,,,,,,,,,,,1,2,0,32,32,7,1,,,,,,,,,,,,,,,,,,,,,,,,,,,,,,,,,,,,,,,,,,,,,,,,,,,,,,,,,,,,,,,,,,,,,,
,,?,0.000805,0,,,,,,stimuli/images/PICTURE_564.png,PLENTY,5ef7526666bcd205609299dd,29/04/1997,2020-08-27_15h45.05.804,proactive3.2,2020.1.2,Win32,60,5f47c0b9b035471e11593a5c,5f47c66f3306480b038c9b02,5,,,,,,spoon,,,,,,,,,,,2,2,0,33,33,11,1,,,,,,,,,,,,,,,,,,,,,,,,,,,,,,,,,,,,,,,,,,,,,,,,,,,,,,,,,,,,,,,,,,,,,,
,,?,0.00079,0,,,,,,stimuli/images/PICTURE_177.png,HOUSE,5ef7526666bcd205609299dd,29/04/1997,2020-08-27_15h45.05.804,proactive3.2,2020.1.2,Win32,60,5f47c0b9b035471e11593a5c,5f47c66f3306480b038c9b02,5,,,,,,mushroom,,,,,,,,,,,3,2,0,34,34,25,1,,,,,,,,,,,,,,,,,,,,,,,,,,,,,,,,,,,,,,,,,,,,,,,,,,,,,,,,,,,,,,,,,,,,,,
,,?,0.0008,0,,,,,,stimuli/images/PICTURE_57.png,NATION,5ef7526666bcd205609299dd,29/04/1997,2020-08-27_15h45.05.804,proactive3.2,2020.1.2,Win32,60,5f47c0b9b035471e11593a5c,5f47c66f3306480b038c9b02,5,,,,,,stamp,,,,,,,,,,,3,2,0,35,35,21,1,,,,,,,,,,,,,,,,,,,,,,,,,,,,,,,,,,,,,,,,,,,,,,,,,,,,,,,,,,,,,,,,,,,,,,
,,?,0.00121,0,,,,,,stimuli/images/PICTURE_311.png,FLESH,5ef7526666bcd205609299dd,29/04/1997,2020-08-27_15h45.05.804,proactive3.2,2020.1.2,Win32,60,5f47c0b9b035471e11593a5c,5f47c66f3306480b038c9b02,5,,,,,,razor,,,,,,,,,,,1,2,0,36,36,3,1,,,,,,,,,,,,,,,,,,,,,,,,,,,,,,,,,,,,,,,,,,,,,,,,,,,,,,,,,,,,,,,,,,,,,,
,,MOMENT,4.90372,1,,,,,,stimuli/images/PICTURE_470.png,MOMENT,5ef7526666bcd205609299dd,29/04/1997,2020-08-27_15h45.05.804,proactive3.2,2020.1.2,Win32,60,5f47c0b9b035471e11593a5c,5f47c66f3306480b038c9b02,5,,,,,,motorbike,,,,,,,,,,,5,2,0,37,37,40,1,,,,,,,,,,,,,,,,,,,,,,,,,,,,,,,,,,,,,,,,,,,,,,,,,,,,,,,,,,,,,,,,,,,,,,
,,?,0.0028,0,,,,,,stimuli/images/PICTURE_57.png,CASINO,5ef7526666bcd205609299dd,29/04/1997,2020-08-27_15h45.05.804,proactive3.2,2020.1.2,Win32,60,5f47c0b9b035471e11593a5c,5f47c66f3306480b038c9b02,5,,,,,,stamp,,,,,,,,,,,2,2,0,38,38,12,1,,,,,,,,,,,,,,,,,,,,,,,,,,,,,,,,,,,,,,,,,,,,,,,,,,,,,,,,,,,,,,,,,,,,,,
,,?,0.002865,0,,,,,,stimuli/images/PICTURE_348.png,TOILET,5ef7526666bcd205609299dd,29/04/1997,2020-08-27_15h45.05.804,proactive3.2,2020.1.2,Win32,60,5f47c0b9b035471e11593a5c,5f47c66f3306480b038c9b02,5,,,,,,pepper,,,,,,,,,,,1,2,0,39,39,4,1,,,,,,,,,,,,,,,,,,,,,,,,,,,,,,,,,,,,,,,,,,,,,,,,,,,,,,,,,,,,,,,,,,,,,,
,,?,0.00289,0,,,,,,stimuli/images/PICTURE_655.png,SALE,5ef7526666bcd205609299dd,29/04/1997,2020-08-27_15h45.05.804,proactive3.2,2020.1.2,Win32,60,5f47c0b9b035471e11593a5c,5f47c66f3306480b038c9b02,5,,,,,,megaphone,,,,,,,,,,,6,2,0,40,40,57,1,,,,,,,,,,,,,,,,,,,,,,,,,,,,,,,,,,,,,,,,,,,,,,,,,,,,,,,,,,,,,,,,,,,,,,
,,?,0.002605,0,,,,,,stimuli/images/PICTURE_667.png,GLASS,5ef7526666bcd205609299dd,29/04/1997,2020-08-27_15h45.05.804,proactive3.2,2020.1.2,Win32,60,5f47c0b9b035471e11593a5c,5f47c66f3306480b038c9b02,5,,,,,,daisy,,,,,,,,,,,3,2,0,41,41,27,1,,,,,,,,,,,,,,,,,,,,,,,,,,,,,,,,,,,,,,,,,,,,,,,,,,,,,,,,,,,,,,,,,,,,,,
,,?,0.00219,0,,,,,,stimuli/images/PICTURE_285.png,WRITER,5ef7526666bcd205609299dd,29/04/1997,2020-08-27_15h45.05.804,proactive3.2,2020.1.2,Win32,60,5f47c0b9b035471e11593a5c,5f47c66f3306480b038c9b02,5,,,,,,carrot,,,,,,,,,,,1,2,0,42,42,6,1,,,,,,,,,,,,,,,,,,,,,,,,,,,,,,,,,,,,,,,,,,,,,,,,,,,,,,,,,,,,,,,,,,,,,,
,,?,0.00186,0,,,,,,stimuli/images/PICTURE_255.png,PENNY,5ef7526666bcd205609299dd,29/04/1997,2020-08-27_15h45.05.804,proactive3.2,2020.1.2,Win32,60,5f47c0b9b035471e11593a5c,5f47c66f3306480b038c9b02,5,,,,,,shovel,,,,,,,,,,,2,2,0,43,43,19,1,,,,,,,,,,,,,,,,,,,,,,,,,,,,,,,,,,,,,,,,,,,,,,,,,,,,,,,,,,,,,,,,,,,,,,
,,?,0.006915,0,,,,,,stimuli/images/PICTURE_491.png,SERIES,5ef7526666bcd205609299dd,29/04/1997,2020-08-27_15h45.05.804,proactive3.2,2020.1.2,Win32,60,5f47c0b9b035471e11593a5c,5f47c66f3306480b038c9b02,5,,,,,,rug,,,,,,,,,,,4,2,0,44,44,39,1,,,,,,,,,,,,,,,,,,,,,,,,,,,,,,,,,,,,,,,,,,,,,,,,,,,,,,,,,,,,,,,,,,,,,,
,,?,0.002795,0,,,,,,stimuli/images/PICTURE_2.png,AREA,5ef7526666bcd205609299dd,29/04/1997,2020-08-27_15h45.05.804,proactive3.2,2020.1.2,Win32,60,5f47c0b9b035471e11593a5c,5f47c66f3306480b038c9b02,5,,,,,,tyre,,,,,,,,,,,4,2,0,45,45,32,1,,,,,,,,,,,,,,,,,,,,,,,,,,,,,,,,,,,,,,,,,,,,,,,,,,,,,,,,,,,,,,,,,,,,,,
,,?,0.002925,0,,,,,,stimuli/images/PICTURE_297.png,BODY,5ef7526666bcd205609299dd,29/04/1997,2020-08-27_15h45.05.804,proactive3.2,2020.1.2,Win32,60,5f47c0b9b035471e11593a5c,5f47c66f3306480b038c9b02,5,,,,,,aeroplane,,,,,,,,,,,6,2,0,46,46,51,1,,,,,,,,,,,,,,,,,,,,,,,,,,,,,,,,,,,,,,,,,,,,,,,,,,,,,,,,,,,,,,,,,,,,,,
,,?,0.002315,0,,,,,,stimuli/images/PICTURE_452.png,COPS,5ef7526666bcd205609299dd,29/04/1997,2020-08-27_15h45.05.804,proactive3.2,2020.1.2,Win32,60,5f47c0b9b035471e11593a5c,5f47c66f3306480b038c9b02,5,,,,,,watch,,,,,,,,,,,1,2,0,47,47,0,1,,,,,,,,,,,,,,,,,,,,,,,,,,,,,,,,,,,,,,,,,,,,,,,,,,,,,,,,,,,,,,,,,,,,,,
,,?,0.002445,0,,,,,,stimuli/images/PICTURE_677.png,PHOTO,5ef7526666bcd205609299dd,29/04/1997,2020-08-27_15h45.05.804,proactive3.2,2020.1.2,Win32,60,5f47c0b9b035471e11593a5c,5f47c66f3306480b038c9b02,5,,,,,,map,,,,,,,,,,,2,2,0,48,48,14,1,,,,,,,,,,,,,,,,,,,,,,,,,,,,,,,,,,,,,,,,,,,,,,,,,,,,,,,,,,,,,,,,,,,,,,
,,?,0.001895,0,,,,,,stimuli/images/PICTURE_160.png,HOTEL,5ef7526666bcd205609299dd,29/04/1997,2020-08-27_15h45.05.804,proactive3.2,2020.1.2,Win32,60,5f47c0b9b035471e11593a5c,5f47c66f3306480b038c9b02,5,,,,,,wheelbarrow,,,,,,,,,,,2,2,0,49,49,16,1,,,,,,,,,,,,,,,,,,,,,,,,,,,,,,,,,,,,,,,,,,,,,,,,,,,,,,,,,,,,,,,,,,,,,,
,,?,0.002115,0,,,,,,stimuli/images/PICTURE_123.png,SALE,5ef7526666bcd205609299dd,29/04/1997,2020-08-27_15h45.05.804,proactive3.2,2020.1.2,Win32,60,5f47c0b9b035471e11593a5c,5f47c66f3306480b038c9b02,5,,,,,,dart,,,,,,,,,,,1,2,0,50,50,8,1,,,,,,,,,,,,,,,,,,,,,,,,,,,,,,,,,,,,,,,,,,,,,,,,,,,,,,,,,,,,,,,,,,,,,,
,,?,0.001715,0,,,,,,stimuli/images/PICTURE_327.png,LEADER,5ef7526666bcd205609299dd,29/04/1997,2020-08-27_15h45.05.804,proactive3.2,2020.1.2,Win32,60,5f47c0b9b035471e11593a5c,5f47c66f3306480b038c9b02,5,,,,,,helmet,,,,,,,,,,,2,2,0,51,51,17,1,,,,,,,,,,,,,,,,,,,,,,,,,,,,,,,,,,,,,,,,,,,,,,,,,,,,,,,,,,,,,,,,,,,,,,
,,?,0.001975,0,,,,,,stimuli/images/PICTURE_208.png,SPIRIT,5ef7526666bcd205609299dd,29/04/1997,2020-08-27_15h45.05.804,proactive3.2,2020.1.2,Win32,60,5f47c0b9b035471e11593a5c,5f47c66f3306480b038c9b02,5,,,,,,microphone,,,,,,,,,,,3,2,0,52,52,28,1,,,,,,,,,,,,,,,,,,,,,,,,,,,,,,,,,,,,,,,,,,,,,,,,,,,,,,,,,,,,,,,,,,,,,,
,,?,0.00171,0,,,,,,stimuli/images/PICTURE_348.png,DUDE,5ef7526666bcd205609299dd,29/04/1997,2020-08-27_15h45.05.804,proactive3.2,2020.1.2,Win32,60,5f47c0b9b035471e11593a5c,5f47c66f3306480b038c9b02,5,,,,,,pepper,,,,,,,,,,,6,2,0,53,53,59,1,,,,,,,,,,,,,,,,,,,,,,,,,,,,,,,,,,,,,,,,,,,,,,,,,,,,,,,,,,,,,,,,,,,,,,
,,?,0.001595,0,,,,,,stimuli/images/PICTURE_18.png,RIVER,5ef7526666bcd205609299dd,29/04/1997,2020-08-27_15h45.05.804,proactive3.2,2020.1.2,Win32,60,5f47c0b9b035471e11593a5c,5f47c66f3306480b038c9b02,5,,,,,,planet,,,,,,,,,,,3,2,0,54,54,22,1,,,,,,,,,,,,,,,,,,,,,,,,,,,,,,,,,,,,,,,,,,,,,,,,,,,,,,,,,,,,,,,,,,,,,,
,,?,0.00158,0,,,,,,stimuli/images/PICTURE_2.png,JUNGLE,5ef7526666bcd205609299dd,29/04/1997,2020-08-27_15h45.05.804,proactive3.2,2020.1.2,Win32,60,5f47c0b9b035471e11593a5c,5f47c66f3306480b038c9b02,5,,,,,,tyre,,,,,,,,,,,1,2,0,55,55,1,1,,,,,,,,,,,,,,,,,,,,,,,,,,,,,,,,,,,,,,,,,,,,,,,,,,,,,,,,,,,,,,,,,,,,,,
,,LEADER,2.84264,1,,,,,,stimuli/images/PICTURE_215.png,LEADER,5ef7526666bcd205609299dd,29/04/1997,2020-08-27_15h45.05.804,proactive3.2,2020.1.2,Win32,60,5f47c0b9b035471e11593a5c,5f47c66f3306480b038c9b02,5,,,,,,boot,,,,,,,,,,,5,2,0,56,56,43,1,,,,,,,,,,,,,,,,,,,,,,,,,,,,,,,,,,,,,,,,,,,,,,,,,,,,,,,,,,,,,,,,,,,,,,
,,?,0.000805,0,,,,,,stimuli/images/PICTURE_403.png,FAMILY,5ef7526666bcd205609299dd,29/04/1997,2020-08-27_15h45.05.804,proactive3.2,2020.1.2,Win32,60,5f47c0b9b035471e11593a5c,5f47c66f3306480b038c9b02,5,,,,,,cathedral,,,,,,,,,,,1,2,0,57,57,9,1,,,,,,,,,,,,,,,,,,,,,,,,,,,,,,,,,,,,,,,,,,,,,,,,,,,,,,,,,,,,,,,,,,,,,,
,,?,0.00089,0,,,,,,stimuli/images/PICTURE_677.png,FAMILY,5ef7526666bcd205609299dd,29/04/1997,2020-08-27_15h45.05.804,proactive3.2,2020.1.2,Win32,60,5f47c0b9b035471e11593a5c,5f47c66f3306480b038c9b02,5,,,,,,map,,,,,,,,,,,6,2,0,58,58,53,1,,,,,,,,,,,,,,,,,,,,,,,,,,,,,,,,,,,,,,,,,,,,,,,,,,,,,,,,,,,,,,,,,,,,,,
,,?,6.97556,0,,,,,,stimuli/images/PICTURE_688.png,CLOCK,5ef7526666bcd205609299dd,29/04/1997,2020-08-27_15h45.05.804,proactive3.2,2020.1.2,Win32,60,5f47c0b9b035471e11593a5c,5f47c66f3306480b038c9b02,5,,,,,,runner,,,,,,,,,,,5,2,0,59,59,42,1,,,,,,,,,,,,,,,,,,,,,,,,,,,,,,,,,,,,,,,,,,,,,,,,,,,,,,,,,,,,,,,,,,,,,,
,,,,,,,,,,,,5ef7526666bcd205609299dd,29/04/1997,2020-08-27_15h45.05.804,proactive3.2,2020.1.2,Win32,60,5f47c0b9b035471e11593a5c,5f47c66f3306480b038c9b02,5,,,,,,,,,,,,,,,,,,,,,,,,0,0,0,2,1,stimuli/learn-block3.csv,,,,,,,,,,,,,,,,,,,,,,,,,,,,,,,,,,,,,,,,,,,,,,,,,,,,,,,,,,,,,,,,
,,,,,,,,,,stimuli/images/PICTURE_750.png,HOTEL,5ef7526666bcd205609299dd,29/04/1997,2020-08-27_15h45.05.804,proactive3.2,2020.1.2,Win32,60,5f47c0b9b035471e11593a5c,5f47c66f3306480b038c9b02,5,,,,,,kettle,,,,,,0,0,0,27,1,3,1,,,,,,,,,,,,,,,,,,,,,,,,,,,,,,,,,,,,,,,,,,,,,,,,,,,,,,,,,,,,,,,,,,,,,,,,,,,
,,,,,,,,,,stimuli/images/PICTURE_708.png,RECORD,5ef7526666bcd205609299dd,29/04/1997,2020-08-27_15h45.05.804,proactive3.2,2020.1.2,Win32,60,5f47c0b9b035471e11593a5c,5f47c66f3306480b038c9b02,5,,,,,,monkey,,,,,,0,1,1,58,1,6,1,,,,,,,,,,,,,,,,,,,,,,,,,,,,,,,,,,,,,,,,,,,,,,,,,,,,,,,,,,,,,,,,,,,,,,,,,,,
,,,,,,,,,,stimuli/images/PICTURE_57.png,MOMENT,5ef7526666bcd205609299dd,29/04/1997,2020-08-27_15h45.05.804,proactive3.2,2020.1.2,Win32,60,5f47c0b9b035471e11593a5c,5f47c66f3306480b038c9b02,5,,,,,,stamp,,,,,,0,2,2,37,1,4,1,,,,,,,,,,,,,,,,,,,,,,,,,,,,,,,,,,,,,,,,,,,,,,,,,,,,,,,,,,,,,,,,,,,,,,,,,,,
,,,,,,,,,,stimuli/images/PICTURE_491.png,RIVER,5ef7526666bcd205609299dd,29/04/1997,2020-08-27_15h45.05.804,proactive3.2,2020.1.2,Win32,60,5f47c0b9b035471e11593a5c,5f47c66f3306480b038c9b02,5,,,,,,rug,,,,,,0,3,3,6,1,1,1,,,,,,,,,,,,,,,,,,,,,,,,,,,,,,,,,,,,,,,,,,,,,,,,,,,,,,,,,,,,,,,,,,,,,,,,,,,
,,,,,,,,,,stimuli/images/PICTURE_467.png,POLICY,5ef7526666bcd205609299dd,29/04/1997,2020-08-27_15h45.05.804,proactive3.2,2020.1.2,Win32,60,5f47c0b9b035471e11593a5c,5f47c66f3306480b038c9b02,5,,,,,,peg,,,,,,0,4,4,53,1,6,1,,,,,,,,,,,,,,,,,,,,,,,,,,,,,,,,,,,,,,,,,,,,,,,,,,,,,,,,,,,,,,,,,,,,,,,,,,,
,,,,,,,,,,stimuli/images/PICTURE_469.png,AGENT,5ef7526666bcd205609299dd,29/04/1997,2020-08-27_15h45.05.804,proactive3.2,2020.1.2,Win32,60,5f47c0b9b035471e11593a5c,5f47c66f3306480b038c9b02,5,,,,,,stool,,,,,,0,5,5,16,1,2,1,,,,,,,,,,,,,,,,,,,,,,,,,,,,,,,,,,,,,,,,,,,,,,,,,,,,,,,,,,,,,,,,,,,,,,,,,,,
,,,,,,,,,,stimuli/images/PICTURE_667.png,RIVER,5ef7526666bcd205609299dd,29/04/1997,2020-08-27_15h45.05.804,proactive3.2,2020.1.2,Win32,60,5f47c0b9b035471e11593a5c,5f47c66f3306480b038c9b02,5,,,,,,daisy,,,,,,0,6,6,10,1,2,1,,,,,,,,,,,,,,,,,,,,,,,,,,,,,,,,,,,,,,,,,,,,,,,,,,,,,,,,,,,,,,,,,,,,,,,,,,,
,,,,,,,,,,stimuli/images/PICTURE_383.png,WRITER,5ef7526666bcd205609299dd,29/04/1997,2020-08-27_15h45.05.804,proactive3.2,2020.1.2,Win32,60,5f47c0b9b035471e11593a5c,5f47c66f3306480b038c9b02,5,,,,,,coin,,,,,,0,7,7,28,1,3,1,,,,,,,,,,,,,,,,,,,,,,,,,,,,,,,,,,,,,,,,,,,,,,,,,,,,,,,,,,,,,,,,,,,,,,,,,,,
,,,,,,,,,,stimuli/images/PICTURE_685.png,PENNY,5ef7526666bcd205609299dd,29/04/1997,2020-08-27_15h45.05.804,proactive3.2,2020.1.2,Win32,60,5f47c0b9b035471e11593a5c,5f47c66f3306480b038c9b02,5,,,,,,goose,,,,,,0,8,8,4,1,1,1,,,,,,,,,,,,,,,,,,,,,,,,,,,,,,,,,,,,,,,,,,,,,,,,,,,,,,,,,,,,,,,,,,,,,,,,,,,
,,,,,,,,,,stimuli/images/PICTURE_340.png,VALLEY,5ef7526666bcd205609299dd,29/04/1997,2020-08-27_15h45.05.804,proactive3.2,2020.1.2,Win32,60,5f47c0b9b035471e11593a5c,5f47c66f3306480b038c9b02,5,,,,,,mirror,,,,,,0,9,9,54,1,6,1,,,,,,,,,,,,,,,,,,,,,,,,,,,,,,,,,,,,,,,,,,,,,,,,,,,,,,,,,,,,,,,,,,,,,,,,,,,
,,,,,,,,,,stimuli/images/PICTURE_33.png,FRIEND,5ef7526666bcd205609299dd,29/04/1997,2020-08-27_15h45.05.804,proactive3.2,2020.1.2,Win32,60,5f47c0b9b035471e11593a5c,5f47c66f3306480b038c9b02,5,,,,,,frame,,,,,,0,10,10,8,1,1,1,,,,,,,,,,,,,,,,,,,,,,,,,,,,,,,,,,,,,,,,,,,,,,,,,,,,,,,,,,,,,,,,,,,,,,,,,,,
,,,,,,,,,,stimuli/images/PICTURE_85.png,NATION,5ef7526666bcd205609299dd,29/04/1997,2020-08-27_15h45.05.804,proactive3.2,2020.1.2,Win32,60,5f47c0b9b035471e11593a5c,5f47c66f3306480b038c9b02,5,,,,,,diamond,,,,,,0,11,11,5,1,1,1,,,,,,,,,,,,,,,,,,,,,,,,,,,,,,,,,,,,,,,,,,,,,,,,,,,,,,,,,,,,,,,,,,,,,,,,,,,
,,,,,,,,,,stimuli/images/PICTURE_327.png,SERIES,5ef7526666bcd205609299dd,29/04/1997,2020-08-27_15h45.05.804,proactive3.2,2020.1.2,Win32,60,5f47c0b9b035471e11593a5c,5f47c66f3306480b038c9b02,5,,,,,,helmet,,,,,,0,12,12,3,1,1,1,,,,,,,,,,,,,,,,,,,,,,,,,,,,,,,,,,,,,,,,,,,,,,,,,,,,,,,,,,,,,,,,,,,,,,,,,,,
,,,,,,,,,,stimuli/images/PICTURE_504.png,ARTIST,5ef7526666bcd205609299dd,29/04/1997,2020-08-27_15h45.05.804,proactive3.2,2020.1.2,Win32,60,5f47c0b9b035471e11593a5c,5f47c66f3306480b038c9b02,5,,,,,,wheel,,,,,,0,13,13,49,1,5,1,,,,,,,,,,,,,,,,,,,,,,,,,,,,,,,,,,,,,,,,,,,,,,,,,,,,,,,,,,,,,,,,,,,,,,,,,,,
,,,,,,,,,,stimuli/images/PICTURE_147.png,WOMEN,5ef7526666bcd205609299dd,29/04/1997,2020-08-27_15h45.05.804,proactive3.2,2020.1.2,Win32,60,5f47c0b9b035471e11593a5c,5f47c66f3306480b038c9b02,5,,,,,,hanger,,,,,,0,14,14,7,1,1,1,,,,,,,,,,,,,,,,,,,,,,,,,,,,,,,,,,,,,,,,,,,,,,,,,,,,,,,,,,,,,,,,,,,,,,,,,,,
,,,,,,,,,,stimuli/images/PICTURE_308.png,FAMILY,5ef7526666bcd205609299dd,29/04/1997,2020-08-27_15h45.05.804,proactive3.2,2020.1.2,Win32,60,5f47c0b9b035471e11593a5c,5f47c66f3306480b038c9b02,5,,,,,,dice,,,,,,0,15,15,36,1,4,1,,,,,,,,,,,,,,,,,,,,,,,,,,,,,,,,,,,,,,,,,,,,,,,,,,,,,,,,,,,,,,,,,,,,,,,,,,,
,,,,,,,,,,stimuli/images/PICTURE_449.png,DUDE,5ef7526666bcd205609299dd,29/04/1997,2020-08-27_15h45.05.804,proactive3.2,2020.1.2,Win32,60,5f47c0b9b035471e11593a5c,5f47c66f3306480b038c9b02,5,,,,,,bench,,,,,,0,16,16,17,1,2,1,,,,,,,,,,,,,,,,,,,,,,,,,,,,,,,,,,,,,,,,,,,,,,,,,,,,,,,,,,,,,,,,,,,,,,,,,,,
,,,,,,,,,,stimuli/images/PICTURE_405.png,YEAR,5ef7526666bcd205609299dd,29/04/1997,2020-08-27_15h45.05.804,proactive3.2,2020.1.2,Win32,60,5f47c0b9b035471e11593a5c,5f47c66f3306480b038c9b02,5,,,,,,anchor,,,,,,0,17,17,34,1,4,1,,,,,,,,,,,,,,,,,,,,,,,,,,,,,,,,,,,,,,,,,,,,,,,,,,,,,,,,,,,,,,,,,,,,,,,,,,,
,,,,,,,,,,stimuli/images/PICTURE_2.png,FLIGHT,5ef7526666bcd205609299dd,29/04/1997,2020-08-27_15h45.05.804,proactive3.2,2020.1.2,Win32,60,5f47c0b9b035471e11593a5c,5f47c66f3306480b038c9b02,5,,,,,,tyre,,,,,,0,18,18,15,1,2,1,,,,,,,,,,,,,,,,,,,,,,,,,,,,,,,,,,,,,,,,,,,,,,,,,,,,,,,,,,,,,,,,,,,,,,,,,,,
,,,,,,,,,,stimuli/images/PICTURE_403.png,TOILET,5ef7526666bcd205609299dd,29/04/1997,2020-08-27_15h45.05.804,proactive3.2,2020.1.2,Win32,60,5f47c0b9b035471e11593a5c,5f47c66f3306480b038c9b02,5,,,,,,cathedral,,,,,,0,19,19,25,1,3,1,,,,,,,,,,,,,,,,,,,,,,,,,,,,,,,,,,,,,,,,,,,,,,,,,,,,,,,,,,,,,,,,,,,,,,,,,,,
,,,,,,,,,,stimuli/images/PICTURE_564.png,BATH,5ef7526666bcd205609299dd,29/04/1997,2020-08-27_15h45.05.804,proactive3.2,2020.1.2,Win32,60,5f47c0b9b035471e11593a5c,5f47c66f3306480b038c9b02,5,,,,,,spoon,,,,,,0,20,20,26,1,3,1,,,,,,,,,,,,,,,,,,,,,,,,,,,,,,,,,,,,,,,,,,,,,,,,,,,,,,,,,,,,,,,,,,,,,,,,,,,
,,,,,,,,,,stimuli/images/PICTURE_655.png,TOILET,5ef7526666bcd205609299dd,29/04/1997,2020-08-27_15h45.05.804,proactive3.2,2020.1.2,Win32,60,5f47c0b9b035471e11593a5c,5f47c66f3306480b038c9b02,5,,,,,,megaphone,,,,,,0,21,21,12,1,2,1,,,,,,,,,,,,,,,,,,,,,,,,,,,,,,,,,,,,,,,,,,,,,,,,,,,,,,,,,,,,,,,,,,,,,,,,,,,
,,,,,,,,,,stimuli/images/PICTURE_95.png,BOYS,5ef7526666bcd205609299dd,29/04/1997,2020-08-27_15h45.05.804,proactive3.2,2020.1.2,Win32,60,5f47c0b9b035471e11593a5c,5f47c66f3306480b038c9b02,5,,,,,,suitcase,,,,,,0,22,22,1,1,1,1,,,,,,,,,,,,,,,,,,,,,,,,,,,,,,,,,,,,,,,,,,,,,,,,,,,,,,,,,,,,,,,,,,,,,,,,,,,
,,,,,,,,,,stimuli/images/PICTURE_327.png,CASINO,5ef7526666bcd205609299dd,29/04/1997,2020-08-27_15h45.05.804,proactive3.2,2020.1.2,Win32,60,5f47c0b9b035471e11593a5c,5f47c66f3306480b038c9b02,5,,,,,,helmet,,,,,,0,23,23,20,1,3,1,,,,,,,,,,,,,,,,,,,,,,,,,,,,,,,,,,,,,,,,,,,,,,,,,,,,,,,,,,,,,,,,,,,,,,,,,,,
,,,,,,,,,,stimuli/images/PICTURE_380.png,HONEY,5ef7526666bcd205609299dd,29/04/1997,2020-08-27_15h45.05.804,proactive3.2,2020.1.2,Win32,60,5f47c0b9b035471e11593a5c,5f47c66f3306480b038c9b02,5,,,,,,gorilla,,,,,,0,24,24,19,1,2,1,,,,,,,,,,,,,,,,,,,,,,,,,,,,,,,,,,,,,,,,,,,,,,,,,,,,,,,,,,,,,,,,,,,,,,,,,,,
,,,,,,,,,,stimuli/images/PICTURE_296.png,LOTS,5ef7526666bcd205609299dd,29/04/1997,2020-08-27_15h45.05.804,proactive3.2,2020.1.2,Win32,60,5f47c0b9b035471e11593a5c,5f47c66f3306480b038c9b02,5,,,,,,bolt,,,,,,0,25,25,9,1,1,1,,,,,,,,,,,,,,,,,,,,,,,,,,,,,,,,,,,,,,,,,,,,,,,,,,,,,,,,,,,,,,,,,,,,,,,,,,,
,,,,,,,,,,stimuli/images/PICTURE_32.png,PILLS,5ef7526666bcd205609299dd,29/04/1997,2020-08-27_15h45.05.804,proactive3.2,2020.1.2,Win32,60,5f47c0b9b035471e11593a5c,5f47c66f3306480b038c9b02,5,,,,,,crown,,,,,,0,26,26,18,1,2,1,,,,,,,,,,,,,,,,,,,,,,,,,,,,,,,,,,,,,,,,,,,,,,,,,,,,,,,,,,,,,,,,,,,,,,,,,,,
,,,,,,,,,,stimuli/images/PICTURE_108.png,POLICY,5ef7526666bcd205609299dd,29/04/1997,2020-08-27_15h45.05.804,proactive3.2,2020.1.2,Win32,60,5f47c0b9b035471e11593a5c,5f47c66f3306480b038c9b02,5,,,,,,calendar,,,,,,0,27,27,22,1,3,1,,,,,,,,,,,,,,,,,,,,,,,,,,,,,,,,,,,,,,,,,,,,,,,,,,,,,,,,,,,,,,,,,,,,,,,,,,,
,,,,,,,,,,stimuli/images/PICTURE_339.png,CLIENT,5ef7526666bcd205609299dd,29/04/1997,2020-08-27_15h45.05.804,proactive3.2,2020.1.2,Win32,60,5f47c0b9b035471e11593a5c,5f47c66f3306480b038c9b02,5,,,,,,backpack,,,,,,0,28,28,11,1,2,1,,,,,,,,,,,,,,,,,,,,,,,,,,,,,,,,,,,,,,,,,,,,,,,,,,,,,,,,,,,,,,,,,,,,,,,,,,,
,,,,,,,,,,stimuli/images/PICTURE_85.png,TOILET,5ef7526666bcd205609299dd,29/04/1997,2020-08-27_15h45.05.804,proactive3.2,2020.1.2,Win32,60,5f47c0b9b035471e11593a5c,5f47c66f3306480b038c9b02,5,,,,,,diamond,,,,,,0,29,29,48,1,5,1,,,,,,,,,,,,,,,,,,,,,,,,,,,,,,,,,,,,,,,,,,,,,,,,,,,,,,,,,,,,,,,,,,,,,,,,,,,
,,,,,,,,,,stimuli/images/PICTURE_487.png,GIRL,5ef7526666bcd205609299dd,29/04/1997,2020-08-27_15h45.05.804,proactive3.2,2020.1.2,Win32,60,5f47c0b9b035471e11593a5c,5f47c66f3306480b038c9b02,5,,,,,,basket,,,,,,0,30,30,45,1,5,1,,,,,,,,,,,,,,,,,,,,,,,,,,,,,,,,,,,,,,,,,,,,,,,,,,,,,,,,,,,,,,,,,,,,,,,,,,,
,,,,,,,,,,stimuli/images/PICTURE_504.png,YEAR,5ef7526666bcd205609299dd,29/04/1997,2020-08-27_15h45.05.804,proactive3.2,2020.1.2,Win32,60,5f47c0b9b035471e11593a5c,5f47c66f3306480b038c9b02,5,,,,,,wheel,,,,,,0,31,31,13,1,2,1,,,,,,,,,,,,,,,,,,,,,,,,,,,,,,,,,,,,,,,,,,,,,,,,,,,,,,,,,,,,,,,,,,,,,,,,,,,
,,,,,,,,,,stimuli/images/PICTURE_68.png,ROOF,5ef7526666bcd205609299dd,29/04/1997,2020-08-27_15h45.05.804,proactive3.2,2020.1.2,Win32,60,5f47c0b9b035471e11593a5c,5f47c66f3306480b038c9b02,5,,,,,,candle,,,,,,0,32,32,38,1,4,1,,,,,,,,,,,,,,,,,,,,,,,,,,,,,,,,,,,,,,,,,,,,,,,,,,,,,,,,,,,,,,,,,,,,,,,,,,,
,,,,,,,,,,stimuli/images/PICTURE_403.png,WRITER,5ef7526666bcd205609299dd,29/04/1997,2020-08-27_15h45.05.804,proactive3.2,2020.1.2,Win32,60,5f47c0b9b035471e11593a5c,5f47c66f3306480b038c9b02,5,,,,,,cathedral,,,,,,0,33,33,31,1,4,1,,,,,,,,,,,,,,,,,,,,,,,,,,,,,,,,,,,,,,,,,,,,,,,,,,,,,,,,,,,,,,,,,,,,,,,,,,,
,,,,,,,,,,stimuli/images/PICTURE_380.png,CANDY,5ef7526666bcd205609299dd,29/04/1997,2020-08-27_15h45.05.804,proactive3.2,2020.1.2,Win32,60,5f47c0b9b035471e11593a5c,5f47c66f3306480b038c9b02,5,,,,,,gorilla,,,,,,0,34,34,0,1,1,1,,,,,,,,,,,,,,,,,,,,,,,,,,,,,,,,,,,,,,,,,,,,,,,,,,,,,,,,,,,,,,,,,,,,,,,,,,,
,,,,,,,,,,stimuli/images/PICTURE_95.png,MILLER,5ef7526666bcd205609299dd,29/04/1997,2020-08-27_15h45.05.804,proactive3.2,2020.1.2,Win32,60,5f47c0b9b035471e11593a5c,5f47c66f3306480b038c9b02,5,,,,,,suitcase,,,,,,0,35,35,56,1,6,1,,,,,,,,,,,,,,,,,,,,,,,,,,,,,,,,,,,,,,,,,,,,,,,,,,,,,,,,,,,,,,,,,,,,,,,,,,,
,,,,,,,,,,stimuli/images/PICTURE_677.png,APPLE,5ef7526666bcd205609299dd,29/04/1997,2020-08-27_15h45.05.804,proactive3.2,2020.1.2,Win32,60,5f47c0b9b035471e11593a5c,5f47c66f3306480b038c9b02,5,,,,,,map,,,,,,0,36,36,43,1,5,1,,,,,,,,,,,,,,,,,,,,,,,,,,,,,,,,,,,,,,,,,,,,,,,,,,,,,,,,,,,,,,,,,,,,,,,,,,,
,,,,,,,,,,stimuli/images/PICTURE_208.png,SYSTEM,5ef7526666bcd205609299dd,29/04/1997,2020-08-27_15h45.05.804,proactive3.2,2020.1.2,Win32,60,5f47c0b9b035471e11593a5c,5f47c66f3306480b038c9b02,5,,,,,,microphone,,,,,,0,37,37,32,1,4,1,,,,,,,,,,,,,,,,,,,,,,,,,,,,,,,,,,,,,,,,,,,,,,,,,,,,,,,,,,,,,,,,,,,,,,,,,,,
,,,,,,,,,,stimuli/images/PICTURE_68.png,MILE,5ef7526666bcd205609299dd,29/04/1997,2020-08-27_15h45.05.804,proactive3.2,2020.1.2,Win32,60,5f47c0b9b035471e11593a5c,5f47c66f3306480b038c9b02,5,,,,,,candle,,,,,,0,38,38,51,1,6,1,,,,,,,,,,,,,,,,,,,,,,,,,,,,,,,,,,,,,,,,,,,,,,,,,,,,,,,,,,,,,,,,,,,,,,,,,,,
,,,,,,,,,,stimuli/images/PICTURE_177.png,WRITER,5ef7526666bcd205609299dd,29/04/1997,2020-08-27_15h45.05.804,proactive3.2,2020.1.2,Win32,60,5f47c0b9b035471e11593a5c,5f47c66f3306480b038c9b02,5,,,,,,mushroom,,,,,,0,39,39,41,1,5,1,,,,,,,,,,,,,,,,,,,,,,,,,,,,,,,,,,,,,,,,,,,,,,,,,,,,,,,,,,,,,,,,,,,,,,,,,,,
,,,,,,,,,,stimuli/images/PICTURE_744.png,WEAPON,5ef7526666bcd205609299dd,29/04/1997,2020-08-27_15h45.05.804,proactive3.2,2020.1.2,Win32,60,5f47c0b9b035471e11593a5c,5f47c66f3306480b038c9b02,5,,,,,,ring,,,,,,0,40,40,50,1,6,1,,,,,,,,,,,,,,,,,,,,,,,,,,,,,,,,,,,,,,,,,,,,,,,,,,,,,,,,,,,,,,,,,,,,,,,,,,,
,,,,,,,,,,stimuli/images/PICTURE_297.png,RIVER,5ef7526666bcd205609299dd,29/04/1997,2020-08-27_15h45.05.804,proactive3.2,2020.1.2,Win32,60,5f47c0b9b035471e11593a5c,5f47c66f3306480b038c9b02,5,,,,,,aeroplane,,,,,,0,41,41,39,1,4,1,,,,,,,,,,,,,,,,,,,,,,,,,,,,,,,,,,,,,,,,,,,,,,,,,,,,,,,,,,,,,,,,,,,,,,,,,,,
,,,,,,,,,,stimuli/images/PICTURE_108.png,FLIGHT,5ef7526666bcd205609299dd,29/04/1997,2020-08-27_15h45.05.804,proactive3.2,2020.1.2,Win32,60,5f47c0b9b035471e11593a5c,5f47c66f3306480b038c9b02,5,,,,,,calendar,,,,,,0,42,42,59,1,6,1,,,,,,,,,,,,,,,,,,,,,,,,,,,,,,,,,,,,,,,,,,,,,,,,,,,,,,,,,,,,,,,,,,,,,,,,,,,
,,,,,,,,,,stimuli/images/PICTURE_203.png,NIGHT,5ef7526666bcd205609299dd,29/04/1997,2020-08-27_15h45.05.804,proactive3.2,2020.1.2,Win32,60,5f47c0b9b035471e11593a5c,5f47c66f3306480b038c9b02,5,,,,,,cap,,,,,,0,43,43,2,1,1,1,,,,,,,,,,,,,,,,,,,,,,,,,,,,,,,,,,,,,,,,,,,,,,,,,,,,,,,,,,,,,,,,,,,,,,,,,,,
,,,,,,,,,,stimuli/images/PICTURE_491.png,GLASS,5ef7526666bcd205609299dd,29/04/1997,2020-08-27_15h45.05.804,proactive3.2,2020.1.2,Win32,60,5f47c0b9b035471e11593a5c,5f47c66f3306480b038c9b02,5,,,,,,rug,,,,,,0,44,44,14,1,2,1,,,,,,,,,,,,,,,,,,,,,,,,,,,,,,,,,,,,,,,,,,,,,,,,,,,,,,,,,,,,,,,,,,,,,,,,,,,
,,,,,,,,,,stimuli/images/PICTURE_405.png,PLENTY,5ef7526666bcd205609299dd,29/04/1997,2020-08-27_15h45.05.804,proactive3.2,2020.1.2,Win32,60,5f47c0b9b035471e11593a5c,5f47c66f3306480b038c9b02,5,,,,,,anchor,,,,,,0,45,45,23,1,3,1,,,,,,,,,,,,,,,,,,,,,,,,,,,,,,,,,,,,,,,,,,,,,,,,,,,,,,,,,,,,,,,,,,,,,,,,,,,
,,,,,,,,,,stimuli/images/PICTURE_233.png,LOTS,5ef7526666bcd205609299dd,29/04/1997,2020-08-27_15h45.05.804,proactive3.2,2020.1.2,Win32,60,5f47c0b9b035471e11593a5c,5f47c66f3306480b038c9b02,5,,,,,,salt,,,,,,0,46,46,42,1,5,1,,,,,,,,,,,,,,,,,,,,,,,,,,,,,,,,,,,,,,,,,,,,,,,,,,,,,,,,,,,,,,,,,,,,,,,,,,,
,,,,,,,,,,stimuli/images/PICTURE_654.png,MONTH,5ef7526666bcd205609299dd,29/04/1997,2020-08-27_15h45.05.804,proactive3.2,2020.1.2,Win32,60,5f47c0b9b035471e11593a5c,5f47c66f3306480b038c9b02,5,,,,,,pencil,,,,,,0,47,47,29,1,3,1,,,,,,,,,,,,,,,,,,,,,,,,,,,,,,,,,,,,,,,,,,,,,,,,,,,,,,,,,,,,,,,,,,,,,,,,,,,
,,,,,,,,,,stimuli/images/PICTURE_147.png,YEAR,5ef7526666bcd205609299dd,29/04/1997,2020-08-27_15h45.05.804,proactive3.2,2020.1.2,Win32,60,5f47c0b9b035471e11593a5c,5f47c66f3306480b038c9b02,5,,,,,,hanger,,,,,,0,48,48,21,1,3,1,,,,,,,,,,,,,,,,,,,,,,,,,,,,,,,,,,,,,,,,,,,,,,,,,,,,,,,,,,,,,,,,,,,,,,,,,,,
,,,,,,,,,,stimuli/images/PICTURE_203.png,GODS,5ef7526666bcd205609299dd,29/04/1997,2020-08-27_15h45.05.804,proactive3.2,2020.1.2,Win32,60,5f47c0b9b035471e11593a5c,5f47c66f3306480b038c9b02,5,,,,,,cap,,,,,,0,49,49,30,1,4,1,,,,,,,,,,,,,,,,,,,,,,,,,,,,,,,,,,,,,,,,,,,,,,,,,,,,,,,,,,,,,,,,,,,,,,,,,,,
,,,,,,,,,,stimuli/images/PICTURE_32.png,KIND,5ef7526666bcd205609299dd,29/04/1997,2020-08-27_15h45.05.804,proactive3.2,2020.1.2,Win32,60,5f47c0b9b035471e11593a5c,5f47c66f3306480b038c9b02,5,,,,,,crown,,,,,,0,50,50,35,1,4,1,,,,,,,,,,,,,,,,,,,,,,,,,,,,,,,,,,,,,,,,,,,,,,,,,,,,,,,,,,,,,,,,,,,,,,,,,,,
,,,,,,,,,,stimuli/images/PICTURE_42.png,BOYS,5ef7526666bcd205609299dd,29/04/1997,2020-08-27_15h45.05.804,proactive3.2,2020.1.2,Win32,60,5f47c0b9b035471e11593a5c,5f47c66f3306480b038c9b02,5,,,,,,pear,,,,,,0,51,51,55,1,6,1,,,,,,,,,,,,,,,,,,,,,,,,,,,,,,,,,,,,,,,,,,,,,,,,,,,,,,,,,,,,,,,,,,,,,,,,,,,
,,,,,,,,,,stimuli/images/PICTURE_504.png,COPS,5ef7526666bcd205609299dd,29/04/1997,2020-08-27_15h45.05.804,proactive3.2,2020.1.2,Win32,60,5f47c0b9b035471e11593a5c,5f47c66f3306480b038c9b02,5,,,,,,wheel,,,,,,0,52,52,52,1,6,1,,,,,,,,,,,,,,,,,,,,,,,,,,,,,,,,,,,,,,,,,,,,,,,,,,,,,,,,,,,,,,,,,,,,,,,,,,,
,,,,,,,,,,stimuli/images/PICTURE_383.png,SERIES,5ef7526666bcd205609299dd,29/04/1997,2020-08-27_15h45.05.804,proactive3.2,2020.1.2,Win32,60,5f47c0b9b035471e11593a5c,5f47c66f3306480b038c9b02,5,,,,,,coin,,,,,,0,53,53,46,1,5,1,,,,,,,,,,,,,,,,,,,,,,,,,,,,,,,,,,,,,,,,,,,,,,,,,,,,,,,,,,,,,,,,,,,,,,,,,,,
,,,,,,,,,,stimuli/images/PICTURE_403.png,RIVER,5ef7526666bcd205609299dd,29/04/1997,2020-08-27_15h45.05.804,proactive3.2,2020.1.2,Win32,60,5f47c0b9b035471e11593a5c,5f47c66f3306480b038c9b02,5,,,,,,cathedral,,,,,,0,54,54,40,1,5,1,,,,,,,,,,,,,,,,,,,,,,,,,,,,,,,,,,,,,,,,,,,,,,,,,,,,,,,,,,,,,,,,,,,,,,,,,,,
,,,,,,,,,,stimuli/images/PICTURE_296.png,LIFE,5ef7526666bcd205609299dd,29/04/1997,2020-08-27_15h45.05.804,proactive3.2,2020.1.2,Win32,60,5f47c0b9b035471e11593a5c,5f47c66f3306480b038c9b02,5,,,,,,bolt,,,,,,0,55,55,57,1,6,1,,,,,,,,,,,,,,,,,,,,,,,,,,,,,,,,,,,,,,,,,,,,,,,,,,,,,,,,,,,,,,,,,,,,,,,,,,,
,,,,,,,,,,stimuli/images/PICTURE_340.png,LETTER,5ef7526666bcd205609299dd,29/04/1997,2020-08-27_15h45.05.804,proactive3.2,2020.1.2,Win32,60,5f47c0b9b035471e11593a5c,5f47c66f3306480b038c9b02,5,,,,,,mirror,,,,,,0,56,56,24,1,3,1,,,,,,,,,,,,,,,,,,,,,,,,,,,,,,,,,,,,,,,,,,,,,,,,,,,,,,,,,,,,,,,,,,,,,,,,,,,
,,,,,,,,,,stimuli/images/PICTURE_675.png,SALE,5ef7526666bcd205609299dd,29/04/1997,2020-08-27_15h45.05.804,proactive3.2,2020.1.2,Win32,60,5f47c0b9b035471e11593a5c,5f47c66f3306480b038c9b02,5,,,,,,windmill,,,,,,0,57,57,47,1,5,1,,,,,,,,,,,,,,,,,,,,,,,,,,,,,,,,,,,,,,,,,,,,,,,,,,,,,,,,,,,,,,,,,,,,,,,,,,,
,,,,,,,,,,stimuli/images/PICTURE_285.png,LIFE,5ef7526666bcd205609299dd,29/04/1997,2020-08-27_15h45.05.804,proactive3.2,2020.1.2,Win32,60,5f47c0b9b035471e11593a5c,5f47c66f3306480b038c9b02,5,,,,,,carrot,,,,,,0,58,58,33,1,4,1,,,,,,,,,,,,,,,,,,,,,,,,,,,,,,,,,,,,,,,,,,,,,,,,,,,,,,,,,,,,,,,,,,,,,,,,,,,
,,?,0.00313,0,,,,,,stimuli/images/PICTURE_147.png,WOMEN,5ef7526666bcd205609299dd,29/04/1997,2020-08-27_15h45.05.804,proactive3.2,2020.1.2,Win32,60,5f47c0b9b035471e11593a5c,5f47c66f3306480b038c9b02,5,,,,,,hanger,,,,,,,,,,,1,1,0,0,0,7,1,,,,,,,,,,,,,,,,,,,,,,,,,,,,,,,,,,,,,,,,,,,,,,,,,,,,,,,,,,,,,,,,,,,,,,
,,?,0.002465,0,,,,,,stimuli/images/PICTURE_655.png,TOILET,5ef7526666bcd205609299dd,29/04/1997,2020-08-27_15h45.05.804,proactive3.2,2020.1.2,Win32,60,5f47c0b9b035471e11593a5c,5f47c66f3306480b038c9b02,5,,,,,,megaphone,,,,,,,,,,,2,1,0,1,1,12,1,,,,,,,,,,,,,,,,,,,,,,,,,,,,,,,,,,,,,,,,,,,,,,,,,,,,,,,,,,,,,,,,,,,,,,
,,?,0.00228,0,,,,,,stimuli/images/PICTURE_744.png,WEAPON,5ef7526666bcd205609299dd,29/04/1997,2020-08-27_15h45.05.804,proactive3.2,2020.1.2,Win32,60,5f47c0b9b035471e11593a5c,5f47c66f3306480b038c9b02,5,,,,,,ring,,,,,,,,,,,6,1,0,2,2,50,1,,,,,,,,,,,,,,,,,,,,,,,,,,,,,,,,,,,,,,,,,,,,,,,,,,,,,,,,,,,,,,,,,,,,,,
,,?,0.002115,0,,,,,,stimuli/images/PICTURE_340.png,VALLEY,5ef7526666bcd205609299dd,29/04/1997,2020-08-27_15h45.05.804,proactive3.2,2020.1.2,Win32,60,5f47c0b9b035471e11593a5c,5f47c66f3306480b038c9b02,5,,,,,,mirror,,,,,,,,,,,6,1,0,3,3,54,1,,,,,,,,,,,,,,,,,,,,,,,,,,,,,,,,,,,,,,,,,,,,,,,,,,,,,,,,,,,,,,,,,,,,,,
,,?,0.00208,0,,,,,,stimuli/images/PICTURE_85.png,NATION,5ef7526666bcd205609299dd,29/04/1997,2020-08-27_15h45.05.804,proactive3.2,2020.1.2,Win32,60,5f47c0b9b035471e11593a5c,5f47c66f3306480b038c9b02,5,,,,,,diamond,,,,,,,,,,,1,1,0,4,4,5,1,,,,,,,,,,,,,,,,,,,,,,,,,,,,,,,,,,,,,,,,,,,,,,,,,,,,,,,,,,,,,,,,,,,,,,
,,?,0.00351,0,,,,,,stimuli/images/PICTURE_750.png,HOTEL,5ef7526666bcd205609299dd,29/04/1997,2020-08-27_15h45.05.804,proactive3.2,2020.1.2,Win32,60,5f47c0b9b035471e11593a5c,5f47c66f3306480b038c9b02,5,,,,,,kettle,,,,,,,,,,,3,1,0,5,5,27,1,,,,,,,,,,,,,,,,,,,,,,,,,,,,,,,,,,,,,,,,,,,,,,,,,,,,,,,,,,,,,,,,,,,,,,
,,?,0.002445,0,,,,,,stimuli/images/PICTURE_203.png,GODS,5ef7526666bcd205609299dd,29/04/1997,2020-08-27_15h45.05.804,proactive3.2,2020.1.2,Win32,60,5f47c0b9b035471e11593a5c,5f47c66f3306480b038c9b02,5,,,,,,cap,,,,,,,,,,,4,1,0,6,6,30,1,,,,,,,,,,,,,,,,,,,,,,,,,,,,,,,,,,,,,,,,,,,,,,,,,,,,,,,,,,,,,,,,,,,,,,
,,?,0.00251,0,,,,,,stimuli/images/PICTURE_380.png,CANDY,5ef7526666bcd205609299dd,29/04/1997,2020-08-27_15h45.05.804,proactive3.2,2020.1.2,Win32,60,5f47c0b9b035471e11593a5c,5f47c66f3306480b038c9b02,5,,,,,,gorilla,,,,,,,,,,,1,1,0,7,7,0,1,,,,,,,,,,,,,,,,,,,,,,,,,,,,,,,,,,,,,,,,,,,,,,,,,,,,,,,,,,,,,,,,,,,,,,
,,?,0.00175,0,,,,,,stimuli/images/PICTURE_708.png,RECORD,5ef7526666bcd205609299dd,29/04/1997,2020-08-27_15h45.05.804,proactive3.2,2020.1.2,Win32,60,5f47c0b9b035471e11593a5c,5f47c66f3306480b038c9b02,5,,,,,,monkey,,,,,,,,,,,6,1,0,8,8,58,1,,,,,,,,,,,,,,,,,,,,,,,,,,,,,,,,,,,,,,,,,,,,,,,,,,,,,,,,,,,,,,,,,,,,,,
,,?,0.00135,0,,,,,,stimuli/images/PICTURE_108.png,POLICY,5ef7526666bcd205609299dd,29/04/1997,2020-08-27_15h45.05.804,proactive3.2,2020.1.2,Win32,60,5f47c0b9b035471e11593a5c,5f47c66f3306480b038c9b02,5,,,,,,calendar,,,,,,,,,,,3,1,0,9,9,22,1,,,,,,,,,,,,,,,,,,,,,,,,,,,,,,,,,,,,,,,,,,,,,,,,,,,,,,,,,,,,,,,,,,,,,,
,,TOILET,4.03424,1,,,,,,stimuli/images/PICTURE_85.png,TOILET,5ef7526666bcd205609299dd,29/04/1997,2020-08-27_15h45.05.804,proactive3.2,2020.1.2,Win32,60,5f47c0b9b035471e11593a5c,5f47c66f3306480b038c9b02,5,,,,,,diamond,,,,,,,,,,,5,1,0,10,10,48,1,,,,,,,,,,,,,,,,,,,,,,,,,,,,,,,,,,,,,,,,,,,,,,,,,,,,,,,,,,,,,,,,,,,,,,
,,?,0.001535,0,,,,,,stimuli/images/PICTURE_449.png,DUDE,5ef7526666bcd205609299dd,29/04/1997,2020-08-27_15h45.05.804,proactive3.2,2020.1.2,Win32,60,5f47c0b9b035471e11593a5c,5f47c66f3306480b038c9b02,5,,,,,,bench,,,,,,,,,,,2,1,0,11,11,17,1,,,,,,,,,,,,,,,,,,,,,,,,,,,,,,,,,,,,,,,,,,,,,,,,,,,,,,,,,,,,,,,,,,,,,,
,,?,0.001595,0,,,,,,stimuli/images/PICTURE_339.png,CLIENT,5ef7526666bcd205609299dd,29/04/1997,2020-08-27_15h45.05.804,proactive3.2,2020.1.2,Win32,60,5f47c0b9b035471e11593a5c,5f47c66f3306480b038c9b02,5,,,,,,backpack,,,,,,,,,,,2,1,0,12,12,11,1,,,,,,,,,,,,,,,,,,,,,,,,,,,,,,,,,,,,,,,,,,,,,,,,,,,,,,,,,,,,,,,,,,,,,,
,,?,0.00155,0,,,,,,stimuli/images/PICTURE_32.png,KIND,5ef7526666bcd205609299dd,29/04/1997,2020-08-27_15h45.05.804,proactive3.2,2020.1.2,Win32,60,5f47c0b9b035471e11593a5c,5f47c66f3306480b038c9b02,5,,,,,,crown,,,,,,,,,,,4,1,0,13,13,35,1,,,,,,,,,,,,,,,,,,,,,,,,,,,,,,,,,,,,,,,,,,,,,,,,,,,,,,,,,,,,,,,,,,,,,,
,,GIRL,2.93504,1,,,,,,stimuli/images/PICTURE_487.png,GIRL,5ef7526666bcd205609299dd,29/04/1997,2020-08-27_15h45.05.804,proactive3.2,2020.1.2,Win32,60,5f47c0b9b035471e11593a5c,5f47c66f3306480b038c9b02,5,,,,,,basket,,,,,,,,,,,5,1,0,14,14,45,1,,,,,,,,,,,,,,,,,,,,,,,,,,,,,,,,,,,,,,,,,,,,,,,,,,,,,,,,,,,,,,,,,,,,,,
,,?,0.003455,0,,,,,,stimuli/images/PICTURE_491.png,RIVER,5ef7526666bcd205609299dd,29/04/1997,2020-08-27_15h45.05.804,proactive3.2,2020.1.2,Win32,60,5f47c0b9b035471e11593a5c,5f47c66f3306480b038c9b02,5,,,,,,rug,,,,,,,,,,,1,1,0,15,15,6,1,,,,,,,,,,,,,,,,,,,,,,,,,,,,,,,,,,,,,,,,,,,,,,,,,,,,,,,,,,,,,,,,,,,,,,
,,?,0.00251,0,,,,,,stimuli/images/PICTURE_296.png,LOTS,5ef7526666bcd205609299dd,29/04/1997,2020-08-27_15h45.05.804,proactive3.2,2020.1.2,Win32,60,5f47c0b9b035471e11593a5c,5f47c66f3306480b038c9b02,5,,,,,,bolt,,,,,,,,,,,1,1,0,16,16,9,1,,,,,,,,,,,,,,,,,,,,,,,,,,,,,,,,,,,,,,,,,,,,,,,,,,,,,,,,,,,,,,,,,,,,,,
,,?,0.00295,0,,,,,,stimuli/images/PICTURE_297.png,RIVER,5ef7526666bcd205609299dd,29/04/1997,2020-08-27_15h45.05.804,proactive3.2,2020.1.2,Win32,60,5f47c0b9b035471e11593a5c,5f47c66f3306480b038c9b02,5,,,,,,aeroplane,,,,,,,,,,,4,1,0,17,17,39,1,,,,,,,,,,,,,,,,,,,,,,,,,,,,,,,,,,,,,,,,,,,,,,,,,,,,,,,,,,,,,,,,,,,,,,
,,?,0.00277,0,,,,,,stimuli/images/PICTURE_57.png,MOMENT,5ef7526666bcd205609299dd,29/04/1997,2020-08-27_15h45.05.804,proactive3.2,2020.1.2,Win32,60,5f47c0b9b035471e11593a5c,5f47c66f3306480b038c9b02,5,,,,,,stamp,,,,,,,,,,,4,1,0,18,18,37,1,,,,,,,,,,,,,,,,,,,,,,,,,,,,,,,,,,,,,,,,,,,,,,,,,,,,,,,,,,,,,,,,,,,,,,
,,?,0.002515,0,,,,,,stimuli/images/PICTURE_405.png,PLENTY,5ef7526666bcd205609299dd,29/04/1997,2020-08-27_15h45.05.804,proactive3.2,2020.1.2,Win32,60,5f47c0b9b035471e11593a5c,5f47c66f3306480b038c9b02,5,,,,,,anchor,,,,,,,,,,,3,1,0,19,19,23,1,,,,,,,,,,,,,,,,,,,,,,,,,,,,,,,,,,,,,,,,,,,,,,,,,,,,,,,,,,,,,,,,,,,,,,
,,ARTIST,4.71368,1,,,,,,stimuli/images/PICTURE_504.png,ARTIST,5ef7526666bcd205609299dd,29/04/1997,2020-08-27_15h45.05.804,proactive3.2,2020.1.2,Win32,60,5f47c0b9b035471e11593a5c,5f47c66f3306480b038c9b02,5,,,,,,wheel,,,,,,,,,,,5,1,0,20,20,49,1,,,,,,,,,,,,,,,,,,,,,,,,,,,,,,,,,,,,,,,,,,,,,,,,,,,,,,,,,,,,,,,,,,,,,,
,,?,0.00278,0,,,,,,stimuli/images/PICTURE_403.png,TOILET,5ef7526666bcd205609299dd,29/04/1997,2020-08-27_15h45.05.804,proactive3.2,2020.1.2,Win32,60,5f47c0b9b035471e11593a5c,5f47c66f3306480b038c9b02,5,,,,,,cathedral,,,,,,,,,,,3,1,0,21,21,25,1,,,,,,,,,,,,,,,,,,,,,,,,,,,,,,,,,,,,,,,,,,,,,,,,,,,,,,,,,,,,,,,,,,,,,,
,,?,0.002945,0,,,,,,stimuli/images/PICTURE_2.png,FLIGHT,5ef7526666bcd205609299dd,29/04/1997,2020-08-27_15h45.05.804,proactive3.2,2020.1.2,Win32,60,5f47c0b9b035471e11593a5c,5f47c66f3306480b038c9b02,5,,,,,,tyre,,,,,,,,,,,2,1,0,22,22,15,1,,,,,,,,,,,,,,,,,,,,,,,,,,,,,,,,,,,,,,,,,,,,,,,,,,,,,,,,,,,,,,,,,,,,,,
,,SERIES,2.79013,1,,,,,,stimuli/images/PICTURE_383.png,SERIES,5ef7526666bcd205609299dd,29/04/1997,2020-08-27_15h45.05.804,proactive3.2,2020.1.2,Win32,60,5f47c0b9b035471e11593a5c,5f47c66f3306480b038c9b02,5,,,,,,coin,,,,,,,,,,,5,1,0,23,23,46,1,,,,,,,,,,,,,,,,,,,,,,,,,,,,,,,,,,,,,,,,,,,,,,,,,,,,,,,,,,,,,,,,,,,,,,
,,RIVER,2.70956,1,,,,,,stimuli/images/PICTURE_403.png,RIVER,5ef7526666bcd205609299dd,29/04/1997,2020-08-27_15h45.05.804,proactive3.2,2020.1.2,Win32,60,5f47c0b9b035471e11593a5c,5f47c66f3306480b038c9b02,5,,,,,,cathedral,,,,,,,,,,,5,1,0,24,24,40,1,,,,,,,,,,,,,,,,,,,,,,,,,,,,,,,,,,,,,,,,,,,,,,,,,,,,,,,,,,,,,,,,,,,,,,
,,?,0.002625,0,,,,,,stimuli/images/PICTURE_685.png,PENNY,5ef7526666bcd205609299dd,29/04/1997,2020-08-27_15h45.05.804,proactive3.2,2020.1.2,Win32,60,5f47c0b9b035471e11593a5c,5f47c66f3306480b038c9b02,5,,,,,,goose,,,,,,,,,,,1,1,0,25,25,4,1,,,,,,,,,,,,,,,,,,,,,,,,,,,,,,,,,,,,,,,,,,,,,,,,,,,,,,,,,,,,,,,,,,,,,,
,,?,0.003625,0,,,,,,stimuli/images/PICTURE_469.png,AGENT,5ef7526666bcd205609299dd,29/04/1997,2020-08-27_15h45.05.804,proactive3.2,2020.1.2,Win32,60,5f47c0b9b035471e11593a5c,5f47c66f3306480b038c9b02,5,,,,,,stool,,,,,,,,,,,2,1,0,26,26,16,1,,,,,,,,,,,,,,,,,,,,,,,,,,,,,,,,,,,,,,,,,,,,,,,,,,,,,,,,,,,,,,,,,,,,,,
,,?,0.007175,0,,,,,,stimuli/images/PICTURE_467.png,POLICY,5ef7526666bcd205609299dd,29/04/1997,2020-08-27_15h45.05.804,proactive3.2,2020.1.2,Win32,60,5f47c0b9b035471e11593a5c,5f47c66f3306480b038c9b02,5,,,,,,peg,,,,,,,,,,,6,1,0,27,27,53,1,,,,,,,,,,,,,,,,,,,,,,,,,,,,,,,,,,,,,,,,,,,,,,,,,,,,,,,,,,,,,,,,,,,,,,
,,?,0.00247,0,,,,,,stimuli/images/PICTURE_340.png,LETTER,5ef7526666bcd205609299dd,29/04/1997,2020-08-27_15h45.05.804,proactive3.2,2020.1.2,Win32,60,5f47c0b9b035471e11593a5c,5f47c66f3306480b038c9b02,5,,,,,,mirror,,,,,,,,,,,3,1,0,28,28,24,1,,,,,,,,,,,,,,,,,,,,,,,,,,,,,,,,,,,,,,,,,,,,,,,,,,,,,,,,,,,,,,,,,,,,,,
,,?,0.002435,0,,,,,,stimuli/images/PICTURE_504.png,COPS,5ef7526666bcd205609299dd,29/04/1997,2020-08-27_15h45.05.804,proactive3.2,2020.1.2,Win32,60,5f47c0b9b035471e11593a5c,5f47c66f3306480b038c9b02,5,,,,,,wheel,,,,,,,,,,,6,1,0,29,29,52,1,,,,,,,,,,,,,,,,,,,,,,,,,,,,,,,,,,,,,,,,,,,,,,,,,,,,,,,,,,,,,,,,,,,,,,
,,HONEY,2.50398,1,,,,,,stimuli/images/PICTURE_95.png,HONEY,5ef7526666bcd205609299dd,29/04/1997,2020-08-27_15h45.05.804,proactive3.2,2020.1.2,Win32,60,5f47c0b9b035471e11593a5c,5f47c66f3306480b038c9b02,5,,,,,,suitcase,,,,,,,,,,,5,1,0,30,30,44,1,,,,,,,,,,,,,,,,,,,,,,,,,,,,,,,,,,,,,,,,,,,,,,,,,,,,,,,,,,,,,,,,,,,,,,
,,?,0.002415,0,,,,,,stimuli/images/PICTURE_95.png,MILLER,5ef7526666bcd205609299dd,29/04/1997,2020-08-27_15h45.05.804,proactive3.2,2020.1.2,Win32,60,5f47c0b9b035471e11593a5c,5f47c66f3306480b038c9b02,5,,,,,,suitcase,,,,,,,,,,,6,1,0,31,31,56,1,,,,,,,,,,,,,,,,,,,,,,,,,,,,,,,,,,,,,,,,,,,,,,,,,,,,,,,,,,,,,,,,,,,,,,
,,?,0.002365,0,,,,,,stimuli/images/PICTURE_203.png,NIGHT,5ef7526666bcd205609299dd,29/04/1997,2020-08-27_15h45.05.804,proactive3.2,2020.1.2,Win32,60,5f47c0b9b035471e11593a5c,5f47c66f3306480b038c9b02,5,,,,,,cap,,,,,,,,,,,1,1,0,32,32,2,1,,,,,,,,,,,,,,,,,,,,,,,,,,,,,,,,,,,,,,,,,,,,,,,,,,,,,,,,,,,,,,,,,,,,,,
,,?,0.00239,0,,,,,,stimuli/images/PICTURE_667.png,RIVER,5ef7526666bcd205609299dd,29/04/1997,2020-08-27_15h45.05.804,proactive3.2,2020.1.2,Win32,60,5f47c0b9b035471e11593a5c,5f47c66f3306480b038c9b02,5,,,,,,daisy,,,,,,,,,,,2,1,0,33,33,10,1,,,,,,,,,,,,,,,,,,,,,,,,,,,,,,,,,,,,,,,,,,,,,,,,,,,,,,,,,,,,,,,,,,,,,,
,,?,0.002065,0,,,,,,stimuli/images/PICTURE_33.png,FRIEND,5ef7526666bcd205609299dd,29/04/1997,2020-08-27_15h45.05.804,proactive3.2,2020.1.2,Win32,60,5f47c0b9b035471e11593a5c,5f47c66f3306480b038c9b02,5,,,,,,frame,,,,,,,,,,,1,1,0,34,34,8,1,,,,,,,,,,,,,,,,,,,,,,,,,,,,,,,,,,,,,,,,,,,,,,,,,,,,,,,,,,,,,,,,,,,,,,
,,?,0.003625,0,,,,,,stimuli/images/PICTURE_405.png,YEAR,5ef7526666bcd205609299dd,29/04/1997,2020-08-27_15h45.05.804,proactive3.2,2020.1.2,Win32,60,5f47c0b9b035471e11593a5c,5f47c66f3306480b038c9b02,5,,,,,,anchor,,,,,,,,,,,4,1,0,35,35,34,1,,,,,,,,,,,,,,,,,,,,,,,,,,,,,,,,,,,,,,,,,,,,,,,,,,,,,,,,,,,,,,,,,,,,,,
,,WRITER,3.236435,1,,,,,,stimuli/images/PICTURE_177.png,WRITER,5ef7526666bcd205609299dd,29/04/1997,2020-08-27_15h45.05.804,proactive3.2,2020.1.2,Win32,60,5f47c0b9b035471e11593a5c,5f47c66f3306480b038c9b02,5,,,,,,mushroom,,,,,,,,,,,5,1,0,36,36,41,1,,,,,,,,,,,,,,,,,,,,,,,,,,,,,,,,,,,,,,,,,,,,,,,,,,,,,,,,,,,,,,,,,,,,,,
,,?,0.00362,0,,,,,,stimuli/images/PICTURE_383.png,WRITER,5ef7526666bcd205609299dd,29/04/1997,2020-08-27_15h45.05.804,proactive3.2,2020.1.2,Win32,60,5f47c0b9b035471e11593a5c,5f47c66f3306480b038c9b02,5,,,,,,coin,,,,,,,,,,,3,1,0,37,37,28,1,,,,,,,,,,,,,,,,,,,,,,,,,,,,,,,,,,,,,,,,,,,,,,,,,,,,,,,,,,,,,,,,,,,,,,
,,?,0.003205,0,,,,,,stimuli/images/PICTURE_327.png,CASINO,5ef7526666bcd205609299dd,29/04/1997,2020-08-27_15h45.05.804,proactive3.2,2020.1.2,Win32,60,5f47c0b9b035471e11593a5c,5f47c66f3306480b038c9b02,5,,,,,,helmet,,,,,,,,,,,3,1,0,38,38,20,1,,,,,,,,,,,,,,,,,,,,,,,,,,,,,,,,,,,,,,,,,,,,,,,,,,,,,,,,,,,,,,,,,,,,,,
,,?,0.003105,0,,,,,,stimuli/images/PICTURE_68.png,MILE,5ef7526666bcd205609299dd,29/04/1997,2020-08-27_15h45.05.804,proactive3.2,2020.1.2,Win32,60,5f47c0b9b035471e11593a5c,5f47c66f3306480b038c9b02,5,,,,,,candle,,,,,,,,,,,6,1,0,39,39,51,1,,,,,,,,,,,,,,,,,,,,,,,,,,,,,,,,,,,,,,,,,,,,,,,,,,,,,,,,,,,,,,,,,,,,,,
,,?,0.002095,0,,,,,,stimuli/images/PICTURE_208.png,SYSTEM,5ef7526666bcd205609299dd,29/04/1997,2020-08-27_15h45.05.804,proactive3.2,2020.1.2,Win32,60,5f47c0b9b035471e11593a5c,5f47c66f3306480b038c9b02,5,,,,,,microphone,,,,,,,,,,,4,1,0,40,40,32,1,,,,,,,,,,,,,,,,,,,,,,,,,,,,,,,,,,,,,,,,,,,,,,,,,,,,,,,,,,,,,,,,,,,,,,
,,?,0.002605,0,,,,,,stimuli/images/PICTURE_504.png,YEAR,5ef7526666bcd205609299dd,29/04/1997,2020-08-27_15h45.05.804,proactive3.2,2020.1.2,Win32,60,5f47c0b9b035471e11593a5c,5f47c66f3306480b038c9b02,5,,,,,,wheel,,,,,,,,,,,2,1,0,41,41,13,1,,,,,,,,,,,,,,,,,,,,,,,,,,,,,,,,,,,,,,,,,,,,,,,,,,,,,,,,,,,,,,,,,,,,,,
,,?,0.002425,0,,,,,,stimuli/images/PICTURE_564.png,BATH,5ef7526666bcd205609299dd,29/04/1997,2020-08-27_15h45.05.804,proactive3.2,2020.1.2,Win32,60,5f47c0b9b035471e11593a5c,5f47c66f3306480b038c9b02,5,,,,,,spoon,,,,,,,,,,,3,1,0,42,42,26,1,,,,,,,,,,,,,,,,,,,,,,,,,,,,,,,,,,,,,,,,,,,,,,,,,,,,,,,,,,,,,,,,,,,,,,
,,?,0.00271,0,,,,,,stimuli/images/PICTURE_147.png,YEAR,5ef7526666bcd205609299dd,29/04/1997,2020-08-27_15h45.05.804,proactive3.2,2020.1.2,Win32,60,5f47c0b9b035471e11593a5c,5f47c66f3306480b038c9b02,5,,,,,,hanger,,,,,,,,,,,3,1,0,43,43,21,1,,,,,,,,,,,,,,,,,,,,,,,,,,,,,,,,,,,,,,,,,,,,,,,,,,,,,,,,,,,,,,,,,,,,,,
,,?,0.002415,0,,,,,,stimuli/images/PICTURE_491.png,GLASS,5ef7526666bcd205609299dd,29/04/1997,2020-08-27_15h45.05.804,proactive3.2,2020.1.2,Win32,60,5f47c0b9b035471e11593a5c,5f47c66f3306480b038c9b02,5,,,,,,rug,,,,,,,,,,,2,1,0,44,44,14,1,,,,,,,,,,,,,,,,,,,,,,,,,,,,,,,,,,,,,,,,,,,,,,,,,,,,,,,,,,,,,,,,,,,,,,
,,?,0.00215,0,,,,,,stimuli/images/PICTURE_654.png,MONTH,5ef7526666bcd205609299dd,29/04/1997,2020-08-27_15h45.05.804,proactive3.2,2020.1.2,Win32,60,5f47c0b9b035471e11593a5c,5f47c66f3306480b038c9b02,5,,,,,,pencil,,,,,,,,,,,3,1,0,45,45,29,1,,,,,,,,,,,,,,,,,,,,,,,,,,,,,,,,,,,,,,,,,,,,,,,,,,,,,,,,,,,,,,,,,,,,,,
,,?,0.00237,0,,,,,,stimuli/images/PICTURE_285.png,LIFE,5ef7526666bcd205609299dd,29/04/1997,2020-08-27_15h45.05.804,proactive3.2,2020.1.2,Win32,60,5f47c0b9b035471e11593a5c,5f47c66f3306480b038c9b02,5,,,,,,carrot,,,,,,,,,,,4,1,0,46,46,33,1,,,,,,,,,,,,,,,,,,,,,,,,,,,,,,,,,,,,,,,,,,,,,,,,,,,,,,,,,,,,,,,,,,,,,,
,,?,0.002315,0,,,,,,stimuli/images/PICTURE_380.png,HONEY,5ef7526666bcd205609299dd,29/04/1997,2020-08-27_15h45.05.804,proactive3.2,2020.1.2,Win32,60,5f47c0b9b035471e11593a5c,5f47c66f3306480b038c9b02,5,,,,,,gorilla,,,,,,,,,,,2,1,0,47,47,19,1,,,,,,,,,,,,,,,,,,,,,,,,,,,,,,,,,,,,,,,,,,,,,,,,,,,,,,,,,,,,,,,,,,,,,,
,,?,0.001995,0,,,,,,stimuli/images/PICTURE_32.png,PILLS,5ef7526666bcd205609299dd,29/04/1997,2020-08-27_15h45.05.804,proactive3.2,2020.1.2,Win32,60,5f47c0b9b035471e11593a5c,5f47c66f3306480b038c9b02,5,,,,,,crown,,,,,,,,,,,2,1,0,48,48,18,1,,,,,,,,,,,,,,,,,,,,,,,,,,,,,,,,,,,,,,,,,,,,,,,,,,,,,,,,,,,,,,,,,,,,,,
,,?,0.00746,0,,,,,,stimuli/images/PICTURE_68.png,ROOF,5ef7526666bcd205609299dd,29/04/1997,2020-08-27_15h45.05.804,proactive3.2,2020.1.2,Win32,60,5f47c0b9b035471e11593a5c,5f47c66f3306480b038c9b02,5,,,,,,candle,,,,,,,,,,,4,1,0,49,49,38,1,,,,,,,,,,,,,,,,,,,,,,,,,,,,,,,,,,,,,,,,,,,,,,,,,,,,,,,,,,,,,,,,,,,,,,
,,?,0.002045,0,,,,,,stimuli/images/PICTURE_108.png,FLIGHT,5ef7526666bcd205609299dd,29/04/1997,2020-08-27_15h45.05.804,proactive3.2,2020.1.2,Win32,60,5f47c0b9b035471e11593a5c,5f47c66f3306480b038c9b02,5,,,,,,calendar,,,,,,,,,,,6,1,0,50,50,59,1,,,,,,,,,,,,,,,,,,,,,,,,,,,,,,,,,,,,,,,,,,,,,,,,,,,,,,,,,,,,,,,,,,,,,,
,,?,0.002395,0,,,,,,stimuli/images/PICTURE_95.png,BOYS,5ef7526666bcd205609299dd,29/04/1997,2020-08-27_15h45.05.804,proactive3.2,2020.1.2,Win32,60,5f47c0b9b035471e11593a5c,5f47c66f3306480b038c9b02,5,,,,,,suitcase,,,,,,,,,,,1,1,0,51,51,1,1,,,,,,,,,,,,,,,,,,,,,,,,,,,,,,,,,,,,,,,,,,,,,,,,,,,,,,,,,,,,,,,,,,,,,,
,,?,0.002945,0,,,,,,stimuli/images/PICTURE_327.png,SERIES,5ef7526666bcd205609299dd,29/04/1997,2020-08-27_15h45.05.804,proactive3.2,2020.1.2,Win32,60,5f47c0b9b035471e11593a5c,5f47c66f3306480b038c9b02,5,,,,,,helmet,,,,,,,,,,,1,1,0,52,52,3,1,,,,,,,,,,,,,,,,,,,,,,,,,,,,,,,,,,,,,,,,,,,,,,,,,,,,,,,,,,,,,,,,,,,,,,
,,?,0.002255,0,,,,,,stimuli/images/PICTURE_42.png,BOYS,5ef7526666bcd205609299dd,29/04/1997,2020-08-27_15h45.05.804,proactive3.2,2020.1.2,Win32,60,5f47c0b9b035471e11593a5c,5f47c66f3306480b038c9b02,5,,,,,,pear,,,,,,,,,,,6,1,0,53,53,55,1,,,,,,,,,,,,,,,,,,,,,,,,,,,,,,,,,,,,,,,,,,,,,,,,,,,,,,,,,,,,,,,,,,,,,,
,,?,0.00227,0,,,,,,stimuli/images/PICTURE_403.png,WRITER,5ef7526666bcd205609299dd,29/04/1997,2020-08-27_15h45.05.804,proactive3.2,2020.1.2,Win32,60,5f47c0b9b035471e11593a5c,5f47c66f3306480b038c9b02,5,,,,,,cathedral,,,,,,,,,,,4,1,0,54,54,31,1,,,,,,,,,,,,,,,,,,,,,,,,,,,,,,,,,,,,,,,,,,,,,,,,,,,,,,,,,,,,,,,,,,,,,,
,,SALE,2.214935,1,,,,,,stimuli/images/PICTURE_675.png,SALE,5ef7526666bcd205609299dd,29/04/1997,2020-08-27_15h45.05.804,proactive3.2,2020.1.2,Win32,60,5f47c0b9b035471e11593a5c,5f47c66f3306480b038c9b02,5,,,,,,windmill,,,,,,,,,,,5,1,0,55,55,47,1,,,,,,,,,,,,,,,,,,,,,,,,,,,,,,,,,,,,,,,,,,,,,,,,,,,,,,,,,,,,,,,,,,,,,,
,,?,0.00295,0,,,,,,stimuli/images/PICTURE_296.png,LIFE,5ef7526666bcd205609299dd,29/04/1997,2020-08-27_15h45.05.804,proactive3.2,2020.1.2,Win32,60,5f47c0b9b035471e11593a5c,5f47c66f3306480b038c9b02,5,,,,,,bolt,,,,,,,,,,,6,1,0,56,56,57,1,,,,,,,,,,,,,,,,,,,,,,,,,,,,,,,,,,,,,,,,,,,,,,,,,,,,,,,,,,,,,,,,,,,,,,
,,LOTS,2.88226,1,,,,,,stimuli/images/PICTURE_233.png,LOTS,5ef7526666bcd205609299dd,29/04/1997,2020-08-27_15h45.05.804,proactive3.2,2020.1.2,Win32,60,5f47c0b9b035471e11593a5c,5f47c66f3306480b038c9b02,5,,,,,,salt,,,,,,,,,,,5,1,0,57,57,42,1,,,,,,,,,,,,,,,,,,,,,,,,,,,,,,,,,,,,,,,,,,,,,,,,,,,,,,,,,,,,,,,,,,,,,,
,,?,5.39149,0,,,,,,stimuli/images/PICTURE_677.png,APPLE,5ef7526666bcd205609299dd,29/04/1997,2020-08-27_15h45.05.804,proactive3.2,2020.1.2,Win32,60,5f47c0b9b035471e11593a5c,5f47c66f3306480b038c9b02,5,,,,,,map,,,,,,,,,,,5,1,0,58,58,43,1,,,,,,,,,,,,,,,,,,,,,,,,,,,,,,,,,,,,,,,,,,,,,,,,,,,,,,,,,,,,,,,,,,,,,,
,,?,0.002335,0,,,,,,stimuli/images/PICTURE_308.png,FAMILY,5ef7526666bcd205609299dd,29/04/1997,2020-08-27_15h45.05.804,proactive3.2,2020.1.2,Win32,60,5f47c0b9b035471e11593a5c,5f47c66f3306480b038c9b02,5,,,,,,dice,,,,,,,,,,,4,1,0,59,59,36,1,,,,,,,,,,,,,,,,,,,,,,,,,,,,,,,,,,,,,,,,,,,,,,,,,,,,,,,,,,,,,,,,,,,,,,
,,,,,,,,,,,,5ef7526666bcd205609299dd,29/04/1997,2020-08-27_15h45.05.804,proactive3.2,2020.1.2,Win32,60,5f47c0b9b035471e11593a5c,5f47c66f3306480b038c9b02,5,,,,,,,,,,,,,,,,,,,,,,,,0,1,1,1,1,stimuli/learn-block2.csv,,,,,,,,,,,,,,,,,,,,,,,,,,,,,,,,,,,,,,,,,,,,,,,,,,,,,,,,,,,,,,,,
,,,,,,,,,,stimuli/images/PICTURE_95.png,STYLE,5ef7526666bcd205609299dd,29/04/1997,2020-08-27_15h45.05.804,proactive3.2,2020.1.2,Win32,60,5f47c0b9b035471e11593a5c,5f47c66f3306480b038c9b02,5,,,,,,suitcase,,,,,,0,0,0,25,1,3,0,,,,,,,,,,,,,,,,,,,,,,,,,,,,,,,,,,,,,,,,,,,,,,,,,,,,,,,,,,,,,,,,,,,,,,,,,,,
,,,,,,,,,,stimuli/images/PICTURE_160.png,LEADER,5ef7526666bcd205609299dd,29/04/1997,2020-08-27_15h45.05.804,proactive3.2,2020.1.2,Win32,60,5f47c0b9b035471e11593a5c,5f47c66f3306480b038c9b02,5,,,,,,wheelbarrow,,,,,,0,1,1,3,1,1,0,,,,,,,,,,,,,,,,,,,,,,,,,,,,,,,,,,,,,,,,,,,,,,,,,,,,,,,,,,,,,,,,,,,,,,,,,,,
,,,,,,,,,,stimuli/images/PICTURE_654.png,VALLEY,5ef7526666bcd205609299dd,29/04/1997,2020-08-27_15h45.05.804,proactive3.2,2020.1.2,Win32,60,5f47c0b9b035471e11593a5c,5f47c66f3306480b038c9b02,5,,,,,,pencil,,,,,,0,2,2,1,1,1,0,,,,,,,,,,,,,,,,,,,,,,,,,,,,,,,,,,,,,,,,,,,,,,,,,,,,,,,,,,,,,,,,,,,,,,,,,,,
,,,,,,,,,,stimuli/images/PICTURE_356.png,DANGER,5ef7526666bcd205609299dd,29/04/1997,2020-08-27_15h45.05.804,proactive3.2,2020.1.2,Win32,60,5f47c0b9b035471e11593a5c,5f47c66f3306480b038c9b02,5,,,,,,pawn,,,,,,0,3,3,55,1,6,0,,,,,,,,,,,,,,,,,,,,,,,,,,,,,,,,,,,,,,,,,,,,,,,,,,,,,,,,,,,,,,,,,,,,,,,,,,,
,,,,,,,,,,stimuli/images/PICTURE_203.png,ARTIST,5ef7526666bcd205609299dd,29/04/1997,2020-08-27_15h45.05.804,proactive3.2,2020.1.2,Win32,60,5f47c0b9b035471e11593a5c,5f47c66f3306480b038c9b02,5,,,,,,cap,,,,,,0,4,4,26,1,3,0,,,,,,,,,,,,,,,,,,,,,,,,,,,,,,,,,,,,,,,,,,,,,,,,,,,,,,,,,,,,,,,,,,,,,,,,,,,
,,,,,,,,,,stimuli/images/PICTURE_255.png,AREA,5ef7526666bcd205609299dd,29/04/1997,2020-08-27_15h45.05.804,proactive3.2,2020.1.2,Win32,60,5f47c0b9b035471e11593a5c,5f47c66f3306480b038c9b02,5,,,,,,shovel,,,,,,0,5,5,22,1,3,0,,,,,,,,,,,,,,,,,,,,,,,,,,,,,,,,,,,,,,,,,,,,,,,,,,,,,,,,,,,,,,,,,,,,,,,,,,,
,,,,,,,,,,stimuli/images/PICTURE_215.png,PLENTY,5ef7526666bcd205609299dd,29/04/1997,2020-08-27_15h45.05.804,proactive3.2,2020.1.2,Win32,60,5f47c0b9b035471e11593a5c,5f47c66f3306480b038c9b02,5,,,,,,boot,,,,,,0,6,6,37,1,4,0,,,,,,,,,,,,,,,,,,,,,,,,,,,,,,,,,,,,,,,,,,,,,,,,,,,,,,,,,,,,,,,,,,,,,,,,,,,
,,,,,,,,,,stimuli/images/PICTURE_667.png,PLENTY,5ef7526666bcd205609299dd,29/04/1997,2020-08-27_15h45.05.804,proactive3.2,2020.1.2,Win32,60,5f47c0b9b035471e11593a5c,5f47c66f3306480b038c9b02,5,,,,,,daisy,,,,,,0,7,7,41,1,5,0,,,,,,,,,,,,,,,,,,,,,,,,,,,,,,,,,,,,,,,,,,,,,,,,,,,,,,,,,,,,,,,,,,,,,,,,,,,
,,,,,,,,,,stimuli/images/PICTURE_348.png,SPEECH,5ef7526666bcd205609299dd,29/04/1997,2020-08-27_15h45.05.804,proactive3.2,2020.1.2,Win32,60,5f47c0b9b035471e11593a5c,5f47c66f3306480b038c9b02,5,,,,,,pepper,,,,,,0,8,8,20,1,3,0,,,,,,,,,,,,,,,,,,,,,,,,,,,,,,,,,,,,,,,,,,,,,,,,,,,,,,,,,,,,,,,,,,,,,,,,,,,
,,,,,,,,,,stimuli/images/PICTURE_509.png,PHOTO,5ef7526666bcd205609299dd,29/04/1997,2020-08-27_15h45.05.804,proactive3.2,2020.1.2,Win32,60,5f47c0b9b035471e11593a5c,5f47c66f3306480b038c9b02,5,,,,,,telephone,,,,,,0,9,9,21,1,3,0,,,,,,,,,,,,,,,,,,,,,,,,,,,,,,,,,,,,,,,,,,,,,,,,,,,,,,,,,,,,,,,,,,,,,,,,,,,
,,,,,,,,,,stimuli/images/PICTURE_85.png,THING,5ef7526666bcd205609299dd,29/04/1997,2020-08-27_15h45.05.804,proactive3.2,2020.1.2,Win32,60,5f47c0b9b035471e11593a5c,5f47c66f3306480b038c9b02,5,,,,,,diamond,,,,,,0,10,10,15,1,2,0,,,,,,,,,,,,,,,,,,,,,,,,,,,,,,,,,,,,,,,,,,,,,,,,,,,,,,,,,,,,,,,,,,,,,,,,,,,
,,,,,,,,,,stimuli/images/PICTURE_123.png,ADVICE,5ef7526666bcd205609299dd,29/04/1997,2020-08-27_15h45.05.804,proactive3.2,2020.1.2,Win32,60,5f47c0b9b035471e11593a5c,5f47c66f3306480b038c9b02,5,,,,,,dart,,,,,,0,11,11,50,1,6,0,,,,,,,,,,,,,,,,,,,,,,,,,,,,,,,,,,,,,,,,,,,,,,,,,,,,,,,,,,,,,,,,,,,,,,,,,,,
,,,,,,,,,,stimuli/images/PICTURE_314.png,SAKE,5ef7526666bcd205609299dd,29/04/1997,2020-08-27_15h45.05.804,proactive3.2,2020.1.2,Win32,60,5f47c0b9b035471e11593a5c,5f47c66f3306480b038c9b02,5,,,,,,perfume,,,,,,0,12,12,7,1,1,0,,,,,,,,,,,,,,,,,,,,,,,,,,,,,,,,,,,,,,,,,,,,,,,,,,,,,,,,,,,,,,,,,,,,,,,,,,,
,,,,,,,,,,stimuli/images/PICTURE_467.png,DEMON,5ef7526666bcd205609299dd,29/04/1997,2020-08-27_15h45.05.804,proactive3.2,2020.1.2,Win32,60,5f47c0b9b035471e11593a5c,5f47c66f3306480b038c9b02,5,,,,,,peg,,,,,,0,13,13,23,1,3,0,,,,,,,,,,,,,,,,,,,,,,,,,,,,,,,,,,,,,,,,,,,,,,,,,,,,,,,,,,,,,,,,,,,,,,,,,,,
,,,,,,,,,,stimuli/images/PICTURE_453.png,PLENTY,5ef7526666bcd205609299dd,29/04/1997,2020-08-27_15h45.05.804,proactive3.2,2020.1.2,Win32,60,5f47c0b9b035471e11593a5c,5f47c66f3306480b038c9b02,5,,,,,,scissors,,,,,,0,14,14,56,1,6,0,,,,,,,,,,,,,,,,,,,,,,,,,,,,,,,,,,,,,,,,,,,,,,,,,,,,,,,,,,,,,,,,,,,,,,,,,,,
,,,,,,,,,,stimuli/images/PICTURE_177.png,CARS,5ef7526666bcd205609299dd,29/04/1997,2020-08-27_15h45.05.804,proactive3.2,2020.1.2,Win32,60,5f47c0b9b035471e11593a5c,5f47c66f3306480b038c9b02,5,,,,,,mushroom,,,,,,0,15,15,35,1,4,0,,,,,,,,,,,,,,,,,,,,,,,,,,,,,,,,,,,,,,,,,,,,,,,,,,,,,,,,,,,,,,,,,,,,,,,,,,,
,,,,,,,,,,stimuli/images/PICTURE_302.png,FAMILY,5ef7526666bcd205609299dd,29/04/1997,2020-08-27_15h45.05.804,proactive3.2,2020.1.2,Win32,60,5f47c0b9b035471e11593a5c,5f47c66f3306480b038c9b02,5,,,,,,taxi,,,,,,0,16,16,18,1,2,0,,,,,,,,,,,,,,,,,,,,,,,,,,,,,,,,,,,,,,,,,,,,,,,,,,,,,,,,,,,,,,,,,,,,,,,,,,,
,,,,,,,,,,stimuli/images/PICTURE_314.png,GODS,5ef7526666bcd205609299dd,29/04/1997,2020-08-27_15h45.05.804,proactive3.2,2020.1.2,Win32,60,5f47c0b9b035471e11593a5c,5f47c66f3306480b038c9b02,5,,,,,,perfume,,,,,,0,17,17,11,1,2,0,,,,,,,,,,,,,,,,,,,,,,,,,,,,,,,,,,,,,,,,,,,,,,,,,,,,,,,,,,,,,,,,,,,,,,,,,,,
,,,,,,,,,,stimuli/images/PICTURE_208.png,THING,5ef7526666bcd205609299dd,29/04/1997,2020-08-27_15h45.05.804,proactive3.2,2020.1.2,Win32,60,5f47c0b9b035471e11593a5c,5f47c66f3306480b038c9b02,5,,,,,,microphone,,,,,,0,18,18,47,1,5,0,,,,,,,,,,,,,,,,,,,,,,,,,,,,,,,,,,,,,,,,,,,,,,,,,,,,,,,,,,,,,,,,,,,,,,,,,,,
,,,,,,,,,,stimuli/images/PICTURE_233.png,WOMEN,5ef7526666bcd205609299dd,29/04/1997,2020-08-27_15h45.05.804,proactive3.2,2020.1.2,Win32,60,5f47c0b9b035471e11593a5c,5f47c66f3306480b038c9b02,5,,,,,,salt,,,,,,0,19,19,38,1,4,0,,,,,,,,,,,,,,,,,,,,,,,,,,,,,,,,,,,,,,,,,,,,,,,,,,,,,,,,,,,,,,,,,,,,,,,,,,,
,,,,,,,,,,stimuli/images/PICTURE_248.png,DOZEN,5ef7526666bcd205609299dd,29/04/1997,2020-08-27_15h45.05.804,proactive3.2,2020.1.2,Win32,60,5f47c0b9b035471e11593a5c,5f47c66f3306480b038c9b02,5,,,,,,cart,,,,,,0,20,20,39,1,4,0,,,,,,,,,,,,,,,,,,,,,,,,,,,,,,,,,,,,,,,,,,,,,,,,,,,,,,,,,,,,,,,,,,,,,,,,,,,
,,,,,,,,,,stimuli/images/PICTURE_233.png,IDEAS,5ef7526666bcd205609299dd,29/04/1997,2020-08-27_15h45.05.804,proactive3.2,2020.1.2,Win32,60,5f47c0b9b035471e11593a5c,5f47c66f3306480b038c9b02,5,,,,,,salt,,,,,,0,21,21,28,1,3,0,,,,,,,,,,,,,,,,,,,,,,,,,,,,,,,,,,,,,,,,,,,,,,,,,,,,,,,,,,,,,,,,,,,,,,,,,,,
,,,,,,,,,,stimuli/images/PICTURE_469.png,ARTIST,5ef7526666bcd205609299dd,29/04/1997,2020-08-27_15h45.05.804,proactive3.2,2020.1.2,Win32,60,5f47c0b9b035471e11593a5c,5f47c66f3306480b038c9b02,5,,,,,,stool,,,,,,0,22,22,6,1,1,0,,,,,,,,,,,,,,,,,,,,,,,,,,,,,,,,,,,,,,,,,,,,,,,,,,,,,,,,,,,,,,,,,,,,,,,,,,,
,,,,,,,,,,stimuli/images/PICTURE_151.png,GIRL,5ef7526666bcd205609299dd,29/04/1997,2020-08-27_15h45.05.804,proactive3.2,2020.1.2,Win32,60,5f47c0b9b035471e11593a5c,5f47c66f3306480b038c9b02,5,,,,,,tray,,,,,,0,23,23,19,1,2,0,,,,,,,,,,,,,,,,,,,,,,,,,,,,,,,,,,,,,,,,,,,,,,,,,,,,,,,,,,,,,,,,,,,,,,,,,,,
,,,,,,,,,,stimuli/images/PICTURE_491.png,WRITER,5ef7526666bcd205609299dd,29/04/1997,2020-08-27_15h45.05.804,proactive3.2,2020.1.2,Win32,60,5f47c0b9b035471e11593a5c,5f47c66f3306480b038c9b02,5,,,,,,rug,,,,,,0,24,24,57,1,6,0,,,,,,,,,,,,,,,,,,,,,,,,,,,,,,,,,,,,,,,,,,,,,,,,,,,,,,,,,,,,,,,,,,,,,,,,,,,
,,,,,,,,,,stimuli/images/PICTURE_311.png,FRIEND,5ef7526666bcd205609299dd,29/04/1997,2020-08-27_15h45.05.804,proactive3.2,2020.1.2,Win32,60,5f47c0b9b035471e11593a5c,5f47c66f3306480b038c9b02,5,,,,,,razor,,,,,,0,25,25,34,1,4,0,,,,,,,,,,,,,,,,,,,,,,,,,,,,,,,,,,,,,,,,,,,,,,,,,,,,,,,,,,,,,,,,,,,,,,,,,,,
,,,,,,,,,,stimuli/images/PICTURE_380.png,PHOTO,5ef7526666bcd205609299dd,29/04/1997,2020-08-27_15h45.05.804,proactive3.2,2020.1.2,Win32,60,5f47c0b9b035471e11593a5c,5f47c66f3306480b038c9b02,5,,,,,,gorilla,,,,,,0,26,26,52,1,6,0,,,,,,,,,,,,,,,,,,,,,,,,,,,,,,,,,,,,,,,,,,,,,,,,,,,,,,,,,,,,,,,,,,,,,,,,,,,
,,,,,,,,,,stimuli/images/PICTURE_744.png,SAKE,5ef7526666bcd205609299dd,29/04/1997,2020-08-27_15h45.05.804,proactive3.2,2020.1.2,Win32,60,5f47c0b9b035471e11593a5c,5f47c66f3306480b038c9b02,5,,,,,,ring,,,,,,0,27,27,17,1,2,0,,,,,,,,,,,,,,,,,,,,,,,,,,,,,,,,,,,,,,,,,,,,,,,,,,,,,,,,,,,,,,,,,,,,,,,,,,,
,,,,,,,,,,stimuli/images/PICTURE_692.png,MONTH,5ef7526666bcd205609299dd,29/04/1997,2020-08-27_15h45.05.804,proactive3.2,2020.1.2,Win32,60,5f47c0b9b035471e11593a5c,5f47c66f3306480b038c9b02,5,,,,,,cherry,,,,,,0,28,28,16,1,2,0,,,,,,,,,,,,,,,,,,,,,,,,,,,,,,,,,,,,,,,,,,,,,,,,,,,,,,,,,,,,,,,,,,,,,,,,,,,
,,,,,,,,,,stimuli/images/PICTURE_285.png,ADVICE,5ef7526666bcd205609299dd,29/04/1997,2020-08-27_15h45.05.804,proactive3.2,2020.1.2,Win32,60,5f47c0b9b035471e11593a5c,5f47c66f3306480b038c9b02,5,,,,,,carrot,,,,,,0,29,29,12,1,2,0,,,,,,,,,,,,,,,,,,,,,,,,,,,,,,,,,,,,,,,,,,,,,,,,,,,,,,,,,,,,,,,,,,,,,,,,,,,
,,,,,,,,,,stimuli/images/PICTURE_487.png,FLIGHT,5ef7526666bcd205609299dd,29/04/1997,2020-08-27_15h45.05.804,proactive3.2,2020.1.2,Win32,60,5f47c0b9b035471e11593a5c,5f47c66f3306480b038c9b02,5,,,,,,basket,,,,,,0,30,30,9,1,1,0,,,,,,,,,,,,,,,,,,,,,,,,,,,,,,,,,,,,,,,,,,,,,,,,,,,,,,,,,,,,,,,,,,,,,,,,,,,
,,,,,,,,,,stimuli/images/PICTURE_208.png,MONTH,5ef7526666bcd205609299dd,29/04/1997,2020-08-27_15h45.05.804,proactive3.2,2020.1.2,Win32,60,5f47c0b9b035471e11593a5c,5f47c66f3306480b038c9b02,5,,,,,,microphone,,,,,,0,31,31,53,1,6,0,,,,,,,,,,,,,,,,,,,,,,,,,,,,,,,,,,,,,,,,,,,,,,,,,,,,,,,,,,,,,,,,,,,,,,,,,,,
,,,,,,,,,,stimuli/images/PICTURE_311.png,BEAUTY,5ef7526666bcd205609299dd,29/04/1997,2020-08-27_15h45.05.804,proactive3.2,2020.1.2,Win32,60,5f47c0b9b035471e11593a5c,5f47c66f3306480b038c9b02,5,,,,,,razor,,,,,,0,32,32,13,1,2,0,,,,,,,,,,,,,,,,,,,,,,,,,,,,,,,,,,,,,,,,,,,,,,,,,,,,,,,,,,,,,,,,,,,,,,,,,,,
,,,,,,,,,,stimuli/images/PICTURE_504.png,BODY,5ef7526666bcd205609299dd,29/04/1997,2020-08-27_15h45.05.804,proactive3.2,2020.1.2,Win32,60,5f47c0b9b035471e11593a5c,5f47c66f3306480b038c9b02,5,,,,,,wheel,,,,,,0,33,33,8,1,1,0,,,,,,,,,,,,,,,,,,,,,,,,,,,,,,,,,,,,,,,,,,,,,,,,,,,,,,,,,,,,,,,,,,,,,,,,,,,
,,,,,,,,,,stimuli/images/PICTURE_744.png,SYSTEM,5ef7526666bcd205609299dd,29/04/1997,2020-08-27_15h45.05.804,proactive3.2,2020.1.2,Win32,60,5f47c0b9b035471e11593a5c,5f47c66f3306480b038c9b02,5,,,,,,ring,,,,,,0,34,34,43,1,5,0,,,,,,,,,,,,,,,,,,,,,,,,,,,,,,,,,,,,,,,,,,,,,,,,,,,,,,,,,,,,,,,,,,,,,,,,,,,
,,,,,,,,,,stimuli/images/PICTURE_160.png,FEET,5ef7526666bcd205609299dd,29/04/1997,2020-08-27_15h45.05.804,proactive3.2,2020.1.2,Win32,60,5f47c0b9b035471e11593a5c,5f47c66f3306480b038c9b02,5,,,,,,wheelbarrow,,,,,,0,35,35,58,1,6,0,,,,,,,,,,,,,,,,,,,,,,,,,,,,,,,,,,,,,,,,,,,,,,,,,,,,,,,,,,,,,,,,,,,,,,,,,,,
,,,,,,,,,,stimuli/images/PICTURE_147.png,MOMENT,5ef7526666bcd205609299dd,29/04/1997,2020-08-27_15h45.05.804,proactive3.2,2020.1.2,Win32,60,5f47c0b9b035471e11593a5c,5f47c66f3306480b038c9b02,5,,,,,,hanger,,,,,,0,36,36,51,1,6,0,,,,,,,,,,,,,,,,,,,,,,,,,,,,,,,,,,,,,,,,,,,,,,,,,,,,,,,,,,,,,,,,,,,,,,,,,,,
,,,,,,,,,,stimuli/images/PICTURE_327.png,BEAUTY,5ef7526666bcd205609299dd,29/04/1997,2020-08-27_15h45.05.804,proactive3.2,2020.1.2,Win32,60,5f47c0b9b035471e11593a5c,5f47c66f3306480b038c9b02,5,,,,,,helmet,,,,,,0,37,37,48,1,5,0,,,,,,,,,,,,,,,,,,,,,,,,,,,,,,,,,,,,,,,,,,,,,,,,,,,,,,,,,,,,,,,,,,,,,,,,,,,
,,,,,,,,,,stimuli/images/PICTURE_688.png,WOMEN,5ef7526666bcd205609299dd,29/04/1997,2020-08-27_15h45.05.804,proactive3.2,2020.1.2,Win32,60,5f47c0b9b035471e11593a5c,5f47c66f3306480b038c9b02,5,,,,,,runner,,,,,,0,38,38,14,1,2,0,,,,,,,,,,,,,,,,,,,,,,,,,,,,,,,,,,,,,,,,,,,,,,,,,,,,,,,,,,,,,,,,,,,,,,,,,,,
,,,,,,,,,,stimuli/images/PICTURE_675.png,WEAPON,5ef7526666bcd205609299dd,29/04/1997,2020-08-27_15h45.05.804,proactive3.2,2020.1.2,Win32,60,5f47c0b9b035471e11593a5c,5f47c66f3306480b038c9b02,5,,,,,,windmill,,,,,,0,39,39,32,1,4,0,,,,,,,,,,,,,,,,,,,,,,,,,,,,,,,,,,,,,,,,,,,,,,,,,,,,,,,,,,,,,,,,,,,,,,,,,,,
,,,,,,,,,,stimuli/images/PICTURE_68.png,MILE,5ef7526666bcd205609299dd,29/04/1997,2020-08-27_15h45.05.804,proactive3.2,2020.1.2,Win32,60,5f47c0b9b035471e11593a5c,5f47c66f3306480b038c9b02,5,,,,,,candle,,,,,,0,40,40,44,1,5,0,,,,,,,,,,,,,,,,,,,,,,,,,,,,,,,,,,,,,,,,,,,,,,,,,,,,,,,,,,,,,,,,,,,,,,,,,,,
,,,,,,,,,,stimuli/images/PICTURE_123.png,ADVICE,5ef7526666bcd205609299dd,29/04/1997,2020-08-27_15h45.05.804,proactive3.2,2020.1.2,Win32,60,5f47c0b9b035471e11593a5c,5f47c66f3306480b038c9b02,5,,,,,,dart,,,,,,0,41,41,40,1,5,0,,,,,,,,,,,,,,,,,,,,,,,,,,,,,,,,,,,,,,,,,,,,,,,,,,,,,,,,,,,,,,,,,,,,,,,,,,,
,,,,,,,,,,stimuli/images/PICTURE_469.png,LETTER,5ef7526666bcd205609299dd,29/04/1997,2020-08-27_15h45.05.804,proactive3.2,2020.1.2,Win32,60,5f47c0b9b035471e11593a5c,5f47c66f3306480b038c9b02,5,,,,,,stool,,,,,,0,42,42,42,1,5,0,,,,,,,,,,,,,,,,,,,,,,,,,,,,,,,,,,,,,,,,,,,,,,,,,,,,,,,,,,,,,,,,,,,,,,,,,,,
,,,,,,,,,,stimuli/images/PICTURE_308.png,KIND,5ef7526666bcd205609299dd,29/04/1997,2020-08-27_15h45.05.804,proactive3.2,2020.1.2,Win32,60,5f47c0b9b035471e11593a5c,5f47c66f3306480b038c9b02,5,,,,,,dice,,,,,,0,43,43,54,1,6,0,,,,,,,,,,,,,,,,,,,,,,,,,,,,,,,,,,,,,,,,,,,,,,,,,,,,,,,,,,,,,,,,,,,,,,,,,,,
,,,,,,,,,,stimuli/images/PICTURE_708.png,YARD,5ef7526666bcd205609299dd,29/04/1997,2020-08-27_15h45.05.804,proactive3.2,2020.1.2,Win32,60,5f47c0b9b035471e11593a5c,5f47c66f3306480b038c9b02,5,,,,,,monkey,,,,,,0,44,44,29,1,3,0,,,,,,,,,,,,,,,,,,,,,,,,,,,,,,,,,,,,,,,,,,,,,,,,,,,,,,,,,,,,,,,,,,,,,,,,,,,
,,,,,,,,,,stimuli/images/PICTURE_667.png,BATH,5ef7526666bcd205609299dd,29/04/1997,2020-08-27_15h45.05.804,proactive3.2,2020.1.2,Win32,60,5f47c0b9b035471e11593a5c,5f47c66f3306480b038c9b02,5,,,,,,daisy,,,,,,0,45,45,4,1,1,0,,,,,,,,,,,,,,,,,,,,,,,,,,,,,,,,,,,,,,,,,,,,,,,,,,,,,,,,,,,,,,,,,,,,,,,,,,,
,,,,,,,,,,stimuli/images/PICTURE_491.png,ROOF,5ef7526666bcd205609299dd,29/04/1997,2020-08-27_15h45.05.804,proactive3.2,2020.1.2,Win32,60,5f47c0b9b035471e11593a5c,5f47c66f3306480b038c9b02,5,,,,,,rug,,,,,,0,46,46,24,1,3,0,,,,,,,,,,,,,,,,,,,,,,,,,,,,,,,,,,,,,,,,,,,,,,,,,,,,,,,,,,,,,,,,,,,,,,,,,,,
,,,,,,,,,,stimuli/images/PICTURE_677.png,MILE,5ef7526666bcd205609299dd,29/04/1997,2020-08-27_15h45.05.804,proactive3.2,2020.1.2,Win32,60,5f47c0b9b035471e11593a5c,5f47c66f3306480b038c9b02,5,,,,,,map,,,,,,0,47,47,30,1,4,0,,,,,,,,,,,,,,,,,,,,,,,,,,,,,,,,,,,,,,,,,,,,,,,,,,,,,,,,,,,,,,,,,,,,,,,,,,,
,,,,,,,,,,stimuli/images/PICTURE_308.png,ESTATE,5ef7526666bcd205609299dd,29/04/1997,2020-08-27_15h45.05.804,proactive3.2,2020.1.2,Win32,60,5f47c0b9b035471e11593a5c,5f47c66f3306480b038c9b02,5,,,,,,dice,,,,,,0,48,48,46,1,5,0,,,,,,,,,,,,,,,,,,,,,,,,,,,,,,,,,,,,,,,,,,,,,,,,,,,,,,,,,,,,,,,,,,,,,,,,,,,
,,,,,,,,,,stimuli/images/PICTURE_688.png,CASINO,5ef7526666bcd205609299dd,29/04/1997,2020-08-27_15h45.05.804,proactive3.2,2020.1.2,Win32,60,5f47c0b9b035471e11593a5c,5f47c66f3306480b038c9b02,5,,,,,,runner,,,,,,0,49,49,2,1,1,0,,,,,,,,,,,,,,,,,,,,,,,,,,,,,,,,,,,,,,,,,,,,,,,,,,,,,,,,,,,,,,,,,,,,,,,,,,,
,,,,,,,,,,stimuli/images/PICTURE_708.png,CLIENT,5ef7526666bcd205609299dd,29/04/1997,2020-08-27_15h45.05.804,proactive3.2,2020.1.2,Win32,60,5f47c0b9b035471e11593a5c,5f47c66f3306480b038c9b02,5,,,,,,monkey,,,,,,0,50,50,5,1,1,0,,,,,,,,,,,,,,,,,,,,,,,,,,,,,,,,,,,,,,,,,,,,,,,,,,,,,,,,,,,,,,,,,,,,,,,,,,,
,,,,,,,,,,stimuli/images/PICTURE_380.png,DEATH,5ef7526666bcd205609299dd,29/04/1997,2020-08-27_15h45.05.804,proactive3.2,2020.1.2,Win32,60,5f47c0b9b035471e11593a5c,5f47c66f3306480b038c9b02,5,,,,,,gorilla,,,,,,0,51,51,49,1,5,0,,,,,,,,,,,,,,,,,,,,,,,,,,,,,,,,,,,,,,,,,,,,,,,,,,,,,,,,,,,,,,,,,,,,,,,,,,,
,,,,,,,,,,stimuli/images/PICTURE_453.png,DUDE,5ef7526666bcd205609299dd,29/04/1997,2020-08-27_15h45.05.804,proactive3.2,2020.1.2,Win32,60,5f47c0b9b035471e11593a5c,5f47c66f3306480b038c9b02,5,,,,,,scissors,,,,,,0,52,52,27,1,3,0,,,,,,,,,,,,,,,,,,,,,,,,,,,,,,,,,,,,,,,,,,,,,,,,,,,,,,,,,,,,,,,,,,,,,,,,,,,
,,,,,,,,,,stimuli/images/PICTURE_449.png,THING,5ef7526666bcd205609299dd,29/04/1997,2020-08-27_15h45.05.804,proactive3.2,2020.1.2,Win32,60,5f47c0b9b035471e11593a5c,5f47c66f3306480b038c9b02,5,,,,,,bench,,,,,,0,53,53,59,1,6,0,,,,,,,,,,,,,,,,,,,,,,,,,,,,,,,,,,,,,,,,,,,,,,,,,,,,,,,,,,,,,,,,,,,,,,,,,,,
,,,,,,,,,,stimuli/images/PICTURE_208.png,LOTS,5ef7526666bcd205609299dd,29/04/1997,2020-08-27_15h45.05.804,proactive3.2,2020.1.2,Win32,60,5f47c0b9b035471e11593a5c,5f47c66f3306480b038c9b02,5,,,,,,microphone,,,,,,0,54,54,10,1,2,0,,,,,,,,,,,,,,,,,,,,,,,,,,,,,,,,,,,,,,,,,,,,,,,,,,,,,,,,,,,,,,,,,,,,,,,,,,,
,,,,,,,,,,stimuli/images/PICTURE_488.png,STYLE,5ef7526666bcd205609299dd,29/04/1997,2020-08-27_15h45.05.804,proactive3.2,2020.1.2,Win32,60,5f47c0b9b035471e11593a5c,5f47c66f3306480b038c9b02,5,,,,,,sun,,,,,,0,55,55,33,1,4,0,,,,,,,,,,,,,,,,,,,,,,,,,,,,,,,,,,,,,,,,,,,,,,,,,,,,,,,,,,,,,,,,,,,,,,,,,,,
,,,,,,,,,,stimuli/images/PICTURE_708.png,PENNY,5ef7526666bcd205609299dd,29/04/1997,2020-08-27_15h45.05.804,proactive3.2,2020.1.2,Win32,60,5f47c0b9b035471e11593a5c,5f47c66f3306480b038c9b02,5,,,,,,monkey,,,,,,0,56,56,31,1,4,0,,,,,,,,,,,,,,,,,,,,,,,,,,,,,,,,,,,,,,,,,,,,,,,,,,,,,,,,,,,,,,,,,,,,,,,,,,,
,,,,,,,,,,stimuli/images/PICTURE_339.png,PLENTY,5ef7526666bcd205609299dd,29/04/1997,2020-08-27_15h45.05.804,proactive3.2,2020.1.2,Win32,60,5f47c0b9b035471e11593a5c,5f47c66f3306480b038c9b02,5,,,,,,backpack,,,,,,0,57,57,0,1,1,0,,,,,,,,,,,,,,,,,,,,,,,,,,,,,,,,,,,,,,,,,,,,,,,,,,,,,,,,,,,,,,,,,,,,,,,,,,,
,,,,,,,,,,stimuli/images/PICTURE_32.png,JUNGLE,5ef7526666bcd205609299dd,29/04/1997,2020-08-27_15h45.05.804,proactive3.2,2020.1.2,Win32,60,5f47c0b9b035471e11593a5c,5f47c66f3306480b038c9b02,5,,,,,,crown,,,,,,0,58,58,45,1,5,0,,,,,,,,,,,,,,,,,,,,,,,,,,,,,,,,,,,,,,,,,,,,,,,,,,,,,,,,,,,,,,,,,,,,,,,,,,,
,,?,0.003005,0,,,,,,stimuli/images/PICTURE_208.png,LOTS,5ef7526666bcd205609299dd,29/04/1997,2020-08-27_15h45.05.804,proactive3.2,2020.1.2,Win32,60,5f47c0b9b035471e11593a5c,5f47c66f3306480b038c9b02,5,,,,,,microphone,,,,,,,,,,,2,0,0,0,0,10,1,,,,,,,,,,,,,,,,,,,,,,,,,,,,,,,,,,,,,,,,,,,,,,,,,,,,,,,,,,,,,,,,,,,,,,
,,?,0.002415,0,,,,,,stimuli/images/PICTURE_308.png,KIND,5ef7526666bcd205609299dd,29/04/1997,2020-08-27_15h45.05.804,proactive3.2,2020.1.2,Win32,60,5f47c0b9b035471e11593a5c,5f47c66f3306480b038c9b02,5,,,,,,dice,,,,,,,,,,,6,0,0,1,1,54,1,,,,,,,,,,,,,,,,,,,,,,,,,,,,,,,,,,,,,,,,,,,,,,,,,,,,,,,,,,,,,,,,,,,,,,
,,?,0.0035,0,,,,,,stimuli/images/PICTURE_147.png,MOMENT,5ef7526666bcd205609299dd,29/04/1997,2020-08-27_15h45.05.804,proactive3.2,2020.1.2,Win32,60,5f47c0b9b035471e11593a5c,5f47c66f3306480b038c9b02,5,,,,,,hanger,,,,,,,,,,,6,0,0,2,2,51,1,,,,,,,,,,,,,,,,,,,,,,,,,,,,,,,,,,,,,,,,,,,,,,,,,,,,,,,,,,,,,,,,,,,,,,
,,?,0.003845,0,,,,,,stimuli/images/PICTURE_314.png,SAKE,5ef7526666bcd205609299dd,29/04/1997,2020-08-27_15h45.05.804,proactive3.2,2020.1.2,Win32,60,5f47c0b9b035471e11593a5c,5f47c66f3306480b038c9b02,5,,,,,,perfume,,,,,,,,,,,1,0,0,3,3,7,1,,,,,,,,,,,,,,,,,,,,,,,,,,,,,,,,,,,,,,,,,,,,,,,,,,,,,,,,,,,,,,,,,,,,,,
,,?,0.00318,0,,,,,,stimuli/images/PICTURE_123.png,ADVICE,5ef7526666bcd205609299dd,29/04/1997,2020-08-27_15h45.05.804,proactive3.2,2020.1.2,Win32,60,5f47c0b9b035471e11593a5c,5f47c66f3306480b038c9b02,5,,,,,,dart,,,,,,,,,,,6,0,0,4,4,50,1,,,,,,,,,,,,,,,,,,,,,,,,,,,,,,,,,,,,,,,,,,,,,,,,,,,,,,,,,,,,,,,,,,,,,,
,,?,0.002295,0,,,,,,stimuli/images/PICTURE_380.png,PHOTO,5ef7526666bcd205609299dd,29/04/1997,2020-08-27_15h45.05.804,proactive3.2,2020.1.2,Win32,60,5f47c0b9b035471e11593a5c,5f47c66f3306480b038c9b02,5,,,,,,gorilla,,,,,,,,,,,6,0,0,5,5,52,1,,,,,,,,,,,,,,,,,,,,,,,,,,,,,,,,,,,,,,,,,,,,,,,,,,,,,,,,,,,,,,,,,,,,,,
,,?,0.00323,0,,,,,,stimuli/images/PICTURE_85.png,THING,5ef7526666bcd205609299dd,29/04/1997,2020-08-27_15h45.05.804,proactive3.2,2020.1.2,Win32,60,5f47c0b9b035471e11593a5c,5f47c66f3306480b038c9b02,5,,,,,,diamond,,,,,,,,,,,2,0,0,6,6,15,1,,,,,,,,,,,,,,,,,,,,,,,,,,,,,,,,,,,,,,,,,,,,,,,,,,,,,,,,,,,,,,,,,,,,,,
,,DEATH,2.93957,1,,,,,,stimuli/images/PICTURE_380.png,DEATH,5ef7526666bcd205609299dd,29/04/1997,2020-08-27_15h45.05.804,proactive3.2,2020.1.2,Win32,60,5f47c0b9b035471e11593a5c,5f47c66f3306480b038c9b02,5,,,,,,gorilla,,,,,,,,,,,5,0,0,7,7,49,1,,,,,,,,,,,,,,,,,,,,,,,,,,,,,,,,,,,,,,,,,,,,,,,,,,,,,,,,,,,,,,,,,,,,,,
,,?,0.00241,0,,,,,,stimuli/images/PICTURE_688.png,CASINO,5ef7526666bcd205609299dd,29/04/1997,2020-08-27_15h45.05.804,proactive3.2,2020.1.2,Win32,60,5f47c0b9b035471e11593a5c,5f47c66f3306480b038c9b02,5,,,,,,runner,,,,,,,,,,,1,0,0,8,8,2,1,,,,,,,,,,,,,,,,,,,,,,,,,,,,,,,,,,,,,,,,,,,,,,,,,,,,,,,,,,,,,,,,,,,,,,
,,JUNGLE,2.704945,1,,,,,,stimuli/images/PICTURE_32.png,JUNGLE,5ef7526666bcd205609299dd,29/04/1997,2020-08-27_15h45.05.804,proactive3.2,2020.1.2,Win32,60,5f47c0b9b035471e11593a5c,5f47c66f3306480b038c9b02,5,,,,,,crown,,,,,,,,,,,5,0,0,9,9,45,1,,,,,,,,,,,,,,,,,,,,,,,,,,,,,,,,,,,,,,,,,,,,,,,,,,,,,,,,,,,,,,,,,,,,,,
,,?,0.002395,0,,,,,,stimuli/images/PICTURE_255.png,AREA,5ef7526666bcd205609299dd,29/04/1997,2020-08-27_15h45.05.804,proactive3.2,2020.1.2,Win32,60,5f47c0b9b035471e11593a5c,5f47c66f3306480b038c9b02,5,,,,,,shovel,,,,,,,,,,,3,0,0,10,10,22,1,,,,,,,,,,,,,,,,,,,,,,,,,,,,,,,,,,,,,,,,,,,,,,,,,,,,,,,,,,,,,,,,,,,,,,
,,THING,2.61201,1,,,,,,stimuli/images/PICTURE_208.png,THING,5ef7526666bcd205609299dd,29/04/1997,2020-08-27_15h45.05.804,proactive3.2,2020.1.2,Win32,60,5f47c0b9b035471e11593a5c,5f47c66f3306480b038c9b02,5,,,,,,microphone,,,,,,,,,,,5,0,0,11,11,47,1,,,,,,,,,,,,,,,,,,,,,,,,,,,,,,,,,,,,,,,,,,,,,,,,,,,,,,,,,,,,,,,,,,,,,,
,,?,0.00707,0,,,,,,stimuli/images/PICTURE_692.png,MONTH,5ef7526666bcd205609299dd,29/04/1997,2020-08-27_15h45.05.804,proactive3.2,2020.1.2,Win32,60,5f47c0b9b035471e11593a5c,5f47c66f3306480b038c9b02,5,,,,,,cherry,,,,,,,,,,,2,0,0,12,12,16,1,,,,,,,,,,,,,,,,,,,,,,,,,,,,,,,,,,,,,,,,,,,,,,,,,,,,,,,,,,,,,,,,,,,,,,
,,?,0.00198,0,,,,,,stimuli/images/PICTURE_339.png,PLENTY,5ef7526666bcd205609299dd,29/04/1997,2020-08-27_15h45.05.804,proactive3.2,2020.1.2,Win32,60,5f47c0b9b035471e11593a5c,5f47c66f3306480b038c9b02,5,,,,,,backpack,,,,,,,,,,,1,0,0,13,13,0,1,,,,,,,,,,,,,,,,,,,,,,,,,,,,,,,,,,,,,,,,,,,,,,,,,,,,,,,,,,,,,,,,,,,,,,
