consent_key.keys,consent_key.rt,recalled,recalled_rt,recall_acc,example_recall.thisRepN,example_recall.thisTrialN,example_recall.thisN,example_recall.thisIndex,example_recall.ran,file,word,participant,please enter your date of birth (dd/mm/yyyy),date,expName,psychopyVersion,OS,frameRate,STUDY_ID,SESSION_ID,list,prac_learn_study_loop.thisRepN,prac_learn_study_loop.thisTrialN,prac_learn_study_loop.thisN,prac_learn_study_loop.thisIndex,prac_learn_study_loop.ran,image,prac_learn_test_loop.thisRepN,prac_learn_test_loop.thisTrialN,prac_learn_test_loop.thisN,prac_learn_test_loop.thisIndex,prac_learn_test_loop.ran,learn_study_loop.thisRepN,learn_study_loop.thisTrialN,learn_study_loop.thisN,learn_study_loop.thisIndex,learn_study_loop.ran,list_no,block_no,learn_test_loop.thisRepN,learn_test_loop.thisTrialN,learn_test_loop.thisN,learn_test_loop.thisIndex,learn_test_loop.ran,learn_blocks.thisRepN,learn_blocks.thisTrialN,learn_blocks.thisN,learn_blocks.thisIndex,learn_blocks.ran,block_csv,key_resp_13.keys,key_resp_13.rt,learn_blocks_loop.thisRepN,learn_blocks_loop.thisTrialN,learn_blocks_loop.thisN,learn_blocks_loop.thisIndex,learn_blocks_loop.ran,final_learn_test.thisRepN,final_learn_test.thisTrialN,final_learn_test.thisN,final_learn_test.thisIndex,final_learn_test.ran,prac_wm_test_loop.thisRepN,prac_wm_test_loop.thisTrialN,prac_wm_test_loop.thisN,prac_wm_test_loop.thisIndex,prac_wm_test_loop.ran,wm_recalled1,wm_recall_rt1,wm_probed1,wm_recall_acc1,wm_recalled2,wm_recall_rt2,wm_probed2,wm_recall_acc2,wm_recalled3,wm_recall_rt3,wm_probed3,wm_recall_acc3,wm_recalled4,wm_recall_rt4,wm_probed4,wm_recall_acc4,prac_wm_trial_loop.thisRepN,prac_wm_trial_loop.thisTrialN,prac_wm_trial_loop.thisN,prac_wm_trial_loop.thisIndex,prac_wm_trial_loop.ran,word1,image1,file1,item_type1,word2,image2,file2,item_type2,word4,image4,file4,item_type4,word3,image3,file3,item_type3,wm_test_loop.thisRepN,wm_test_loop.thisTrialN,wm_test_loop.thisN,wm_test_loop.thisIndex,wm_test_loop.ran,wm_trial_loop.thisRepN,wm_trial_loop.thisTrialN,wm_trial_loop.thisN,wm_trial_loop.thisIndex,wm_trial_loop.ran
y,6.715085,TOUGH,3.20927,1,0,0,0,0,1,stimuli/images/PICTURE_747.png,TOUGH,5f04cb284a1b587a33e1978d,19/10/1987,2020-08-27_10h40.39.439,proactive3.2,2020.1.2,Win32,60,5f47c0b9b035471e11593a5c,5f47c51d74dfe80d67019a49,3,,,,,,,,,,,,,,,,,,,,,,,,,,,,,,,,,,,,,,,,,,,,,,,,,,,,,,,,,,,,,,,,,,,,,,,,,,,,,,,,,,,,,,,,,,,,,
,,,,,,,,,,stimuli/images/PICTURE_697.png,KILLER,5f04cb284a1b587a33e1978d,19/10/1987,2020-08-27_10h40.39.439,proactive3.2,2020.1.2,Win32,60,5f47c0b9b035471e11593a5c,5f47c51d74dfe80d67019a49,3,0,0,0,4,1,peach,,,,,,,,,,,,,,,,,,,,,,,,,,,,,,,,,,,,,,,,,,,,,,,,,,,,,,,,,,,,,,,,,,,,,,,,,,,,,,,,,,,,,,,
,,,,,,,,,,stimuli/images/PICTURE_727.png,CELL,5f04cb284a1b587a33e1978d,19/10/1987,2020-08-27_10h40.39.439,proactive3.2,2020.1.2,Win32,60,5f47c0b9b035471e11593a5c,5f47c51d74dfe80d67019a49,3,0,1,1,1,1,hose,,,,,,,,,,,,,,,,,,,,,,,,,,,,,,,,,,,,,,,,,,,,,,,,,,,,,,,,,,,,,,,,,,,,,,,,,,,,,,,,,,,,,,,
,,,,,,,,,,stimuli/images/PICTURE_658.png,DEVIL,5f04cb284a1b587a33e1978d,19/10/1987,2020-08-27_10h40.39.439,proactive3.2,2020.1.2,Win32,60,5f47c0b9b035471e11593a5c,5f47c51d74dfe80d67019a49,3,0,2,2,3,1,crow,,,,,,,,,,,,,,,,,,,,,,,,,,,,,,,,,,,,,,,,,,,,,,,,,,,,,,,,,,,,,,,,,,,,,,,,,,,,,,,,,,,,,,,
,,,,,,,,,,stimuli/images/PICTURE_269.png,GENIUS,5f04cb284a1b587a33e1978d,19/10/1987,2020-08-27_10h40.39.439,proactive3.2,2020.1.2,Win32,60,5f47c0b9b035471e11593a5c,5f47c51d74dfe80d67019a49,3,0,3,3,0,1,chameleon,,,,,,,,,,,,,,,,,,,,,,,,,,,,,,,,,,,,,,,,,,,,,,,,,,,,,,,,,,,,,,,,,,,,,,,,,,,,,,,,,,,,,,,
,,GENIUS,2.295595,1,,,,,,stimuli/images/PICTURE_269.png,GENIUS,5f04cb284a1b587a33e1978d,19/10/1987,2020-08-27_10h40.39.439,proactive3.2,2020.1.2,Win32,60,5f47c0b9b035471e11593a5c,5f47c51d74dfe80d67019a49,3,,,,,,chameleon,0,0,0,0,1,,,,,,,,,,,,,,,,,,,,,,,,,,,,,,,,,,,,,,,,,,,,,,,,,,,,,,,,,,,,,,,,,,,,,,,,,,,,,,,,,,
,,KILLER,1.634835,1,,,,,,stimuli/images/PICTURE_697.png,KILLER,5f04cb284a1b587a33e1978d,19/10/1987,2020-08-27_10h40.39.439,proactive3.2,2020.1.2,Win32,60,5f47c0b9b035471e11593a5c,5f47c51d74dfe80d67019a49,3,,,,,,peach,0,1,1,4,1,,,,,,,,,,,,,,,,,,,,,,,,,,,,,,,,,,,,,,,,,,,,,,,,,,,,,,,,,,,,,,,,,,,,,,,,,,,,,,,,,,
,,CELL,1.200475,1,,,,,,stimuli/images/PICTURE_727.png,CELL,5f04cb284a1b587a33e1978d,19/10/1987,2020-08-27_10h40.39.439,proactive3.2,2020.1.2,Win32,60,5f47c0b9b035471e11593a5c,5f47c51d74dfe80d67019a49,3,,,,,,hose,0,2,2,1,1,,,,,,,,,,,,,,,,,,,,,,,,,,,,,,,,,,,,,,,,,,,,,,,,,,,,,,,,,,,,,,,,,,,,,,,,,,,,,,,,,,
,,DEVIL,1.31735,1,,,,,,stimuli/images/PICTURE_658.png,DEVIL,5f04cb284a1b587a33e1978d,19/10/1987,2020-08-27_10h40.39.439,proactive3.2,2020.1.2,Win32,60,5f47c0b9b035471e11593a5c,5f47c51d74dfe80d67019a49,3,,,,,,crow,0,3,3,3,1,,,,,,,,,,,,,,,,,,,,,,,,,,,,,,,,,,,,,,,,,,,,,,,,,,,,,,,,,,,,,,,,,,,,,,,,,,,,,,,,,,
,,LOSS,1.38342,1,,,,,,stimuli/images/PICTURE_378.png,LOSS,5f04cb284a1b587a33e1978d,19/10/1987,2020-08-27_10h40.39.439,proactive3.2,2020.1.2,Win32,60,5f47c0b9b035471e11593a5c,5f47c51d74dfe80d67019a49,3,,,,,,lobster,0,4,4,2,1,,,,,,,,,,,,,,,,,,,,,,,,,,,,,,,,,,,,,,,,,,,,,,,,,,,,,,,,,,,,,,,,,,,,,,,,,,,,,,,,,,
,,,,,,,,,,stimuli/images/PICTURE_108.png,FLIGHT,5f04cb284a1b587a33e1978d,19/10/1987,2020-08-27_10h40.39.439,proactive3.2,2020.1.2,Win32,60,5f47c0b9b035471e11593a5c,5f47c51d74dfe80d67019a49,3,,,,,,calendar,,,,,,0,0,0,59,1,6,1,,,,,,,,,,,,,,,,,,,,,,,,,,,,,,,,,,,,,,,,,,,,,,,,,,,,,,,,,,,,,,,,,,,,,,,,,,,
,,,,,,,,,,stimuli/images/PICTURE_68.png,MILE,5f04cb284a1b587a33e1978d,19/10/1987,2020-08-27_10h40.39.439,proactive3.2,2020.1.2,Win32,60,5f47c0b9b035471e11593a5c,5f47c51d74dfe80d67019a49,3,,,,,,candle,,,,,,0,1,1,51,1,6,1,,,,,,,,,,,,,,,,,,,,,,,,,,,,,,,,,,,,,,,,,,,,,,,,,,,,,,,,,,,,,,,,,,,,,,,,,,,
,,,,,,,,,,stimuli/images/PICTURE_564.png,BATH,5f04cb284a1b587a33e1978d,19/10/1987,2020-08-27_10h40.39.439,proactive3.2,2020.1.2,Win32,60,5f47c0b9b035471e11593a5c,5f47c51d74dfe80d67019a49,3,,,,,,spoon,,,,,,0,2,2,26,1,3,1,,,,,,,,,,,,,,,,,,,,,,,,,,,,,,,,,,,,,,,,,,,,,,,,,,,,,,,,,,,,,,,,,,,,,,,,,,,
,,,,,,,,,,stimuli/images/PICTURE_654.png,MONTH,5f04cb284a1b587a33e1978d,19/10/1987,2020-08-27_10h40.39.439,proactive3.2,2020.1.2,Win32,60,5f47c0b9b035471e11593a5c,5f47c51d74dfe80d67019a49,3,,,,,,pencil,,,,,,0,3,3,29,1,3,1,,,,,,,,,,,,,,,,,,,,,,,,,,,,,,,,,,,,,,,,,,,,,,,,,,,,,,,,,,,,,,,,,,,,,,,,,,,
,,,,,,,,,,stimuli/images/PICTURE_203.png,GODS,5f04cb284a1b587a33e1978d,19/10/1987,2020-08-27_10h40.39.439,proactive3.2,2020.1.2,Win32,60,5f47c0b9b035471e11593a5c,5f47c51d74dfe80d67019a49,3,,,,,,cap,,,,,,0,4,4,30,1,4,1,,,,,,,,,,,,,,,,,,,,,,,,,,,,,,,,,,,,,,,,,,,,,,,,,,,,,,,,,,,,,,,,,,,,,,,,,,,
,,,,,,,,,,stimuli/images/PICTURE_32.png,KIND,5f04cb284a1b587a33e1978d,19/10/1987,2020-08-27_10h40.39.439,proactive3.2,2020.1.2,Win32,60,5f47c0b9b035471e11593a5c,5f47c51d74dfe80d67019a49,3,,,,,,crown,,,,,,0,5,5,35,1,4,1,,,,,,,,,,,,,,,,,,,,,,,,,,,,,,,,,,,,,,,,,,,,,,,,,,,,,,,,,,,,,,,,,,,,,,,,,,,
,,,,,,,,,,stimuli/images/PICTURE_2.png,FLIGHT,5f04cb284a1b587a33e1978d,19/10/1987,2020-08-27_10h40.39.439,proactive3.2,2020.1.2,Win32,60,5f47c0b9b035471e11593a5c,5f47c51d74dfe80d67019a49,3,,,,,,tyre,,,,,,0,6,6,15,1,2,1,,,,,,,,,,,,,,,,,,,,,,,,,,,,,,,,,,,,,,,,,,,,,,,,,,,,,,,,,,,,,,,,,,,,,,,,,,,
,,,,,,,,,,stimuli/images/PICTURE_383.png,WRITER,5f04cb284a1b587a33e1978d,19/10/1987,2020-08-27_10h40.39.439,proactive3.2,2020.1.2,Win32,60,5f47c0b9b035471e11593a5c,5f47c51d74dfe80d67019a49,3,,,,,,coin,,,,,,0,7,7,28,1,3,1,,,,,,,,,,,,,,,,,,,,,,,,,,,,,,,,,,,,,,,,,,,,,,,,,,,,,,,,,,,,,,,,,,,,,,,,,,,
,,,,,,,,,,stimuli/images/PICTURE_340.png,LETTER,5f04cb284a1b587a33e1978d,19/10/1987,2020-08-27_10h40.39.439,proactive3.2,2020.1.2,Win32,60,5f47c0b9b035471e11593a5c,5f47c51d74dfe80d67019a49,3,,,,,,mirror,,,,,,0,8,8,24,1,3,1,,,,,,,,,,,,,,,,,,,,,,,,,,,,,,,,,,,,,,,,,,,,,,,,,,,,,,,,,,,,,,,,,,,,,,,,,,,
,,,,,,,,,,stimuli/images/PICTURE_708.png,RECORD,5f04cb284a1b587a33e1978d,19/10/1987,2020-08-27_10h40.39.439,proactive3.2,2020.1.2,Win32,60,5f47c0b9b035471e11593a5c,5f47c51d74dfe80d67019a49,3,,,,,,monkey,,,,,,0,9,9,58,1,6,1,,,,,,,,,,,,,,,,,,,,,,,,,,,,,,,,,,,,,,,,,,,,,,,,,,,,,,,,,,,,,,,,,,,,,,,,,,,
,,,,,,,,,,stimuli/images/PICTURE_42.png,BOYS,5f04cb284a1b587a33e1978d,19/10/1987,2020-08-27_10h40.39.439,proactive3.2,2020.1.2,Win32,60,5f47c0b9b035471e11593a5c,5f47c51d74dfe80d67019a49,3,,,,,,pear,,,,,,0,10,10,55,1,6,1,,,,,,,,,,,,,,,,,,,,,,,,,,,,,,,,,,,,,,,,,,,,,,,,,,,,,,,,,,,,,,,,,,,,,,,,,,,
,,,,,,,,,,stimuli/images/PICTURE_403.png,TOILET,5f04cb284a1b587a33e1978d,19/10/1987,2020-08-27_10h40.39.439,proactive3.2,2020.1.2,Win32,60,5f47c0b9b035471e11593a5c,5f47c51d74dfe80d67019a49,3,,,,,,cathedral,,,,,,0,11,11,25,1,3,1,,,,,,,,,,,,,,,,,,,,,,,,,,,,,,,,,,,,,,,,,,,,,,,,,,,,,,,,,,,,,,,,,,,,,,,,,,,
,,,,,,,,,,stimuli/images/PICTURE_655.png,TOILET,5f04cb284a1b587a33e1978d,19/10/1987,2020-08-27_10h40.39.439,proactive3.2,2020.1.2,Win32,60,5f47c0b9b035471e11593a5c,5f47c51d74dfe80d67019a49,3,,,,,,megaphone,,,,,,0,12,12,12,1,2,1,,,,,,,,,,,,,,,,,,,,,,,,,,,,,,,,,,,,,,,,,,,,,,,,,,,,,,,,,,,,,,,,,,,,,,,,,,,
,,,,,,,,,,stimuli/images/PICTURE_405.png,PLENTY,5f04cb284a1b587a33e1978d,19/10/1987,2020-08-27_10h40.39.439,proactive3.2,2020.1.2,Win32,60,5f47c0b9b035471e11593a5c,5f47c51d74dfe80d67019a49,3,,,,,,anchor,,,,,,0,13,13,23,1,3,1,,,,,,,,,,,,,,,,,,,,,,,,,,,,,,,,,,,,,,,,,,,,,,,,,,,,,,,,,,,,,,,,,,,,,,,,,,,
,,,,,,,,,,stimuli/images/PICTURE_405.png,YEAR,5f04cb284a1b587a33e1978d,19/10/1987,2020-08-27_10h40.39.439,proactive3.2,2020.1.2,Win32,60,5f47c0b9b035471e11593a5c,5f47c51d74dfe80d67019a49,3,,,,,,anchor,,,,,,0,14,14,34,1,4,1,,,,,,,,,,,,,,,,,,,,,,,,,,,,,,,,,,,,,,,,,,,,,,,,,,,,,,,,,,,,,,,,,,,,,,,,,,,
,,,,,,,,,,stimuli/images/PICTURE_677.png,APPLE,5f04cb284a1b587a33e1978d,19/10/1987,2020-08-27_10h40.39.439,proactive3.2,2020.1.2,Win32,60,5f47c0b9b035471e11593a5c,5f47c51d74dfe80d67019a49,3,,,,,,map,,,,,,0,15,15,43,1,5,1,,,,,,,,,,,,,,,,,,,,,,,,,,,,,,,,,,,,,,,,,,,,,,,,,,,,,,,,,,,,,,,,,,,,,,,,,,,
,,,,,,,,,,stimuli/images/PICTURE_147.png,YEAR,5f04cb284a1b587a33e1978d,19/10/1987,2020-08-27_10h40.39.439,proactive3.2,2020.1.2,Win32,60,5f47c0b9b035471e11593a5c,5f47c51d74dfe80d67019a49,3,,,,,,hanger,,,,,,0,16,16,21,1,3,1,,,,,,,,,,,,,,,,,,,,,,,,,,,,,,,,,,,,,,,,,,,,,,,,,,,,,,,,,,,,,,,,,,,,,,,,,,,
,,,,,,,,,,stimuli/images/PICTURE_380.png,CANDY,5f04cb284a1b587a33e1978d,19/10/1987,2020-08-27_10h40.39.439,proactive3.2,2020.1.2,Win32,60,5f47c0b9b035471e11593a5c,5f47c51d74dfe80d67019a49,3,,,,,,gorilla,,,,,,0,17,17,0,1,1,1,,,,,,,,,,,,,,,,,,,,,,,,,,,,,,,,,,,,,,,,,,,,,,,,,,,,,,,,,,,,,,,,,,,,,,,,,,,
,,,,,,,,,,stimuli/images/PICTURE_32.png,PILLS,5f04cb284a1b587a33e1978d,19/10/1987,2020-08-27_10h40.39.439,proactive3.2,2020.1.2,Win32,60,5f47c0b9b035471e11593a5c,5f47c51d74dfe80d67019a49,3,,,,,,crown,,,,,,0,18,18,18,1,2,1,,,,,,,,,,,,,,,,,,,,,,,,,,,,,,,,,,,,,,,,,,,,,,,,,,,,,,,,,,,,,,,,,,,,,,,,,,,
,,,,,,,,,,stimuli/images/PICTURE_147.png,WOMEN,5f04cb284a1b587a33e1978d,19/10/1987,2020-08-27_10h40.39.439,proactive3.2,2020.1.2,Win32,60,5f47c0b9b035471e11593a5c,5f47c51d74dfe80d67019a49,3,,,,,,hanger,,,,,,0,19,19,7,1,1,1,,,,,,,,,,,,,,,,,,,,,,,,,,,,,,,,,,,,,,,,,,,,,,,,,,,,,,,,,,,,,,,,,,,,,,,,,,,
,,,,,,,,,,stimuli/images/PICTURE_208.png,SYSTEM,5f04cb284a1b587a33e1978d,19/10/1987,2020-08-27_10h40.39.439,proactive3.2,2020.1.2,Win32,60,5f47c0b9b035471e11593a5c,5f47c51d74dfe80d67019a49,3,,,,,,microphone,,,,,,0,20,20,32,1,4,1,,,,,,,,,,,,,,,,,,,,,,,,,,,,,,,,,,,,,,,,,,,,,,,,,,,,,,,,,,,,,,,,,,,,,,,,,,,
,,,,,,,,,,stimuli/images/PICTURE_380.png,HONEY,5f04cb284a1b587a33e1978d,19/10/1987,2020-08-27_10h40.39.439,proactive3.2,2020.1.2,Win32,60,5f47c0b9b035471e11593a5c,5f47c51d74dfe80d67019a49,3,,,,,,gorilla,,,,,,0,21,21,19,1,2,1,,,,,,,,,,,,,,,,,,,,,,,,,,,,,,,,,,,,,,,,,,,,,,,,,,,,,,,,,,,,,,,,,,,,,,,,,,,
,,,,,,,,,,stimuli/images/PICTURE_469.png,AGENT,5f04cb284a1b587a33e1978d,19/10/1987,2020-08-27_10h40.39.439,proactive3.2,2020.1.2,Win32,60,5f47c0b9b035471e11593a5c,5f47c51d74dfe80d67019a49,3,,,,,,stool,,,,,,0,22,22,16,1,2,1,,,,,,,,,,,,,,,,,,,,,,,,,,,,,,,,,,,,,,,,,,,,,,,,,,,,,,,,,,,,,,,,,,,,,,,,,,,
,,,,,,,,,,stimuli/images/PICTURE_308.png,FAMILY,5f04cb284a1b587a33e1978d,19/10/1987,2020-08-27_10h40.39.439,proactive3.2,2020.1.2,Win32,60,5f47c0b9b035471e11593a5c,5f47c51d74dfe80d67019a49,3,,,,,,dice,,,,,,0,23,23,36,1,4,1,,,,,,,,,,,,,,,,,,,,,,,,,,,,,,,,,,,,,,,,,,,,,,,,,,,,,,,,,,,,,,,,,,,,,,,,,,,
,,,,,,,,,,stimuli/images/PICTURE_487.png,GIRL,5f04cb284a1b587a33e1978d,19/10/1987,2020-08-27_10h40.39.439,proactive3.2,2020.1.2,Win32,60,5f47c0b9b035471e11593a5c,5f47c51d74dfe80d67019a49,3,,,,,,basket,,,,,,0,24,24,45,1,5,1,,,,,,,,,,,,,,,,,,,,,,,,,,,,,,,,,,,,,,,,,,,,,,,,,,,,,,,,,,,,,,,,,,,,,,,,,,,
,,,,,,,,,,stimuli/images/PICTURE_203.png,NIGHT,5f04cb284a1b587a33e1978d,19/10/1987,2020-08-27_10h40.39.439,proactive3.2,2020.1.2,Win32,60,5f47c0b9b035471e11593a5c,5f47c51d74dfe80d67019a49,3,,,,,,cap,,,,,,0,25,25,2,1,1,1,,,,,,,,,,,,,,,,,,,,,,,,,,,,,,,,,,,,,,,,,,,,,,,,,,,,,,,,,,,,,,,,,,,,,,,,,,,
,,,,,,,,,,stimuli/images/PICTURE_667.png,RIVER,5f04cb284a1b587a33e1978d,19/10/1987,2020-08-27_10h40.39.439,proactive3.2,2020.1.2,Win32,60,5f47c0b9b035471e11593a5c,5f47c51d74dfe80d67019a49,3,,,,,,daisy,,,,,,0,26,26,10,1,2,1,,,,,,,,,,,,,,,,,,,,,,,,,,,,,,,,,,,,,,,,,,,,,,,,,,,,,,,,,,,,,,,,,,,,,,,,,,,
,,,,,,,,,,stimuli/images/PICTURE_95.png,HONEY,5f04cb284a1b587a33e1978d,19/10/1987,2020-08-27_10h40.39.439,proactive3.2,2020.1.2,Win32,60,5f47c0b9b035471e11593a5c,5f47c51d74dfe80d67019a49,3,,,,,,suitcase,,,,,,0,27,27,44,1,5,1,,,,,,,,,,,,,,,,,,,,,,,,,,,,,,,,,,,,,,,,,,,,,,,,,,,,,,,,,,,,,,,,,,,,,,,,,,,
,,,,,,,,,,stimuli/images/PICTURE_33.png,FRIEND,5f04cb284a1b587a33e1978d,19/10/1987,2020-08-27_10h40.39.439,proactive3.2,2020.1.2,Win32,60,5f47c0b9b035471e11593a5c,5f47c51d74dfe80d67019a49,3,,,,,,frame,,,,,,0,28,28,8,1,1,1,,,,,,,,,,,,,,,,,,,,,,,,,,,,,,,,,,,,,,,,,,,,,,,,,,,,,,,,,,,,,,,,,,,,,,,,,,,
,,,,,,,,,,stimuli/images/PICTURE_297.png,RIVER,5f04cb284a1b587a33e1978d,19/10/1987,2020-08-27_10h40.39.439,proactive3.2,2020.1.2,Win32,60,5f47c0b9b035471e11593a5c,5f47c51d74dfe80d67019a49,3,,,,,,aeroplane,,,,,,0,29,29,39,1,4,1,,,,,,,,,,,,,,,,,,,,,,,,,,,,,,,,,,,,,,,,,,,,,,,,,,,,,,,,,,,,,,,,,,,,,,,,,,,
,,,,,,,,,,stimuli/images/PICTURE_467.png,POLICY,5f04cb284a1b587a33e1978d,19/10/1987,2020-08-27_10h40.39.439,proactive3.2,2020.1.2,Win32,60,5f47c0b9b035471e11593a5c,5f47c51d74dfe80d67019a49,3,,,,,,peg,,,,,,0,30,30,53,1,6,1,,,,,,,,,,,,,,,,,,,,,,,,,,,,,,,,,,,,,,,,,,,,,,,,,,,,,,,,,,,,,,,,,,,,,,,,,,,
,,,,,,,,,,stimuli/images/PICTURE_383.png,SERIES,5f04cb284a1b587a33e1978d,19/10/1987,2020-08-27_10h40.39.439,proactive3.2,2020.1.2,Win32,60,5f47c0b9b035471e11593a5c,5f47c51d74dfe80d67019a49,3,,,,,,coin,,,,,,0,31,31,46,1,5,1,,,,,,,,,,,,,,,,,,,,,,,,,,,,,,,,,,,,,,,,,,,,,,,,,,,,,,,,,,,,,,,,,,,,,,,,,,,
,,,,,,,,,,stimuli/images/PICTURE_750.png,HOTEL,5f04cb284a1b587a33e1978d,19/10/1987,2020-08-27_10h40.39.439,proactive3.2,2020.1.2,Win32,60,5f47c0b9b035471e11593a5c,5f47c51d74dfe80d67019a49,3,,,,,,kettle,,,,,,0,32,32,27,1,3,1,,,,,,,,,,,,,,,,,,,,,,,,,,,,,,,,,,,,,,,,,,,,,,,,,,,,,,,,,,,,,,,,,,,,,,,,,,,
,,,,,,,,,,stimuli/images/PICTURE_85.png,NATION,5f04cb284a1b587a33e1978d,19/10/1987,2020-08-27_10h40.39.439,proactive3.2,2020.1.2,Win32,60,5f47c0b9b035471e11593a5c,5f47c51d74dfe80d67019a49,3,,,,,,diamond,,,,,,0,33,33,5,1,1,1,,,,,,,,,,,,,,,,,,,,,,,,,,,,,,,,,,,,,,,,,,,,,,,,,,,,,,,,,,,,,,,,,,,,,,,,,,,
,,,,,,,,,,stimuli/images/PICTURE_285.png,LIFE,5f04cb284a1b587a33e1978d,19/10/1987,2020-08-27_10h40.39.439,proactive3.2,2020.1.2,Win32,60,5f47c0b9b035471e11593a5c,5f47c51d74dfe80d67019a49,3,,,,,,carrot,,,,,,0,34,34,33,1,4,1,,,,,,,,,,,,,,,,,,,,,,,,,,,,,,,,,,,,,,,,,,,,,,,,,,,,,,,,,,,,,,,,,,,,,,,,,,,
,,,,,,,,,,stimuli/images/PICTURE_327.png,CASINO,5f04cb284a1b587a33e1978d,19/10/1987,2020-08-27_10h40.39.439,proactive3.2,2020.1.2,Win32,60,5f47c0b9b035471e11593a5c,5f47c51d74dfe80d67019a49,3,,,,,,helmet,,,,,,0,35,35,20,1,3,1,,,,,,,,,,,,,,,,,,,,,,,,,,,,,,,,,,,,,,,,,,,,,,,,,,,,,,,,,,,,,,,,,,,,,,,,,,,
,,,,,,,,,,stimuli/images/PICTURE_340.png,VALLEY,5f04cb284a1b587a33e1978d,19/10/1987,2020-08-27_10h40.39.439,proactive3.2,2020.1.2,Win32,60,5f47c0b9b035471e11593a5c,5f47c51d74dfe80d67019a49,3,,,,,,mirror,,,,,,0,36,36,54,1,6,1,,,,,,,,,,,,,,,,,,,,,,,,,,,,,,,,,,,,,,,,,,,,,,,,,,,,,,,,,,,,,,,,,,,,,,,,,,,
,,,,,,,,,,stimuli/images/PICTURE_403.png,RIVER,5f04cb284a1b587a33e1978d,19/10/1987,2020-08-27_10h40.39.439,proactive3.2,2020.1.2,Win32,60,5f47c0b9b035471e11593a5c,5f47c51d74dfe80d67019a49,3,,,,,,cathedral,,,,,,0,37,37,40,1,5,1,,,,,,,,,,,,,,,,,,,,,,,,,,,,,,,,,,,,,,,,,,,,,,,,,,,,,,,,,,,,,,,,,,,,,,,,,,,
,,,,,,,,,,stimuli/images/PICTURE_685.png,PENNY,5f04cb284a1b587a33e1978d,19/10/1987,2020-08-27_10h40.39.439,proactive3.2,2020.1.2,Win32,60,5f47c0b9b035471e11593a5c,5f47c51d74dfe80d67019a49,3,,,,,,goose,,,,,,0,38,38,4,1,1,1,,,,,,,,,,,,,,,,,,,,,,,,,,,,,,,,,,,,,,,,,,,,,,,,,,,,,,,,,,,,,,,,,,,,,,,,,,,
,,,,,,,,,,stimuli/images/PICTURE_327.png,SERIES,5f04cb284a1b587a33e1978d,19/10/1987,2020-08-27_10h40.39.439,proactive3.2,2020.1.2,Win32,60,5f47c0b9b035471e11593a5c,5f47c51d74dfe80d67019a49,3,,,,,,helmet,,,,,,0,39,39,3,1,1,1,,,,,,,,,,,,,,,,,,,,,,,,,,,,,,,,,,,,,,,,,,,,,,,,,,,,,,,,,,,,,,,,,,,,,,,,,,,
,,,,,,,,,,stimuli/images/PICTURE_504.png,YEAR,5f04cb284a1b587a33e1978d,19/10/1987,2020-08-27_10h40.39.439,proactive3.2,2020.1.2,Win32,60,5f47c0b9b035471e11593a5c,5f47c51d74dfe80d67019a49,3,,,,,,wheel,,,,,,0,40,40,13,1,2,1,,,,,,,,,,,,,,,,,,,,,,,,,,,,,,,,,,,,,,,,,,,,,,,,,,,,,,,,,,,,,,,,,,,,,,,,,,,
,,,,,,,,,,stimuli/images/PICTURE_95.png,MILLER,5f04cb284a1b587a33e1978d,19/10/1987,2020-08-27_10h40.39.439,proactive3.2,2020.1.2,Win32,60,5f47c0b9b035471e11593a5c,5f47c51d74dfe80d67019a49,3,,,,,,suitcase,,,,,,0,41,41,56,1,6,1,,,,,,,,,,,,,,,,,,,,,,,,,,,,,,,,,,,,,,,,,,,,,,,,,,,,,,,,,,,,,,,,,,,,,,,,,,,
,,,,,,,,,,stimuli/images/PICTURE_233.png,LOTS,5f04cb284a1b587a33e1978d,19/10/1987,2020-08-27_10h40.39.439,proactive3.2,2020.1.2,Win32,60,5f47c0b9b035471e11593a5c,5f47c51d74dfe80d67019a49,3,,,,,,salt,,,,,,0,42,42,42,1,5,1,,,,,,,,,,,,,,,,,,,,,,,,,,,,,,,,,,,,,,,,,,,,,,,,,,,,,,,,,,,,,,,,,,,,,,,,,,,
,,,,,,,,,,stimuli/images/PICTURE_504.png,COPS,5f04cb284a1b587a33e1978d,19/10/1987,2020-08-27_10h40.39.439,proactive3.2,2020.1.2,Win32,60,5f47c0b9b035471e11593a5c,5f47c51d74dfe80d67019a49,3,,,,,,wheel,,,,,,0,43,43,52,1,6,1,,,,,,,,,,,,,,,,,,,,,,,,,,,,,,,,,,,,,,,,,,,,,,,,,,,,,,,,,,,,,,,,,,,,,,,,,,,
,,,,,,,,,,stimuli/images/PICTURE_177.png,WRITER,5f04cb284a1b587a33e1978d,19/10/1987,2020-08-27_10h40.39.439,proactive3.2,2020.1.2,Win32,60,5f47c0b9b035471e11593a5c,5f47c51d74dfe80d67019a49,3,,,,,,mushroom,,,,,,0,44,44,41,1,5,1,,,,,,,,,,,,,,,,,,,,,,,,,,,,,,,,,,,,,,,,,,,,,,,,,,,,,,,,,,,,,,,,,,,,,,,,,,,
,,,,,,,,,,stimuli/images/PICTURE_491.png,RIVER,5f04cb284a1b587a33e1978d,19/10/1987,2020-08-27_10h40.39.439,proactive3.2,2020.1.2,Win32,60,5f47c0b9b035471e11593a5c,5f47c51d74dfe80d67019a49,3,,,,,,rug,,,,,,0,45,45,6,1,1,1,,,,,,,,,,,,,,,,,,,,,,,,,,,,,,,,,,,,,,,,,,,,,,,,,,,,,,,,,,,,,,,,,,,,,,,,,,,
,,,,,,,,,,stimuli/images/PICTURE_296.png,LOTS,5f04cb284a1b587a33e1978d,19/10/1987,2020-08-27_10h40.39.439,proactive3.2,2020.1.2,Win32,60,5f47c0b9b035471e11593a5c,5f47c51d74dfe80d67019a49,3,,,,,,bolt,,,,,,0,46,46,9,1,1,1,,,,,,,,,,,,,,,,,,,,,,,,,,,,,,,,,,,,,,,,,,,,,,,,,,,,,,,,,,,,,,,,,,,,,,,,,,,
,,,,,,,,,,stimuli/images/PICTURE_85.png,TOILET,5f04cb284a1b587a33e1978d,19/10/1987,2020-08-27_10h40.39.439,proactive3.2,2020.1.2,Win32,60,5f47c0b9b035471e11593a5c,5f47c51d74dfe80d67019a49,3,,,,,,diamond,,,,,,0,47,47,48,1,5,1,,,,,,,,,,,,,,,,,,,,,,,,,,,,,,,,,,,,,,,,,,,,,,,,,,,,,,,,,,,,,,,,,,,,,,,,,,,
,,,,,,,,,,stimuli/images/PICTURE_95.png,BOYS,5f04cb284a1b587a33e1978d,19/10/1987,2020-08-27_10h40.39.439,proactive3.2,2020.1.2,Win32,60,5f47c0b9b035471e11593a5c,5f47c51d74dfe80d67019a49,3,,,,,,suitcase,,,,,,0,48,48,1,1,1,1,,,,,,,,,,,,,,,,,,,,,,,,,,,,,,,,,,,,,,,,,,,,,,,,,,,,,,,,,,,,,,,,,,,,,,,,,,,
,,,,,,,,,,stimuli/images/PICTURE_449.png,DUDE,5f04cb284a1b587a33e1978d,19/10/1987,2020-08-27_10h40.39.439,proactive3.2,2020.1.2,Win32,60,5f47c0b9b035471e11593a5c,5f47c51d74dfe80d67019a49,3,,,,,,bench,,,,,,0,49,49,17,1,2,1,,,,,,,,,,,,,,,,,,,,,,,,,,,,,,,,,,,,,,,,,,,,,,,,,,,,,,,,,,,,,,,,,,,,,,,,,,,
,,,,,,,,,,stimuli/images/PICTURE_339.png,CLIENT,5f04cb284a1b587a33e1978d,19/10/1987,2020-08-27_10h40.39.439,proactive3.2,2020.1.2,Win32,60,5f47c0b9b035471e11593a5c,5f47c51d74dfe80d67019a49,3,,,,,,backpack,,,,,,0,50,50,11,1,2,1,,,,,,,,,,,,,,,,,,,,,,,,,,,,,,,,,,,,,,,,,,,,,,,,,,,,,,,,,,,,,,,,,,,,,,,,,,,
,,,,,,,,,,stimuli/images/PICTURE_403.png,WRITER,5f04cb284a1b587a33e1978d,19/10/1987,2020-08-27_10h40.39.439,proactive3.2,2020.1.2,Win32,60,5f47c0b9b035471e11593a5c,5f47c51d74dfe80d67019a49,3,,,,,,cathedral,,,,,,0,51,51,31,1,4,1,,,,,,,,,,,,,,,,,,,,,,,,,,,,,,,,,,,,,,,,,,,,,,,,,,,,,,,,,,,,,,,,,,,,,,,,,,,
,,,,,,,,,,stimuli/images/PICTURE_744.png,WEAPON,5f04cb284a1b587a33e1978d,19/10/1987,2020-08-27_10h40.39.439,proactive3.2,2020.1.2,Win32,60,5f47c0b9b035471e11593a5c,5f47c51d74dfe80d67019a49,3,,,,,,ring,,,,,,0,52,52,50,1,6,1,,,,,,,,,,,,,,,,,,,,,,,,,,,,,,,,,,,,,,,,,,,,,,,,,,,,,,,,,,,,,,,,,,,,,,,,,,,
,,,,,,,,,,stimuli/images/PICTURE_296.png,LIFE,5f04cb284a1b587a33e1978d,19/10/1987,2020-08-27_10h40.39.439,proactive3.2,2020.1.2,Win32,60,5f47c0b9b035471e11593a5c,5f47c51d74dfe80d67019a49,3,,,,,,bolt,,,,,,0,53,53,57,1,6,1,,,,,,,,,,,,,,,,,,,,,,,,,,,,,,,,,,,,,,,,,,,,,,,,,,,,,,,,,,,,,,,,,,,,,,,,,,,
,,,,,,,,,,stimuli/images/PICTURE_57.png,MOMENT,5f04cb284a1b587a33e1978d,19/10/1987,2020-08-27_10h40.39.439,proactive3.2,2020.1.2,Win32,60,5f47c0b9b035471e11593a5c,5f47c51d74dfe80d67019a49,3,,,,,,stamp,,,,,,0,54,54,37,1,4,1,,,,,,,,,,,,,,,,,,,,,,,,,,,,,,,,,,,,,,,,,,,,,,,,,,,,,,,,,,,,,,,,,,,,,,,,,,,
,,,,,,,,,,stimuli/images/PICTURE_675.png,SALE,5f04cb284a1b587a33e1978d,19/10/1987,2020-08-27_10h40.39.439,proactive3.2,2020.1.2,Win32,60,5f47c0b9b035471e11593a5c,5f47c51d74dfe80d67019a49,3,,,,,,windmill,,,,,,0,55,55,47,1,5,1,,,,,,,,,,,,,,,,,,,,,,,,,,,,,,,,,,,,,,,,,,,,,,,,,,,,,,,,,,,,,,,,,,,,,,,,,,,
,,,,,,,,,,stimuli/images/PICTURE_68.png,ROOF,5f04cb284a1b587a33e1978d,19/10/1987,2020-08-27_10h40.39.439,proactive3.2,2020.1.2,Win32,60,5f47c0b9b035471e11593a5c,5f47c51d74dfe80d67019a49,3,,,,,,candle,,,,,,0,56,56,38,1,4,1,,,,,,,,,,,,,,,,,,,,,,,,,,,,,,,,,,,,,,,,,,,,,,,,,,,,,,,,,,,,,,,,,,,,,,,,,,,
,,,,,,,,,,stimuli/images/PICTURE_504.png,ARTIST,5f04cb284a1b587a33e1978d,19/10/1987,2020-08-27_10h40.39.439,proactive3.2,2020.1.2,Win32,60,5f47c0b9b035471e11593a5c,5f47c51d74dfe80d67019a49,3,,,,,,wheel,,,,,,0,57,57,49,1,5,1,,,,,,,,,,,,,,,,,,,,,,,,,,,,,,,,,,,,,,,,,,,,,,,,,,,,,,,,,,,,,,,,,,,,,,,,,,,
,,,,,,,,,,stimuli/images/PICTURE_491.png,GLASS,5f04cb284a1b587a33e1978d,19/10/1987,2020-08-27_10h40.39.439,proactive3.2,2020.1.2,Win32,60,5f47c0b9b035471e11593a5c,5f47c51d74dfe80d67019a49,3,,,,,,rug,,,,,,0,58,58,14,1,2,1,,,,,,,,,,,,,,,,,,,,,,,,,,,,,,,,,,,,,,,,,,,,,,,,,,,,,,,,,,,,,,,,,,,,,,,,,,,
,,?,0.001845,0,,,,,,stimuli/images/PICTURE_203.png,GODS,5f04cb284a1b587a33e1978d,19/10/1987,2020-08-27_10h40.39.439,proactive3.2,2020.1.2,Win32,60,5f47c0b9b035471e11593a5c,5f47c51d74dfe80d67019a49,3,,,,,,cap,,,,,,,,,,,4,1,0,0,0,30,1,,,,,,,,,,,,,,,,,,,,,,,,,,,,,,,,,,,,,,,,,,,,,,,,,,,,,,,,,,,,,,,,,,,,,,
,,?,0.001615,0,,,,,,stimuli/images/PICTURE_380.png,CANDY,5f04cb284a1b587a33e1978d,19/10/1987,2020-08-27_10h40.39.439,proactive3.2,2020.1.2,Win32,60,5f47c0b9b035471e11593a5c,5f47c51d74dfe80d67019a49,3,,,,,,gorilla,,,,,,,,,,,1,1,0,1,1,0,1,,,,,,,,,,,,,,,,,,,,,,,,,,,,,,,,,,,,,,,,,,,,,,,,,,,,,,,,,,,,,,,,,,,,,,
,,?,0.001475,0,,,,,,stimuli/images/PICTURE_33.png,FRIEND,5f04cb284a1b587a33e1978d,19/10/1987,2020-08-27_10h40.39.439,proactive3.2,2020.1.2,Win32,60,5f47c0b9b035471e11593a5c,5f47c51d74dfe80d67019a49,3,,,,,,frame,,,,,,,,,,,1,1,0,2,2,8,1,,,,,,,,,,,,,,,,,,,,,,,,,,,,,,,,,,,,,,,,,,,,,,,,,,,,,,,,,,,,,,,,,,,,,,
,,?,0.00146,0,,,,,,stimuli/images/PICTURE_685.png,PENNY,5f04cb284a1b587a33e1978d,19/10/1987,2020-08-27_10h40.39.439,proactive3.2,2020.1.2,Win32,60,5f47c0b9b035471e11593a5c,5f47c51d74dfe80d67019a49,3,,,,,,goose,,,,,,,,,,,1,1,0,3,3,4,1,,,,,,,,,,,,,,,,,,,,,,,,,,,,,,,,,,,,,,,,,,,,,,,,,,,,,,,,,,,,,,,,,,,,,,
,,?,0.003745,0,,,,,,stimuli/images/PICTURE_469.png,AGENT,5f04cb284a1b587a33e1978d,19/10/1987,2020-08-27_10h40.39.439,proactive3.2,2020.1.2,Win32,60,5f47c0b9b035471e11593a5c,5f47c51d74dfe80d67019a49,3,,,,,,stool,,,,,,,,,,,2,1,0,4,4,16,1,,,,,,,,,,,,,,,,,,,,,,,,,,,,,,,,,,,,,,,,,,,,,,,,,,,,,,,,,,,,,,,,,,,,,,
,,BATH,1.90237,1,,,,,,stimuli/images/PICTURE_564.png,BATH,5f04cb284a1b587a33e1978d,19/10/1987,2020-08-27_10h40.39.439,proactive3.2,2020.1.2,Win32,60,5f47c0b9b035471e11593a5c,5f47c51d74dfe80d67019a49,3,,,,,,spoon,,,,,,,,,,,3,1,0,5,5,26,1,,,,,,,,,,,,,,,,,,,,,,,,,,,,,,,,,,,,,,,,,,,,,,,,,,,,,,,,,,,,,,,,,,,,,,
,,?,0.001615,0,,,,,,stimuli/images/PICTURE_32.png,PILLS,5f04cb284a1b587a33e1978d,19/10/1987,2020-08-27_10h40.39.439,proactive3.2,2020.1.2,Win32,60,5f47c0b9b035471e11593a5c,5f47c51d74dfe80d67019a49,3,,,,,,crown,,,,,,,,,,,2,1,0,6,6,18,1,,,,,,,,,,,,,,,,,,,,,,,,,,,,,,,,,,,,,,,,,,,,,,,,,,,,,,,,,,,,,,,,,,,,,,
,,?,0.00092,0,,,,,,stimuli/images/PICTURE_667.png,RIVER,5f04cb284a1b587a33e1978d,19/10/1987,2020-08-27_10h40.39.439,proactive3.2,2020.1.2,Win32,60,5f47c0b9b035471e11593a5c,5f47c51d74dfe80d67019a49,3,,,,,,daisy,,,,,,,,,,,2,1,0,7,7,10,1,,,,,,,,,,,,,,,,,,,,,,,,,,,,,,,,,,,,,,,,,,,,,,,,,,,,,,,,,,,,,,,,,,,,,,
,,?,0.000825,0,,,,,,stimuli/images/PICTURE_285.png,LIFE,5f04cb284a1b587a33e1978d,19/10/1987,2020-08-27_10h40.39.439,proactive3.2,2020.1.2,Win32,60,5f47c0b9b035471e11593a5c,5f47c51d74dfe80d67019a49,3,,,,,,carrot,,,,,,,,,,,4,1,0,8,8,33,1,,,,,,,,,,,,,,,,,,,,,,,,,,,,,,,,,,,,,,,,,,,,,,,,,,,,,,,,,,,,,,,,,,,,,,
,,CASINO,1.960525,1,,,,,,stimuli/images/PICTURE_327.png,CASINO,5f04cb284a1b587a33e1978d,19/10/1987,2020-08-27_10h40.39.439,proactive3.2,2020.1.2,Win32,60,5f47c0b9b035471e11593a5c,5f47c51d74dfe80d67019a49,3,,,,,,helmet,,,,,,,,,,,3,1,0,9,9,20,1,,,,,,,,,,,,,,,,,,,,,,,,,,,,,,,,,,,,,,,,,,,,,,,,,,,,,,,,,,,,,,,,,,,,,,
,,?,0.002125,0,,,,,,stimuli/images/PICTURE_42.png,BOYS,5f04cb284a1b587a33e1978d,19/10/1987,2020-08-27_10h40.39.439,proactive3.2,2020.1.2,Win32,60,5f47c0b9b035471e11593a5c,5f47c51d74dfe80d67019a49,3,,,,,,pear,,,,,,,,,,,6,1,0,10,10,55,1,,,,,,,,,,,,,,,,,,,,,,,,,,,,,,,,,,,,,,,,,,,,,,,,,,,,,,,,,,,,,,,,,,,,,,
,,?,0.00182,0,,,,,,stimuli/images/PICTURE_68.png,MILE,5f04cb284a1b587a33e1978d,19/10/1987,2020-08-27_10h40.39.439,proactive3.2,2020.1.2,Win32,60,5f47c0b9b035471e11593a5c,5f47c51d74dfe80d67019a49,3,,,,,,candle,,,,,,,,,,,6,1,0,11,11,51,1,,,,,,,,,,,,,,,,,,,,,,,,,,,,,,,,,,,,,,,,,,,,,,,,,,,,,,,,,,,,,,,,,,,,,,
,,?,0.00183,0,,,,,,stimuli/images/PICTURE_403.png,WRITER,5f04cb284a1b587a33e1978d,19/10/1987,2020-08-27_10h40.39.439,proactive3.2,2020.1.2,Win32,60,5f47c0b9b035471e11593a5c,5f47c51d74dfe80d67019a49,3,,,,,,cathedral,,,,,,,,,,,4,1,0,12,12,31,1,,,,,,,,,,,,,,,,,,,,,,,,,,,,,,,,,,,,,,,,,,,,,,,,,,,,,,,,,,,,,,,,,,,,,,
,,?,0.001855,0,,,,,,stimuli/images/PICTURE_85.png,TOILET,5f04cb284a1b587a33e1978d,19/10/1987,2020-08-27_10h40.39.439,proactive3.2,2020.1.2,Win32,60,5f47c0b9b035471e11593a5c,5f47c51d74dfe80d67019a49,3,,,,,,diamond,,,,,,,,,,,5,1,0,13,13,48,1,,,,,,,,,,,,,,,,,,,,,,,,,,,,,,,,,,,,,,,,,,,,,,,,,,,,,,,,,,,,,,,,,,,,,,
,,?,0.001805,0,,,,,,stimuli/images/PICTURE_744.png,WEAPON,5f04cb284a1b587a33e1978d,19/10/1987,2020-08-27_10h40.39.439,proactive3.2,2020.1.2,Win32,60,5f47c0b9b035471e11593a5c,5f47c51d74dfe80d67019a49,3,,,,,,ring,,,,,,,,,,,6,1,0,14,14,50,1,,,,,,,,,,,,,,,,,,,,,,,,,,,,,,,,,,,,,,,,,,,,,,,,,,,,,,,,,,,,,,,,,,,,,,
,,?,0.001825,0,,,,,,stimuli/images/PICTURE_327.png,SERIES,5f04cb284a1b587a33e1978d,19/10/1987,2020-08-27_10h40.39.439,proactive3.2,2020.1.2,Win32,60,5f47c0b9b035471e11593a5c,5f47c51d74dfe80d67019a49,3,,,,,,helmet,,,,,,,,,,,1,1,0,15,15,3,1,,,,,,,,,,,,,,,,,,,,,,,,,,,,,,,,,,,,,,,,,,,,,,,,,,,,,,,,,,,,,,,,,,,,,,
,,?,0.00079,0,,,,,,stimuli/images/PICTURE_504.png,YEAR,5f04cb284a1b587a33e1978d,19/10/1987,2020-08-27_10h40.39.439,proactive3.2,2020.1.2,Win32,60,5f47c0b9b035471e11593a5c,5f47c51d74dfe80d67019a49,3,,,,,,wheel,,,,,,,,,,,2,1,0,16,16,13,1,,,,,,,,,,,,,,,,,,,,,,,,,,,,,,,,,,,,,,,,,,,,,,,,,,,,,,,,,,,,,,,,,,,,,,
,,LETTER,2.18928,1,,,,,,stimuli/images/PICTURE_340.png,LETTER,5f04cb284a1b587a33e1978d,19/10/1987,2020-08-27_10h40.39.439,proactive3.2,2020.1.2,Win32,60,5f47c0b9b035471e11593a5c,5f47c51d74dfe80d67019a49,3,,,,,,mirror,,,,,,,,,,,3,1,0,17,17,24,1,,,,,,,,,,,,,,,,,,,,,,,,,,,,,,,,,,,,,,,,,,,,,,,,,,,,,,,,,,,,,,,,,,,,,,
,,?,0.001715,0,,,,,,stimuli/images/PICTURE_308.png,FAMILY,5f04cb284a1b587a33e1978d,19/10/1987,2020-08-27_10h40.39.439,proactive3.2,2020.1.2,Win32,60,5f47c0b9b035471e11593a5c,5f47c51d74dfe80d67019a49,3,,,,,,dice,,,,,,,,,,,4,1,0,18,18,36,1,,,,,,,,,,,,,,,,,,,,,,,,,,,,,,,,,,,,,,,,,,,,,,,,,,,,,,,,,,,,,,,,,,,,,,
,,?,0.001545,0,,,,,,stimuli/images/PICTURE_147.png,WOMEN,5f04cb284a1b587a33e1978d,19/10/1987,2020-08-27_10h40.39.439,proactive3.2,2020.1.2,Win32,60,5f47c0b9b035471e11593a5c,5f47c51d74dfe80d67019a49,3,,,,,,hanger,,,,,,,,,,,1,1,0,19,19,7,1,,,,,,,,,,,,,,,,,,,,,,,,,,,,,,,,,,,,,,,,,,,,,,,,,,,,,,,,,,,,,,,,,,,,,,
,,?,0.001445,0,,,,,,stimuli/images/PICTURE_95.png,MILLER,5f04cb284a1b587a33e1978d,19/10/1987,2020-08-27_10h40.39.439,proactive3.2,2020.1.2,Win32,60,5f47c0b9b035471e11593a5c,5f47c51d74dfe80d67019a49,3,,,,,,suitcase,,,,,,,,,,,6,1,0,20,20,56,1,,,,,,,,,,,,,,,,,,,,,,,,,,,,,,,,,,,,,,,,,,,,,,,,,,,,,,,,,,,,,,,,,,,,,,
,,?,0.00142,0,,,,,,stimuli/images/PICTURE_95.png,HONEY,5f04cb284a1b587a33e1978d,19/10/1987,2020-08-27_10h40.39.439,proactive3.2,2020.1.2,Win32,60,5f47c0b9b035471e11593a5c,5f47c51d74dfe80d67019a49,3,,,,,,suitcase,,,,,,,,,,,5,1,0,21,21,44,1,,,,,,,,,,,,,,,,,,,,,,,,,,,,,,,,,,,,,,,,,,,,,,,,,,,,,,,,,,,,,,,,,,,,,,
,,POLICY,2.0527,1,,,,,,stimuli/images/PICTURE_108.png,POLICY,5f04cb284a1b587a33e1978d,19/10/1987,2020-08-27_10h40.39.439,proactive3.2,2020.1.2,Win32,60,5f47c0b9b035471e11593a5c,5f47c51d74dfe80d67019a49,3,,,,,,calendar,,,,,,,,,,,3,1,0,22,22,22,1,,,,,,,,,,,,,,,,,,,,,,,,,,,,,,,,,,,,,,,,,,,,,,,,,,,,,,,,,,,,,,,,,,,,,,
,,?,0.00122,0,,,,,,stimuli/images/PICTURE_297.png,RIVER,5f04cb284a1b587a33e1978d,19/10/1987,2020-08-27_10h40.39.439,proactive3.2,2020.1.2,Win32,60,5f47c0b9b035471e11593a5c,5f47c51d74dfe80d67019a49,3,,,,,,aeroplane,,,,,,,,,,,4,1,0,23,23,39,1,,,,,,,,,,,,,,,,,,,,,,,,,,,,,,,,,,,,,,,,,,,,,,,,,,,,,,,,,,,,,,,,,,,,,,
,,?,0.0009,0,,,,,,stimuli/images/PICTURE_677.png,APPLE,5f04cb284a1b587a33e1978d,19/10/1987,2020-08-27_10h40.39.439,proactive3.2,2020.1.2,Win32,60,5f47c0b9b035471e11593a5c,5f47c51d74dfe80d67019a49,3,,,,,,map,,,,,,,,,,,5,1,0,24,24,43,1,,,,,,,,,,,,,,,,,,,,,,,,,,,,,,,,,,,,,,,,,,,,,,,,,,,,,,,,,,,,,,,,,,,,,,
,,?,0.00088,0,,,,,,stimuli/images/PICTURE_108.png,FLIGHT,5f04cb284a1b587a33e1978d,19/10/1987,2020-08-27_10h40.39.439,proactive3.2,2020.1.2,Win32,60,5f47c0b9b035471e11593a5c,5f47c51d74dfe80d67019a49,3,,,,,,calendar,,,,,,,,,,,6,1,0,25,25,59,1,,,,,,,,,,,,,,,,,,,,,,,,,,,,,,,,,,,,,,,,,,,,,,,,,,,,,,,,,,,,,,,,,,,,,,
,,?,0.000955,0,,,,,,stimuli/images/PICTURE_177.png,WRITER,5f04cb284a1b587a33e1978d,19/10/1987,2020-08-27_10h40.39.439,proactive3.2,2020.1.2,Win32,60,5f47c0b9b035471e11593a5c,5f47c51d74dfe80d67019a49,3,,,,,,mushroom,,,,,,,,,,,5,1,0,26,26,41,1,,,,,,,,,,,,,,,,,,,,,,,,,,,,,,,,,,,,,,,,,,,,,,,,,,,,,,,,,,,,,,,,,,,,,,
,,?,0.000865,0,,,,,,stimuli/images/PICTURE_449.png,DUDE,5f04cb284a1b587a33e1978d,19/10/1987,2020-08-27_10h40.39.439,proactive3.2,2020.1.2,Win32,60,5f47c0b9b035471e11593a5c,5f47c51d74dfe80d67019a49,3,,,,,,bench,,,,,,,,,,,2,1,0,27,27,17,1,,,,,,,,,,,,,,,,,,,,,,,,,,,,,,,,,,,,,,,,,,,,,,,,,,,,,,,,,,,,,,,,,,,,,,
,,?,0.000875,0,,,,,,stimuli/images/PICTURE_85.png,NATION,5f04cb284a1b587a33e1978d,19/10/1987,2020-08-27_10h40.39.439,proactive3.2,2020.1.2,Win32,60,5f47c0b9b035471e11593a5c,5f47c51d74dfe80d67019a49,3,,,,,,diamond,,,,,,,,,,,1,1,0,28,28,5,1,,,,,,,,,,,,,,,,,,,,,,,,,,,,,,,,,,,,,,,,,,,,,,,,,,,,,,,,,,,,,,,,,,,,,,
,,?,0.000865,0,,,,,,stimuli/images/PICTURE_233.png,LOTS,5f04cb284a1b587a33e1978d,19/10/1987,2020-08-27_10h40.39.439,proactive3.2,2020.1.2,Win32,60,5f47c0b9b035471e11593a5c,5f47c51d74dfe80d67019a49,3,,,,,,salt,,,,,,,,,,,5,1,0,29,29,42,1,,,,,,,,,,,,,,,,,,,,,,,,,,,,,,,,,,,,,,,,,,,,,,,,,,,,,,,,,,,,,,,,,,,,,,
,,?,0.000915,0,,,,,,stimuli/images/PICTURE_675.png,SALE,5f04cb284a1b587a33e1978d,19/10/1987,2020-08-27_10h40.39.439,proactive3.2,2020.1.2,Win32,60,5f47c0b9b035471e11593a5c,5f47c51d74dfe80d67019a49,3,,,,,,windmill,,,,,,,,,,,5,1,0,30,30,47,1,,,,,,,,,,,,,,,,,,,,,,,,,,,,,,,,,,,,,,,,,,,,,,,,,,,,,,,,,,,,,,,,,,,,,,
,,?,0.00091,0,,,,,,stimuli/images/PICTURE_504.png,ARTIST,5f04cb284a1b587a33e1978d,19/10/1987,2020-08-27_10h40.39.439,proactive3.2,2020.1.2,Win32,60,5f47c0b9b035471e11593a5c,5f47c51d74dfe80d67019a49,3,,,,,,wheel,,,,,,,,,,,5,1,0,31,31,49,1,,,,,,,,,,,,,,,,,,,,,,,,,,,,,,,,,,,,,,,,,,,,,,,,,,,,,,,,,,,,,,,,,,,,,,
,,?,0.000935,0,,,,,,stimuli/images/PICTURE_708.png,RECORD,5f04cb284a1b587a33e1978d,19/10/1987,2020-08-27_10h40.39.439,proactive3.2,2020.1.2,Win32,60,5f47c0b9b035471e11593a5c,5f47c51d74dfe80d67019a49,3,,,,,,monkey,,,,,,,,,,,6,1,0,32,32,58,1,,,,,,,,,,,,,,,,,,,,,,,,,,,,,,,,,,,,,,,,,,,,,,,,,,,,,,,,,,,,,,,,,,,,,,
,,PLENTY,1.860065,1,,,,,,stimuli/images/PICTURE_405.png,PLENTY,5f04cb284a1b587a33e1978d,19/10/1987,2020-08-27_10h40.39.439,proactive3.2,2020.1.2,Win32,60,5f47c0b9b035471e11593a5c,5f47c51d74dfe80d67019a49,3,,,,,,anchor,,,,,,,,,,,3,1,0,33,33,23,1,,,,,,,,,,,,,,,,,,,,,,,,,,,,,,,,,,,,,,,,,,,,,,,,,,,,,,,,,,,,,,,,,,,,,,
,,?,0.00198,0,,,,,,stimuli/images/PICTURE_491.png,GLASS,5f04cb284a1b587a33e1978d,19/10/1987,2020-08-27_10h40.39.439,proactive3.2,2020.1.2,Win32,60,5f47c0b9b035471e11593a5c,5f47c51d74dfe80d67019a49,3,,,,,,rug,,,,,,,,,,,2,1,0,34,34,14,1,,,,,,,,,,,,,,,,,,,,,,,,,,,,,,,,,,,,,,,,,,,,,,,,,,,,,,,,,,,,,,,,,,,,,,
,,?,0.00171,0,,,,,,stimuli/images/PICTURE_380.png,HONEY,5f04cb284a1b587a33e1978d,19/10/1987,2020-08-27_10h40.39.439,proactive3.2,2020.1.2,Win32,60,5f47c0b9b035471e11593a5c,5f47c51d74dfe80d67019a49,3,,,,,,gorilla,,,,,,,,,,,2,1,0,35,35,19,1,,,,,,,,,,,,,,,,,,,,,,,,,,,,,,,,,,,,,,,,,,,,,,,,,,,,,,,,,,,,,,,,,,,,,,
,,?,0.001695,0,,,,,,stimuli/images/PICTURE_340.png,VALLEY,5f04cb284a1b587a33e1978d,19/10/1987,2020-08-27_10h40.39.439,proactive3.2,2020.1.2,Win32,60,5f47c0b9b035471e11593a5c,5f47c51d74dfe80d67019a49,3,,,,,,mirror,,,,,,,,,,,6,1,0,36,36,54,1,,,,,,,,,,,,,,,,,,,,,,,,,,,,,,,,,,,,,,,,,,,,,,,,,,,,,,,,,,,,,,,,,,,,,,
,,?,0.00194,0,,,,,,stimuli/images/PICTURE_405.png,YEAR,5f04cb284a1b587a33e1978d,19/10/1987,2020-08-27_10h40.39.439,proactive3.2,2020.1.2,Win32,60,5f47c0b9b035471e11593a5c,5f47c51d74dfe80d67019a49,3,,,,,,anchor,,,,,,,,,,,4,1,0,37,37,34,1,,,,,,,,,,,,,,,,,,,,,,,,,,,,,,,,,,,,,,,,,,,,,,,,,,,,,,,,,,,,,,,,,,,,,,
,,WRITER,1.532615,1,,,,,,stimuli/images/PICTURE_383.png,WRITER,5f04cb284a1b587a33e1978d,19/10/1987,2020-08-27_10h40.39.439,proactive3.2,2020.1.2,Win32,60,5f47c0b9b035471e11593a5c,5f47c51d74dfe80d67019a49,3,,,,,,coin,,,,,,,,,,,3,1,0,38,38,28,1,,,,,,,,,,,,,,,,,,,,,,,,,,,,,,,,,,,,,,,,,,,,,,,,,,,,,,,,,,,,,,,,,,,,,,
,,?,0.001325,0,,,,,,stimuli/images/PICTURE_487.png,GIRL,5f04cb284a1b587a33e1978d,19/10/1987,2020-08-27_10h40.39.439,proactive3.2,2020.1.2,Win32,60,5f47c0b9b035471e11593a5c,5f47c51d74dfe80d67019a49,3,,,,,,basket,,,,,,,,,,,5,1,0,39,39,45,1,,,,,,,,,,,,,,,,,,,,,,,,,,,,,,,,,,,,,,,,,,,,,,,,,,,,,,,,,,,,,,,,,,,,,,
,,?,0.001095,0,,,,,,stimuli/images/PICTURE_339.png,CLIENT,5f04cb284a1b587a33e1978d,19/10/1987,2020-08-27_10h40.39.439,proactive3.2,2020.1.2,Win32,60,5f47c0b9b035471e11593a5c,5f47c51d74dfe80d67019a49,3,,,,,,backpack,,,,,,,,,,,2,1,0,40,40,11,1,,,,,,,,,,,,,,,,,,,,,,,,,,,,,,,,,,,,,,,,,,,,,,,,,,,,,,,,,,,,,,,,,,,,,,
,,?,9.95345,0,,,,,,stimuli/images/PICTURE_654.png,MONTH,5f04cb284a1b587a33e1978d,19/10/1987,2020-08-27_10h40.39.439,proactive3.2,2020.1.2,Win32,60,5f47c0b9b035471e11593a5c,5f47c51d74dfe80d67019a49,3,,,,,,pencil,,,,,,,,,,,3,1,0,41,41,29,1,,,,,,,,,,,,,,,,,,,,,,,,,,,,,,,,,,,,,,,,,,,,,,,,,,,,,,,,,,,,,,,,,,,,,,
,,?,0.00173,0,,,,,,stimuli/images/PICTURE_491.png,RIVER,5f04cb284a1b587a33e1978d,19/10/1987,2020-08-27_10h40.39.439,proactive3.2,2020.1.2,Win32,60,5f47c0b9b035471e11593a5c,5f47c51d74dfe80d67019a49,3,,,,,,rug,,,,,,,,,,,1,1,0,42,42,6,1,,,,,,,,,,,,,,,,,,,,,,,,,,,,,,,,,,,,,,,,,,,,,,,,,,,,,,,,,,,,,,,,,,,,,,
,,YEAR,1.27813,1,,,,,,stimuli/images/PICTURE_147.png,YEAR,5f04cb284a1b587a33e1978d,19/10/1987,2020-08-27_10h40.39.439,proactive3.2,2020.1.2,Win32,60,5f47c0b9b035471e11593a5c,5f47c51d74dfe80d67019a49,3,,,,,,hanger,,,,,,,,,,,3,1,0,43,43,21,1,,,,,,,,,,,,,,,,,,,,,,,,,,,,,,,,,,,,,,,,,,,,,,,,,,,,,,,,,,,,,,,,,,,,,,
,,?,0.00088,0,,,,,,stimuli/images/PICTURE_32.png,KIND,5f04cb284a1b587a33e1978d,19/10/1987,2020-08-27_10h40.39.439,proactive3.2,2020.1.2,Win32,60,5f47c0b9b035471e11593a5c,5f47c51d74dfe80d67019a49,3,,,,,,crown,,,,,,,,,,,4,1,0,44,44,35,1,,,,,,,,,,,,,,,,,,,,,,,,,,,,,,,,,,,,,,,,,,,,,,,,,,,,,,,,,,,,,,,,,,,,,,
,,?,0.00048,0,,,,,,stimuli/images/PICTURE_296.png,LIFE,5f04cb284a1b587a33e1978d,19/10/1987,2020-08-27_10h40.39.439,proactive3.2,2020.1.2,Win32,60,5f47c0b9b035471e11593a5c,5f47c51d74dfe80d67019a49,3,,,,,,bolt,,,,,,,,,,,6,1,0,45,45,57,1,,,,,,,,,,,,,,,,,,,,,,,,,,,,,,,,,,,,,,,,,,,,,,,,,,,,,,,,,,,,,,,,,,,,,,
,,?,0.00162,0,,,,,,stimuli/images/PICTURE_203.png,NIGHT,5f04cb284a1b587a33e1978d,19/10/1987,2020-08-27_10h40.39.439,proactive3.2,2020.1.2,Win32,60,5f47c0b9b035471e11593a5c,5f47c51d74dfe80d67019a49,3,,,,,,cap,,,,,,,,,,,1,1,0,46,46,2,1,,,,,,,,,,,,,,,,,,,,,,,,,,,,,,,,,,,,,,,,,,,,,,,,,,,,,,,,,,,,,,,,,,,,,,
,,?,0.00044,0,,,,,,stimuli/images/PICTURE_2.png,FLIGHT,5f04cb284a1b587a33e1978d,19/10/1987,2020-08-27_10h40.39.439,proactive3.2,2020.1.2,Win32,60,5f47c0b9b035471e11593a5c,5f47c51d74dfe80d67019a49,3,,,,,,tyre,,,,,,,,,,,2,1,0,47,47,15,1,,,,,,,,,,,,,,,,,,,,,,,,,,,,,,,,,,,,,,,,,,,,,,,,,,,,,,,,,,,,,,,,,,,,,,
,,?,0.00043,0,,,,,,stimuli/images/PICTURE_655.png,TOILET,5f04cb284a1b587a33e1978d,19/10/1987,2020-08-27_10h40.39.439,proactive3.2,2020.1.2,Win32,60,5f47c0b9b035471e11593a5c,5f47c51d74dfe80d67019a49,3,,,,,,megaphone,,,,,,,,,,,2,1,0,48,48,12,1,,,,,,,,,,,,,,,,,,,,,,,,,,,,,,,,,,,,,,,,,,,,,,,,,,,,,,,,,,,,,,,,,,,,,,
,,HOTEL,1.74181,1,,,,,,stimuli/images/PICTURE_750.png,HOTEL,5f04cb284a1b587a33e1978d,19/10/1987,2020-08-27_10h40.39.439,proactive3.2,2020.1.2,Win32,60,5f47c0b9b035471e11593a5c,5f47c51d74dfe80d67019a49,3,,,,,,kettle,,,,,,,,,,,3,1,0,49,49,27,1,,,,,,,,,,,,,,,,,,,,,,,,,,,,,,,,,,,,,,,,,,,,,,,,,,,,,,,,,,,,,,,,,,,,,,
,,?,0.001165,0,,,,,,stimuli/images/PICTURE_383.png,SERIES,5f04cb284a1b587a33e1978d,19/10/1987,2020-08-27_10h40.39.439,proactive3.2,2020.1.2,Win32,60,5f47c0b9b035471e11593a5c,5f47c51d74dfe80d67019a49,3,,,,,,coin,,,,,,,,,,,5,1,0,50,50,46,1,,,,,,,,,,,,,,,,,,,,,,,,,,,,,,,,,,,,,,,,,,,,,,,,,,,,,,,,,,,,,,,,,,,,,,
,,TOILET,1.098705,1,,,,,,stimuli/images/PICTURE_403.png,TOILET,5f04cb284a1b587a33e1978d,19/10/1987,2020-08-27_10h40.39.439,proactive3.2,2020.1.2,Win32,60,5f47c0b9b035471e11593a5c,5f47c51d74dfe80d67019a49,3,,,,,,cathedral,,,,,,,,,,,3,1,0,51,51,25,1,,,,,,,,,,,,,,,,,,,,,,,,,,,,,,,,,,,,,,,,,,,,,,,,,,,,,,,,,,,,,,,,,,,,,,
,,?,0.000985,0,,,,,,stimuli/images/PICTURE_403.png,RIVER,5f04cb284a1b587a33e1978d,19/10/1987,2020-08-27_10h40.39.439,proactive3.2,2020.1.2,Win32,60,5f47c0b9b035471e11593a5c,5f47c51d74dfe80d67019a49,3,,,,,,cathedral,,,,,,,,,,,5,1,0,52,52,40,1,,,,,,,,,,,,,,,,,,,,,,,,,,,,,,,,,,,,,,,,,,,,,,,,,,,,,,,,,,,,,,,,,,,,,,
,,?,0.00077,0,,,,,,stimuli/images/PICTURE_504.png,COPS,5f04cb284a1b587a33e1978d,19/10/1987,2020-08-27_10h40.39.439,proactive3.2,2020.1.2,Win32,60,5f47c0b9b035471e11593a5c,5f47c51d74dfe80d67019a49,3,,,,,,wheel,,,,,,,,,,,6,1,0,53,53,52,1,,,,,,,,,,,,,,,,,,,,,,,,,,,,,,,,,,,,,,,,,,,,,,,,,,,,,,,,,,,,,,,,,,,,,,
,,?,0.00075,0,,,,,,stimuli/images/PICTURE_68.png,ROOF,5f04cb284a1b587a33e1978d,19/10/1987,2020-08-27_10h40.39.439,proactive3.2,2020.1.2,Win32,60,5f47c0b9b035471e11593a5c,5f47c51d74dfe80d67019a49,3,,,,,,candle,,,,,,,,,,,4,1,0,54,54,38,1,,,,,,,,,,,,,,,,,,,,,,,,,,,,,,,,,,,,,,,,,,,,,,,,,,,,,,,,,,,,,,,,,,,,,,
,,?,0.00077,0,,,,,,stimuli/images/PICTURE_296.png,LOTS,5f04cb284a1b587a33e1978d,19/10/1987,2020-08-27_10h40.39.439,proactive3.2,2020.1.2,Win32,60,5f47c0b9b035471e11593a5c,5f47c51d74dfe80d67019a49,3,,,,,,bolt,,,,,,,,,,,1,1,0,55,55,9,1,,,,,,,,,,,,,,,,,,,,,,,,,,,,,,,,,,,,,,,,,,,,,,,,,,,,,,,,,,,,,,,,,,,,,,
,,?,0.00078,0,,,,,,stimuli/images/PICTURE_57.png,MOMENT,5f04cb284a1b587a33e1978d,19/10/1987,2020-08-27_10h40.39.439,proactive3.2,2020.1.2,Win32,60,5f47c0b9b035471e11593a5c,5f47c51d74dfe80d67019a49,3,,,,,,stamp,,,,,,,,,,,4,1,0,56,56,37,1,,,,,,,,,,,,,,,,,,,,,,,,,,,,,,,,,,,,,,,,,,,,,,,,,,,,,,,,,,,,,,,,,,,,,,
,,?,0.00074,0,,,,,,stimuli/images/PICTURE_467.png,POLICY,5f04cb284a1b587a33e1978d,19/10/1987,2020-08-27_10h40.39.439,proactive3.2,2020.1.2,Win32,60,5f47c0b9b035471e11593a5c,5f47c51d74dfe80d67019a49,3,,,,,,peg,,,,,,,,,,,6,1,0,57,57,53,1,,,,,,,,,,,,,,,,,,,,,,,,,,,,,,,,,,,,,,,,,,,,,,,,,,,,,,,,,,,,,,,,,,,,,,
,,?,0.002365,0,,,,,,stimuli/images/PICTURE_95.png,BOYS,5f04cb284a1b587a33e1978d,19/10/1987,2020-08-27_10h40.39.439,proactive3.2,2020.1.2,Win32,60,5f47c0b9b035471e11593a5c,5f47c51d74dfe80d67019a49,3,,,,,,suitcase,,,,,,,,,,,1,1,0,58,58,1,1,,,,,,,,,,,,,,,,,,,,,,,,,,,,,,,,,,,,,,,,,,,,,,,,,,,,,,,,,,,,,,,,,,,,,,
,,?,0.000875,0,,,,,,stimuli/images/PICTURE_208.png,SYSTEM,5f04cb284a1b587a33e1978d,19/10/1987,2020-08-27_10h40.39.439,proactive3.2,2020.1.2,Win32,60,5f47c0b9b035471e11593a5c,5f47c51d74dfe80d67019a49,3,,,,,,microphone,,,,,,,,,,,4,1,0,59,59,32,1,,,,,,,,,,,,,,,,,,,,,,,,,,,,,,,,,,,,,,,,,,,,,,,,,,,,,,,,,,,,,,,,,,,,,,
,,,,,,,,,,,,5f04cb284a1b587a33e1978d,19/10/1987,2020-08-27_10h40.39.439,proactive3.2,2020.1.2,Win32,60,5f47c0b9b035471e11593a5c,5f47c51d74dfe80d67019a49,3,,,,,,,,,,,,,,,,,,,,,,,,0,0,0,1,1,stimuli/learn-block2.csv,,,,,,,,,,,,,,,,,,,,,,,,,,,,,,,,,,,,,,,,,,,,,,,,,,,,,,,,,,,,,,,,
,,,,,,,,,,stimuli/images/PICTURE_348.png,DUDE,5f04cb284a1b587a33e1978d,19/10/1987,2020-08-27_10h40.39.439,proactive3.2,2020.1.2,Win32,60,5f47c0b9b035471e11593a5c,5f47c51d74dfe80d67019a49,3,,,,,,pepper,,,,,,0,0,0,59,1,6,2,,,,,,,,,,,,,,,,,,,,,,,,,,,,,,,,,,,,,,,,,,,,,,,,,,,,,,,,,,,,,,,,,,,,,,,,,,,
,,,,,,,,,,stimuli/images/PICTURE_509.png,MILLER,5f04cb284a1b587a33e1978d,19/10/1987,2020-08-27_10h40.39.439,proactive3.2,2020.1.2,Win32,60,5f47c0b9b035471e11593a5c,5f47c51d74dfe80d67019a49,3,,,,,,telephone,,,,,,0,1,1,49,1,5,2,,,,,,,,,,,,,,,,,,,,,,,,,,,,,,,,,,,,,,,,,,,,,,,,,,,,,,,,,,,,,,,,,,,,,,,,,,,
,,,,,,,,,,stimuli/images/PICTURE_255.png,PENNY,5f04cb284a1b587a33e1978d,19/10/1987,2020-08-27_10h40.39.439,proactive3.2,2020.1.2,Win32,60,5f47c0b9b035471e11593a5c,5f47c51d74dfe80d67019a49,3,,,,,,shovel,,,,,,0,2,2,19,1,2,2,,,,,,,,,,,,,,,,,,,,,,,,,,,,,,,,,,,,,,,,,,,,,,,,,,,,,,,,,,,,,,,,,,,,,,,,,,,
,,,,,,,,,,stimuli/images/PICTURE_405.png,JUNGLE,5f04cb284a1b587a33e1978d,19/10/1987,2020-08-27_10h40.39.439,proactive3.2,2020.1.2,Win32,60,5f47c0b9b035471e11593a5c,5f47c51d74dfe80d67019a49,3,,,,,,anchor,,,,,,0,3,3,58,1,6,2,,,,,,,,,,,,,,,,,,,,,,,,,,,,,,,,,,,,,,,,,,,,,,,,,,,,,,,,,,,,,,,,,,,,,,,,,,,
,,,,,,,,,,stimuli/images/PICTURE_33.png,COPS,5f04cb284a1b587a33e1978d,19/10/1987,2020-08-27_10h40.39.439,proactive3.2,2020.1.2,Win32,60,5f47c0b9b035471e11593a5c,5f47c51d74dfe80d67019a49,3,,,,,,frame,,,,,,0,4,4,29,1,3,2,,,,,,,,,,,,,,,,,,,,,,,,,,,,,,,,,,,,,,,,,,,,,,,,,,,,,,,,,,,,,,,,,,,,,,,,,,,
,,,,,,,,,,stimuli/images/PICTURE_452.png,COPS,5f04cb284a1b587a33e1978d,19/10/1987,2020-08-27_10h40.39.439,proactive3.2,2020.1.2,Win32,60,5f47c0b9b035471e11593a5c,5f47c51d74dfe80d67019a49,3,,,,,,watch,,,,,,0,5,5,0,1,1,2,,,,,,,,,,,,,,,,,,,,,,,,,,,,,,,,,,,,,,,,,,,,,,,,,,,,,,,,,,,,,,,,,,,,,,,,,,,
,,,,,,,,,,stimuli/images/PICTURE_2.png,YARD,5f04cb284a1b587a33e1978d,19/10/1987,2020-08-27_10h40.39.439,proactive3.2,2020.1.2,Win32,60,5f47c0b9b035471e11593a5c,5f47c51d74dfe80d67019a49,3,,,,,,tyre,,,,,,0,6,6,55,1,6,2,,,,,,,,,,,,,,,,,,,,,,,,,,,,,,,,,,,,,,,,,,,,,,,,,,,,,,,,,,,,,,,,,,,,,,,,,,,
,,,,,,,,,,stimuli/images/PICTURE_215.png,BOYS,5f04cb284a1b587a33e1978d,19/10/1987,2020-08-27_10h40.39.439,proactive3.2,2020.1.2,Win32,60,5f47c0b9b035471e11593a5c,5f47c51d74dfe80d67019a49,3,,,,,,boot,,,,,,0,7,7,24,1,3,2,,,,,,,,,,,,,,,,,,,,,,,,,,,,,,,,,,,,,,,,,,,,,,,,,,,,,,,,,,,,,,,,,,,,,,,,,,,
,,,,,,,,,,stimuli/images/PICTURE_356.png,CANDY,5f04cb284a1b587a33e1978d,19/10/1987,2020-08-27_10h40.39.439,proactive3.2,2020.1.2,Win32,60,5f47c0b9b035471e11593a5c,5f47c51d74dfe80d67019a49,3,,,,,,pawn,,,,,,0,8,8,46,1,5,2,,,,,,,,,,,,,,,,,,,,,,,,,,,,,,,,,,,,,,,,,,,,,,,,,,,,,,,,,,,,,,,,,,,,,,,,,,,
,,,,,,,,,,stimuli/images/PICTURE_18.png,RIVER,5f04cb284a1b587a33e1978d,19/10/1987,2020-08-27_10h40.39.439,proactive3.2,2020.1.2,Win32,60,5f47c0b9b035471e11593a5c,5f47c51d74dfe80d67019a49,3,,,,,,planet,,,,,,0,9,9,22,1,3,2,,,,,,,,,,,,,,,,,,,,,,,,,,,,,,,,,,,,,,,,,,,,,,,,,,,,,,,,,,,,,,,,,,,,,,,,,,,
,,,,,,,,,,stimuli/images/PICTURE_327.png,LEADER,5f04cb284a1b587a33e1978d,19/10/1987,2020-08-27_10h40.39.439,proactive3.2,2020.1.2,Win32,60,5f47c0b9b035471e11593a5c,5f47c51d74dfe80d67019a49,3,,,,,,helmet,,,,,,0,10,10,17,1,2,2,,,,,,,,,,,,,,,,,,,,,,,,,,,,,,,,,,,,,,,,,,,,,,,,,,,,,,,,,,,,,,,,,,,,,,,,,,,
,,,,,,,,,,stimuli/images/PICTURE_509.png,APPLE,5f04cb284a1b587a33e1978d,19/10/1987,2020-08-27_10h40.39.439,proactive3.2,2020.1.2,Win32,60,5f47c0b9b035471e11593a5c,5f47c51d74dfe80d67019a49,3,,,,,,telephone,,,,,,0,11,11,38,1,4,2,,,,,,,,,,,,,,,,,,,,,,,,,,,,,,,,,,,,,,,,,,,,,,,,,,,,,,,,,,,,,,,,,,,,,,,,,,,
,,,,,,,,,,stimuli/images/PICTURE_2.png,JUNGLE,5f04cb284a1b587a33e1978d,19/10/1987,2020-08-27_10h40.39.439,proactive3.2,2020.1.2,Win32,60,5f47c0b9b035471e11593a5c,5f47c51d74dfe80d67019a49,3,,,,,,tyre,,,,,,0,12,12,1,1,1,2,,,,,,,,,,,,,,,,,,,,,,,,,,,,,,,,,,,,,,,,,,,,,,,,,,,,,,,,,,,,,,,,,,,,,,,,,,,
,,,,,,,,,,stimuli/images/PICTURE_750.png,POLICY,5f04cb284a1b587a33e1978d,19/10/1987,2020-08-27_10h40.39.439,proactive3.2,2020.1.2,Win32,60,5f47c0b9b035471e11593a5c,5f47c51d74dfe80d67019a49,3,,,,,,kettle,,,,,,0,13,13,44,1,5,2,,,,,,,,,,,,,,,,,,,,,,,,,,,,,,,,,,,,,,,,,,,,,,,,,,,,,,,,,,,,,,,,,,,,,,,,,,,
,,,,,,,,,,stimuli/images/PICTURE_654.png,COPS,5f04cb284a1b587a33e1978d,19/10/1987,2020-08-27_10h40.39.439,proactive3.2,2020.1.2,Win32,60,5f47c0b9b035471e11593a5c,5f47c51d74dfe80d67019a49,3,,,,,,pencil,,,,,,0,14,14,10,1,2,2,,,,,,,,,,,,,,,,,,,,,,,,,,,,,,,,,,,,,,,,,,,,,,,,,,,,,,,,,,,,,,,,,,,,,,,,,,,
,,,,,,,,,,stimuli/images/PICTURE_285.png,PRINCE,5f04cb284a1b587a33e1978d,19/10/1987,2020-08-27_10h40.39.439,proactive3.2,2020.1.2,Win32,60,5f47c0b9b035471e11593a5c,5f47c51d74dfe80d67019a49,3,,,,,,carrot,,,,,,0,15,15,20,1,3,2,,,,,,,,,,,,,,,,,,,,,,,,,,,,,,,,,,,,,,,,,,,,,,,,,,,,,,,,,,,,,,,,,,,,,,,,,,,
,,,,,,,,,,stimuli/images/PICTURE_677.png,FAMILY,5f04cb284a1b587a33e1978d,19/10/1987,2020-08-27_10h40.39.439,proactive3.2,2020.1.2,Win32,60,5f47c0b9b035471e11593a5c,5f47c51d74dfe80d67019a49,3,,,,,,map,,,,,,0,16,16,53,1,6,2,,,,,,,,,,,,,,,,,,,,,,,,,,,,,,,,,,,,,,,,,,,,,,,,,,,,,,,,,,,,,,,,,,,,,,,,,,,
,,,,,,,,,,stimuli/images/PICTURE_177.png,HOUSE,5f04cb284a1b587a33e1978d,19/10/1987,2020-08-27_10h40.39.439,proactive3.2,2020.1.2,Win32,60,5f47c0b9b035471e11593a5c,5f47c51d74dfe80d67019a49,3,,,,,,mushroom,,,,,,0,17,17,25,1,3,2,,,,,,,,,,,,,,,,,,,,,,,,,,,,,,,,,,,,,,,,,,,,,,,,,,,,,,,,,,,,,,,,,,,,,,,,,,,
,,,,,,,,,,stimuli/images/PICTURE_123.png,SALE,5f04cb284a1b587a33e1978d,19/10/1987,2020-08-27_10h40.39.439,proactive3.2,2020.1.2,Win32,60,5f47c0b9b035471e11593a5c,5f47c51d74dfe80d67019a49,3,,,,,,dart,,,,,,0,18,18,8,1,1,2,,,,,,,,,,,,,,,,,,,,,,,,,,,,,,,,,,,,,,,,,,,,,,,,,,,,,,,,,,,,,,,,,,,,,,,,,,,
,,,,,,,,,,stimuli/images/PICTURE_215.png,FOOD,5f04cb284a1b587a33e1978d,19/10/1987,2020-08-27_10h40.39.439,proactive3.2,2020.1.2,Win32,60,5f47c0b9b035471e11593a5c,5f47c51d74dfe80d67019a49,3,,,,,,boot,,,,,,0,19,19,5,1,1,2,,,,,,,,,,,,,,,,,,,,,,,,,,,,,,,,,,,,,,,,,,,,,,,,,,,,,,,,,,,,,,,,,,,,,,,,,,,
,,,,,,,,,,stimuli/images/PICTURE_453.png,FAMILY,5f04cb284a1b587a33e1978d,19/10/1987,2020-08-27_10h40.39.439,proactive3.2,2020.1.2,Win32,60,5f47c0b9b035471e11593a5c,5f47c51d74dfe80d67019a49,3,,,,,,scissors,,,,,,0,20,20,48,1,5,2,,,,,,,,,,,,,,,,,,,,,,,,,,,,,,,,,,,,,,,,,,,,,,,,,,,,,,,,,,,,,,,,,,,,,,,,,,,
,,,,,,,,,,stimuli/images/PICTURE_57.png,CASINO,5f04cb284a1b587a33e1978d,19/10/1987,2020-08-27_10h40.39.439,proactive3.2,2020.1.2,Win32,60,5f47c0b9b035471e11593a5c,5f47c51d74dfe80d67019a49,3,,,,,,stamp,,,,,,0,21,21,12,1,2,2,,,,,,,,,,,,,,,,,,,,,,,,,,,,,,,,,,,,,,,,,,,,,,,,,,,,,,,,,,,,,,,,,,,,,,,,,,,
,,,,,,,,,,stimuli/images/PICTURE_405.png,JUNGLE,5f04cb284a1b587a33e1978d,19/10/1987,2020-08-27_10h40.39.439,proactive3.2,2020.1.2,Win32,60,5f47c0b9b035471e11593a5c,5f47c51d74dfe80d67019a49,3,,,,,,anchor,,,,,,0,22,22,13,1,2,2,,,,,,,,,,,,,,,,,,,,,,,,,,,,,,,,,,,,,,,,,,,,,,,,,,,,,,,,,,,,,,,,,,,,,,,,,,,
,,,,,,,,,,stimuli/images/PICTURE_141.png,CLIENT,5f04cb284a1b587a33e1978d,19/10/1987,2020-08-27_10h40.39.439,proactive3.2,2020.1.2,Win32,60,5f47c0b9b035471e11593a5c,5f47c51d74dfe80d67019a49,3,,,,,,sunflower,,,,,,0,23,23,30,1,4,2,,,,,,,,,,,,,,,,,,,,,,,,,,,,,,,,,,,,,,,,,,,,,,,,,,,,,,,,,,,,,,,,,,,,,,,,,,,
,,,,,,,,,,stimuli/images/PICTURE_564.png,PLENTY,5f04cb284a1b587a33e1978d,19/10/1987,2020-08-27_10h40.39.439,proactive3.2,2020.1.2,Win32,60,5f47c0b9b035471e11593a5c,5f47c51d74dfe80d67019a49,3,,,,,,spoon,,,,,,0,24,24,11,1,2,2,,,,,,,,,,,,,,,,,,,,,,,,,,,,,,,,,,,,,,,,,,,,,,,,,,,,,,,,,,,,,,,,,,,,,,,,,,,
,,,,,,,,,,stimuli/images/PICTURE_95.png,NIGHT,5f04cb284a1b587a33e1978d,19/10/1987,2020-08-27_10h40.39.439,proactive3.2,2020.1.2,Win32,60,5f47c0b9b035471e11593a5c,5f47c51d74dfe80d67019a49,3,,,,,,suitcase,,,,,,0,25,25,37,1,4,2,,,,,,,,,,,,,,,,,,,,,,,,,,,,,,,,,,,,,,,,,,,,,,,,,,,,,,,,,,,,,,,,,,,,,,,,,,,
,,,,,,,,,,stimuli/images/PICTURE_285.png,WRITER,5f04cb284a1b587a33e1978d,19/10/1987,2020-08-27_10h40.39.439,proactive3.2,2020.1.2,Win32,60,5f47c0b9b035471e11593a5c,5f47c51d74dfe80d67019a49,3,,,,,,carrot,,,,,,0,26,26,6,1,1,2,,,,,,,,,,,,,,,,,,,,,,,,,,,,,,,,,,,,,,,,,,,,,,,,,,,,,,,,,,,,,,,,,,,,,,,,,,,
,,,,,,,,,,stimuli/images/PICTURE_491.png,SERIES,5f04cb284a1b587a33e1978d,19/10/1987,2020-08-27_10h40.39.439,proactive3.2,2020.1.2,Win32,60,5f47c0b9b035471e11593a5c,5f47c51d74dfe80d67019a49,3,,,,,,rug,,,,,,0,27,27,39,1,4,2,,,,,,,,,,,,,,,,,,,,,,,,,,,,,,,,,,,,,,,,,,,,,,,,,,,,,,,,,,,,,,,,,,,,,,,,,,,
,,,,,,,,,,stimuli/images/PICTURE_487.png,ROOF,5f04cb284a1b587a33e1978d,19/10/1987,2020-08-27_10h40.39.439,proactive3.2,2020.1.2,Win32,60,5f47c0b9b035471e11593a5c,5f47c51d74dfe80d67019a49,3,,,,,,basket,,,,,,0,28,28,50,1,6,2,,,,,,,,,,,,,,,,,,,,,,,,,,,,,,,,,,,,,,,,,,,,,,,,,,,,,,,,,,,,,,,,,,,,,,,,,,,
,,,,,,,,,,stimuli/images/PICTURE_405.png,HOUSE,5f04cb284a1b587a33e1978d,19/10/1987,2020-08-27_10h40.39.439,proactive3.2,2020.1.2,Win32,60,5f47c0b9b035471e11593a5c,5f47c51d74dfe80d67019a49,3,,,,,,anchor,,,,,,0,29,29,2,1,1,2,,,,,,,,,,,,,,,,,,,,,,,,,,,,,,,,,,,,,,,,,,,,,,,,,,,,,,,,,,,,,,,,,,,,,,,,,,,
,,,,,,,,,,stimuli/images/PICTURE_692.png,DUDE,5f04cb284a1b587a33e1978d,19/10/1987,2020-08-27_10h40.39.439,proactive3.2,2020.1.2,Win32,60,5f47c0b9b035471e11593a5c,5f47c51d74dfe80d67019a49,3,,,,,,cherry,,,,,,0,30,30,47,1,5,2,,,,,,,,,,,,,,,,,,,,,,,,,,,,,,,,,,,,,,,,,,,,,,,,,,,,,,,,,,,,,,,,,,,,,,,,,,,
,,,,,,,,,,stimuli/images/PICTURE_314.png,SPEECH,5f04cb284a1b587a33e1978d,19/10/1987,2020-08-27_10h40.39.439,proactive3.2,2020.1.2,Win32,60,5f47c0b9b035471e11593a5c,5f47c51d74dfe80d67019a49,3,,,,,,perfume,,,,,,0,31,31,35,1,4,2,,,,,,,,,,,,,,,,,,,,,,,,,,,,,,,,,,,,,,,,,,,,,,,,,,,,,,,,,,,,,,,,,,,,,,,,,,,
,,,,,,,,,,stimuli/images/PICTURE_348.png,TOILET,5f04cb284a1b587a33e1978d,19/10/1987,2020-08-27_10h40.39.439,proactive3.2,2020.1.2,Win32,60,5f47c0b9b035471e11593a5c,5f47c51d74dfe80d67019a49,3,,,,,,pepper,,,,,,0,32,32,4,1,1,2,,,,,,,,,,,,,,,,,,,,,,,,,,,,,,,,,,,,,,,,,,,,,,,,,,,,,,,,,,,,,,,,,,,,,,,,,,,
,,,,,,,,,,stimuli/images/PICTURE_708.png,VALLEY,5f04cb284a1b587a33e1978d,19/10/1987,2020-08-27_10h40.39.439,proactive3.2,2020.1.2,Win32,60,5f47c0b9b035471e11593a5c,5f47c51d74dfe80d67019a49,3,,,,,,monkey,,,,,,0,33,33,45,1,5,2,,,,,,,,,,,,,,,,,,,,,,,,,,,,,,,,,,,,,,,,,,,,,,,,,,,,,,,,,,,,,,,,,,,,,,,,,,,
,,,,,,,,,,stimuli/images/PICTURE_208.png,SPIRIT,5f04cb284a1b587a33e1978d,19/10/1987,2020-08-27_10h40.39.439,proactive3.2,2020.1.2,Win32,60,5f47c0b9b035471e11593a5c,5f47c51d74dfe80d67019a49,3,,,,,,microphone,,,,,,0,34,34,28,1,3,2,,,,,,,,,,,,,,,,,,,,,,,,,,,,,,,,,,,,,,,,,,,,,,,,,,,,,,,,,,,,,,,,,,,,,,,,,,,
,,,,,,,,,,stimuli/images/PICTURE_470.png,MOMENT,5f04cb284a1b587a33e1978d,19/10/1987,2020-08-27_10h40.39.439,proactive3.2,2020.1.2,Win32,60,5f47c0b9b035471e11593a5c,5f47c51d74dfe80d67019a49,3,,,,,,motorbike,,,,,,0,35,35,40,1,5,2,,,,,,,,,,,,,,,,,,,,,,,,,,,,,,,,,,,,,,,,,,,,,,,,,,,,,,,,,,,,,,,,,,,,,,,,,,,
,,,,,,,,,,stimuli/images/PICTURE_509.png,BATH,5f04cb284a1b587a33e1978d,19/10/1987,2020-08-27_10h40.39.439,proactive3.2,2020.1.2,Win32,60,5f47c0b9b035471e11593a5c,5f47c51d74dfe80d67019a49,3,,,,,,telephone,,,,,,0,36,36,15,1,2,2,,,,,,,,,,,,,,,,,,,,,,,,,,,,,,,,,,,,,,,,,,,,,,,,,,,,,,,,,,,,,,,,,,,,,,,,,,,
,,,,,,,,,,stimuli/images/PICTURE_32.png,LETTER,5f04cb284a1b587a33e1978d,19/10/1987,2020-08-27_10h40.39.439,proactive3.2,2020.1.2,Win32,60,5f47c0b9b035471e11593a5c,5f47c51d74dfe80d67019a49,3,,,,,,crown,,,,,,0,37,37,56,1,6,2,,,,,,,,,,,,,,,,,,,,,,,,,,,,,,,,,,,,,,,,,,,,,,,,,,,,,,,,,,,,,,,,,,,,,,,,,,,
,,,,,,,,,,stimuli/images/PICTURE_68.png,KIND,5f04cb284a1b587a33e1978d,19/10/1987,2020-08-27_10h40.39.439,proactive3.2,2020.1.2,Win32,60,5f47c0b9b035471e11593a5c,5f47c51d74dfe80d67019a49,3,,,,,,candle,,,,,,0,38,38,23,1,3,2,,,,,,,,,,,,,,,,,,,,,,,,,,,,,,,,,,,,,,,,,,,,,,,,,,,,,,,,,,,,,,,,,,,,,,,,,,,
,,,,,,,,,,stimuli/images/PICTURE_297.png,BODY,5f04cb284a1b587a33e1978d,19/10/1987,2020-08-27_10h40.39.439,proactive3.2,2020.1.2,Win32,60,5f47c0b9b035471e11593a5c,5f47c51d74dfe80d67019a49,3,,,,,,aeroplane,,,,,,0,39,39,51,1,6,2,,,,,,,,,,,,,,,,,,,,,,,,,,,,,,,,,,,,,,,,,,,,,,,,,,,,,,,,,,,,,,,,,,,,,,,,,,,
,,,,,,,,,,stimuli/images/PICTURE_147.png,LEADER,5f04cb284a1b587a33e1978d,19/10/1987,2020-08-27_10h40.39.439,proactive3.2,2020.1.2,Win32,60,5f47c0b9b035471e11593a5c,5f47c51d74dfe80d67019a49,3,,,,,,hanger,,,,,,0,40,40,33,1,4,2,,,,,,,,,,,,,,,,,,,,,,,,,,,,,,,,,,,,,,,,,,,,,,,,,,,,,,,,,,,,,,,,,,,,,,,,,,,
,,,,,,,,,,stimuli/images/PICTURE_655.png,SALE,5f04cb284a1b587a33e1978d,19/10/1987,2020-08-27_10h40.39.439,proactive3.2,2020.1.2,Win32,60,5f47c0b9b035471e11593a5c,5f47c51d74dfe80d67019a49,3,,,,,,megaphone,,,,,,0,41,41,57,1,6,2,,,,,,,,,,,,,,,,,,,,,,,,,,,,,,,,,,,,,,,,,,,,,,,,,,,,,,,,,,,,,,,,,,,,,,,,,,,
,,,,,,,,,,stimuli/images/PICTURE_509.png,SHOTS,5f04cb284a1b587a33e1978d,19/10/1987,2020-08-27_10h40.39.439,proactive3.2,2020.1.2,Win32,60,5f47c0b9b035471e11593a5c,5f47c51d74dfe80d67019a49,3,,,,,,telephone,,,,,,0,42,42,7,1,1,2,,,,,,,,,,,,,,,,,,,,,,,,,,,,,,,,,,,,,,,,,,,,,,,,,,,,,,,,,,,,,,,,,,,,,,,,,,,
,,,,,,,,,,stimuli/images/PICTURE_215.png,LEADER,5f04cb284a1b587a33e1978d,19/10/1987,2020-08-27_10h40.39.439,proactive3.2,2020.1.2,Win32,60,5f47c0b9b035471e11593a5c,5f47c51d74dfe80d67019a49,3,,,,,,boot,,,,,,0,43,43,43,1,5,2,,,,,,,,,,,,,,,,,,,,,,,,,,,,,,,,,,,,,,,,,,,,,,,,,,,,,,,,,,,,,,,,,,,,,,,,,,,
,,,,,,,,,,stimuli/images/PICTURE_470.png,BEAUTY,5f04cb284a1b587a33e1978d,19/10/1987,2020-08-27_10h40.39.439,proactive3.2,2020.1.2,Win32,60,5f47c0b9b035471e11593a5c,5f47c51d74dfe80d67019a49,3,,,,,,motorbike,,,,,,0,44,44,26,1,3,2,,,,,,,,,,,,,,,,,,,,,,,,,,,,,,,,,,,,,,,,,,,,,,,,,,,,,,,,,,,,,,,,,,,,,,,,,,,
,,,,,,,,,,stimuli/images/PICTURE_311.png,FLESH,5f04cb284a1b587a33e1978d,19/10/1987,2020-08-27_10h40.39.439,proactive3.2,2020.1.2,Win32,60,5f47c0b9b035471e11593a5c,5f47c51d74dfe80d67019a49,3,,,,,,razor,,,,,,0,45,45,3,1,1,2,,,,,,,,,,,,,,,,,,,,,,,,,,,,,,,,,,,,,,,,,,,,,,,,,,,,,,,,,,,,,,,,,,,,,,,,,,,
,,,,,,,,,,stimuli/images/PICTURE_160.png,HOTEL,5f04cb284a1b587a33e1978d,19/10/1987,2020-08-27_10h40.39.439,proactive3.2,2020.1.2,Win32,60,5f47c0b9b035471e11593a5c,5f47c51d74dfe80d67019a49,3,,,,,,wheelbarrow,,,,,,0,46,46,16,1,2,2,,,,,,,,,,,,,,,,,,,,,,,,,,,,,,,,,,,,,,,,,,,,,,,,,,,,,,,,,,,,,,,,,,,,,,,,,,,
,,,,,,,,,,stimuli/images/PICTURE_487.png,POLICY,5f04cb284a1b587a33e1978d,19/10/1987,2020-08-27_10h40.39.439,proactive3.2,2020.1.2,Win32,60,5f47c0b9b035471e11593a5c,5f47c51d74dfe80d67019a49,3,,,,,,basket,,,,,,0,47,47,34,1,4,2,,,,,,,,,,,,,,,,,,,,,,,,,,,,,,,,,,,,,,,,,,,,,,,,,,,,,,,,,,,,,,,,,,,,,,,,,,,
,,,,,,,,,,stimuli/images/PICTURE_57.png,CANDY,5f04cb284a1b587a33e1978d,19/10/1987,2020-08-27_10h40.39.439,proactive3.2,2020.1.2,Win32,60,5f47c0b9b035471e11593a5c,5f47c51d74dfe80d67019a49,3,,,,,,stamp,,,,,,0,48,48,52,1,6,2,,,,,,,,,,,,,,,,,,,,,,,,,,,,,,,,,,,,,,,,,,,,,,,,,,,,,,,,,,,,,,,,,,,,,,,,,,,
,,,,,,,,,,stimuli/images/PICTURE_311.png,TOILET,5f04cb284a1b587a33e1978d,19/10/1987,2020-08-27_10h40.39.439,proactive3.2,2020.1.2,Win32,60,5f47c0b9b035471e11593a5c,5f47c51d74dfe80d67019a49,3,,,,,,razor,,,,,,0,49,49,54,1,6,2,,,,,,,,,,,,,,,,,,,,,,,,,,,,,,,,,,,,,,,,,,,,,,,,,,,,,,,,,,,,,,,,,,,,,,,,,,,
,,,,,,,,,,stimuli/images/PICTURE_688.png,CLOCK,5f04cb284a1b587a33e1978d,19/10/1987,2020-08-27_10h40.39.439,proactive3.2,2020.1.2,Win32,60,5f47c0b9b035471e11593a5c,5f47c51d74dfe80d67019a49,3,,,,,,runner,,,,,,0,50,50,42,1,5,2,,,,,,,,,,,,,,,,,,,,,,,,,,,,,,,,,,,,,,,,,,,,,,,,,,,,,,,,,,,,,,,,,,,,,,,,,,,
,,,,,,,,,,stimuli/images/PICTURE_403.png,FAMILY,5f04cb284a1b587a33e1978d,19/10/1987,2020-08-27_10h40.39.439,proactive3.2,2020.1.2,Win32,60,5f47c0b9b035471e11593a5c,5f47c51d74dfe80d67019a49,3,,,,,,cathedral,,,,,,0,51,51,9,1,1,2,,,,,,,,,,,,,,,,,,,,,,,,,,,,,,,,,,,,,,,,,,,,,,,,,,,,,,,,,,,,,,,,,,,,,,,,,,,
,,,,,,,,,,stimuli/images/PICTURE_677.png,PHOTO,5f04cb284a1b587a33e1978d,19/10/1987,2020-08-27_10h40.39.439,proactive3.2,2020.1.2,Win32,60,5f47c0b9b035471e11593a5c,5f47c51d74dfe80d67019a49,3,,,,,,map,,,,,,0,52,52,14,1,2,2,,,,,,,,,,,,,,,,,,,,,,,,,,,,,,,,,,,,,,,,,,,,,,,,,,,,,,,,,,,,,,,,,,,,,,,,,,,
,,,,,,,,,,stimuli/images/PICTURE_296.png,CLOCK,5f04cb284a1b587a33e1978d,19/10/1987,2020-08-27_10h40.39.439,proactive3.2,2020.1.2,Win32,60,5f47c0b9b035471e11593a5c,5f47c51d74dfe80d67019a49,3,,,,,,bolt,,,,,,0,53,53,18,1,2,2,,,,,,,,,,,,,,,,,,,,,,,,,,,,,,,,,,,,,,,,,,,,,,,,,,,,,,,,,,,,,,,,,,,,,,,,,,,
,,,,,,,,,,stimuli/images/PICTURE_654.png,YEAR,5f04cb284a1b587a33e1978d,19/10/1987,2020-08-27_10h40.39.439,proactive3.2,2020.1.2,Win32,60,5f47c0b9b035471e11593a5c,5f47c51d74dfe80d67019a49,3,,,,,,pencil,,,,,,0,54,54,41,1,5,2,,,,,,,,,,,,,,,,,,,,,,,,,,,,,,,,,,,,,,,,,,,,,,,,,,,,,,,,,,,,,,,,,,,,,,,,,,,
,,,,,,,,,,stimuli/images/PICTURE_2.png,AREA,5f04cb284a1b587a33e1978d,19/10/1987,2020-08-27_10h40.39.439,proactive3.2,2020.1.2,Win32,60,5f47c0b9b035471e11593a5c,5f47c51d74dfe80d67019a49,3,,,,,,tyre,,,,,,0,55,55,32,1,4,2,,,,,,,,,,,,,,,,,,,,,,,,,,,,,,,,,,,,,,,,,,,,,,,,,,,,,,,,,,,,,,,,,,,,,,,,,,,
,,,,,,,,,,stimuli/images/PICTURE_93.png,GIRL,5f04cb284a1b587a33e1978d,19/10/1987,2020-08-27_10h40.39.439,proactive3.2,2020.1.2,Win32,60,5f47c0b9b035471e11593a5c,5f47c51d74dfe80d67019a49,3,,,,,,skateboard,,,,,,0,56,56,31,1,4,2,,,,,,,,,,,,,,,,,,,,,,,,,,,,,,,,,,,,,,,,,,,,,,,,,,,,,,,,,,,,,,,,,,,,,,,,,,,
,,,,,,,,,,stimuli/images/PICTURE_504.png,HOUSE,5f04cb284a1b587a33e1978d,19/10/1987,2020-08-27_10h40.39.439,proactive3.2,2020.1.2,Win32,60,5f47c0b9b035471e11593a5c,5f47c51d74dfe80d67019a49,3,,,,,,wheel,,,,,,0,57,57,36,1,4,2,,,,,,,,,,,,,,,,,,,,,,,,,,,,,,,,,,,,,,,,,,,,,,,,,,,,,,,,,,,,,,,,,,,,,,,,,,,
,,,,,,,,,,stimuli/images/PICTURE_57.png,NATION,5f04cb284a1b587a33e1978d,19/10/1987,2020-08-27_10h40.39.439,proactive3.2,2020.1.2,Win32,60,5f47c0b9b035471e11593a5c,5f47c51d74dfe80d67019a49,3,,,,,,stamp,,,,,,0,58,58,21,1,3,2,,,,,,,,,,,,,,,,,,,,,,,,,,,,,,,,,,,,,,,,,,,,,,,,,,,,,,,,,,,,,,,,,,,,,,,,,,,
,,?,0.002095,0,,,,,,stimuli/images/PICTURE_2.png,AREA,5f04cb284a1b587a33e1978d,19/10/1987,2020-08-27_10h40.39.439,proactive3.2,2020.1.2,Win32,60,5f47c0b9b035471e11593a5c,5f47c51d74dfe80d67019a49,3,,,,,,tyre,,,,,,,,,,,4,2,0,0,0,32,1,,,,,,,,,,,,,,,,,,,,,,,,,,,,,,,,,,,,,,,,,,,,,,,,,,,,,,,,,,,,,,,,,,,,,,
,,?,0.001615,0,,,,,,stimuli/images/PICTURE_93.png,GIRL,5f04cb284a1b587a33e1978d,19/10/1987,2020-08-27_10h40.39.439,proactive3.2,2020.1.2,Win32,60,5f47c0b9b035471e11593a5c,5f47c51d74dfe80d67019a49,3,,,,,,skateboard,,,,,,,,,,,4,2,0,1,1,31,1,,,,,,,,,,,,,,,,,,,,,,,,,,,,,,,,,,,,,,,,,,,,,,,,,,,,,,,,,,,,,,,,,,,,,,
,,?,0.00471,0,,,,,,stimuli/images/PICTURE_314.png,SPEECH,5f04cb284a1b587a33e1978d,19/10/1987,2020-08-27_10h40.39.439,proactive3.2,2020.1.2,Win32,60,5f47c0b9b035471e11593a5c,5f47c51d74dfe80d67019a49,3,,,,,,perfume,,,,,,,,,,,4,2,0,2,2,35,1,,,,,,,,,,,,,,,,,,,,,,,,,,,,,,,,,,,,,,,,,,,,,,,,,,,,,,,,,,,,,,,,,,,,,,
,,?,0.00161,0,,,,,,stimuli/images/PICTURE_405.png,HOUSE,5f04cb284a1b587a33e1978d,19/10/1987,2020-08-27_10h40.39.439,proactive3.2,2020.1.2,Win32,60,5f47c0b9b035471e11593a5c,5f47c51d74dfe80d67019a49,3,,,,,,anchor,,,,,,,,,,,1,2,0,3,3,2,1,,,,,,,,,,,,,,,,,,,,,,,,,,,,,,,,,,,,,,,,,,,,,,,,,,,,,,,,,,,,,,,,,,,,,,
,,?,0.00158,0,,,,,,stimuli/images/PICTURE_255.png,PENNY,5f04cb284a1b587a33e1978d,19/10/1987,2020-08-27_10h40.39.439,proactive3.2,2020.1.2,Win32,60,5f47c0b9b035471e11593a5c,5f47c51d74dfe80d67019a49,3,,,,,,shovel,,,,,,,,,,,2,2,0,4,4,19,1,,,,,,,,,,,,,,,,,,,,,,,,,,,,,,,,,,,,,,,,,,,,,,,,,,,,,,,,,,,,,,,,,,,,,,
,,?,0.001575,0,,,,,,stimuli/images/PICTURE_470.png,MOMENT,5f04cb284a1b587a33e1978d,19/10/1987,2020-08-27_10h40.39.439,proactive3.2,2020.1.2,Win32,60,5f47c0b9b035471e11593a5c,5f47c51d74dfe80d67019a49,3,,,,,,motorbike,,,,,,,,,,,5,2,0,5,5,40,1,,,,,,,,,,,,,,,,,,,,,,,,,,,,,,,,,,,,,,,,,,,,,,,,,,,,,,,,,,,,,,,,,,,,,,
,,?,0.001535,0,,,,,,stimuli/images/PICTURE_504.png,HOUSE,5f04cb284a1b587a33e1978d,19/10/1987,2020-08-27_10h40.39.439,proactive3.2,2020.1.2,Win32,60,5f47c0b9b035471e11593a5c,5f47c51d74dfe80d67019a49,3,,,,,,wheel,,,,,,,,,,,4,2,0,6,6,36,1,,,,,,,,,,,,,,,,,,,,,,,,,,,,,,,,,,,,,,,,,,,,,,,,,,,,,,,,,,,,,,,,,,,,,,
,,?,0.00078,0,,,,,,stimuli/images/PICTURE_509.png,APPLE,5f04cb284a1b587a33e1978d,19/10/1987,2020-08-27_10h40.39.439,proactive3.2,2020.1.2,Win32,60,5f47c0b9b035471e11593a5c,5f47c51d74dfe80d67019a49,3,,,,,,telephone,,,,,,,,,,,4,2,0,7,7,38,1,,,,,,,,,,,,,,,,,,,,,,,,,,,,,,,,,,,,,,,,,,,,,,,,,,,,,,,,,,,,,,,,,,,,,,
,,KIND,3.70683,0,,,,,,stimuli/images/PICTURE_33.png,COPS,5f04cb284a1b587a33e1978d,19/10/1987,2020-08-27_10h40.39.439,proactive3.2,2020.1.2,Win32,60,5f47c0b9b035471e11593a5c,5f47c51d74dfe80d67019a49,3,,,,,,frame,,,,,,,,,,,3,2,0,8,8,29,1,,,,,,,,,,,,,,,,,,,,,,,,,,,,,,,,,,,,,,,,,,,,,,,,,,,,,,,,,,,,,,,,,,,,,,
,,?,0.00095,0,,,,,,stimuli/images/PICTURE_692.png,DUDE,5f04cb284a1b587a33e1978d,19/10/1987,2020-08-27_10h40.39.439,proactive3.2,2020.1.2,Win32,60,5f47c0b9b035471e11593a5c,5f47c51d74dfe80d67019a49,3,,,,,,cherry,,,,,,,,,,,5,2,0,9,9,47,1,,,,,,,,,,,,,,,,,,,,,,,,,,,,,,,,,,,,,,,,,,,,,,,,,,,,,,,,,,,,,,,,,,,,,,
,,?,0.00052,0,,,,,,stimuli/images/PICTURE_654.png,YEAR,5f04cb284a1b587a33e1978d,19/10/1987,2020-08-27_10h40.39.439,proactive3.2,2020.1.2,Win32,60,5f47c0b9b035471e11593a5c,5f47c51d74dfe80d67019a49,3,,,,,,pencil,,,,,,,,,,,5,2,0,10,10,41,1,,,,,,,,,,,,,,,,,,,,,,,,,,,,,,,,,,,,,,,,,,,,,,,,,,,,,,,,,,,,,,,,,,,,,,
,,?,0.000395,0,,,,,,stimuli/images/PICTURE_509.png,SHOTS,5f04cb284a1b587a33e1978d,19/10/1987,2020-08-27_10h40.39.439,proactive3.2,2020.1.2,Win32,60,5f47c0b9b035471e11593a5c,5f47c51d74dfe80d67019a49,3,,,,,,telephone,,,,,,,,,,,1,2,0,11,11,7,1,,,,,,,,,,,,,,,,,,,,,,,,,,,,,,,,,,,,,,,,,,,,,,,,,,,,,,,,,,,,,,,,,,,,,,
,,?,0.000385,0,,,,,,stimuli/images/PICTURE_487.png,ROOF,5f04cb284a1b587a33e1978d,19/10/1987,2020-08-27_10h40.39.439,proactive3.2,2020.1.2,Win32,60,5f47c0b9b035471e11593a5c,5f47c51d74dfe80d67019a49,3,,,,,,basket,,,,,,,,,,,6,2,0,12,12,50,1,,,,,,,,,,,,,,,,,,,,,,,,,,,,,,,,,,,,,,,,,,,,,,,,,,,,,,,,,,,,,,,,,,,,,,
,,?,0.0004,0,,,,,,stimuli/images/PICTURE_677.png,FAMILY,5f04cb284a1b587a33e1978d,19/10/1987,2020-08-27_10h40.39.439,proactive3.2,2020.1.2,Win32,60,5f47c0b9b035471e11593a5c,5f47c51d74dfe80d67019a49,3,,,,,,map,,,,,,,,,,,6,2,0,13,13,53,1,,,,,,,,,,,,,,,,,,,,,,,,,,,,,,,,,,,,,,,,,,,,,,,,,,,,,,,,,,,,,,,,,,,,,,
,,HOUSE,1.51123,1,,,,,,stimuli/images/PICTURE_177.png,HOUSE,5f04cb284a1b587a33e1978d,19/10/1987,2020-08-27_10h40.39.439,proactive3.2,2020.1.2,Win32,60,5f47c0b9b035471e11593a5c,5f47c51d74dfe80d67019a49,3,,,,,,mushroom,,,,,,,,,,,3,2,0,14,14,25,1,,,,,,,,,,,,,,,,,,,,,,,,,,,,,,,,,,,,,,,,,,,,,,,,,,,,,,,,,,,,,,,,,,,,,,
,,?,8.507595,0,,,,,,stimuli/images/PICTURE_57.png,NATION,5f04cb284a1b587a33e1978d,19/10/1987,2020-08-27_10h40.39.439,proactive3.2,2020.1.2,Win32,60,5f47c0b9b035471e11593a5c,5f47c51d74dfe80d67019a49,3,,,,,,stamp,,,,,,,,,,,3,2,0,15,15,21,1,,,,,,,,,,,,,,,,,,,,,,,,,,,,,,,,,,,,,,,,,,,,,,,,,,,,,,,,,,,,,,,,,,,,,,
,,BEAUTY,3.218725,1,,,,,,stimuli/images/PICTURE_470.png,BEAUTY,5f04cb284a1b587a33e1978d,19/10/1987,2020-08-27_10h40.39.439,proactive3.2,2020.1.2,Win32,60,5f47c0b9b035471e11593a5c,5f47c51d74dfe80d67019a49,3,,,,,,motorbike,,,,,,,,,,,3,2,0,16,16,26,1,,,,,,,,,,,,,,,,,,,,,,,,,,,,,,,,,,,,,,,,,,,,,,,,,,,,,,,,,,,,,,,,,,,,,,
,,?,0.001875,0,,,,,,stimuli/images/PICTURE_215.png,LEADER,5f04cb284a1b587a33e1978d,19/10/1987,2020-08-27_10h40.39.439,proactive3.2,2020.1.2,Win32,60,5f47c0b9b035471e11593a5c,5f47c51d74dfe80d67019a49,3,,,,,,boot,,,,,,,,,,,5,2,0,17,17,43,1,,,,,,,,,,,,,,,,,,,,,,,,,,,,,,,,,,,,,,,,,,,,,,,,,,,,,,,,,,,,,,,,,,,,,,
,,?,0.00152,0,,,,,,stimuli/images/PICTURE_32.png,LETTER,5f04cb284a1b587a33e1978d,19/10/1987,2020-08-27_10h40.39.439,proactive3.2,2020.1.2,Win32,60,5f47c0b9b035471e11593a5c,5f47c51d74dfe80d67019a49,3,,,,,,crown,,,,,,,,,,,6,2,0,18,18,56,1,,,,,,,,,,,,,,,,,,,,,,,,,,,,,,,,,,,,,,,,,,,,,,,,,,,,,,,,,,,,,,,,,,,,,,
,,?,0.00146,0,,,,,,stimuli/images/PICTURE_403.png,FAMILY,5f04cb284a1b587a33e1978d,19/10/1987,2020-08-27_10h40.39.439,proactive3.2,2020.1.2,Win32,60,5f47c0b9b035471e11593a5c,5f47c51d74dfe80d67019a49,3,,,,,,cathedral,,,,,,,,,,,1,2,0,19,19,9,1,,,,,,,,,,,,,,,,,,,,,,,,,,,,,,,,,,,,,,,,,,,,,,,,,,,,,,,,,,,,,,,,,,,,,,
,,?,0.002225,0,,,,,,stimuli/images/PICTURE_141.png,CLIENT,5f04cb284a1b587a33e1978d,19/10/1987,2020-08-27_10h40.39.439,proactive3.2,2020.1.2,Win32,60,5f47c0b9b035471e11593a5c,5f47c51d74dfe80d67019a49,3,,,,,,sunflower,,,,,,,,,,,4,2,0,20,20,30,1,,,,,,,,,,,,,,,,,,,,,,,,,,,,,,,,,,,,,,,,,,,,,,,,,,,,,,,,,,,,,,,,,,,,,,
,,?,0.001455,0,,,,,,stimuli/images/PICTURE_564.png,PLENTY,5f04cb284a1b587a33e1978d,19/10/1987,2020-08-27_10h40.39.439,proactive3.2,2020.1.2,Win32,60,5f47c0b9b035471e11593a5c,5f47c51d74dfe80d67019a49,3,,,,,,spoon,,,,,,,,,,,2,2,0,21,21,11,1,,,,,,,,,,,,,,,,,,,,,,,,,,,,,,,,,,,,,,,,,,,,,,,,,,,,,,,,,,,,,,,,,,,,,,
,,?,0.00093,0,,,,,,stimuli/images/PICTURE_95.png,NIGHT,5f04cb284a1b587a33e1978d,19/10/1987,2020-08-27_10h40.39.439,proactive3.2,2020.1.2,Win32,60,5f47c0b9b035471e11593a5c,5f47c51d74dfe80d67019a49,3,,,,,,suitcase,,,,,,,,,,,4,2,0,22,22,37,1,,,,,,,,,,,,,,,,,,,,,,,,,,,,,,,,,,,,,,,,,,,,,,,,,,,,,,,,,,,,,,,,,,,,,,
,,?,0.0015,0,,,,,,stimuli/images/PICTURE_311.png,TOILET,5f04cb284a1b587a33e1978d,19/10/1987,2020-08-27_10h40.39.439,proactive3.2,2020.1.2,Win32,60,5f47c0b9b035471e11593a5c,5f47c51d74dfe80d67019a49,3,,,,,,razor,,,,,,,,,,,6,2,0,23,23,54,1,,,,,,,,,,,,,,,,,,,,,,,,,,,,,,,,,,,,,,,,,,,,,,,,,,,,,,,,,,,,,,,,,,,,,,
,,?,0.000925,0,,,,,,stimuli/images/PICTURE_297.png,BODY,5f04cb284a1b587a33e1978d,19/10/1987,2020-08-27_10h40.39.439,proactive3.2,2020.1.2,Win32,60,5f47c0b9b035471e11593a5c,5f47c51d74dfe80d67019a49,3,,,,,,aeroplane,,,,,,,,,,,6,2,0,24,24,51,1,,,,,,,,,,,,,,,,,,,,,,,,,,,,,,,,,,,,,,,,,,,,,,,,,,,,,,,,,,,,,,,,,,,,,,
,,GLASS,1.802065,1,,,,,,stimuli/images/PICTURE_667.png,GLASS,5f04cb284a1b587a33e1978d,19/10/1987,2020-08-27_10h40.39.439,proactive3.2,2020.1.2,Win32,60,5f47c0b9b035471e11593a5c,5f47c51d74dfe80d67019a49,3,,,,,,daisy,,,,,,,,,,,3,2,0,25,25,27,1,,,,,,,,,,,,,,,,,,,,,,,,,,,,,,,,,,,,,,,,,,,,,,,,,,,,,,,,,,,,,,,,,,,,,,
,,?,0.00294,0,,,,,,stimuli/images/PICTURE_285.png,WRITER,5f04cb284a1b587a33e1978d,19/10/1987,2020-08-27_10h40.39.439,proactive3.2,2020.1.2,Win32,60,5f47c0b9b035471e11593a5c,5f47c51d74dfe80d67019a49,3,,,,,,carrot,,,,,,,,,,,1,2,0,26,26,6,1,,,,,,,,,,,,,,,,,,,,,,,,,,,,,,,,,,,,,,,,,,,,,,,,,,,,,,,,,,,,,,,,,,,,,,
,,BOYS,1.54204,1,,,,,,stimuli/images/PICTURE_215.png,BOYS,5f04cb284a1b587a33e1978d,19/10/1987,2020-08-27_10h40.39.439,proactive3.2,2020.1.2,Win32,60,5f47c0b9b035471e11593a5c,5f47c51d74dfe80d67019a49,3,,,,,,boot,,,,,,,,,,,3,2,0,27,27,24,1,,,,,,,,,,,,,,,,,,,,,,,,,,,,,,,,,,,,,,,,,,,,,,,,,,,,,,,,,,,,,,,,,,,,,,
,,?,0.00101,0,,,,,,stimuli/images/PICTURE_296.png,CLOCK,5f04cb284a1b587a33e1978d,19/10/1987,2020-08-27_10h40.39.439,proactive3.2,2020.1.2,Win32,60,5f47c0b9b035471e11593a5c,5f47c51d74dfe80d67019a49,3,,,,,,bolt,,,,,,,,,,,2,2,0,28,28,18,1,,,,,,,,,,,,,,,,,,,,,,,,,,,,,,,,,,,,,,,,,,,,,,,,,,,,,,,,,,,,,,,,,,,,,,
,,?,0.000645,0,,,,,,stimuli/images/PICTURE_311.png,FLESH,5f04cb284a1b587a33e1978d,19/10/1987,2020-08-27_10h40.39.439,proactive3.2,2020.1.2,Win32,60,5f47c0b9b035471e11593a5c,5f47c51d74dfe80d67019a49,3,,,,,,razor,,,,,,,,,,,1,2,0,29,29,3,1,,,,,,,,,,,,,,,,,,,,,,,,,,,,,,,,,,,,,,,,,,,,,,,,,,,,,,,,,,,,,,,,,,,,,,
,,?,0.000495,0,,,,,,stimuli/images/PICTURE_708.png,VALLEY,5f04cb284a1b587a33e1978d,19/10/1987,2020-08-27_10h40.39.439,proactive3.2,2020.1.2,Win32,60,5f47c0b9b035471e11593a5c,5f47c51d74dfe80d67019a49,3,,,,,,monkey,,,,,,,,,,,5,2,0,30,30,45,1,,,,,,,,,,,,,,,,,,,,,,,,,,,,,,,,,,,,,,,,,,,,,,,,,,,,,,,,,,,,,,,,,,,,,,
,,?,0.00049,0,,,,,,stimuli/images/PICTURE_405.png,JUNGLE,5f04cb284a1b587a33e1978d,19/10/1987,2020-08-27_10h40.39.439,proactive3.2,2020.1.2,Win32,60,5f47c0b9b035471e11593a5c,5f47c51d74dfe80d67019a49,3,,,,,,anchor,,,,,,,,,,,2,2,0,31,31,13,1,,,,,,,,,,,,,,,,,,,,,,,,,,,,,,,,,,,,,,,,,,,,,,,,,,,,,,,,,,,,,,,,,,,,,,
,,?,0.00049,0,,,,,,stimuli/images/PICTURE_487.png,POLICY,5f04cb284a1b587a33e1978d,19/10/1987,2020-08-27_10h40.39.439,proactive3.2,2020.1.2,Win32,60,5f47c0b9b035471e11593a5c,5f47c51d74dfe80d67019a49,3,,,,,,basket,,,,,,,,,,,4,2,0,32,32,34,1,,,,,,,,,,,,,,,,,,,,,,,,,,,,,,,,,,,,,,,,,,,,,,,,,,,,,,,,,,,,,,,,,,,,,,
,,?,0.0005,0,,,,,,stimuli/images/PICTURE_2.png,YARD,5f04cb284a1b587a33e1978d,19/10/1987,2020-08-27_10h40.39.439,proactive3.2,2020.1.2,Win32,60,5f47c0b9b035471e11593a5c,5f47c51d74dfe80d67019a49,3,,,,,,tyre,,,,,,,,,,,6,2,0,33,33,55,1,,,,,,,,,,,,,,,,,,,,,,,,,,,,,,,,,,,,,,,,,,,,,,,,,,,,,,,,,,,,,,,,,,,,,,
,,KIND,1.524225,1,,,,,,stimuli/images/PICTURE_68.png,KIND,5f04cb284a1b587a33e1978d,19/10/1987,2020-08-27_10h40.39.439,proactive3.2,2020.1.2,Win32,60,5f47c0b9b035471e11593a5c,5f47c51d74dfe80d67019a49,3,,,,,,candle,,,,,,,,,,,3,2,0,34,34,23,1,,,,,,,,,,,,,,,,,,,,,,,,,,,,,,,,,,,,,,,,,,,,,,,,,,,,,,,,,,,,,,,,,,,,,,
,,?,0.001685,0,,,,,,stimuli/images/PICTURE_2.png,JUNGLE,5f04cb284a1b587a33e1978d,19/10/1987,2020-08-27_10h40.39.439,proactive3.2,2020.1.2,Win32,60,5f47c0b9b035471e11593a5c,5f47c51d74dfe80d67019a49,3,,,,,,tyre,,,,,,,,,,,1,2,0,35,35,1,1,,,,,,,,,,,,,,,,,,,,,,,,,,,,,,,,,,,,,,,,,,,,,,,,,,,,,,,,,,,,,,,,,,,,,,
,,?,0.00147,0,,,,,,stimuli/images/PICTURE_677.png,PHOTO,5f04cb284a1b587a33e1978d,19/10/1987,2020-08-27_10h40.39.439,proactive3.2,2020.1.2,Win32,60,5f47c0b9b035471e11593a5c,5f47c51d74dfe80d67019a49,3,,,,,,map,,,,,,,,,,,2,2,0,36,36,14,1,,,,,,,,,,,,,,,,,,,,,,,,,,,,,,,,,,,,,,,,,,,,,,,,,,,,,,,,,,,,,,,,,,,,,,
,,?,0.001475,0,,,,,,stimuli/images/PICTURE_356.png,CANDY,5f04cb284a1b587a33e1978d,19/10/1987,2020-08-27_10h40.39.439,proactive3.2,2020.1.2,Win32,60,5f47c0b9b035471e11593a5c,5f47c51d74dfe80d67019a49,3,,,,,,pawn,,,,,,,,,,,5,2,0,37,37,46,1,,,,,,,,,,,,,,,,,,,,,,,,,,,,,,,,,,,,,,,,,,,,,,,,,,,,,,,,,,,,,,,,,,,,,,
,,PRINCE,2.272835,1,,,,,,stimuli/images/PICTURE_285.png,PRINCE,5f04cb284a1b587a33e1978d,19/10/1987,2020-08-27_10h40.39.439,proactive3.2,2020.1.2,Win32,60,5f47c0b9b035471e11593a5c,5f47c51d74dfe80d67019a49,3,,,,,,carrot,,,,,,,,,,,3,2,0,38,38,20,1,,,,,,,,,,,,,,,,,,,,,,,,,,,,,,,,,,,,,,,,,,,,,,,,,,,,,,,,,,,,,,,,,,,,,,
,,?,0.00076,0,,,,,,stimuli/images/PICTURE_147.png,LEADER,5f04cb284a1b587a33e1978d,19/10/1987,2020-08-27_10h40.39.439,proactive3.2,2020.1.2,Win32,60,5f47c0b9b035471e11593a5c,5f47c51d74dfe80d67019a49,3,,,,,,hanger,,,,,,,,,,,4,2,0,39,39,33,1,,,,,,,,,,,,,,,,,,,,,,,,,,,,,,,,,,,,,,,,,,,,,,,,,,,,,,,,,,,,,,,,,,,,,,
,,?,0.000475,0,,,,,,stimuli/images/PICTURE_491.png,SERIES,5f04cb284a1b587a33e1978d,19/10/1987,2020-08-27_10h40.39.439,proactive3.2,2020.1.2,Win32,60,5f47c0b9b035471e11593a5c,5f47c51d74dfe80d67019a49,3,,,,,,rug,,,,,,,,,,,4,2,0,40,40,39,1,,,,,,,,,,,,,,,,,,,,,,,,,,,,,,,,,,,,,,,,,,,,,,,,,,,,,,,,,,,,,,,,,,,,,,
,,RIVER,1.4983,1,,,,,,stimuli/images/PICTURE_18.png,RIVER,5f04cb284a1b587a33e1978d,19/10/1987,2020-08-27_10h40.39.439,proactive3.2,2020.1.2,Win32,60,5f47c0b9b035471e11593a5c,5f47c51d74dfe80d67019a49,3,,,,,,planet,,,,,,,,,,,3,2,0,41,41,22,1,,,,,,,,,,,,,,,,,,,,,,,,,,,,,,,,,,,,,,,,,,,,,,,,,,,,,,,,,,,,,,,,,,,,,,
,,?,0.001415,0,,,,,,stimuli/images/PICTURE_405.png,JUNGLE,5f04cb284a1b587a33e1978d,19/10/1987,2020-08-27_10h40.39.439,proactive3.2,2020.1.2,Win32,60,5f47c0b9b035471e11593a5c,5f47c51d74dfe80d67019a49,3,,,,,,anchor,,,,,,,,,,,6,2,0,42,42,58,1,,,,,,,,,,,,,,,,,,,,,,,,,,,,,,,,,,,,,,,,,,,,,,,,,,,,,,,,,,,,,,,,,,,,,,
,,?,0.001005,0,,,,,,stimuli/images/PICTURE_655.png,SALE,5f04cb284a1b587a33e1978d,19/10/1987,2020-08-27_10h40.39.439,proactive3.2,2020.1.2,Win32,60,5f47c0b9b035471e11593a5c,5f47c51d74dfe80d67019a49,3,,,,,,megaphone,,,,,,,,,,,6,2,0,43,43,57,1,,,,,,,,,,,,,,,,,,,,,,,,,,,,,,,,,,,,,,,,,,,,,,,,,,,,,,,,,,,,,,,,,,,,,,
,,?,0.00102,0,,,,,,stimuli/images/PICTURE_57.png,CANDY,5f04cb284a1b587a33e1978d,19/10/1987,2020-08-27_10h40.39.439,proactive3.2,2020.1.2,Win32,60,5f47c0b9b035471e11593a5c,5f47c51d74dfe80d67019a49,3,,,,,,stamp,,,,,,,,,,,6,2,0,44,44,52,1,,,,,,,,,,,,,,,,,,,,,,,,,,,,,,,,,,,,,,,,,,,,,,,,,,,,,,,,,,,,,,,,,,,,,,
,,?,0.000995,0,,,,,,stimuli/images/PICTURE_123.png,SALE,5f04cb284a1b587a33e1978d,19/10/1987,2020-08-27_10h40.39.439,proactive3.2,2020.1.2,Win32,60,5f47c0b9b035471e11593a5c,5f47c51d74dfe80d67019a49,3,,,,,,dart,,,,,,,,,,,1,2,0,45,45,8,1,,,,,,,,,,,,,,,,,,,,,,,,,,,,,,,,,,,,,,,,,,,,,,,,,,,,,,,,,,,,,,,,,,,,,,
,,?,0.00102,0,,,,,,stimuli/images/PICTURE_160.png,HOTEL,5f04cb284a1b587a33e1978d,19/10/1987,2020-08-27_10h40.39.439,proactive3.2,2020.1.2,Win32,60,5f47c0b9b035471e11593a5c,5f47c51d74dfe80d67019a49,3,,,,,,wheelbarrow,,,,,,,,,,,2,2,0,46,46,16,1,,,,,,,,,,,,,,,,,,,,,,,,,,,,,,,,,,,,,,,,,,,,,,,,,,,,,,,,,,,,,,,,,,,,,,
,,?,0.001005,0,,,,,,stimuli/images/PICTURE_688.png,CLOCK,5f04cb284a1b587a33e1978d,19/10/1987,2020-08-27_10h40.39.439,proactive3.2,2020.1.2,Win32,60,5f47c0b9b035471e11593a5c,5f47c51d74dfe80d67019a49,3,,,,,,runner,,,,,,,,,,,5,2,0,47,47,42,1,,,,,,,,,,,,,,,,,,,,,,,,,,,,,,,,,,,,,,,,,,,,,,,,,,,,,,,,,,,,,,,,,,,,,,
,,?,0.00106,0,,,,,,stimuli/images/PICTURE_348.png,DUDE,5f04cb284a1b587a33e1978d,19/10/1987,2020-08-27_10h40.39.439,proactive3.2,2020.1.2,Win32,60,5f47c0b9b035471e11593a5c,5f47c51d74dfe80d67019a49,3,,,,,,pepper,,,,,,,,,,,6,2,0,48,48,59,1,,,,,,,,,,,,,,,,,,,,,,,,,,,,,,,,,,,,,,,,,,,,,,,,,,,,,,,,,,,,,,,,,,,,,,
,,?,0.001115,0,,,,,,stimuli/images/PICTURE_654.png,COPS,5f04cb284a1b587a33e1978d,19/10/1987,2020-08-27_10h40.39.439,proactive3.2,2020.1.2,Win32,60,5f47c0b9b035471e11593a5c,5f47c51d74dfe80d67019a49,3,,,,,,pencil,,,,,,,,,,,2,2,0,49,49,10,1,,,,,,,,,,,,,,,,,,,,,,,,,,,,,,,,,,,,,,,,,,,,,,,,,,,,,,,,,,,,,,,,,,,,,,
,,?,0.000985,0,,,,,,stimuli/images/PICTURE_453.png,FAMILY,5f04cb284a1b587a33e1978d,19/10/1987,2020-08-27_10h40.39.439,proactive3.2,2020.1.2,Win32,60,5f47c0b9b035471e11593a5c,5f47c51d74dfe80d67019a49,3,,,,,,scissors,,,,,,,,,,,5,2,0,50,50,48,1,,,,,,,,,,,,,,,,,,,,,,,,,,,,,,,,,,,,,,,,,,,,,,,,,,,,,,,,,,,,,,,,,,,,,,
,,?,0.00123,0,,,,,,stimuli/images/PICTURE_509.png,BATH,5f04cb284a1b587a33e1978d,19/10/1987,2020-08-27_10h40.39.439,proactive3.2,2020.1.2,Win32,60,5f47c0b9b035471e11593a5c,5f47c51d74dfe80d67019a49,3,,,,,,telephone,,,,,,,,,,,2,2,0,51,51,15,1,,,,,,,,,,,,,,,,,,,,,,,,,,,,,,,,,,,,,,,,,,,,,,,,,,,,,,,,,,,,,,,,,,,,,,
,,?,0.001015,0,,,,,,stimuli/images/PICTURE_57.png,CASINO,5f04cb284a1b587a33e1978d,19/10/1987,2020-08-27_10h40.39.439,proactive3.2,2020.1.2,Win32,60,5f47c0b9b035471e11593a5c,5f47c51d74dfe80d67019a49,3,,,,,,stamp,,,,,,,,,,,2,2,0,52,52,12,1,,,,,,,,,,,,,,,,,,,,,,,,,,,,,,,,,,,,,,,,,,,,,,,,,,,,,,,,,,,,,,,,,,,,,,
,,?,0.002265,0,,,,,,stimuli/images/PICTURE_750.png,POLICY,5f04cb284a1b587a33e1978d,19/10/1987,2020-08-27_10h40.39.439,proactive3.2,2020.1.2,Win32,60,5f47c0b9b035471e11593a5c,5f47c51d74dfe80d67019a49,3,,,,,,kettle,,,,,,,,,,,5,2,0,53,53,44,1,,,,,,,,,,,,,,,,,,,,,,,,,,,,,,,,,,,,,,,,,,,,,,,,,,,,,,,,,,,,,,,,,,,,,,
,,SPIRIT,1.81484,1,,,,,,stimuli/images/PICTURE_208.png,SPIRIT,5f04cb284a1b587a33e1978d,19/10/1987,2020-08-27_10h40.39.439,proactive3.2,2020.1.2,Win32,60,5f47c0b9b035471e11593a5c,5f47c51d74dfe80d67019a49,3,,,,,,microphone,,,,,,,,,,,3,2,0,54,54,28,1,,,,,,,,,,,,,,,,,,,,,,,,,,,,,,,,,,,,,,,,,,,,,,,,,,,,,,,,,,,,,,,,,,,,,,
,,?,0.001495,0,,,,,,stimuli/images/PICTURE_452.png,COPS,5f04cb284a1b587a33e1978d,19/10/1987,2020-08-27_10h40.39.439,proactive3.2,2020.1.2,Win32,60,5f47c0b9b035471e11593a5c,5f47c51d74dfe80d67019a49,3,,,,,,watch,,,,,,,,,,,1,2,0,55,55,0,1,,,,,,,,,,,,,,,,,,,,,,,,,,,,,,,,,,,,,,,,,,,,,,,,,,,,,,,,,,,,,,,,,,,,,,
,,?,0.00106,0,,,,,,stimuli/images/PICTURE_348.png,TOILET,5f04cb284a1b587a33e1978d,19/10/1987,2020-08-27_10h40.39.439,proactive3.2,2020.1.2,Win32,60,5f47c0b9b035471e11593a5c,5f47c51d74dfe80d67019a49,3,,,,,,pepper,,,,,,,,,,,1,2,0,56,56,4,1,,,,,,,,,,,,,,,,,,,,,,,,,,,,,,,,,,,,,,,,,,,,,,,,,,,,,,,,,,,,,,,,,,,,,,
,,?,0.00088,0,,,,,,stimuli/images/PICTURE_215.png,FOOD,5f04cb284a1b587a33e1978d,19/10/1987,2020-08-27_10h40.39.439,proactive3.2,2020.1.2,Win32,60,5f47c0b9b035471e11593a5c,5f47c51d74dfe80d67019a49,3,,,,,,boot,,,,,,,,,,,1,2,0,57,57,5,1,,,,,,,,,,,,,,,,,,,,,,,,,,,,,,,,,,,,,,,,,,,,,,,,,,,,,,,,,,,,,,,,,,,,,,
,,?,0.00095,0,,,,,,stimuli/images/PICTURE_327.png,LEADER,5f04cb284a1b587a33e1978d,19/10/1987,2020-08-27_10h40.39.439,proactive3.2,2020.1.2,Win32,60,5f47c0b9b035471e11593a5c,5f47c51d74dfe80d67019a49,3,,,,,,helmet,,,,,,,,,,,2,2,0,58,58,17,1,,,,,,,,,,,,,,,,,,,,,,,,,,,,,,,,,,,,,,,,,,,,,,,,,,,,,,,,,,,,,,,,,,,,,,
,,?,0.000845,0,,,,,,stimuli/images/PICTURE_509.png,MILLER,5f04cb284a1b587a33e1978d,19/10/1987,2020-08-27_10h40.39.439,proactive3.2,2020.1.2,Win32,60,5f47c0b9b035471e11593a5c,5f47c51d74dfe80d67019a49,3,,,,,,telephone,,,,,,,,,,,5,2,0,59,59,49,1,,,,,,,,,,,,,,,,,,,,,,,,,,,,,,,,,,,,,,,,,,,,,,,,,,,,,,,,,,,,,,,,,,,,,,
,,,,,,,,,,,,5f04cb284a1b587a33e1978d,19/10/1987,2020-08-27_10h40.39.439,proactive3.2,2020.1.2,Win32,60,5f47c0b9b035471e11593a5c,5f47c51d74dfe80d67019a49,3,,,,,,,,,,,,,,,,,,,,,,,,0,1,1,2,1,stimuli/learn-block3.csv,,,,,,,,,,,,,,,,,,,,,,,,,,,,,,,,,,,,,,,,,,,,,,,,,,,,,,,,,,,,,,,,
,,,,,,,,,,stimuli/images/PICTURE_85.png,THING,5f04cb284a1b587a33e1978d,19/10/1987,2020-08-27_10h40.39.439,proactive3.2,2020.1.2,Win32,60,5f47c0b9b035471e11593a5c,5f47c51d74dfe80d67019a49,3,,,,,,diamond,,,,,,0,0,0,15,1,2,0,,,,,,,,,,,,,,,,,,,,,,,,,,,,,,,,,,,,,,,,,,,,,,,,,,,,,,,,,,,,,,,,,,,,,,,,,,,
,,,,,,,,,,stimuli/images/PICTURE_233.png,IDEAS,5f04cb284a1b587a33e1978d,19/10/1987,2020-08-27_10h40.39.439,proactive3.2,2020.1.2,Win32,60,5f47c0b9b035471e11593a5c,5f47c51d74dfe80d67019a49,3,,,,,,salt,,,,,,0,1,1,28,1,3,0,,,,,,,,,,,,,,,,,,,,,,,,,,,,,,,,,,,,,,,,,,,,,,,,,,,,,,,,,,,,,,,,,,,,,,,,,,,
,,,,,,,,,,stimuli/images/PICTURE_348.png,SPEECH,5f04cb284a1b587a33e1978d,19/10/1987,2020-08-27_10h40.39.439,proactive3.2,2020.1.2,Win32,60,5f47c0b9b035471e11593a5c,5f47c51d74dfe80d67019a49,3,,,,,,pepper,,,,,,0,2,2,20,1,3,0,,,,,,,,,,,,,,,,,,,,,,,,,,,,,,,,,,,,,,,,,,,,,,,,,,,,,,,,,,,,,,,,,,,,,,,,,,,
,,,,,,,,,,stimuli/images/PICTURE_491.png,WRITER,5f04cb284a1b587a33e1978d,19/10/1987,2020-08-27_10h40.39.439,proactive3.2,2020.1.2,Win32,60,5f47c0b9b035471e11593a5c,5f47c51d74dfe80d67019a49,3,,,,,,rug,,,,,,0,3,3,57,1,6,0,,,,,,,,,,,,,,,,,,,,,,,,,,,,,,,,,,,,,,,,,,,,,,,,,,,,,,,,,,,,,,,,,,,,,,,,,,,
,,,,,,,,,,stimuli/images/PICTURE_314.png,GODS,5f04cb284a1b587a33e1978d,19/10/1987,2020-08-27_10h40.39.439,proactive3.2,2020.1.2,Win32,60,5f47c0b9b035471e11593a5c,5f47c51d74dfe80d67019a49,3,,,,,,perfume,,,,,,0,4,4,11,1,2,0,,,,,,,,,,,,,,,,,,,,,,,,,,,,,,,,,,,,,,,,,,,,,,,,,,,,,,,,,,,,,,,,,,,,,,,,,,,
,,,,,,,,,,stimuli/images/PICTURE_453.png,PLENTY,5f04cb284a1b587a33e1978d,19/10/1987,2020-08-27_10h40.39.439,proactive3.2,2020.1.2,Win32,60,5f47c0b9b035471e11593a5c,5f47c51d74dfe80d67019a49,3,,,,,,scissors,,,,,,0,5,5,56,1,6,0,,,,,,,,,,,,,,,,,,,,,,,,,,,,,,,,,,,,,,,,,,,,,,,,,,,,,,,,,,,,,,,,,,,,,,,,,,,
,,,,,,,,,,stimuli/images/PICTURE_248.png,DOZEN,5f04cb284a1b587a33e1978d,19/10/1987,2020-08-27_10h40.39.439,proactive3.2,2020.1.2,Win32,60,5f47c0b9b035471e11593a5c,5f47c51d74dfe80d67019a49,3,,,,,,cart,,,,,,0,6,6,39,1,4,0,,,,,,,,,,,,,,,,,,,,,,,,,,,,,,,,,,,,,,,,,,,,,,,,,,,,,,,,,,,,,,,,,,,,,,,,,,,
,,,,,,,,,,stimuli/images/PICTURE_449.png,THING,5f04cb284a1b587a33e1978d,19/10/1987,2020-08-27_10h40.39.439,proactive3.2,2020.1.2,Win32,60,5f47c0b9b035471e11593a5c,5f47c51d74dfe80d67019a49,3,,,,,,bench,,,,,,0,7,7,59,1,6,0,,,,,,,,,,,,,,,,,,,,,,,,,,,,,,,,,,,,,,,,,,,,,,,,,,,,,,,,,,,,,,,,,,,,,,,,,,,
,,,,,,,,,,stimuli/images/PICTURE_356.png,DANGER,5f04cb284a1b587a33e1978d,19/10/1987,2020-08-27_10h40.39.439,proactive3.2,2020.1.2,Win32,60,5f47c0b9b035471e11593a5c,5f47c51d74dfe80d67019a49,3,,,,,,pawn,,,,,,0,8,8,55,1,6,0,,,,,,,,,,,,,,,,,,,,,,,,,,,,,,,,,,,,,,,,,,,,,,,,,,,,,,,,,,,,,,,,,,,,,,,,,,,
,,,,,,,,,,stimuli/images/PICTURE_233.png,WOMEN,5f04cb284a1b587a33e1978d,19/10/1987,2020-08-27_10h40.39.439,proactive3.2,2020.1.2,Win32,60,5f47c0b9b035471e11593a5c,5f47c51d74dfe80d67019a49,3,,,,,,salt,,,,,,0,9,9,38,1,4,0,,,,,,,,,,,,,,,,,,,,,,,,,,,,,,,,,,,,,,,,,,,,,,,,,,,,,,,,,,,,,,,,,,,,,,,,,,,
,,,,,,,,,,stimuli/images/PICTURE_308.png,KIND,5f04cb284a1b587a33e1978d,19/10/1987,2020-08-27_10h40.39.439,proactive3.2,2020.1.2,Win32,60,5f47c0b9b035471e11593a5c,5f47c51d74dfe80d67019a49,3,,,,,,dice,,,,,,0,10,10,54,1,6,0,,,,,,,,,,,,,,,,,,,,,,,,,,,,,,,,,,,,,,,,,,,,,,,,,,,,,,,,,,,,,,,,,,,,,,,,,,,
,,,,,,,,,,stimuli/images/PICTURE_744.png,SAKE,5f04cb284a1b587a33e1978d,19/10/1987,2020-08-27_10h40.39.439,proactive3.2,2020.1.2,Win32,60,5f47c0b9b035471e11593a5c,5f47c51d74dfe80d67019a49,3,,,,,,ring,,,,,,0,11,11,17,1,2,0,,,,,,,,,,,,,,,,,,,,,,,,,,,,,,,,,,,,,,,,,,,,,,,,,,,,,,,,,,,,,,,,,,,,,,,,,,,
,,,,,,,,,,stimuli/images/PICTURE_467.png,DEMON,5f04cb284a1b587a33e1978d,19/10/1987,2020-08-27_10h40.39.439,proactive3.2,2020.1.2,Win32,60,5f47c0b9b035471e11593a5c,5f47c51d74dfe80d67019a49,3,,,,,,peg,,,,,,0,12,12,23,1,3,0,,,,,,,,,,,,,,,,,,,,,,,,,,,,,,,,,,,,,,,,,,,,,,,,,,,,,,,,,,,,,,,,,,,,,,,,,,,
,,,,,,,,,,stimuli/images/PICTURE_203.png,ARTIST,5f04cb284a1b587a33e1978d,19/10/1987,2020-08-27_10h40.39.439,proactive3.2,2020.1.2,Win32,60,5f47c0b9b035471e11593a5c,5f47c51d74dfe80d67019a49,3,,,,,,cap,,,,,,0,13,13,26,1,3,0,,,,,,,,,,,,,,,,,,,,,,,,,,,,,,,,,,,,,,,,,,,,,,,,,,,,,,,,,,,,,,,,,,,,,,,,,,,
,,,,,,,,,,stimuli/images/PICTURE_177.png,CARS,5f04cb284a1b587a33e1978d,19/10/1987,2020-08-27_10h40.39.439,proactive3.2,2020.1.2,Win32,60,5f47c0b9b035471e11593a5c,5f47c51d74dfe80d67019a49,3,,,,,,mushroom,,,,,,0,14,14,35,1,4,0,,,,,,,,,,,,,,,,,,,,,,,,,,,,,,,,,,,,,,,,,,,,,,,,,,,,,,,,,,,,,,,,,,,,,,,,,,,
,,,,,,,,,,stimuli/images/PICTURE_488.png,STYLE,5f04cb284a1b587a33e1978d,19/10/1987,2020-08-27_10h40.39.439,proactive3.2,2020.1.2,Win32,60,5f47c0b9b035471e11593a5c,5f47c51d74dfe80d67019a49,3,,,,,,sun,,,,,,0,15,15,33,1,4,0,,,,,,,,,,,,,,,,,,,,,,,,,,,,,,,,,,,,,,,,,,,,,,,,,,,,,,,,,,,,,,,,,,,,,,,,,,,
,,,,,,,,,,stimuli/images/PICTURE_302.png,FAMILY,5f04cb284a1b587a33e1978d,19/10/1987,2020-08-27_10h40.39.439,proactive3.2,2020.1.2,Win32,60,5f47c0b9b035471e11593a5c,5f47c51d74dfe80d67019a49,3,,,,,,taxi,,,,,,0,16,16,18,1,2,0,,,,,,,,,,,,,,,,,,,,,,,,,,,,,,,,,,,,,,,,,,,,,,,,,,,,,,,,,,,,,,,,,,,,,,,,,,,
,,,,,,,,,,stimuli/images/PICTURE_215.png,PLENTY,5f04cb284a1b587a33e1978d,19/10/1987,2020-08-27_10h40.39.439,proactive3.2,2020.1.2,Win32,60,5f47c0b9b035471e11593a5c,5f47c51d74dfe80d67019a49,3,,,,,,boot,,,,,,0,17,17,37,1,4,0,,,,,,,,,,,,,,,,,,,,,,,,,,,,,,,,,,,,,,,,,,,,,,,,,,,,,,,,,,,,,,,,,,,,,,,,,,,
,,,,,,,,,,stimuli/images/PICTURE_509.png,PHOTO,5f04cb284a1b587a33e1978d,19/10/1987,2020-08-27_10h40.39.439,proactive3.2,2020.1.2,Win32,60,5f47c0b9b035471e11593a5c,5f47c51d74dfe80d67019a49,3,,,,,,telephone,,,,,,0,18,18,21,1,3,0,,,,,,,,,,,,,,,,,,,,,,,,,,,,,,,,,,,,,,,,,,,,,,,,,,,,,,,,,,,,,,,,,,,,,,,,,,,
,,,,,,,,,,stimuli/images/PICTURE_311.png,BEAUTY,5f04cb284a1b587a33e1978d,19/10/1987,2020-08-27_10h40.39.439,proactive3.2,2020.1.2,Win32,60,5f47c0b9b035471e11593a5c,5f47c51d74dfe80d67019a49,3,,,,,,razor,,,,,,0,19,19,13,1,2,0,,,,,,,,,,,,,,,,,,,,,,,,,,,,,,,,,,,,,,,,,,,,,,,,,,,,,,,,,,,,,,,,,,,,,,,,,,,
,,,,,,,,,,stimuli/images/PICTURE_95.png,STYLE,5f04cb284a1b587a33e1978d,19/10/1987,2020-08-27_10h40.39.439,proactive3.2,2020.1.2,Win32,60,5f47c0b9b035471e11593a5c,5f47c51d74dfe80d67019a49,3,,,,,,suitcase,,,,,,0,20,20,25,1,3,0,,,,,,,,,,,,,,,,,,,,,,,,,,,,,,,,,,,,,,,,,,,,,,,,,,,,,,,,,,,,,,,,,,,,,,,,,,,
,,,,,,,,,,stimuli/images/PICTURE_504.png,BODY,5f04cb284a1b587a33e1978d,19/10/1987,2020-08-27_10h40.39.439,proactive3.2,2020.1.2,Win32,60,5f47c0b9b035471e11593a5c,5f47c51d74dfe80d67019a49,3,,,,,,wheel,,,,,,0,21,21,8,1,1,0,,,,,,,,,,,,,,,,,,,,,,,,,,,,,,,,,,,,,,,,,,,,,,,,,,,,,,,,,,,,,,,,,,,,,,,,,,,
,,,,,,,,,,stimuli/images/PICTURE_677.png,MILE,5f04cb284a1b587a33e1978d,19/10/1987,2020-08-27_10h40.39.439,proactive3.2,2020.1.2,Win32,60,5f47c0b9b035471e11593a5c,5f47c51d74dfe80d67019a49,3,,,,,,map,,,,,,0,22,22,30,1,4,0,,,,,,,,,,,,,,,,,,,,,,,,,,,,,,,,,,,,,,,,,,,,,,,,,,,,,,,,,,,,,,,,,,,,,,,,,,,
,,,,,,,,,,stimuli/images/PICTURE_123.png,ADVICE,5f04cb284a1b587a33e1978d,19/10/1987,2020-08-27_10h40.39.439,proactive3.2,2020.1.2,Win32,60,5f47c0b9b035471e11593a5c,5f47c51d74dfe80d67019a49,3,,,,,,dart,,,,,,0,23,23,50,1,6,0,,,,,,,,,,,,,,,,,,,,,,,,,,,,,,,,,,,,,,,,,,,,,,,,,,,,,,,,,,,,,,,,,,,,,,,,,,,
,,,,,,,,,,stimuli/images/PICTURE_32.png,JUNGLE,5f04cb284a1b587a33e1978d,19/10/1987,2020-08-27_10h40.39.439,proactive3.2,2020.1.2,Win32,60,5f47c0b9b035471e11593a5c,5f47c51d74dfe80d67019a49,3,,,,,,crown,,,,,,0,24,24,45,1,5,0,,,,,,,,,,,,,,,,,,,,,,,,,,,,,,,,,,,,,,,,,,,,,,,,,,,,,,,,,,,,,,,,,,,,,,,,,,,
,,,,,,,,,,stimuli/images/PICTURE_708.png,PENNY,5f04cb284a1b587a33e1978d,19/10/1987,2020-08-27_10h40.39.439,proactive3.2,2020.1.2,Win32,60,5f47c0b9b035471e11593a5c,5f47c51d74dfe80d67019a49,3,,,,,,monkey,,,,,,0,25,25,31,1,4,0,,,,,,,,,,,,,,,,,,,,,,,,,,,,,,,,,,,,,,,,,,,,,,,,,,,,,,,,,,,,,,,,,,,,,,,,,,,
,,,,,,,,,,stimuli/images/PICTURE_314.png,SAKE,5f04cb284a1b587a33e1978d,19/10/1987,2020-08-27_10h40.39.439,proactive3.2,2020.1.2,Win32,60,5f47c0b9b035471e11593a5c,5f47c51d74dfe80d67019a49,3,,,,,,perfume,,,,,,0,26,26,7,1,1,0,,,,,,,,,,,,,,,,,,,,,,,,,,,,,,,,,,,,,,,,,,,,,,,,,,,,,,,,,,,,,,,,,,,,,,,,,,,
,,,,,,,,,,stimuli/images/PICTURE_744.png,SYSTEM,5f04cb284a1b587a33e1978d,19/10/1987,2020-08-27_10h40.39.439,proactive3.2,2020.1.2,Win32,60,5f47c0b9b035471e11593a5c,5f47c51d74dfe80d67019a49,3,,,,,,ring,,,,,,0,27,27,43,1,5,0,,,,,,,,,,,,,,,,,,,,,,,,,,,,,,,,,,,,,,,,,,,,,,,,,,,,,,,,,,,,,,,,,,,,,,,,,,,
,,,,,,,,,,stimuli/images/PICTURE_160.png,LEADER,5f04cb284a1b587a33e1978d,19/10/1987,2020-08-27_10h40.39.439,proactive3.2,2020.1.2,Win32,60,5f47c0b9b035471e11593a5c,5f47c51d74dfe80d67019a49,3,,,,,,wheelbarrow,,,,,,0,28,28,3,1,1,0,,,,,,,,,,,,,,,,,,,,,,,,,,,,,,,,,,,,,,,,,,,,,,,,,,,,,,,,,,,,,,,,,,,,,,,,,,,
,,,,,,,,,,stimuli/images/PICTURE_380.png,PHOTO,5f04cb284a1b587a33e1978d,19/10/1987,2020-08-27_10h40.39.439,proactive3.2,2020.1.2,Win32,60,5f47c0b9b035471e11593a5c,5f47c51d74dfe80d67019a49,3,,,,,,gorilla,,,,,,0,29,29,52,1,6,0,,,,,,,,,,,,,,,,,,,,,,,,,,,,,,,,,,,,,,,,,,,,,,,,,,,,,,,,,,,,,,,,,,,,,,,,,,,
,,,,,,,,,,stimuli/images/PICTURE_285.png,ADVICE,5f04cb284a1b587a33e1978d,19/10/1987,2020-08-27_10h40.39.439,proactive3.2,2020.1.2,Win32,60,5f47c0b9b035471e11593a5c,5f47c51d74dfe80d67019a49,3,,,,,,carrot,,,,,,0,30,30,12,1,2,0,,,,,,,,,,,,,,,,,,,,,,,,,,,,,,,,,,,,,,,,,,,,,,,,,,,,,,,,,,,,,,,,,,,,,,,,,,,
,,,,,,,,,,stimuli/images/PICTURE_255.png,AREA,5f04cb284a1b587a33e1978d,19/10/1987,2020-08-27_10h40.39.439,proactive3.2,2020.1.2,Win32,60,5f47c0b9b035471e11593a5c,5f47c51d74dfe80d67019a49,3,,,,,,shovel,,,,,,0,31,31,22,1,3,0,,,,,,,,,,,,,,,,,,,,,,,,,,,,,,,,,,,,,,,,,,,,,,,,,,,,,,,,,,,,,,,,,,,,,,,,,,,
,,,,,,,,,,stimuli/images/PICTURE_708.png,YARD,5f04cb284a1b587a33e1978d,19/10/1987,2020-08-27_10h40.39.439,proactive3.2,2020.1.2,Win32,60,5f47c0b9b035471e11593a5c,5f47c51d74dfe80d67019a49,3,,,,,,monkey,,,,,,0,32,32,29,1,3,0,,,,,,,,,,,,,,,,,,,,,,,,,,,,,,,,,,,,,,,,,,,,,,,,,,,,,,,,,,,,,,,,,,,,,,,,,,,
,,,,,,,,,,stimuli/images/PICTURE_654.png,VALLEY,5f04cb284a1b587a33e1978d,19/10/1987,2020-08-27_10h40.39.439,proactive3.2,2020.1.2,Win32,60,5f47c0b9b035471e11593a5c,5f47c51d74dfe80d67019a49,3,,,,,,pencil,,,,,,0,33,33,1,1,1,0,,,,,,,,,,,,,,,,,,,,,,,,,,,,,,,,,,,,,,,,,,,,,,,,,,,,,,,,,,,,,,,,,,,,,,,,,,,
,,,,,,,,,,stimuli/images/PICTURE_123.png,ADVICE,5f04cb284a1b587a33e1978d,19/10/1987,2020-08-27_10h40.39.439,proactive3.2,2020.1.2,Win32,60,5f47c0b9b035471e11593a5c,5f47c51d74dfe80d67019a49,3,,,,,,dart,,,,,,0,34,34,40,1,5,0,,,,,,,,,,,,,,,,,,,,,,,,,,,,,,,,,,,,,,,,,,,,,,,,,,,,,,,,,,,,,,,,,,,,,,,,,,,
,,,,,,,,,,stimuli/images/PICTURE_308.png,ESTATE,5f04cb284a1b587a33e1978d,19/10/1987,2020-08-27_10h40.39.439,proactive3.2,2020.1.2,Win32,60,5f47c0b9b035471e11593a5c,5f47c51d74dfe80d67019a49,3,,,,,,dice,,,,,,0,35,35,46,1,5,0,,,,,,,,,,,,,,,,,,,,,,,,,,,,,,,,,,,,,,,,,,,,,,,,,,,,,,,,,,,,,,,,,,,,,,,,,,,
,,,,,,,,,,stimuli/images/PICTURE_469.png,LETTER,5f04cb284a1b587a33e1978d,19/10/1987,2020-08-27_10h40.39.439,proactive3.2,2020.1.2,Win32,60,5f47c0b9b035471e11593a5c,5f47c51d74dfe80d67019a49,3,,,,,,stool,,,,,,0,36,36,42,1,5,0,,,,,,,,,,,,,,,,,,,,,,,,,,,,,,,,,,,,,,,,,,,,,,,,,,,,,,,,,,,,,,,,,,,,,,,,,,,
,,,,,,,,,,stimuli/images/PICTURE_208.png,THING,5f04cb284a1b587a33e1978d,19/10/1987,2020-08-27_10h40.39.439,proactive3.2,2020.1.2,Win32,60,5f47c0b9b035471e11593a5c,5f47c51d74dfe80d67019a49,3,,,,,,microphone,,,,,,0,37,37,47,1,5,0,,,,,,,,,,,,,,,,,,,,,,,,,,,,,,,,,,,,,,,,,,,,,,,,,,,,,,,,,,,,,,,,,,,,,,,,,,,
,,,,,,,,,,stimuli/images/PICTURE_453.png,DUDE,5f04cb284a1b587a33e1978d,19/10/1987,2020-08-27_10h40.39.439,proactive3.2,2020.1.2,Win32,60,5f47c0b9b035471e11593a5c,5f47c51d74dfe80d67019a49,3,,,,,,scissors,,,,,,0,38,38,27,1,3,0,,,,,,,,,,,,,,,,,,,,,,,,,,,,,,,,,,,,,,,,,,,,,,,,,,,,,,,,,,,,,,,,,,,,,,,,,,,
,,,,,,,,,,stimuli/images/PICTURE_675.png,WEAPON,5f04cb284a1b587a33e1978d,19/10/1987,2020-08-27_10h40.39.439,proactive3.2,2020.1.2,Win32,60,5f47c0b9b035471e11593a5c,5f47c51d74dfe80d67019a49,3,,,,,,windmill,,,,,,0,39,39,32,1,4,0,,,,,,,,,,,,,,,,,,,,,,,,,,,,,,,,,,,,,,,,,,,,,,,,,,,,,,,,,,,,,,,,,,,,,,,,,,,
,,,,,,,,,,stimuli/images/PICTURE_487.png,FLIGHT,5f04cb284a1b587a33e1978d,19/10/1987,2020-08-27_10h40.39.439,proactive3.2,2020.1.2,Win32,60,5f47c0b9b035471e11593a5c,5f47c51d74dfe80d67019a49,3,,,,,,basket,,,,,,0,40,40,9,1,1,0,,,,,,,,,,,,,,,,,,,,,,,,,,,,,,,,,,,,,,,,,,,,,,,,,,,,,,,,,,,,,,,,,,,,,,,,,,,
,,,,,,,,,,stimuli/images/PICTURE_469.png,ARTIST,5f04cb284a1b587a33e1978d,19/10/1987,2020-08-27_10h40.39.439,proactive3.2,2020.1.2,Win32,60,5f47c0b9b035471e11593a5c,5f47c51d74dfe80d67019a49,3,,,,,,stool,,,,,,0,41,41,6,1,1,0,,,,,,,,,,,,,,,,,,,,,,,,,,,,,,,,,,,,,,,,,,,,,,,,,,,,,,,,,,,,,,,,,,,,,,,,,,,
,,,,,,,,,,stimuli/images/PICTURE_151.png,GIRL,5f04cb284a1b587a33e1978d,19/10/1987,2020-08-27_10h40.39.439,proactive3.2,2020.1.2,Win32,60,5f47c0b9b035471e11593a5c,5f47c51d74dfe80d67019a49,3,,,,,,tray,,,,,,0,42,42,19,1,2,0,,,,,,,,,,,,,,,,,,,,,,,,,,,,,,,,,,,,,,,,,,,,,,,,,,,,,,,,,,,,,,,,,,,,,,,,,,,
,,,,,,,,,,stimuli/images/PICTURE_208.png,LOTS,5f04cb284a1b587a33e1978d,19/10/1987,2020-08-27_10h40.39.439,proactive3.2,2020.1.2,Win32,60,5f47c0b9b035471e11593a5c,5f47c51d74dfe80d67019a49,3,,,,,,microphone,,,,,,0,43,43,10,1,2,0,,,,,,,,,,,,,,,,,,,,,,,,,,,,,,,,,,,,,,,,,,,,,,,,,,,,,,,,,,,,,,,,,,,,,,,,,,,
,,,,,,,,,,stimuli/images/PICTURE_380.png,DEATH,5f04cb284a1b587a33e1978d,19/10/1987,2020-08-27_10h40.39.439,proactive3.2,2020.1.2,Win32,60,5f47c0b9b035471e11593a5c,5f47c51d74dfe80d67019a49,3,,,,,,gorilla,,,,,,0,44,44,49,1,5,0,,,,,,,,,,,,,,,,,,,,,,,,,,,,,,,,,,,,,,,,,,,,,,,,,,,,,,,,,,,,,,,,,,,,,,,,,,,
,,,,,,,,,,stimuli/images/PICTURE_688.png,WOMEN,5f04cb284a1b587a33e1978d,19/10/1987,2020-08-27_10h40.39.439,proactive3.2,2020.1.2,Win32,60,5f47c0b9b035471e11593a5c,5f47c51d74dfe80d67019a49,3,,,,,,runner,,,,,,0,45,45,14,1,2,0,,,,,,,,,,,,,,,,,,,,,,,,,,,,,,,,,,,,,,,,,,,,,,,,,,,,,,,,,,,,,,,,,,,,,,,,,,,
,,,,,,,,,,stimuli/images/PICTURE_692.png,MONTH,5f04cb284a1b587a33e1978d,19/10/1987,2020-08-27_10h40.39.439,proactive3.2,2020.1.2,Win32,60,5f47c0b9b035471e11593a5c,5f47c51d74dfe80d67019a49,3,,,,,,cherry,,,,,,0,46,46,16,1,2,0,,,,,,,,,,,,,,,,,,,,,,,,,,,,,,,,,,,,,,,,,,,,,,,,,,,,,,,,,,,,,,,,,,,,,,,,,,,
,,,,,,,,,,stimuli/images/PICTURE_147.png,MOMENT,5f04cb284a1b587a33e1978d,19/10/1987,2020-08-27_10h40.39.439,proactive3.2,2020.1.2,Win32,60,5f47c0b9b035471e11593a5c,5f47c51d74dfe80d67019a49,3,,,,,,hanger,,,,,,0,47,47,51,1,6,0,,,,,,,,,,,,,,,,,,,,,,,,,,,,,,,,,,,,,,,,,,,,,,,,,,,,,,,,,,,,,,,,,,,,,,,,,,,
,,,,,,,,,,stimuli/images/PICTURE_491.png,ROOF,5f04cb284a1b587a33e1978d,19/10/1987,2020-08-27_10h40.39.439,proactive3.2,2020.1.2,Win32,60,5f47c0b9b035471e11593a5c,5f47c51d74dfe80d67019a49,3,,,,,,rug,,,,,,0,48,48,24,1,3,0,,,,,,,,,,,,,,,,,,,,,,,,,,,,,,,,,,,,,,,,,,,,,,,,,,,,,,,,,,,,,,,,,,,,,,,,,,,
,,,,,,,,,,stimuli/images/PICTURE_470.png,CASINO,5f04cb284a1b587a33e1978d,19/10/1987,2020-08-27_10h40.39.439,proactive3.2,2020.1.2,Win32,60,5f47c0b9b035471e11593a5c,5f47c51d74dfe80d67019a49,3,,,,,,motorbike,,,,,,0,49,49,36,1,4,0,,,,,,,,,,,,,,,,,,,,,,,,,,,,,,,,,,,,,,,,,,,,,,,,,,,,,,,,,,,,,,,,,,,,,,,,,,,
,,,,,,,,,,stimuli/images/PICTURE_667.png,BATH,5f04cb284a1b587a33e1978d,19/10/1987,2020-08-27_10h40.39.439,proactive3.2,2020.1.2,Win32,60,5f47c0b9b035471e11593a5c,5f47c51d74dfe80d67019a49,3,,,,,,daisy,,,,,,0,50,50,4,1,1,0,,,,,,,,,,,,,,,,,,,,,,,,,,,,,,,,,,,,,,,,,,,,,,,,,,,,,,,,,,,,,,,,,,,,,,,,,,,
,,,,,,,,,,stimuli/images/PICTURE_667.png,PLENTY,5f04cb284a1b587a33e1978d,19/10/1987,2020-08-27_10h40.39.439,proactive3.2,2020.1.2,Win32,60,5f47c0b9b035471e11593a5c,5f47c51d74dfe80d67019a49,3,,,,,,daisy,,,,,,0,51,51,41,1,5,0,,,,,,,,,,,,,,,,,,,,,,,,,,,,,,,,,,,,,,,,,,,,,,,,,,,,,,,,,,,,,,,,,,,,,,,,,,,
,,,,,,,,,,stimuli/images/PICTURE_160.png,FEET,5f04cb284a1b587a33e1978d,19/10/1987,2020-08-27_10h40.39.439,proactive3.2,2020.1.2,Win32,60,5f47c0b9b035471e11593a5c,5f47c51d74dfe80d67019a49,3,,,,,,wheelbarrow,,,,,,0,52,52,58,1,6,0,,,,,,,,,,,,,,,,,,,,,,,,,,,,,,,,,,,,,,,,,,,,,,,,,,,,,,,,,,,,,,,,,,,,,,,,,,,
,,,,,,,,,,stimuli/images/PICTURE_688.png,CASINO,5f04cb284a1b587a33e1978d,19/10/1987,2020-08-27_10h40.39.439,proactive3.2,2020.1.2,Win32,60,5f47c0b9b035471e11593a5c,5f47c51d74dfe80d67019a49,3,,,,,,runner,,,,,,0,53,53,2,1,1,0,,,,,,,,,,,,,,,,,,,,,,,,,,,,,,,,,,,,,,,,,,,,,,,,,,,,,,,,,,,,,,,,,,,,,,,,,,,
,,,,,,,,,,stimuli/images/PICTURE_708.png,CLIENT,5f04cb284a1b587a33e1978d,19/10/1987,2020-08-27_10h40.39.439,proactive3.2,2020.1.2,Win32,60,5f47c0b9b035471e11593a5c,5f47c51d74dfe80d67019a49,3,,,,,,monkey,,,,,,0,54,54,5,1,1,0,,,,,,,,,,,,,,,,,,,,,,,,,,,,,,,,,,,,,,,,,,,,,,,,,,,,,,,,,,,,,,,,,,,,,,,,,,,
,,,,,,,,,,stimuli/images/PICTURE_339.png,PLENTY,5f04cb284a1b587a33e1978d,19/10/1987,2020-08-27_10h40.39.439,proactive3.2,2020.1.2,Win32,60,5f47c0b9b035471e11593a5c,5f47c51d74dfe80d67019a49,3,,,,,,backpack,,,,,,0,55,55,0,1,1,0,,,,,,,,,,,,,,,,,,,,,,,,,,,,,,,,,,,,,,,,,,,,,,,,,,,,,,,,,,,,,,,,,,,,,,,,,,,
,,,,,,,,,,stimuli/images/PICTURE_208.png,MONTH,5f04cb284a1b587a33e1978d,19/10/1987,2020-08-27_10h40.39.439,proactive3.2,2020.1.2,Win32,60,5f47c0b9b035471e11593a5c,5f47c51d74dfe80d67019a49,3,,,,,,microphone,,,,,,0,56,56,53,1,6,0,,,,,,,,,,,,,,,,,,,,,,,,,,,,,,,,,,,,,,,,,,,,,,,,,,,,,,,,,,,,,,,,,,,,,,,,,,,
,,,,,,,,,,stimuli/images/PICTURE_311.png,FRIEND,5f04cb284a1b587a33e1978d,19/10/1987,2020-08-27_10h40.39.439,proactive3.2,2020.1.2,Win32,60,5f47c0b9b035471e11593a5c,5f47c51d74dfe80d67019a49,3,,,,,,razor,,,,,,0,57,57,34,1,4,0,,,,,,,,,,,,,,,,,,,,,,,,,,,,,,,,,,,,,,,,,,,,,,,,,,,,,,,,,,,,,,,,,,,,,,,,,,,
,,,,,,,,,,stimuli/images/PICTURE_68.png,MILE,5f04cb284a1b587a33e1978d,19/10/1987,2020-08-27_10h40.39.439,proactive3.2,2020.1.2,Win32,60,5f47c0b9b035471e11593a5c,5f47c51d74dfe80d67019a49,3,,,,,,candle,,,,,,0,58,58,44,1,5,0,,,,,,,,,,,,,,,,,,,,,,,,,,,,,,,,,,,,,,,,,,,,,,,,,,,,,,,,,,,,,,,,,,,,,,,,,,,
,,IDEAS,4.077315,1,,,,,,stimuli/images/PICTURE_233.png,IDEAS,5f04cb284a1b587a33e1978d,19/10/1987,2020-08-27_10h40.39.439,proactive3.2,2020.1.2,Win32,60,5f47c0b9b035471e11593a5c,5f47c51d74dfe80d67019a49,3,,,,,,salt,,,,,,,,,,,3,0,0,0,0,28,1,,,,,,,,,,,,,,,,,,,,,,,,,,,,,,,,,,,,,,,,,,,,,,,,,,,,,,,,,,,,,,,,,,,,,,
,,?,0.00199,0,,,,,,stimuli/images/PICTURE_449.png,THING,5f04cb284a1b587a33e1978d,19/10/1987,2020-08-27_10h40.39.439,proactive3.2,2020.1.2,Win32,60,5f47c0b9b035471e11593a5c,5f47c51d74dfe80d67019a49,3,,,,,,bench,,,,,,,,,,,6,0,0,1,1,59,1,,,,,,,,,,,,,,,,,,,,,,,,,,,,,,,,,,,,,,,,,,,,,,,,,,,,,,,,,,,,,,,,,,,,,,
,,?,0.002945,0,,,,,,stimuli/images/PICTURE_380.png,DEATH,5f04cb284a1b587a33e1978d,19/10/1987,2020-08-27_10h40.39.439,proactive3.2,2020.1.2,Win32,60,5f47c0b9b035471e11593a5c,5f47c51d74dfe80d67019a49,3,,,,,,gorilla,,,,,,,,,,,5,0,0,2,2,49,1,,,,,,,,,,,,,,,,,,,,,,,,,,,,,,,,,,,,,,,,,,,,,,,,,,,,,,,,,,,,,,,,,,,,,,
,,?,0.00154,0,,,,,,stimuli/images/PICTURE_491.png,WRITER,5f04cb284a1b587a33e1978d,19/10/1987,2020-08-27_10h40.39.439,proactive3.2,2020.1.2,Win32,60,5f47c0b9b035471e11593a5c,5f47c51d74dfe80d67019a49,3,,,,,,rug,,,,,,,,,,,6,0,0,3,3,57,1,,,,,,,,,,,,,,,,,,,,,,,,,,,,,,,,,,,,,,,,,,,,,,,,,,,,,,,,,,,,,,,,,,,,,,
,,?,0.001735,0,,,,,,stimuli/images/PICTURE_314.png,GODS,5f04cb284a1b587a33e1978d,19/10/1987,2020-08-27_10h40.39.439,proactive3.2,2020.1.2,Win32,60,5f47c0b9b035471e11593a5c,5f47c51d74dfe80d67019a49,3,,,,,,perfume,,,,,,,,,,,2,0,0,4,4,11,1,,,,,,,,,,,,,,,,,,,,,,,,,,,,,,,,,,,,,,,,,,,,,,,,,,,,,,,,,,,,,,,,,,,,,,
,,?,0.001505,0,,,,,,stimuli/images/PICTURE_469.png,LETTER,5f04cb284a1b587a33e1978d,19/10/1987,2020-08-27_10h40.39.439,proactive3.2,2020.1.2,Win32,60,5f47c0b9b035471e11593a5c,5f47c51d74dfe80d67019a49,3,,,,,,stool,,,,,,,,,,,5,0,0,5,5,42,1,,,,,,,,,,,,,,,,,,,,,,,,,,,,,,,,,,,,,,,,,,,,,,,,,,,,,,,,,,,,,,,,,,,,,,
,,?,0.00147,0,,,,,,stimuli/images/PICTURE_327.png,BEAUTY,5f04cb284a1b587a33e1978d,19/10/1987,2020-08-27_10h40.39.439,proactive3.2,2020.1.2,Win32,60,5f47c0b9b035471e11593a5c,5f47c51d74dfe80d67019a49,3,,,,,,helmet,,,,,,,,,,,5,0,0,6,6,48,1,,,,,,,,,,,,,,,,,,,,,,,,,,,,,,,,,,,,,,,,,,,,,,,,,,,,,,,,,,,,,,,,,,,,,,
,,?,0.00145,0,,,,,,stimuli/images/PICTURE_302.png,FAMILY,5f04cb284a1b587a33e1978d,19/10/1987,2020-08-27_10h40.39.439,proactive3.2,2020.1.2,Win32,60,5f47c0b9b035471e11593a5c,5f47c51d74dfe80d67019a49,3,,,,,,taxi,,,,,,,,,,,2,0,0,7,7,18,1,,,,,,,,,,,,,,,,,,,,,,,,,,,,,,,,,,,,,,,,,,,,,,,,,,,,,,,,,,,,,,,,,,,,,,
,,DUDE,1.604515,1,,,,,,stimuli/images/PICTURE_453.png,DUDE,5f04cb284a1b587a33e1978d,19/10/1987,2020-08-27_10h40.39.439,proactive3.2,2020.1.2,Win32,60,5f47c0b9b035471e11593a5c,5f47c51d74dfe80d67019a49,3,,,,,,scissors,,,,,,,,,,,3,0,0,8,8,27,1,,,,,,,,,,,,,,,,,,,,,,,,,,,,,,,,,,,,,,,,,,,,,,,,,,,,,,,,,,,,,,,,,,,,,,
,,?,0.00144,0,,,,,,stimuli/images/PICTURE_32.png,JUNGLE,5f04cb284a1b587a33e1978d,19/10/1987,2020-08-27_10h40.39.439,proactive3.2,2020.1.2,Win32,60,5f47c0b9b035471e11593a5c,5f47c51d74dfe80d67019a49,3,,,,,,crown,,,,,,,,,,,5,0,0,9,9,45,1,,,,,,,,,,,,,,,,,,,,,,,,,,,,,,,,,,,,,,,,,,,,,,,,,,,,,,,,,,,,,,,,,,,,,,
,,?,0.00118,0,,,,,,stimuli/images/PICTURE_667.png,PLENTY,5f04cb284a1b587a33e1978d,19/10/1987,2020-08-27_10h40.39.439,proactive3.2,2020.1.2,Win32,60,5f47c0b9b035471e11593a5c,5f47c51d74dfe80d67019a49,3,,,,,,daisy,,,,,,,,,,,5,0,0,10,10,41,1,,,,,,,,,,,,,,,,,,,,,,,,,,,,,,,,,,,,,,,,,,,,,,,,,,,,,,,,,,,,,,,,,,,,,,
,,?,0.001225,0,,,,,,stimuli/images/PICTURE_208.png,THING,5f04cb284a1b587a33e1978d,19/10/1987,2020-08-27_10h40.39.439,proactive3.2,2020.1.2,Win32,60,5f47c0b9b035471e11593a5c,5f47c51d74dfe80d67019a49,3,,,,,,microphone,,,,,,,,,,,5,0,0,11,11,47,1,,,,,,,,,,,,,,,,,,,,,,,,,,,,,,,,,,,,,,,,,,,,,,,,,,,,,,,,,,,,,,,,,,,,,,
,,?,0.00118,0,,,,,,stimuli/images/PICTURE_160.png,LEADER,5f04cb284a1b587a33e1978d,19/10/1987,2020-08-27_10h40.39.439,proactive3.2,2020.1.2,Win32,60,5f47c0b9b035471e11593a5c,5f47c51d74dfe80d67019a49,3,,,,,,wheelbarrow,,,,,,,,,,,1,0,0,12,12,3,1,,,,,,,,,,,,,,,,,,,,,,,,,,,,,,,,,,,,,,,,,,,,,,,,,,,,,,,,,,,,,,,,,,,,,,
,,?,0.00119,0,,,,,,stimuli/images/PICTURE_667.png,BATH,5f04cb284a1b587a33e1978d,19/10/1987,2020-08-27_10h40.39.439,proactive3.2,2020.1.2,Win32,60,5f47c0b9b035471e11593a5c,5f47c51d74dfe80d67019a49,3,,,,,,daisy,,,,,,,,,,,1,0,0,13,13,4,1,,,,,,,,,,,,,,,,,,,,,,,,,,,,,,,,,,,,,,,,,,,,,,,,,,,,,,,,,,,,,,,,,,,,,,
