consent_key.keys,consent_key.rt,recalled,recalled_rt,recall_acc,example_recall.thisRepN,example_recall.thisTrialN,example_recall.thisN,example_recall.thisIndex,example_recall.ran,file,word,participant,please enter your date of birth (dd/mm/yyyy),date,expName,psychopyVersion,OS,frameRate,STUDY_ID,SESSION_ID,list,prac_learn_study_loop.thisRepN,prac_learn_study_loop.thisTrialN,prac_learn_study_loop.thisN,prac_learn_study_loop.thisIndex,prac_learn_study_loop.ran,image,prac_learn_test_loop.thisRepN,prac_learn_test_loop.thisTrialN,prac_learn_test_loop.thisN,prac_learn_test_loop.thisIndex,prac_learn_test_loop.ran,learn_study_loop.thisRepN,learn_study_loop.thisTrialN,learn_study_loop.thisN,learn_study_loop.thisIndex,learn_study_loop.ran,list_no,block_no,learn_test_loop.thisRepN,learn_test_loop.thisTrialN,learn_test_loop.thisN,learn_test_loop.thisIndex,learn_test_loop.ran,learn_blocks.thisRepN,learn_blocks.thisTrialN,learn_blocks.thisN,learn_blocks.thisIndex,learn_blocks.ran,block_csv,key_resp_13.keys,key_resp_13.rt,learn_blocks_loop.thisRepN,learn_blocks_loop.thisTrialN,learn_blocks_loop.thisN,learn_blocks_loop.thisIndex,learn_blocks_loop.ran,final_learn_test.thisRepN,final_learn_test.thisTrialN,final_learn_test.thisN,final_learn_test.thisIndex,final_learn_test.ran,prac_wm_test_loop.thisRepN,prac_wm_test_loop.thisTrialN,prac_wm_test_loop.thisN,prac_wm_test_loop.thisIndex,prac_wm_test_loop.ran,wm_recalled1,wm_recall_rt1,wm_probed1,wm_recall_acc1,wm_recalled2,wm_recall_rt2,wm_probed2,wm_recall_acc2,wm_recalled3,wm_recall_rt3,wm_probed3,wm_recall_acc3,wm_recalled4,wm_recall_rt4,wm_probed4,wm_recall_acc4,prac_wm_trial_loop.thisRepN,prac_wm_trial_loop.thisTrialN,prac_wm_trial_loop.thisN,prac_wm_trial_loop.thisIndex,prac_wm_trial_loop.ran,word1,image1,file1,item_type1,word2,image2,file2,item_type2,word4,image4,file4,item_type4,word3,image3,file3,item_type3,wm_test_loop.thisRepN,wm_test_loop.thisTrialN,wm_test_loop.thisN,wm_test_loop.thisIndex,wm_test_loop.ran,wm_trial_loop.thisRepN,wm_trial_loop.thisTrialN,wm_trial_loop.thisN,wm_trial_loop.thisIndex,wm_trial_loop.ran
y,4.197865,TOUGH,3.563245,1,0,0,0,0,1,stimuli/images/PICTURE_747.png,TOUGH,5f1305051d80f12cccbca0bf,04/08/1945,2020-09-12_09h23.44.873,proactive3.2,2020.1.2,Win32,60,5f5adea66120081ea0f57a61,5f5c85108f9451484a0f92e3,4,,,,,,,,,,,,,,,,,,,,,,,,,,,,,,,,,,,,,,,,,,,,,,,,,,,,,,,,,,,,,,,,,,,,,,,,,,,,,,,,,,,,,,,,,,,,,
,,,,,,,,,,stimuli/images/PICTURE_658.png,DEVIL,5f1305051d80f12cccbca0bf,04/08/1945,2020-09-12_09h23.44.873,proactive3.2,2020.1.2,Win32,60,5f5adea66120081ea0f57a61,5f5c85108f9451484a0f92e3,4,0,0,0,3,1,crow,,,,,,,,,,,,,,,,,,,,,,,,,,,,,,,,,,,,,,,,,,,,,,,,,,,,,,,,,,,,,,,,,,,,,,,,,,,,,,,,,,,,,,,
,,,,,,,,,,stimuli/images/PICTURE_697.png,KILLER,5f1305051d80f12cccbca0bf,04/08/1945,2020-09-12_09h23.44.873,proactive3.2,2020.1.2,Win32,60,5f5adea66120081ea0f57a61,5f5c85108f9451484a0f92e3,4,0,1,1,4,1,peach,,,,,,,,,,,,,,,,,,,,,,,,,,,,,,,,,,,,,,,,,,,,,,,,,,,,,,,,,,,,,,,,,,,,,,,,,,,,,,,,,,,,,,,
,,,,,,,,,,stimuli/images/PICTURE_378.png,LOSS,5f1305051d80f12cccbca0bf,04/08/1945,2020-09-12_09h23.44.873,proactive3.2,2020.1.2,Win32,60,5f5adea66120081ea0f57a61,5f5c85108f9451484a0f92e3,4,0,2,2,2,1,lobster,,,,,,,,,,,,,,,,,,,,,,,,,,,,,,,,,,,,,,,,,,,,,,,,,,,,,,,,,,,,,,,,,,,,,,,,,,,,,,,,,,,,,,,
,,,,,,,,,,stimuli/images/PICTURE_269.png,GENIUS,5f1305051d80f12cccbca0bf,04/08/1945,2020-09-12_09h23.44.873,proactive3.2,2020.1.2,Win32,60,5f5adea66120081ea0f57a61,5f5c85108f9451484a0f92e3,4,0,3,3,0,1,chameleon,,,,,,,,,,,,,,,,,,,,,,,,,,,,,,,,,,,,,,,,,,,,,,,,,,,,,,,,,,,,,,,,,,,,,,,,,,,,,,,,,,,,,,,
,,CELL,2.28311,1,,,,,,stimuli/images/PICTURE_727.png,CELL,5f1305051d80f12cccbca0bf,04/08/1945,2020-09-12_09h23.44.873,proactive3.2,2020.1.2,Win32,60,5f5adea66120081ea0f57a61,5f5c85108f9451484a0f92e3,4,,,,,,hose,0,0,0,1,1,,,,,,,,,,,,,,,,,,,,,,,,,,,,,,,,,,,,,,,,,,,,,,,,,,,,,,,,,,,,,,,,,,,,,,,,,,,,,,,,,,
,,KILLER,5.288385,0,,,,,,stimuli/images/PICTURE_269.png,GENIUS,5f1305051d80f12cccbca0bf,04/08/1945,2020-09-12_09h23.44.873,proactive3.2,2020.1.2,Win32,60,5f5adea66120081ea0f57a61,5f5c85108f9451484a0f92e3,4,,,,,,chameleon,0,1,1,0,1,,,,,,,,,,,,,,,,,,,,,,,,,,,,,,,,,,,,,,,,,,,,,,,,,,,,,,,,,,,,,,,,,,,,,,,,,,,,,,,,,,
,,DEVIL,3.21943,1,,,,,,stimuli/images/PICTURE_658.png,DEVIL,5f1305051d80f12cccbca0bf,04/08/1945,2020-09-12_09h23.44.873,proactive3.2,2020.1.2,Win32,60,5f5adea66120081ea0f57a61,5f5c85108f9451484a0f92e3,4,,,,,,crow,0,2,2,3,1,,,,,,,,,,,,,,,,,,,,,,,,,,,,,,,,,,,,,,,,,,,,,,,,,,,,,,,,,,,,,,,,,,,,,,,,,,,,,,,,,,
,,LOSS,1.60155,1,,,,,,stimuli/images/PICTURE_378.png,LOSS,5f1305051d80f12cccbca0bf,04/08/1945,2020-09-12_09h23.44.873,proactive3.2,2020.1.2,Win32,60,5f5adea66120081ea0f57a61,5f5c85108f9451484a0f92e3,4,,,,,,lobster,0,3,3,2,1,,,,,,,,,,,,,,,,,,,,,,,,,,,,,,,,,,,,,,,,,,,,,,,,,,,,,,,,,,,,,,,,,,,,,,,,,,,,,,,,,,
,,HELL,5.538635,0,,,,,,stimuli/images/PICTURE_697.png,KILLER,5f1305051d80f12cccbca0bf,04/08/1945,2020-09-12_09h23.44.873,proactive3.2,2020.1.2,Win32,60,5f5adea66120081ea0f57a61,5f5c85108f9451484a0f92e3,4,,,,,,peach,0,4,4,4,1,,,,,,,,,,,,,,,,,,,,,,,,,,,,,,,,,,,,,,,,,,,,,,,,,,,,,,,,,,,,,,,,,,,,,,,,,,,,,,,,,,
,,,,,,,,,,stimuli/images/PICTURE_215.png,LEADER,5f1305051d80f12cccbca0bf,04/08/1945,2020-09-12_09h23.44.873,proactive3.2,2020.1.2,Win32,60,5f5adea66120081ea0f57a61,5f5c85108f9451484a0f92e3,4,,,,,,boot,,,,,,0,0,0,43,1,5,2,,,,,,,,,,,,,,,,,,,,,,,,,,,,,,,,,,,,,,,,,,,,,,,,,,,,,,,,,,,,,,,,,,,,,,,,,,,
,,,,,,,,,,stimuli/images/PICTURE_654.png,YEAR,5f1305051d80f12cccbca0bf,04/08/1945,2020-09-12_09h23.44.873,proactive3.2,2020.1.2,Win32,60,5f5adea66120081ea0f57a61,5f5c85108f9451484a0f92e3,4,,,,,,pencil,,,,,,0,1,1,41,1,5,2,,,,,,,,,,,,,,,,,,,,,,,,,,,,,,,,,,,,,,,,,,,,,,,,,,,,,,,,,,,,,,,,,,,,,,,,,,,
,,,,,,,,,,stimuli/images/PICTURE_654.png,COPS,5f1305051d80f12cccbca0bf,04/08/1945,2020-09-12_09h23.44.873,proactive3.2,2020.1.2,Win32,60,5f5adea66120081ea0f57a61,5f5c85108f9451484a0f92e3,4,,,,,,pencil,,,,,,0,2,2,10,1,2,2,,,,,,,,,,,,,,,,,,,,,,,,,,,,,,,,,,,,,,,,,,,,,,,,,,,,,,,,,,,,,,,,,,,,,,,,,,,
,,,,,,,,,,stimuli/images/PICTURE_255.png,PENNY,5f1305051d80f12cccbca0bf,04/08/1945,2020-09-12_09h23.44.873,proactive3.2,2020.1.2,Win32,60,5f5adea66120081ea0f57a61,5f5c85108f9451484a0f92e3,4,,,,,,shovel,,,,,,0,3,3,19,1,2,2,,,,,,,,,,,,,,,,,,,,,,,,,,,,,,,,,,,,,,,,,,,,,,,,,,,,,,,,,,,,,,,,,,,,,,,,,,,
,,,,,,,,,,stimuli/images/PICTURE_405.png,HOUSE,5f1305051d80f12cccbca0bf,04/08/1945,2020-09-12_09h23.44.873,proactive3.2,2020.1.2,Win32,60,5f5adea66120081ea0f57a61,5f5c85108f9451484a0f92e3,4,,,,,,anchor,,,,,,0,4,4,2,1,1,2,,,,,,,,,,,,,,,,,,,,,,,,,,,,,,,,,,,,,,,,,,,,,,,,,,,,,,,,,,,,,,,,,,,,,,,,,,,
,,,,,,,,,,stimuli/images/PICTURE_509.png,APPLE,5f1305051d80f12cccbca0bf,04/08/1945,2020-09-12_09h23.44.873,proactive3.2,2020.1.2,Win32,60,5f5adea66120081ea0f57a61,5f5c85108f9451484a0f92e3,4,,,,,,telephone,,,,,,0,5,5,38,1,4,2,,,,,,,,,,,,,,,,,,,,,,,,,,,,,,,,,,,,,,,,,,,,,,,,,,,,,,,,,,,,,,,,,,,,,,,,,,,
,,,,,,,,,,stimuli/images/PICTURE_509.png,SHOTS,5f1305051d80f12cccbca0bf,04/08/1945,2020-09-12_09h23.44.873,proactive3.2,2020.1.2,Win32,60,5f5adea66120081ea0f57a61,5f5c85108f9451484a0f92e3,4,,,,,,telephone,,,,,,0,6,6,7,1,1,2,,,,,,,,,,,,,,,,,,,,,,,,,,,,,,,,,,,,,,,,,,,,,,,,,,,,,,,,,,,,,,,,,,,,,,,,,,,
,,,,,,,,,,stimuli/images/PICTURE_688.png,CLOCK,5f1305051d80f12cccbca0bf,04/08/1945,2020-09-12_09h23.44.873,proactive3.2,2020.1.2,Win32,60,5f5adea66120081ea0f57a61,5f5c85108f9451484a0f92e3,4,,,,,,runner,,,,,,0,7,7,42,1,5,2,,,,,,,,,,,,,,,,,,,,,,,,,,,,,,,,,,,,,,,,,,,,,,,,,,,,,,,,,,,,,,,,,,,,,,,,,,,
,,,,,,,,,,stimuli/images/PICTURE_470.png,BEAUTY,5f1305051d80f12cccbca0bf,04/08/1945,2020-09-12_09h23.44.873,proactive3.2,2020.1.2,Win32,60,5f5adea66120081ea0f57a61,5f5c85108f9451484a0f92e3,4,,,,,,motorbike,,,,,,0,8,8,26,1,3,2,,,,,,,,,,,,,,,,,,,,,,,,,,,,,,,,,,,,,,,,,,,,,,,,,,,,,,,,,,,,,,,,,,,,,,,,,,,
,,,,,,,,,,stimuli/images/PICTURE_18.png,RIVER,5f1305051d80f12cccbca0bf,04/08/1945,2020-09-12_09h23.44.873,proactive3.2,2020.1.2,Win32,60,5f5adea66120081ea0f57a61,5f5c85108f9451484a0f92e3,4,,,,,,planet,,,,,,0,9,9,22,1,3,2,,,,,,,,,,,,,,,,,,,,,,,,,,,,,,,,,,,,,,,,,,,,,,,,,,,,,,,,,,,,,,,,,,,,,,,,,,,
,,,,,,,,,,stimuli/images/PICTURE_208.png,SPIRIT,5f1305051d80f12cccbca0bf,04/08/1945,2020-09-12_09h23.44.873,proactive3.2,2020.1.2,Win32,60,5f5adea66120081ea0f57a61,5f5c85108f9451484a0f92e3,4,,,,,,microphone,,,,,,0,10,10,28,1,3,2,,,,,,,,,,,,,,,,,,,,,,,,,,,,,,,,,,,,,,,,,,,,,,,,,,,,,,,,,,,,,,,,,,,,,,,,,,,
,,,,,,,,,,stimuli/images/PICTURE_452.png,COPS,5f1305051d80f12cccbca0bf,04/08/1945,2020-09-12_09h23.44.873,proactive3.2,2020.1.2,Win32,60,5f5adea66120081ea0f57a61,5f5c85108f9451484a0f92e3,4,,,,,,watch,,,,,,0,11,11,0,1,1,2,,,,,,,,,,,,,,,,,,,,,,,,,,,,,,,,,,,,,,,,,,,,,,,,,,,,,,,,,,,,,,,,,,,,,,,,,,,
,,,,,,,,,,stimuli/images/PICTURE_327.png,LEADER,5f1305051d80f12cccbca0bf,04/08/1945,2020-09-12_09h23.44.873,proactive3.2,2020.1.2,Win32,60,5f5adea66120081ea0f57a61,5f5c85108f9451484a0f92e3,4,,,,,,helmet,,,,,,0,12,12,17,1,2,2,,,,,,,,,,,,,,,,,,,,,,,,,,,,,,,,,,,,,,,,,,,,,,,,,,,,,,,,,,,,,,,,,,,,,,,,,,,
,,,,,,,,,,stimuli/images/PICTURE_667.png,GLASS,5f1305051d80f12cccbca0bf,04/08/1945,2020-09-12_09h23.44.873,proactive3.2,2020.1.2,Win32,60,5f5adea66120081ea0f57a61,5f5c85108f9451484a0f92e3,4,,,,,,daisy,,,,,,0,13,13,27,1,3,2,,,,,,,,,,,,,,,,,,,,,,,,,,,,,,,,,,,,,,,,,,,,,,,,,,,,,,,,,,,,,,,,,,,,,,,,,,,
,,,,,,,,,,stimuli/images/PICTURE_405.png,JUNGLE,5f1305051d80f12cccbca0bf,04/08/1945,2020-09-12_09h23.44.873,proactive3.2,2020.1.2,Win32,60,5f5adea66120081ea0f57a61,5f5c85108f9451484a0f92e3,4,,,,,,anchor,,,,,,0,14,14,58,1,6,2,,,,,,,,,,,,,,,,,,,,,,,,,,,,,,,,,,,,,,,,,,,,,,,,,,,,,,,,,,,,,,,,,,,,,,,,,,,
,,,,,,,,,,stimuli/images/PICTURE_32.png,LETTER,5f1305051d80f12cccbca0bf,04/08/1945,2020-09-12_09h23.44.873,proactive3.2,2020.1.2,Win32,60,5f5adea66120081ea0f57a61,5f5c85108f9451484a0f92e3,4,,,,,,crown,,,,,,0,15,15,56,1,6,2,,,,,,,,,,,,,,,,,,,,,,,,,,,,,,,,,,,,,,,,,,,,,,,,,,,,,,,,,,,,,,,,,,,,,,,,,,,
,,,,,,,,,,stimuli/images/PICTURE_285.png,WRITER,5f1305051d80f12cccbca0bf,04/08/1945,2020-09-12_09h23.44.873,proactive3.2,2020.1.2,Win32,60,5f5adea66120081ea0f57a61,5f5c85108f9451484a0f92e3,4,,,,,,carrot,,,,,,0,16,16,6,1,1,2,,,,,,,,,,,,,,,,,,,,,,,,,,,,,,,,,,,,,,,,,,,,,,,,,,,,,,,,,,,,,,,,,,,,,,,,,,,
,,,,,,,,,,stimuli/images/PICTURE_57.png,CANDY,5f1305051d80f12cccbca0bf,04/08/1945,2020-09-12_09h23.44.873,proactive3.2,2020.1.2,Win32,60,5f5adea66120081ea0f57a61,5f5c85108f9451484a0f92e3,4,,,,,,stamp,,,,,,0,17,17,52,1,6,2,,,,,,,,,,,,,,,,,,,,,,,,,,,,,,,,,,,,,,,,,,,,,,,,,,,,,,,,,,,,,,,,,,,,,,,,,,,
,,,,,,,,,,stimuli/images/PICTURE_564.png,PLENTY,5f1305051d80f12cccbca0bf,04/08/1945,2020-09-12_09h23.44.873,proactive3.2,2020.1.2,Win32,60,5f5adea66120081ea0f57a61,5f5c85108f9451484a0f92e3,4,,,,,,spoon,,,,,,0,18,18,11,1,2,2,,,,,,,,,,,,,,,,,,,,,,,,,,,,,,,,,,,,,,,,,,,,,,,,,,,,,,,,,,,,,,,,,,,,,,,,,,,
,,,,,,,,,,stimuli/images/PICTURE_57.png,NATION,5f1305051d80f12cccbca0bf,04/08/1945,2020-09-12_09h23.44.873,proactive3.2,2020.1.2,Win32,60,5f5adea66120081ea0f57a61,5f5c85108f9451484a0f92e3,4,,,,,,stamp,,,,,,0,19,19,21,1,3,2,,,,,,,,,,,,,,,,,,,,,,,,,,,,,,,,,,,,,,,,,,,,,,,,,,,,,,,,,,,,,,,,,,,,,,,,,,,
,,,,,,,,,,stimuli/images/PICTURE_403.png,FAMILY,5f1305051d80f12cccbca0bf,04/08/1945,2020-09-12_09h23.44.873,proactive3.2,2020.1.2,Win32,60,5f5adea66120081ea0f57a61,5f5c85108f9451484a0f92e3,4,,,,,,cathedral,,,,,,0,20,20,9,1,1,2,,,,,,,,,,,,,,,,,,,,,,,,,,,,,,,,,,,,,,,,,,,,,,,,,,,,,,,,,,,,,,,,,,,,,,,,,,,
,,,,,,,,,,stimuli/images/PICTURE_348.png,TOILET,5f1305051d80f12cccbca0bf,04/08/1945,2020-09-12_09h23.44.873,proactive3.2,2020.1.2,Win32,60,5f5adea66120081ea0f57a61,5f5c85108f9451484a0f92e3,4,,,,,,pepper,,,,,,0,21,21,4,1,1,2,,,,,,,,,,,,,,,,,,,,,,,,,,,,,,,,,,,,,,,,,,,,,,,,,,,,,,,,,,,,,,,,,,,,,,,,,,,
,,,,,,,,,,stimuli/images/PICTURE_93.png,GIRL,5f1305051d80f12cccbca0bf,04/08/1945,2020-09-12_09h23.44.873,proactive3.2,2020.1.2,Win32,60,5f5adea66120081ea0f57a61,5f5c85108f9451484a0f92e3,4,,,,,,skateboard,,,,,,0,22,22,31,1,4,2,,,,,,,,,,,,,,,,,,,,,,,,,,,,,,,,,,,,,,,,,,,,,,,,,,,,,,,,,,,,,,,,,,,,,,,,,,,
,,,,,,,,,,stimuli/images/PICTURE_296.png,CLOCK,5f1305051d80f12cccbca0bf,04/08/1945,2020-09-12_09h23.44.873,proactive3.2,2020.1.2,Win32,60,5f5adea66120081ea0f57a61,5f5c85108f9451484a0f92e3,4,,,,,,bolt,,,,,,0,23,23,18,1,2,2,,,,,,,,,,,,,,,,,,,,,,,,,,,,,,,,,,,,,,,,,,,,,,,,,,,,,,,,,,,,,,,,,,,,,,,,,,,
,,,,,,,,,,stimuli/images/PICTURE_95.png,NIGHT,5f1305051d80f12cccbca0bf,04/08/1945,2020-09-12_09h23.44.873,proactive3.2,2020.1.2,Win32,60,5f5adea66120081ea0f57a61,5f5c85108f9451484a0f92e3,4,,,,,,suitcase,,,,,,0,24,24,37,1,4,2,,,,,,,,,,,,,,,,,,,,,,,,,,,,,,,,,,,,,,,,,,,,,,,,,,,,,,,,,,,,,,,,,,,,,,,,,,,
,,,,,,,,,,stimuli/images/PICTURE_692.png,DUDE,5f1305051d80f12cccbca0bf,04/08/1945,2020-09-12_09h23.44.873,proactive3.2,2020.1.2,Win32,60,5f5adea66120081ea0f57a61,5f5c85108f9451484a0f92e3,4,,,,,,cherry,,,,,,0,25,25,47,1,5,2,,,,,,,,,,,,,,,,,,,,,,,,,,,,,,,,,,,,,,,,,,,,,,,,,,,,,,,,,,,,,,,,,,,,,,,,,,,
,,,,,,,,,,stimuli/images/PICTURE_311.png,FLESH,5f1305051d80f12cccbca0bf,04/08/1945,2020-09-12_09h23.44.873,proactive3.2,2020.1.2,Win32,60,5f5adea66120081ea0f57a61,5f5c85108f9451484a0f92e3,4,,,,,,razor,,,,,,0,26,26,3,1,1,2,,,,,,,,,,,,,,,,,,,,,,,,,,,,,,,,,,,,,,,,,,,,,,,,,,,,,,,,,,,,,,,,,,,,,,,,,,,
,,,,,,,,,,stimuli/images/PICTURE_750.png,POLICY,5f1305051d80f12cccbca0bf,04/08/1945,2020-09-12_09h23.44.873,proactive3.2,2020.1.2,Win32,60,5f5adea66120081ea0f57a61,5f5c85108f9451484a0f92e3,4,,,,,,kettle,,,,,,0,27,27,44,1,5,2,,,,,,,,,,,,,,,,,,,,,,,,,,,,,,,,,,,,,,,,,,,,,,,,,,,,,,,,,,,,,,,,,,,,,,,,,,,
,,,,,,,,,,stimuli/images/PICTURE_655.png,SALE,5f1305051d80f12cccbca0bf,04/08/1945,2020-09-12_09h23.44.873,proactive3.2,2020.1.2,Win32,60,5f5adea66120081ea0f57a61,5f5c85108f9451484a0f92e3,4,,,,,,megaphone,,,,,,0,28,28,57,1,6,2,,,,,,,,,,,,,,,,,,,,,,,,,,,,,,,,,,,,,,,,,,,,,,,,,,,,,,,,,,,,,,,,,,,,,,,,,,,
,,,,,,,,,,stimuli/images/PICTURE_33.png,COPS,5f1305051d80f12cccbca0bf,04/08/1945,2020-09-12_09h23.44.873,proactive3.2,2020.1.2,Win32,60,5f5adea66120081ea0f57a61,5f5c85108f9451484a0f92e3,4,,,,,,frame,,,,,,0,29,29,29,1,3,2,,,,,,,,,,,,,,,,,,,,,,,,,,,,,,,,,,,,,,,,,,,,,,,,,,,,,,,,,,,,,,,,,,,,,,,,,,,
,,,,,,,,,,stimuli/images/PICTURE_708.png,VALLEY,5f1305051d80f12cccbca0bf,04/08/1945,2020-09-12_09h23.44.873,proactive3.2,2020.1.2,Win32,60,5f5adea66120081ea0f57a61,5f5c85108f9451484a0f92e3,4,,,,,,monkey,,,,,,0,30,30,45,1,5,2,,,,,,,,,,,,,,,,,,,,,,,,,,,,,,,,,,,,,,,,,,,,,,,,,,,,,,,,,,,,,,,,,,,,,,,,,,,
,,,,,,,,,,stimuli/images/PICTURE_504.png,HOUSE,5f1305051d80f12cccbca0bf,04/08/1945,2020-09-12_09h23.44.873,proactive3.2,2020.1.2,Win32,60,5f5adea66120081ea0f57a61,5f5c85108f9451484a0f92e3,4,,,,,,wheel,,,,,,0,31,31,36,1,4,2,,,,,,,,,,,,,,,,,,,,,,,,,,,,,,,,,,,,,,,,,,,,,,,,,,,,,,,,,,,,,,,,,,,,,,,,,,,
,,,,,,,,,,stimuli/images/PICTURE_2.png,YARD,5f1305051d80f12cccbca0bf,04/08/1945,2020-09-12_09h23.44.873,proactive3.2,2020.1.2,Win32,60,5f5adea66120081ea0f57a61,5f5c85108f9451484a0f92e3,4,,,,,,tyre,,,,,,0,32,32,55,1,6,2,,,,,,,,,,,,,,,,,,,,,,,,,,,,,,,,,,,,,,,,,,,,,,,,,,,,,,,,,,,,,,,,,,,,,,,,,,,
,,,,,,,,,,stimuli/images/PICTURE_677.png,PHOTO,5f1305051d80f12cccbca0bf,04/08/1945,2020-09-12_09h23.44.873,proactive3.2,2020.1.2,Win32,60,5f5adea66120081ea0f57a61,5f5c85108f9451484a0f92e3,4,,,,,,map,,,,,,0,33,33,14,1,2,2,,,,,,,,,,,,,,,,,,,,,,,,,,,,,,,,,,,,,,,,,,,,,,,,,,,,,,,,,,,,,,,,,,,,,,,,,,,
,,,,,,,,,,stimuli/images/PICTURE_677.png,FAMILY,5f1305051d80f12cccbca0bf,04/08/1945,2020-09-12_09h23.44.873,proactive3.2,2020.1.2,Win32,60,5f5adea66120081ea0f57a61,5f5c85108f9451484a0f92e3,4,,,,,,map,,,,,,0,34,34,53,1,6,2,,,,,,,,,,,,,,,,,,,,,,,,,,,,,,,,,,,,,,,,,,,,,,,,,,,,,,,,,,,,,,,,,,,,,,,,,,,
,,,,,,,,,,stimuli/images/PICTURE_285.png,PRINCE,5f1305051d80f12cccbca0bf,04/08/1945,2020-09-12_09h23.44.873,proactive3.2,2020.1.2,Win32,60,5f5adea66120081ea0f57a61,5f5c85108f9451484a0f92e3,4,,,,,,carrot,,,,,,0,35,35,20,1,3,2,,,,,,,,,,,,,,,,,,,,,,,,,,,,,,,,,,,,,,,,,,,,,,,,,,,,,,,,,,,,,,,,,,,,,,,,,,,
,,,,,,,,,,stimuli/images/PICTURE_470.png,MOMENT,5f1305051d80f12cccbca0bf,04/08/1945,2020-09-12_09h23.44.873,proactive3.2,2020.1.2,Win32,60,5f5adea66120081ea0f57a61,5f5c85108f9451484a0f92e3,4,,,,,,motorbike,,,,,,0,36,36,40,1,5,2,,,,,,,,,,,,,,,,,,,,,,,,,,,,,,,,,,,,,,,,,,,,,,,,,,,,,,,,,,,,,,,,,,,,,,,,,,,
,,,,,,,,,,stimuli/images/PICTURE_487.png,ROOF,5f1305051d80f12cccbca0bf,04/08/1945,2020-09-12_09h23.44.873,proactive3.2,2020.1.2,Win32,60,5f5adea66120081ea0f57a61,5f5c85108f9451484a0f92e3,4,,,,,,basket,,,,,,0,37,37,50,1,6,2,,,,,,,,,,,,,,,,,,,,,,,,,,,,,,,,,,,,,,,,,,,,,,,,,,,,,,,,,,,,,,,,,,,,,,,,,,,
,,,,,,,,,,stimuli/images/PICTURE_487.png,POLICY,5f1305051d80f12cccbca0bf,04/08/1945,2020-09-12_09h23.44.873,proactive3.2,2020.1.2,Win32,60,5f5adea66120081ea0f57a61,5f5c85108f9451484a0f92e3,4,,,,,,basket,,,,,,0,38,38,34,1,4,2,,,,,,,,,,,,,,,,,,,,,,,,,,,,,,,,,,,,,,,,,,,,,,,,,,,,,,,,,,,,,,,,,,,,,,,,,,,
,,,,,,,,,,stimuli/images/PICTURE_215.png,FOOD,5f1305051d80f12cccbca0bf,04/08/1945,2020-09-12_09h23.44.873,proactive3.2,2020.1.2,Win32,60,5f5adea66120081ea0f57a61,5f5c85108f9451484a0f92e3,4,,,,,,boot,,,,,,0,39,39,5,1,1,2,,,,,,,,,,,,,,,,,,,,,,,,,,,,,,,,,,,,,,,,,,,,,,,,,,,,,,,,,,,,,,,,,,,,,,,,,,,
,,,,,,,,,,stimuli/images/PICTURE_491.png,SERIES,5f1305051d80f12cccbca0bf,04/08/1945,2020-09-12_09h23.44.873,proactive3.2,2020.1.2,Win32,60,5f5adea66120081ea0f57a61,5f5c85108f9451484a0f92e3,4,,,,,,rug,,,,,,0,40,40,39,1,4,2,,,,,,,,,,,,,,,,,,,,,,,,,,,,,,,,,,,,,,,,,,,,,,,,,,,,,,,,,,,,,,,,,,,,,,,,,,,
,,,,,,,,,,stimuli/images/PICTURE_160.png,HOTEL,5f1305051d80f12cccbca0bf,04/08/1945,2020-09-12_09h23.44.873,proactive3.2,2020.1.2,Win32,60,5f5adea66120081ea0f57a61,5f5c85108f9451484a0f92e3,4,,,,,,wheelbarrow,,,,,,0,41,41,16,1,2,2,,,,,,,,,,,,,,,,,,,,,,,,,,,,,,,,,,,,,,,,,,,,,,,,,,,,,,,,,,,,,,,,,,,,,,,,,,,
,,,,,,,,,,stimuli/images/PICTURE_297.png,BODY,5f1305051d80f12cccbca0bf,04/08/1945,2020-09-12_09h23.44.873,proactive3.2,2020.1.2,Win32,60,5f5adea66120081ea0f57a61,5f5c85108f9451484a0f92e3,4,,,,,,aeroplane,,,,,,0,42,42,51,1,6,2,,,,,,,,,,,,,,,,,,,,,,,,,,,,,,,,,,,,,,,,,,,,,,,,,,,,,,,,,,,,,,,,,,,,,,,,,,,
,,,,,,,,,,stimuli/images/PICTURE_405.png,JUNGLE,5f1305051d80f12cccbca0bf,04/08/1945,2020-09-12_09h23.44.873,proactive3.2,2020.1.2,Win32,60,5f5adea66120081ea0f57a61,5f5c85108f9451484a0f92e3,4,,,,,,anchor,,,,,,0,43,43,13,1,2,2,,,,,,,,,,,,,,,,,,,,,,,,,,,,,,,,,,,,,,,,,,,,,,,,,,,,,,,,,,,,,,,,,,,,,,,,,,,
,,,,,,,,,,stimuli/images/PICTURE_509.png,MILLER,5f1305051d80f12cccbca0bf,04/08/1945,2020-09-12_09h23.44.873,proactive3.2,2020.1.2,Win32,60,5f5adea66120081ea0f57a61,5f5c85108f9451484a0f92e3,4,,,,,,telephone,,,,,,0,44,44,49,1,5,2,,,,,,,,,,,,,,,,,,,,,,,,,,,,,,,,,,,,,,,,,,,,,,,,,,,,,,,,,,,,,,,,,,,,,,,,,,,
,,,,,,,,,,stimuli/images/PICTURE_314.png,SPEECH,5f1305051d80f12cccbca0bf,04/08/1945,2020-09-12_09h23.44.873,proactive3.2,2020.1.2,Win32,60,5f5adea66120081ea0f57a61,5f5c85108f9451484a0f92e3,4,,,,,,perfume,,,,,,0,45,45,35,1,4,2,,,,,,,,,,,,,,,,,,,,,,,,,,,,,,,,,,,,,,,,,,,,,,,,,,,,,,,,,,,,,,,,,,,,,,,,,,,
,,,,,,,,,,stimuli/images/PICTURE_177.png,HOUSE,5f1305051d80f12cccbca0bf,04/08/1945,2020-09-12_09h23.44.873,proactive3.2,2020.1.2,Win32,60,5f5adea66120081ea0f57a61,5f5c85108f9451484a0f92e3,4,,,,,,mushroom,,,,,,0,46,46,25,1,3,2,,,,,,,,,,,,,,,,,,,,,,,,,,,,,,,,,,,,,,,,,,,,,,,,,,,,,,,,,,,,,,,,,,,,,,,,,,,
,,,,,,,,,,stimuli/images/PICTURE_509.png,BATH,5f1305051d80f12cccbca0bf,04/08/1945,2020-09-12_09h23.44.873,proactive3.2,2020.1.2,Win32,60,5f5adea66120081ea0f57a61,5f5c85108f9451484a0f92e3,4,,,,,,telephone,,,,,,0,47,47,15,1,2,2,,,,,,,,,,,,,,,,,,,,,,,,,,,,,,,,,,,,,,,,,,,,,,,,,,,,,,,,,,,,,,,,,,,,,,,,,,,
,,,,,,,,,,stimuli/images/PICTURE_147.png,LEADER,5f1305051d80f12cccbca0bf,04/08/1945,2020-09-12_09h23.44.873,proactive3.2,2020.1.2,Win32,60,5f5adea66120081ea0f57a61,5f5c85108f9451484a0f92e3,4,,,,,,hanger,,,,,,0,48,48,33,1,4,2,,,,,,,,,,,,,,,,,,,,,,,,,,,,,,,,,,,,,,,,,,,,,,,,,,,,,,,,,,,,,,,,,,,,,,,,,,,
,,,,,,,,,,stimuli/images/PICTURE_348.png,DUDE,5f1305051d80f12cccbca0bf,04/08/1945,2020-09-12_09h23.44.873,proactive3.2,2020.1.2,Win32,60,5f5adea66120081ea0f57a61,5f5c85108f9451484a0f92e3,4,,,,,,pepper,,,,,,0,49,49,59,1,6,2,,,,,,,,,,,,,,,,,,,,,,,,,,,,,,,,,,,,,,,,,,,,,,,,,,,,,,,,,,,,,,,,,,,,,,,,,,,
,,,,,,,,,,stimuli/images/PICTURE_356.png,CANDY,5f1305051d80f12cccbca0bf,04/08/1945,2020-09-12_09h23.44.873,proactive3.2,2020.1.2,Win32,60,5f5adea66120081ea0f57a61,5f5c85108f9451484a0f92e3,4,,,,,,pawn,,,,,,0,50,50,46,1,5,2,,,,,,,,,,,,,,,,,,,,,,,,,,,,,,,,,,,,,,,,,,,,,,,,,,,,,,,,,,,,,,,,,,,,,,,,,,,
,,,,,,,,,,stimuli/images/PICTURE_311.png,TOILET,5f1305051d80f12cccbca0bf,04/08/1945,2020-09-12_09h23.44.873,proactive3.2,2020.1.2,Win32,60,5f5adea66120081ea0f57a61,5f5c85108f9451484a0f92e3,4,,,,,,razor,,,,,,0,51,51,54,1,6,2,,,,,,,,,,,,,,,,,,,,,,,,,,,,,,,,,,,,,,,,,,,,,,,,,,,,,,,,,,,,,,,,,,,,,,,,,,,
,,,,,,,,,,stimuli/images/PICTURE_123.png,SALE,5f1305051d80f12cccbca0bf,04/08/1945,2020-09-12_09h23.44.873,proactive3.2,2020.1.2,Win32,60,5f5adea66120081ea0f57a61,5f5c85108f9451484a0f92e3,4,,,,,,dart,,,,,,0,52,52,8,1,1,2,,,,,,,,,,,,,,,,,,,,,,,,,,,,,,,,,,,,,,,,,,,,,,,,,,,,,,,,,,,,,,,,,,,,,,,,,,,
,,,,,,,,,,stimuli/images/PICTURE_2.png,AREA,5f1305051d80f12cccbca0bf,04/08/1945,2020-09-12_09h23.44.873,proactive3.2,2020.1.2,Win32,60,5f5adea66120081ea0f57a61,5f5c85108f9451484a0f92e3,4,,,,,,tyre,,,,,,0,53,53,32,1,4,2,,,,,,,,,,,,,,,,,,,,,,,,,,,,,,,,,,,,,,,,,,,,,,,,,,,,,,,,,,,,,,,,,,,,,,,,,,,
,,,,,,,,,,stimuli/images/PICTURE_2.png,JUNGLE,5f1305051d80f12cccbca0bf,04/08/1945,2020-09-12_09h23.44.873,proactive3.2,2020.1.2,Win32,60,5f5adea66120081ea0f57a61,5f5c85108f9451484a0f92e3,4,,,,,,tyre,,,,,,0,54,54,1,1,1,2,,,,,,,,,,,,,,,,,,,,,,,,,,,,,,,,,,,,,,,,,,,,,,,,,,,,,,,,,,,,,,,,,,,,,,,,,,,
,,,,,,,,,,stimuli/images/PICTURE_57.png,CASINO,5f1305051d80f12cccbca0bf,04/08/1945,2020-09-12_09h23.44.873,proactive3.2,2020.1.2,Win32,60,5f5adea66120081ea0f57a61,5f5c85108f9451484a0f92e3,4,,,,,,stamp,,,,,,0,55,55,12,1,2,2,,,,,,,,,,,,,,,,,,,,,,,,,,,,,,,,,,,,,,,,,,,,,,,,,,,,,,,,,,,,,,,,,,,,,,,,,,,
,,,,,,,,,,stimuli/images/PICTURE_141.png,CLIENT,5f1305051d80f12cccbca0bf,04/08/1945,2020-09-12_09h23.44.873,proactive3.2,2020.1.2,Win32,60,5f5adea66120081ea0f57a61,5f5c85108f9451484a0f92e3,4,,,,,,sunflower,,,,,,0,56,56,30,1,4,2,,,,,,,,,,,,,,,,,,,,,,,,,,,,,,,,,,,,,,,,,,,,,,,,,,,,,,,,,,,,,,,,,,,,,,,,,,,
,,,,,,,,,,stimuli/images/PICTURE_68.png,KIND,5f1305051d80f12cccbca0bf,04/08/1945,2020-09-12_09h23.44.873,proactive3.2,2020.1.2,Win32,60,5f5adea66120081ea0f57a61,5f5c85108f9451484a0f92e3,4,,,,,,candle,,,,,,0,57,57,23,1,3,2,,,,,,,,,,,,,,,,,,,,,,,,,,,,,,,,,,,,,,,,,,,,,,,,,,,,,,,,,,,,,,,,,,,,,,,,,,,
,,,,,,,,,,stimuli/images/PICTURE_215.png,BOYS,5f1305051d80f12cccbca0bf,04/08/1945,2020-09-12_09h23.44.873,proactive3.2,2020.1.2,Win32,60,5f5adea66120081ea0f57a61,5f5c85108f9451484a0f92e3,4,,,,,,boot,,,,,,0,58,58,24,1,3,2,,,,,,,,,,,,,,,,,,,,,,,,,,,,,,,,,,,,,,,,,,,,,,,,,,,,,,,,,,,,,,,,,,,,,,,,,,,
,,?,0.000555,0,,,,,,stimuli/images/PICTURE_667.png,GLASS,5f1305051d80f12cccbca0bf,04/08/1945,2020-09-12_09h23.44.873,proactive3.2,2020.1.2,Win32,60,5f5adea66120081ea0f57a61,5f5c85108f9451484a0f92e3,4,,,,,,daisy,,,,,,,,,,,3,2,0,0,0,27,1,,,,,,,,,,,,,,,,,,,,,,,,,,,,,,,,,,,,,,,,,,,,,,,,,,,,,,,,,,,,,,,,,,,,,,
,,CLIENT,3.115275,1,,,,,,stimuli/images/PICTURE_141.png,CLIENT,5f1305051d80f12cccbca0bf,04/08/1945,2020-09-12_09h23.44.873,proactive3.2,2020.1.2,Win32,60,5f5adea66120081ea0f57a61,5f5c85108f9451484a0f92e3,4,,,,,,sunflower,,,,,,,,,,,4,2,0,1,1,30,1,,,,,,,,,,,,,,,,,,,,,,,,,,,,,,,,,,,,,,,,,,,,,,,,,,,,,,,,,,,,,,,,,,,,,,
,,?,0.00058,0,,,,,,stimuli/images/PICTURE_453.png,FAMILY,5f1305051d80f12cccbca0bf,04/08/1945,2020-09-12_09h23.44.873,proactive3.2,2020.1.2,Win32,60,5f5adea66120081ea0f57a61,5f5c85108f9451484a0f92e3,4,,,,,,scissors,,,,,,,,,,,5,2,0,2,2,48,1,,,,,,,,,,,,,,,,,,,,,,,,,,,,,,,,,,,,,,,,,,,,,,,,,,,,,,,,,,,,,,,,,,,,,,
,,CELL,2.40119,0,,,,,,stimuli/images/PICTURE_95.png,NIGHT,5f1305051d80f12cccbca0bf,04/08/1945,2020-09-12_09h23.44.873,proactive3.2,2020.1.2,Win32,60,5f5adea66120081ea0f57a61,5f5c85108f9451484a0f92e3,4,,,,,,suitcase,,,,,,,,,,,4,2,0,3,3,37,1,,,,,,,,,,,,,,,,,,,,,,,,,,,,,,,,,,,,,,,,,,,,,,,,,,,,,,,,,,,,,,,,,,,,,,
,,?,0.00067,0,,,,,,stimuli/images/PICTURE_452.png,COPS,5f1305051d80f12cccbca0bf,04/08/1945,2020-09-12_09h23.44.873,proactive3.2,2020.1.2,Win32,60,5f5adea66120081ea0f57a61,5f5c85108f9451484a0f92e3,4,,,,,,watch,,,,,,,,,,,1,2,0,4,4,0,1,,,,,,,,,,,,,,,,,,,,,,,,,,,,,,,,,,,,,,,,,,,,,,,,,,,,,,,,,,,,,,,,,,,,,,
,,?,0.000365,0,,,,,,stimuli/images/PICTURE_2.png,JUNGLE,5f1305051d80f12cccbca0bf,04/08/1945,2020-09-12_09h23.44.873,proactive3.2,2020.1.2,Win32,60,5f5adea66120081ea0f57a61,5f5c85108f9451484a0f92e3,4,,,,,,tyre,,,,,,,,,,,1,2,0,5,5,1,1,,,,,,,,,,,,,,,,,,,,,,,,,,,,,,,,,,,,,,,,,,,,,,,,,,,,,,,,,,,,,,,,,,,,,,
,,?,0.000365,0,,,,,,stimuli/images/PICTURE_57.png,CANDY,5f1305051d80f12cccbca0bf,04/08/1945,2020-09-12_09h23.44.873,proactive3.2,2020.1.2,Win32,60,5f5adea66120081ea0f57a61,5f5c85108f9451484a0f92e3,4,,,,,,stamp,,,,,,,,,,,6,2,0,6,6,52,1,,,,,,,,,,,,,,,,,,,,,,,,,,,,,,,,,,,,,,,,,,,,,,,,,,,,,,,,,,,,,,,,,,,,,,
,,?,0.000345,0,,,,,,stimuli/images/PICTURE_487.png,ROOF,5f1305051d80f12cccbca0bf,04/08/1945,2020-09-12_09h23.44.873,proactive3.2,2020.1.2,Win32,60,5f5adea66120081ea0f57a61,5f5c85108f9451484a0f92e3,4,,,,,,basket,,,,,,,,,,,6,2,0,7,7,50,1,,,,,,,,,,,,,,,,,,,,,,,,,,,,,,,,,,,,,,,,,,,,,,,,,,,,,,,,,,,,,,,,,,,,,,
,,?,0.00035,0,,,,,,stimuli/images/PICTURE_564.png,PLENTY,5f1305051d80f12cccbca0bf,04/08/1945,2020-09-12_09h23.44.873,proactive3.2,2020.1.2,Win32,60,5f5adea66120081ea0f57a61,5f5c85108f9451484a0f92e3,4,,,,,,spoon,,,,,,,,,,,2,2,0,8,8,11,1,,,,,,,,,,,,,,,,,,,,,,,,,,,,,,,,,,,,,,,,,,,,,,,,,,,,,,,,,,,,,,,,,,,,,,
,,SHIP,4.181515,0,,,,,,stimuli/images/PICTURE_504.png,HOUSE,5f1305051d80f12cccbca0bf,04/08/1945,2020-09-12_09h23.44.873,proactive3.2,2020.1.2,Win32,60,5f5adea66120081ea0f57a61,5f5c85108f9451484a0f92e3,4,,,,,,wheel,,,,,,,,,,,4,2,0,9,9,36,1,,,,,,,,,,,,,,,,,,,,,,,,,,,,,,,,,,,,,,,,,,,,,,,,,,,,,,,,,,,,,,,,,,,,,,
,,?,0.00064,0,,,,,,stimuli/images/PICTURE_750.png,POLICY,5f1305051d80f12cccbca0bf,04/08/1945,2020-09-12_09h23.44.873,proactive3.2,2020.1.2,Win32,60,5f5adea66120081ea0f57a61,5f5c85108f9451484a0f92e3,4,,,,,,kettle,,,,,,,,,,,5,2,0,10,10,44,1,,,,,,,,,,,,,,,,,,,,,,,,,,,,,,,,,,,,,,,,,,,,,,,,,,,,,,,,,,,,,,,,,,,,,,
,,?,0.00078,0,,,,,,stimuli/images/PICTURE_470.png,BEAUTY,5f1305051d80f12cccbca0bf,04/08/1945,2020-09-12_09h23.44.873,proactive3.2,2020.1.2,Win32,60,5f5adea66120081ea0f57a61,5f5c85108f9451484a0f92e3,4,,,,,,motorbike,,,,,,,,,,,3,2,0,11,11,26,1,,,,,,,,,,,,,,,,,,,,,,,,,,,,,,,,,,,,,,,,,,,,,,,,,,,,,,,,,,,,,,,,,,,,,,
,,?,0.00041,0,,,,,,stimuli/images/PICTURE_311.png,FLESH,5f1305051d80f12cccbca0bf,04/08/1945,2020-09-12_09h23.44.873,proactive3.2,2020.1.2,Win32,60,5f5adea66120081ea0f57a61,5f5c85108f9451484a0f92e3,4,,,,,,razor,,,,,,,,,,,1,2,0,12,12,3,1,,,,,,,,,,,,,,,,,,,,,,,,,,,,,,,,,,,,,,,,,,,,,,,,,,,,,,,,,,,,,,,,,,,,,,
,,?,0.00041,0,,,,,,stimuli/images/PICTURE_285.png,PRINCE,5f1305051d80f12cccbca0bf,04/08/1945,2020-09-12_09h23.44.873,proactive3.2,2020.1.2,Win32,60,5f5adea66120081ea0f57a61,5f5c85108f9451484a0f92e3,4,,,,,,carrot,,,,,,,,,,,3,2,0,13,13,20,1,,,,,,,,,,,,,,,,,,,,,,,,,,,,,,,,,,,,,,,,,,,,,,,,,,,,,,,,,,,,,,,,,,,,,,
,,?,0.000395,0,,,,,,stimuli/images/PICTURE_296.png,CLOCK,5f1305051d80f12cccbca0bf,04/08/1945,2020-09-12_09h23.44.873,proactive3.2,2020.1.2,Win32,60,5f5adea66120081ea0f57a61,5f5c85108f9451484a0f92e3,4,,,,,,bolt,,,,,,,,,,,2,2,0,14,14,18,1,,,,,,,,,,,,,,,,,,,,,,,,,,,,,,,,,,,,,,,,,,,,,,,,,,,,,,,,,,,,,,,,,,,,,,
,,?,0.000385,0,,,,,,stimuli/images/PICTURE_405.png,HOUSE,5f1305051d80f12cccbca0bf,04/08/1945,2020-09-12_09h23.44.873,proactive3.2,2020.1.2,Win32,60,5f5adea66120081ea0f57a61,5f5c85108f9451484a0f92e3,4,,,,,,anchor,,,,,,,,,,,1,2,0,15,15,2,1,,,,,,,,,,,,,,,,,,,,,,,,,,,,,,,,,,,,,,,,,,,,,,,,,,,,,,,,,,,,,,,,,,,,,,
,,?,0.000385,0,,,,,,stimuli/images/PICTURE_57.png,CASINO,5f1305051d80f12cccbca0bf,04/08/1945,2020-09-12_09h23.44.873,proactive3.2,2020.1.2,Win32,60,5f5adea66120081ea0f57a61,5f5c85108f9451484a0f92e3,4,,,,,,stamp,,,,,,,,,,,2,2,0,16,16,12,1,,,,,,,,,,,,,,,,,,,,,,,,,,,,,,,,,,,,,,,,,,,,,,,,,,,,,,,,,,,,,,,,,,,,,,
,,?,0.000385,0,,,,,,stimuli/images/PICTURE_32.png,LETTER,5f1305051d80f12cccbca0bf,04/08/1945,2020-09-12_09h23.44.873,proactive3.2,2020.1.2,Win32,60,5f5adea66120081ea0f57a61,5f5c85108f9451484a0f92e3,4,,,,,,crown,,,,,,,,,,,6,2,0,17,17,56,1,,,,,,,,,,,,,,,,,,,,,,,,,,,,,,,,,,,,,,,,,,,,,,,,,,,,,,,,,,,,,,,,,,,,,,
,,?,0.000395,0,,,,,,stimuli/images/PICTURE_654.png,YEAR,5f1305051d80f12cccbca0bf,04/08/1945,2020-09-12_09h23.44.873,proactive3.2,2020.1.2,Win32,60,5f5adea66120081ea0f57a61,5f5c85108f9451484a0f92e3,4,,,,,,pencil,,,,,,,,,,,5,2,0,18,18,41,1,,,,,,,,,,,,,,,,,,,,,,,,,,,,,,,,,,,,,,,,,,,,,,,,,,,,,,,,,,,,,,,,,,,,,,
,,?,0.00129,0,,,,,,stimuli/images/PICTURE_33.png,COPS,5f1305051d80f12cccbca0bf,04/08/1945,2020-09-12_09h23.44.873,proactive3.2,2020.1.2,Win32,60,5f5adea66120081ea0f57a61,5f5c85108f9451484a0f92e3,4,,,,,,frame,,,,,,,,,,,3,2,0,19,19,29,1,,,,,,,,,,,,,,,,,,,,,,,,,,,,,,,,,,,,,,,,,,,,,,,,,,,,,,,,,,,,,,,,,,,,,,
,,?,0.00042,0,,,,,,stimuli/images/PICTURE_688.png,CLOCK,5f1305051d80f12cccbca0bf,04/08/1945,2020-09-12_09h23.44.873,proactive3.2,2020.1.2,Win32,60,5f5adea66120081ea0f57a61,5f5c85108f9451484a0f92e3,4,,,,,,runner,,,,,,,,,,,5,2,0,20,20,42,1,,,,,,,,,,,,,,,,,,,,,,,,,,,,,,,,,,,,,,,,,,,,,,,,,,,,,,,,,,,,,,,,,,,,,,
,,?,0.00034,0,,,,,,stimuli/images/PICTURE_255.png,PENNY,5f1305051d80f12cccbca0bf,04/08/1945,2020-09-12_09h23.44.873,proactive3.2,2020.1.2,Win32,60,5f5adea66120081ea0f57a61,5f5c85108f9451484a0f92e3,4,,,,,,shovel,,,,,,,,,,,2,2,0,21,21,19,1,,,,,,,,,,,,,,,,,,,,,,,,,,,,,,,,,,,,,,,,,,,,,,,,,,,,,,,,,,,,,,,,,,,,,,
,,?,0.00093,0,,,,,,stimuli/images/PICTURE_655.png,SALE,5f1305051d80f12cccbca0bf,04/08/1945,2020-09-12_09h23.44.873,proactive3.2,2020.1.2,Win32,60,5f5adea66120081ea0f57a61,5f5c85108f9451484a0f92e3,4,,,,,,megaphone,,,,,,,,,,,6,2,0,22,22,57,1,,,,,,,,,,,,,,,,,,,,,,,,,,,,,,,,,,,,,,,,,,,,,,,,,,,,,,,,,,,,,,,,,,,,,,
,,?,0.00037,0,,,,,,stimuli/images/PICTURE_708.png,VALLEY,5f1305051d80f12cccbca0bf,04/08/1945,2020-09-12_09h23.44.873,proactive3.2,2020.1.2,Win32,60,5f5adea66120081ea0f57a61,5f5c85108f9451484a0f92e3,4,,,,,,monkey,,,,,,,,,,,5,2,0,23,23,45,1,,,,,,,,,,,,,,,,,,,,,,,,,,,,,,,,,,,,,,,,,,,,,,,,,,,,,,,,,,,,,,,,,,,,,,
,,?,0.00035,0,,,,,,stimuli/images/PICTURE_208.png,SPIRIT,5f1305051d80f12cccbca0bf,04/08/1945,2020-09-12_09h23.44.873,proactive3.2,2020.1.2,Win32,60,5f5adea66120081ea0f57a61,5f5c85108f9451484a0f92e3,4,,,,,,microphone,,,,,,,,,,,3,2,0,24,24,28,1,,,,,,,,,,,,,,,,,,,,,,,,,,,,,,,,,,,,,,,,,,,,,,,,,,,,,,,,,,,,,,,,,,,,,,
,,?,0.000425,0,,,,,,stimuli/images/PICTURE_18.png,RIVER,5f1305051d80f12cccbca0bf,04/08/1945,2020-09-12_09h23.44.873,proactive3.2,2020.1.2,Win32,60,5f5adea66120081ea0f57a61,5f5c85108f9451484a0f92e3,4,,,,,,planet,,,,,,,,,,,3,2,0,25,25,22,1,,,,,,,,,,,,,,,,,,,,,,,,,,,,,,,,,,,,,,,,,,,,,,,,,,,,,,,,,,,,,,,,,,,,,,
,,?,0.00032,0,,,,,,stimuli/images/PICTURE_215.png,BOYS,5f1305051d80f12cccbca0bf,04/08/1945,2020-09-12_09h23.44.873,proactive3.2,2020.1.2,Win32,60,5f5adea66120081ea0f57a61,5f5c85108f9451484a0f92e3,4,,,,,,boot,,,,,,,,,,,3,2,0,26,26,24,1,,,,,,,,,,,,,,,,,,,,,,,,,,,,,,,,,,,,,,,,,,,,,,,,,,,,,,,,,,,,,,,,,,,,,,
,,?,0.00033,0,,,,,,stimuli/images/PICTURE_177.png,HOUSE,5f1305051d80f12cccbca0bf,04/08/1945,2020-09-12_09h23.44.873,proactive3.2,2020.1.2,Win32,60,5f5adea66120081ea0f57a61,5f5c85108f9451484a0f92e3,4,,,,,,mushroom,,,,,,,,,,,3,2,0,27,27,25,1,,,,,,,,,,,,,,,,,,,,,,,,,,,,,,,,,,,,,,,,,,,,,,,,,,,,,,,,,,,,,,,,,,,,,,
,,AREA,3.667575,1,,,,,,stimuli/images/PICTURE_2.png,AREA,5f1305051d80f12cccbca0bf,04/08/1945,2020-09-12_09h23.44.873,proactive3.2,2020.1.2,Win32,60,5f5adea66120081ea0f57a61,5f5c85108f9451484a0f92e3,4,,,,,,tyre,,,,,,,,,,,4,2,0,28,28,32,1,,,,,,,,,,,,,,,,,,,,,,,,,,,,,,,,,,,,,,,,,,,,,,,,,,,,,,,,,,,,,,,,,,,,,,
,,SCENT,3.82083,0,,,,,,stimuli/images/PICTURE_314.png,SPEECH,5f1305051d80f12cccbca0bf,04/08/1945,2020-09-12_09h23.44.873,proactive3.2,2020.1.2,Win32,60,5f5adea66120081ea0f57a61,5f5c85108f9451484a0f92e3,4,,,,,,perfume,,,,,,,,,,,4,2,0,29,29,35,1,,,,,,,,,,,,,,,,,,,,,,,,,,,,,,,,,,,,,,,,,,,,,,,,,,,,,,,,,,,,,,,,,,,,,,
,,CELL,3.586385,0,,,,,,stimuli/images/PICTURE_93.png,GIRL,5f1305051d80f12cccbca0bf,04/08/1945,2020-09-12_09h23.44.873,proactive3.2,2020.1.2,Win32,60,5f5adea66120081ea0f57a61,5f5c85108f9451484a0f92e3,4,,,,,,skateboard,,,,,,,,,,,4,2,0,30,30,31,1,,,,,,,,,,,,,,,,,,,,,,,,,,,,,,,,,,,,,,,,,,,,,,,,,,,,,,,,,,,,,,,,,,,,,,
,,?,0.000535,0,,,,,,stimuli/images/PICTURE_677.png,PHOTO,5f1305051d80f12cccbca0bf,04/08/1945,2020-09-12_09h23.44.873,proactive3.2,2020.1.2,Win32,60,5f5adea66120081ea0f57a61,5f5c85108f9451484a0f92e3,4,,,,,,map,,,,,,,,,,,2,2,0,31,31,14,1,,,,,,,,,,,,,,,,,,,,,,,,,,,,,,,,,,,,,,,,,,,,,,,,,,,,,,,,,,,,,,,,,,,,,,
,,?,0.00032,0,,,,,,stimuli/images/PICTURE_215.png,LEADER,5f1305051d80f12cccbca0bf,04/08/1945,2020-09-12_09h23.44.873,proactive3.2,2020.1.2,Win32,60,5f5adea66120081ea0f57a61,5f5c85108f9451484a0f92e3,4,,,,,,boot,,,,,,,,,,,5,2,0,32,32,43,1,,,,,,,,,,,,,,,,,,,,,,,,,,,,,,,,,,,,,,,,,,,,,,,,,,,,,,,,,,,,,,,,,,,,,,
,,?,0.000325,0,,,,,,stimuli/images/PICTURE_470.png,MOMENT,5f1305051d80f12cccbca0bf,04/08/1945,2020-09-12_09h23.44.873,proactive3.2,2020.1.2,Win32,60,5f5adea66120081ea0f57a61,5f5c85108f9451484a0f92e3,4,,,,,,motorbike,,,,,,,,,,,5,2,0,33,33,40,1,,,,,,,,,,,,,,,,,,,,,,,,,,,,,,,,,,,,,,,,,,,,,,,,,,,,,,,,,,,,,,,,,,,,,,
,,?,0.000335,0,,,,,,stimuli/images/PICTURE_297.png,BODY,5f1305051d80f12cccbca0bf,04/08/1945,2020-09-12_09h23.44.873,proactive3.2,2020.1.2,Win32,60,5f5adea66120081ea0f57a61,5f5c85108f9451484a0f92e3,4,,,,,,aeroplane,,,,,,,,,,,6,2,0,34,34,51,1,,,,,,,,,,,,,,,,,,,,,,,,,,,,,,,,,,,,,,,,,,,,,,,,,,,,,,,,,,,,,,,,,,,,,,
,,?,0.0003,0,,,,,,stimuli/images/PICTURE_57.png,NATION,5f1305051d80f12cccbca0bf,04/08/1945,2020-09-12_09h23.44.873,proactive3.2,2020.1.2,Win32,60,5f5adea66120081ea0f57a61,5f5c85108f9451484a0f92e3,4,,,,,,stamp,,,,,,,,,,,3,2,0,35,35,21,1,,,,,,,,,,,,,,,,,,,,,,,,,,,,,,,,,,,,,,,,,,,,,,,,,,,,,,,,,,,,,,,,,,,,,,
,,?,0.000305,0,,,,,,stimuli/images/PICTURE_68.png,KIND,5f1305051d80f12cccbca0bf,04/08/1945,2020-09-12_09h23.44.873,proactive3.2,2020.1.2,Win32,60,5f5adea66120081ea0f57a61,5f5c85108f9451484a0f92e3,4,,,,,,candle,,,,,,,,,,,3,2,0,36,36,23,1,,,,,,,,,,,,,,,,,,,,,,,,,,,,,,,,,,,,,,,,,,,,,,,,,,,,,,,,,,,,,,,,,,,,,,
,,?,0.000305,0,,,,,,stimuli/images/PICTURE_215.png,FOOD,5f1305051d80f12cccbca0bf,04/08/1945,2020-09-12_09h23.44.873,proactive3.2,2020.1.2,Win32,60,5f5adea66120081ea0f57a61,5f5c85108f9451484a0f92e3,4,,,,,,boot,,,,,,,,,,,1,2,0,37,37,5,1,,,,,,,,,,,,,,,,,,,,,,,,,,,,,,,,,,,,,,,,,,,,,,,,,,,,,,,,,,,,,,,,,,,,,,
,,?,0.0003,0,,,,,,stimuli/images/PICTURE_405.png,JUNGLE,5f1305051d80f12cccbca0bf,04/08/1945,2020-09-12_09h23.44.873,proactive3.2,2020.1.2,Win32,60,5f5adea66120081ea0f57a61,5f5c85108f9451484a0f92e3,4,,,,,,anchor,,,,,,,,,,,2,2,0,38,38,13,1,,,,,,,,,,,,,,,,,,,,,,,,,,,,,,,,,,,,,,,,,,,,,,,,,,,,,,,,,,,,,,,,,,,,,,
,,MATT,9.98559,0,,,,,,stimuli/images/PICTURE_491.png,SERIES,5f1305051d80f12cccbca0bf,04/08/1945,2020-09-12_09h23.44.873,proactive3.2,2020.1.2,Win32,60,5f5adea66120081ea0f57a61,5f5c85108f9451484a0f92e3,4,,,,,,rug,,,,,,,,,,,4,2,0,39,39,39,1,,,,,,,,,,,,,,,,,,,,,,,,,,,,,,,,,,,,,,,,,,,,,,,,,,,,,,,,,,,,,,,,,,,,,,
,,?,0.00052,0,,,,,,stimuli/images/PICTURE_160.png,HOTEL,5f1305051d80f12cccbca0bf,04/08/1945,2020-09-12_09h23.44.873,proactive3.2,2020.1.2,Win32,60,5f5adea66120081ea0f57a61,5f5c85108f9451484a0f92e3,4,,,,,,wheelbarrow,,,,,,,,,,,2,2,0,40,40,16,1,,,,,,,,,,,,,,,,,,,,,,,,,,,,,,,,,,,,,,,,,,,,,,,,,,,,,,,,,,,,,,,,,,,,,,
,,?,0.000315,0,,,,,,stimuli/images/PICTURE_405.png,JUNGLE,5f1305051d80f12cccbca0bf,04/08/1945,2020-09-12_09h23.44.873,proactive3.2,2020.1.2,Win32,60,5f5adea66120081ea0f57a61,5f5c85108f9451484a0f92e3,4,,,,,,anchor,,,,,,,,,,,6,2,0,41,41,58,1,,,,,,,,,,,,,,,,,,,,,,,,,,,,,,,,,,,,,,,,,,,,,,,,,,,,,,,,,,,,,,,,,,,,,,
,,HANG,6.921245,0,,,,,,stimuli/images/PICTURE_147.png,LEADER,5f1305051d80f12cccbca0bf,04/08/1945,2020-09-12_09h23.44.873,proactive3.2,2020.1.2,Win32,60,5f5adea66120081ea0f57a61,5f5c85108f9451484a0f92e3,4,,,,,,hanger,,,,,,,,,,,4,2,0,42,42,33,1,,,,,,,,,,,,,,,,,,,,,,,,,,,,,,,,,,,,,,,,,,,,,,,,,,,,,,,,,,,,,,,,,,,,,,
,,?,0.00059,0,,,,,,stimuli/images/PICTURE_403.png,FAMILY,5f1305051d80f12cccbca0bf,04/08/1945,2020-09-12_09h23.44.873,proactive3.2,2020.1.2,Win32,60,5f5adea66120081ea0f57a61,5f5c85108f9451484a0f92e3,4,,,,,,cathedral,,,,,,,,,,,1,2,0,43,43,9,1,,,,,,,,,,,,,,,,,,,,,,,,,,,,,,,,,,,,,,,,,,,,,,,,,,,,,,,,,,,,,,,,,,,,,,
,,?,0.00036,0,,,,,,stimuli/images/PICTURE_509.png,MILLER,5f1305051d80f12cccbca0bf,04/08/1945,2020-09-12_09h23.44.873,proactive3.2,2020.1.2,Win32,60,5f5adea66120081ea0f57a61,5f5c85108f9451484a0f92e3,4,,,,,,telephone,,,,,,,,,,,5,2,0,44,44,49,1,,,,,,,,,,,,,,,,,,,,,,,,,,,,,,,,,,,,,,,,,,,,,,,,,,,,,,,,,,,,,,,,,,,,,,
,,WEAVE,7.72211,0,,,,,,stimuli/images/PICTURE_487.png,POLICY,5f1305051d80f12cccbca0bf,04/08/1945,2020-09-12_09h23.44.873,proactive3.2,2020.1.2,Win32,60,5f5adea66120081ea0f57a61,5f5c85108f9451484a0f92e3,4,,,,,,basket,,,,,,,,,,,4,2,0,45,45,34,1,,,,,,,,,,,,,,,,,,,,,,,,,,,,,,,,,,,,,,,,,,,,,,,,,,,,,,,,,,,,,,,,,,,,,,
,,?,0.000555,0,,,,,,stimuli/images/PICTURE_654.png,COPS,5f1305051d80f12cccbca0bf,04/08/1945,2020-09-12_09h23.44.873,proactive3.2,2020.1.2,Win32,60,5f5adea66120081ea0f57a61,5f5c85108f9451484a0f92e3,4,,,,,,pencil,,,,,,,,,,,2,2,0,46,46,10,1,,,,,,,,,,,,,,,,,,,,,,,,,,,,,,,,,,,,,,,,,,,,,,,,,,,,,,,,,,,,,,,,,,,,,,
,,?,0.000355,0,,,,,,stimuli/images/PICTURE_285.png,WRITER,5f1305051d80f12cccbca0bf,04/08/1945,2020-09-12_09h23.44.873,proactive3.2,2020.1.2,Win32,60,5f5adea66120081ea0f57a61,5f5c85108f9451484a0f92e3,4,,,,,,carrot,,,,,,,,,,,1,2,0,47,47,6,1,,,,,,,,,,,,,,,,,,,,,,,,,,,,,,,,,,,,,,,,,,,,,,,,,,,,,,,,,,,,,,,,,,,,,,
,,?,0.00059,0,,,,,,stimuli/images/PICTURE_677.png,FAMILY,5f1305051d80f12cccbca0bf,04/08/1945,2020-09-12_09h23.44.873,proactive3.2,2020.1.2,Win32,60,5f5adea66120081ea0f57a61,5f5c85108f9451484a0f92e3,4,,,,,,map,,,,,,,,,,,6,2,0,48,48,53,1,,,,,,,,,,,,,,,,,,,,,,,,,,,,,,,,,,,,,,,,,,,,,,,,,,,,,,,,,,,,,,,,,,,,,,
,,?,0.000375,0,,,,,,stimuli/images/PICTURE_509.png,BATH,5f1305051d80f12cccbca0bf,04/08/1945,2020-09-12_09h23.44.873,proactive3.2,2020.1.2,Win32,60,5f5adea66120081ea0f57a61,5f5c85108f9451484a0f92e3,4,,,,,,telephone,,,,,,,,,,,2,2,0,49,49,15,1,,,,,,,,,,,,,,,,,,,,,,,,,,,,,,,,,,,,,,,,,,,,,,,,,,,,,,,,,,,,,,,,,,,,,,
,,?,0.000345,0,,,,,,stimuli/images/PICTURE_327.png,LEADER,5f1305051d80f12cccbca0bf,04/08/1945,2020-09-12_09h23.44.873,proactive3.2,2020.1.2,Win32,60,5f5adea66120081ea0f57a61,5f5c85108f9451484a0f92e3,4,,,,,,helmet,,,,,,,,,,,2,2,0,50,50,17,1,,,,,,,,,,,,,,,,,,,,,,,,,,,,,,,,,,,,,,,,,,,,,,,,,,,,,,,,,,,,,,,,,,,,,,
,,?,0.00034,0,,,,,,stimuli/images/PICTURE_692.png,DUDE,5f1305051d80f12cccbca0bf,04/08/1945,2020-09-12_09h23.44.873,proactive3.2,2020.1.2,Win32,60,5f5adea66120081ea0f57a61,5f5c85108f9451484a0f92e3,4,,,,,,cherry,,,,,,,,,,,5,2,0,51,51,47,1,,,,,,,,,,,,,,,,,,,,,,,,,,,,,,,,,,,,,,,,,,,,,,,,,,,,,,,,,,,,,,,,,,,,,,
,,?,0.000345,0,,,,,,stimuli/images/PICTURE_311.png,TOILET,5f1305051d80f12cccbca0bf,04/08/1945,2020-09-12_09h23.44.873,proactive3.2,2020.1.2,Win32,60,5f5adea66120081ea0f57a61,5f5c85108f9451484a0f92e3,4,,,,,,razor,,,,,,,,,,,6,2,0,52,52,54,1,,,,,,,,,,,,,,,,,,,,,,,,,,,,,,,,,,,,,,,,,,,,,,,,,,,,,,,,,,,,,,,,,,,,,,
,,?,0.000335,0,,,,,,stimuli/images/PICTURE_509.png,SHOTS,5f1305051d80f12cccbca0bf,04/08/1945,2020-09-12_09h23.44.873,proactive3.2,2020.1.2,Win32,60,5f5adea66120081ea0f57a61,5f5c85108f9451484a0f92e3,4,,,,,,telephone,,,,,,,,,,,1,2,0,53,53,7,1,,,,,,,,,,,,,,,,,,,,,,,,,,,,,,,,,,,,,,,,,,,,,,,,,,,,,,,,,,,,,,,,,,,,,,
,,?,0.000345,0,,,,,,stimuli/images/PICTURE_348.png,DUDE,5f1305051d80f12cccbca0bf,04/08/1945,2020-09-12_09h23.44.873,proactive3.2,2020.1.2,Win32,60,5f5adea66120081ea0f57a61,5f5c85108f9451484a0f92e3,4,,,,,,pepper,,,,,,,,,,,6,2,0,54,54,59,1,,,,,,,,,,,,,,,,,,,,,,,,,,,,,,,,,,,,,,,,,,,,,,,,,,,,,,,,,,,,,,,,,,,,,,
,,?,0.000375,0,,,,,,stimuli/images/PICTURE_356.png,CANDY,5f1305051d80f12cccbca0bf,04/08/1945,2020-09-12_09h23.44.873,proactive3.2,2020.1.2,Win32,60,5f5adea66120081ea0f57a61,5f5c85108f9451484a0f92e3,4,,,,,,pawn,,,,,,,,,,,5,2,0,55,55,46,1,,,,,,,,,,,,,,,,,,,,,,,,,,,,,,,,,,,,,,,,,,,,,,,,,,,,,,,,,,,,,,,,,,,,,,
,,RED,9.33174,0,,,,,,stimuli/images/PICTURE_509.png,APPLE,5f1305051d80f12cccbca0bf,04/08/1945,2020-09-12_09h23.44.873,proactive3.2,2020.1.2,Win32,60,5f5adea66120081ea0f57a61,5f5c85108f9451484a0f92e3,4,,,,,,telephone,,,,,,,,,,,4,2,0,56,56,38,1,,,,,,,,,,,,,,,,,,,,,,,,,,,,,,,,,,,,,,,,,,,,,,,,,,,,,,,,,,,,,,,,,,,,,,
,,?,0.000485,0,,,,,,stimuli/images/PICTURE_348.png,TOILET,5f1305051d80f12cccbca0bf,04/08/1945,2020-09-12_09h23.44.873,proactive3.2,2020.1.2,Win32,60,5f5adea66120081ea0f57a61,5f5c85108f9451484a0f92e3,4,,,,,,pepper,,,,,,,,,,,1,2,0,57,57,4,1,,,,,,,,,,,,,,,,,,,,,,,,,,,,,,,,,,,,,,,,,,,,,,,,,,,,,,,,,,,,,,,,,,,,,,
,,?,0.00028,0,,,,,,stimuli/images/PICTURE_123.png,SALE,5f1305051d80f12cccbca0bf,04/08/1945,2020-09-12_09h23.44.873,proactive3.2,2020.1.2,Win32,60,5f5adea66120081ea0f57a61,5f5c85108f9451484a0f92e3,4,,,,,,dart,,,,,,,,,,,1,2,0,58,58,8,1,,,,,,,,,,,,,,,,,,,,,,,,,,,,,,,,,,,,,,,,,,,,,,,,,,,,,,,,,,,,,,,,,,,,,,
,,?,0.0003,0,,,,,,stimuli/images/PICTURE_2.png,YARD,5f1305051d80f12cccbca0bf,04/08/1945,2020-09-12_09h23.44.873,proactive3.2,2020.1.2,Win32,60,5f5adea66120081ea0f57a61,5f5c85108f9451484a0f92e3,4,,,,,,tyre,,,,,,,,,,,6,2,0,59,59,55,1,,,,,,,,,,,,,,,,,,,,,,,,,,,,,,,,,,,,,,,,,,,,,,,,,,,,,,,,,,,,,,,,,,,,,,
,,,,,,,,,,,,5f1305051d80f12cccbca0bf,04/08/1945,2020-09-12_09h23.44.873,proactive3.2,2020.1.2,Win32,60,5f5adea66120081ea0f57a61,5f5c85108f9451484a0f92e3,4,,,,,,,,,,,,,,,,,,,,,,,,0,0,0,2,1,stimuli/learn-block3.csv,,,,,,,,,,,,,,,,,,,,,,,,,,,,,,,,,,,,,,,,,,,,,,,,,,,,,,,,,,,,,,,,
,,,,,,,,,,stimuli/images/PICTURE_403.png,RIVER,5f1305051d80f12cccbca0bf,04/08/1945,2020-09-12_09h23.44.873,proactive3.2,2020.1.2,Win32,60,5f5adea66120081ea0f57a61,5f5c85108f9451484a0f92e3,4,,,,,,cathedral,,,,,,0,0,0,40,1,5,1,,,,,,,,,,,,,,,,,,,,,,,,,,,,,,,,,,,,,,,,,,,,,,,,,,,,,,,,,,,,,,,,,,,,,,,,,,,
,,,,,,,,,,stimuli/images/PICTURE_177.png,WRITER,5f1305051d80f12cccbca0bf,04/08/1945,2020-09-12_09h23.44.873,proactive3.2,2020.1.2,Win32,60,5f5adea66120081ea0f57a61,5f5c85108f9451484a0f92e3,4,,,,,,mushroom,,,,,,0,1,1,41,1,5,1,,,,,,,,,,,,,,,,,,,,,,,,,,,,,,,,,,,,,,,,,,,,,,,,,,,,,,,,,,,,,,,,,,,,,,,,,,,
,,,,,,,,,,stimuli/images/PICTURE_296.png,LOTS,5f1305051d80f12cccbca0bf,04/08/1945,2020-09-12_09h23.44.873,proactive3.2,2020.1.2,Win32,60,5f5adea66120081ea0f57a61,5f5c85108f9451484a0f92e3,4,,,,,,bolt,,,,,,0,2,2,9,1,1,1,,,,,,,,,,,,,,,,,,,,,,,,,,,,,,,,,,,,,,,,,,,,,,,,,,,,,,,,,,,,,,,,,,,,,,,,,,,
,,,,,,,,,,stimuli/images/PICTURE_208.png,SYSTEM,5f1305051d80f12cccbca0bf,04/08/1945,2020-09-12_09h23.44.873,proactive3.2,2020.1.2,Win32,60,5f5adea66120081ea0f57a61,5f5c85108f9451484a0f92e3,4,,,,,,microphone,,,,,,0,3,3,32,1,4,1,,,,,,,,,,,,,,,,,,,,,,,,,,,,,,,,,,,,,,,,,,,,,,,,,,,,,,,,,,,,,,,,,,,,,,,,,,,
,,,,,,,,,,stimuli/images/PICTURE_285.png,LIFE,5f1305051d80f12cccbca0bf,04/08/1945,2020-09-12_09h23.44.873,proactive3.2,2020.1.2,Win32,60,5f5adea66120081ea0f57a61,5f5c85108f9451484a0f92e3,4,,,,,,carrot,,,,,,0,4,4,33,1,4,1,,,,,,,,,,,,,,,,,,,,,,,,,,,,,,,,,,,,,,,,,,,,,,,,,,,,,,,,,,,,,,,,,,,,,,,,,,,
,,,,,,,,,,stimuli/images/PICTURE_203.png,NIGHT,5f1305051d80f12cccbca0bf,04/08/1945,2020-09-12_09h23.44.873,proactive3.2,2020.1.2,Win32,60,5f5adea66120081ea0f57a61,5f5c85108f9451484a0f92e3,4,,,,,,cap,,,,,,0,5,5,2,1,1,1,,,,,,,,,,,,,,,,,,,,,,,,,,,,,,,,,,,,,,,,,,,,,,,,,,,,,,,,,,,,,,,,,,,,,,,,,,,
,,,,,,,,,,stimuli/images/PICTURE_95.png,MILLER,5f1305051d80f12cccbca0bf,04/08/1945,2020-09-12_09h23.44.873,proactive3.2,2020.1.2,Win32,60,5f5adea66120081ea0f57a61,5f5c85108f9451484a0f92e3,4,,,,,,suitcase,,,,,,0,6,6,56,1,6,1,,,,,,,,,,,,,,,,,,,,,,,,,,,,,,,,,,,,,,,,,,,,,,,,,,,,,,,,,,,,,,,,,,,,,,,,,,,
,,,,,,,,,,stimuli/images/PICTURE_308.png,FAMILY,5f1305051d80f12cccbca0bf,04/08/1945,2020-09-12_09h23.44.873,proactive3.2,2020.1.2,Win32,60,5f5adea66120081ea0f57a61,5f5c85108f9451484a0f92e3,4,,,,,,dice,,,,,,0,7,7,36,1,4,1,,,,,,,,,,,,,,,,,,,,,,,,,,,,,,,,,,,,,,,,,,,,,,,,,,,,,,,,,,,,,,,,,,,,,,,,,,,
,,,,,,,,,,stimuli/images/PICTURE_203.png,GODS,5f1305051d80f12cccbca0bf,04/08/1945,2020-09-12_09h23.44.873,proactive3.2,2020.1.2,Win32,60,5f5adea66120081ea0f57a61,5f5c85108f9451484a0f92e3,4,,,,,,cap,,,,,,0,8,8,30,1,4,1,,,,,,,,,,,,,,,,,,,,,,,,,,,,,,,,,,,,,,,,,,,,,,,,,,,,,,,,,,,,,,,,,,,,,,,,,,,
,,,,,,,,,,stimuli/images/PICTURE_744.png,WEAPON,5f1305051d80f12cccbca0bf,04/08/1945,2020-09-12_09h23.44.873,proactive3.2,2020.1.2,Win32,60,5f5adea66120081ea0f57a61,5f5c85108f9451484a0f92e3,4,,,,,,ring,,,,,,0,9,9,50,1,6,1,,,,,,,,,,,,,,,,,,,,,,,,,,,,,,,,,,,,,,,,,,,,,,,,,,,,,,,,,,,,,,,,,,,,,,,,,,,
,,,,,,,,,,stimuli/images/PICTURE_449.png,DUDE,5f1305051d80f12cccbca0bf,04/08/1945,2020-09-12_09h23.44.873,proactive3.2,2020.1.2,Win32,60,5f5adea66120081ea0f57a61,5f5c85108f9451484a0f92e3,4,,,,,,bench,,,,,,0,10,10,17,1,2,1,,,,,,,,,,,,,,,,,,,,,,,,,,,,,,,,,,,,,,,,,,,,,,,,,,,,,,,,,,,,,,,,,,,,,,,,,,,
,,,,,,,,,,stimuli/images/PICTURE_467.png,POLICY,5f1305051d80f12cccbca0bf,04/08/1945,2020-09-12_09h23.44.873,proactive3.2,2020.1.2,Win32,60,5f5adea66120081ea0f57a61,5f5c85108f9451484a0f92e3,4,,,,,,peg,,,,,,0,11,11,53,1,6,1,,,,,,,,,,,,,,,,,,,,,,,,,,,,,,,,,,,,,,,,,,,,,,,,,,,,,,,,,,,,,,,,,,,,,,,,,,,
,,,,,,,,,,stimuli/images/PICTURE_708.png,RECORD,5f1305051d80f12cccbca0bf,04/08/1945,2020-09-12_09h23.44.873,proactive3.2,2020.1.2,Win32,60,5f5adea66120081ea0f57a61,5f5c85108f9451484a0f92e3,4,,,,,,monkey,,,,,,0,12,12,58,1,6,1,,,,,,,,,,,,,,,,,,,,,,,,,,,,,,,,,,,,,,,,,,,,,,,,,,,,,,,,,,,,,,,,,,,,,,,,,,,
,,,,,,,,,,stimuli/images/PICTURE_85.png,NATION,5f1305051d80f12cccbca0bf,04/08/1945,2020-09-12_09h23.44.873,proactive3.2,2020.1.2,Win32,60,5f5adea66120081ea0f57a61,5f5c85108f9451484a0f92e3,4,,,,,,diamond,,,,,,0,13,13,5,1,1,1,,,,,,,,,,,,,,,,,,,,,,,,,,,,,,,,,,,,,,,,,,,,,,,,,,,,,,,,,,,,,,,,,,,,,,,,,,,
,,,,,,,,,,stimuli/images/PICTURE_57.png,MOMENT,5f1305051d80f12cccbca0bf,04/08/1945,2020-09-12_09h23.44.873,proactive3.2,2020.1.2,Win32,60,5f5adea66120081ea0f57a61,5f5c85108f9451484a0f92e3,4,,,,,,stamp,,,,,,0,14,14,37,1,4,1,,,,,,,,,,,,,,,,,,,,,,,,,,,,,,,,,,,,,,,,,,,,,,,,,,,,,,,,,,,,,,,,,,,,,,,,,,,
,,,,,,,,,,stimuli/images/PICTURE_68.png,ROOF,5f1305051d80f12cccbca0bf,04/08/1945,2020-09-12_09h23.44.873,proactive3.2,2020.1.2,Win32,60,5f5adea66120081ea0f57a61,5f5c85108f9451484a0f92e3,4,,,,,,candle,,,,,,0,15,15,38,1,4,1,,,,,,,,,,,,,,,,,,,,,,,,,,,,,,,,,,,,,,,,,,,,,,,,,,,,,,,,,,,,,,,,,,,,,,,,,,,
,,,,,,,,,,stimuli/images/PICTURE_750.png,HOTEL,5f1305051d80f12cccbca0bf,04/08/1945,2020-09-12_09h23.44.873,proactive3.2,2020.1.2,Win32,60,5f5adea66120081ea0f57a61,5f5c85108f9451484a0f92e3,4,,,,,,kettle,,,,,,0,16,16,27,1,3,1,,,,,,,,,,,,,,,,,,,,,,,,,,,,,,,,,,,,,,,,,,,,,,,,,,,,,,,,,,,,,,,,,,,,,,,,,,,
,,,,,,,,,,stimuli/images/PICTURE_380.png,HONEY,5f1305051d80f12cccbca0bf,04/08/1945,2020-09-12_09h23.44.873,proactive3.2,2020.1.2,Win32,60,5f5adea66120081ea0f57a61,5f5c85108f9451484a0f92e3,4,,,,,,gorilla,,,,,,0,17,17,19,1,2,1,,,,,,,,,,,,,,,,,,,,,,,,,,,,,,,,,,,,,,,,,,,,,,,,,,,,,,,,,,,,,,,,,,,,,,,,,,,
,,,,,,,,,,stimuli/images/PICTURE_327.png,CASINO,5f1305051d80f12cccbca0bf,04/08/1945,2020-09-12_09h23.44.873,proactive3.2,2020.1.2,Win32,60,5f5adea66120081ea0f57a61,5f5c85108f9451484a0f92e3,4,,,,,,helmet,,,,,,0,18,18,20,1,3,1,,,,,,,,,,,,,,,,,,,,,,,,,,,,,,,,,,,,,,,,,,,,,,,,,,,,,,,,,,,,,,,,,,,,,,,,,,,
,,,,,,,,,,stimuli/images/PICTURE_95.png,HONEY,5f1305051d80f12cccbca0bf,04/08/1945,2020-09-12_09h23.44.873,proactive3.2,2020.1.2,Win32,60,5f5adea66120081ea0f57a61,5f5c85108f9451484a0f92e3,4,,,,,,suitcase,,,,,,0,19,19,44,1,5,1,,,,,,,,,,,,,,,,,,,,,,,,,,,,,,,,,,,,,,,,,,,,,,,,,,,,,,,,,,,,,,,,,,,,,,,,,,,
,,,,,,,,,,stimuli/images/PICTURE_383.png,WRITER,5f1305051d80f12cccbca0bf,04/08/1945,2020-09-12_09h23.44.873,proactive3.2,2020.1.2,Win32,60,5f5adea66120081ea0f57a61,5f5c85108f9451484a0f92e3,4,,,,,,coin,,,,,,0,20,20,28,1,3,1,,,,,,,,,,,,,,,,,,,,,,,,,,,,,,,,,,,,,,,,,,,,,,,,,,,,,,,,,,,,,,,,,,,,,,,,,,,
,,,,,,,,,,stimuli/images/PICTURE_340.png,VALLEY,5f1305051d80f12cccbca0bf,04/08/1945,2020-09-12_09h23.44.873,proactive3.2,2020.1.2,Win32,60,5f5adea66120081ea0f57a61,5f5c85108f9451484a0f92e3,4,,,,,,mirror,,,,,,0,21,21,54,1,6,1,,,,,,,,,,,,,,,,,,,,,,,,,,,,,,,,,,,,,,,,,,,,,,,,,,,,,,,,,,,,,,,,,,,,,,,,,,,
,,,,,,,,,,stimuli/images/PICTURE_297.png,RIVER,5f1305051d80f12cccbca0bf,04/08/1945,2020-09-12_09h23.44.873,proactive3.2,2020.1.2,Win32,60,5f5adea66120081ea0f57a61,5f5c85108f9451484a0f92e3,4,,,,,,aeroplane,,,,,,0,22,22,39,1,4,1,,,,,,,,,,,,,,,,,,,,,,,,,,,,,,,,,,,,,,,,,,,,,,,,,,,,,,,,,,,,,,,,,,,,,,,,,,,
,,,,,,,,,,stimuli/images/PICTURE_469.png,AGENT,5f1305051d80f12cccbca0bf,04/08/1945,2020-09-12_09h23.44.873,proactive3.2,2020.1.2,Win32,60,5f5adea66120081ea0f57a61,5f5c85108f9451484a0f92e3,4,,,,,,stool,,,,,,0,23,23,16,1,2,1,,,,,,,,,,,,,,,,,,,,,,,,,,,,,,,,,,,,,,,,,,,,,,,,,,,,,,,,,,,,,,,,,,,,,,,,,,,
,,,,,,,,,,stimuli/images/PICTURE_339.png,CLIENT,5f1305051d80f12cccbca0bf,04/08/1945,2020-09-12_09h23.44.873,proactive3.2,2020.1.2,Win32,60,5f5adea66120081ea0f57a61,5f5c85108f9451484a0f92e3,4,,,,,,backpack,,,,,,0,24,24,11,1,2,1,,,,,,,,,,,,,,,,,,,,,,,,,,,,,,,,,,,,,,,,,,,,,,,,,,,,,,,,,,,,,,,,,,,,,,,,,,,
,,,,,,,,,,stimuli/images/PICTURE_380.png,CANDY,5f1305051d80f12cccbca0bf,04/08/1945,2020-09-12_09h23.44.873,proactive3.2,2020.1.2,Win32,60,5f5adea66120081ea0f57a61,5f5c85108f9451484a0f92e3,4,,,,,,gorilla,,,,,,0,25,25,0,1,1,1,,,,,,,,,,,,,,,,,,,,,,,,,,,,,,,,,,,,,,,,,,,,,,,,,,,,,,,,,,,,,,,,,,,,,,,,,,,
,,,,,,,,,,stimuli/images/PICTURE_383.png,SERIES,5f1305051d80f12cccbca0bf,04/08/1945,2020-09-12_09h23.44.873,proactive3.2,2020.1.2,Win32,60,5f5adea66120081ea0f57a61,5f5c85108f9451484a0f92e3,4,,,,,,coin,,,,,,0,26,26,46,1,5,1,,,,,,,,,,,,,,,,,,,,,,,,,,,,,,,,,,,,,,,,,,,,,,,,,,,,,,,,,,,,,,,,,,,,,,,,,,,
,,,,,,,,,,stimuli/images/PICTURE_655.png,TOILET,5f1305051d80f12cccbca0bf,04/08/1945,2020-09-12_09h23.44.873,proactive3.2,2020.1.2,Win32,60,5f5adea66120081ea0f57a61,5f5c85108f9451484a0f92e3,4,,,,,,megaphone,,,,,,0,27,27,12,1,2,1,,,,,,,,,,,,,,,,,,,,,,,,,,,,,,,,,,,,,,,,,,,,,,,,,,,,,,,,,,,,,,,,,,,,,,,,,,,
,,,,,,,,,,stimuli/images/PICTURE_85.png,TOILET,5f1305051d80f12cccbca0bf,04/08/1945,2020-09-12_09h23.44.873,proactive3.2,2020.1.2,Win32,60,5f5adea66120081ea0f57a61,5f5c85108f9451484a0f92e3,4,,,,,,diamond,,,,,,0,28,28,48,1,5,1,,,,,,,,,,,,,,,,,,,,,,,,,,,,,,,,,,,,,,,,,,,,,,,,,,,,,,,,,,,,,,,,,,,,,,,,,,,
,,,,,,,,,,stimuli/images/PICTURE_675.png,SALE,5f1305051d80f12cccbca0bf,04/08/1945,2020-09-12_09h23.44.873,proactive3.2,2020.1.2,Win32,60,5f5adea66120081ea0f57a61,5f5c85108f9451484a0f92e3,4,,,,,,windmill,,,,,,0,29,29,47,1,5,1,,,,,,,,,,,,,,,,,,,,,,,,,,,,,,,,,,,,,,,,,,,,,,,,,,,,,,,,,,,,,,,,,,,,,,,,,,,
,,,,,,,,,,stimuli/images/PICTURE_405.png,PLENTY,5f1305051d80f12cccbca0bf,04/08/1945,2020-09-12_09h23.44.873,proactive3.2,2020.1.2,Win32,60,5f5adea66120081ea0f57a61,5f5c85108f9451484a0f92e3,4,,,,,,anchor,,,,,,0,30,30,23,1,3,1,,,,,,,,,,,,,,,,,,,,,,,,,,,,,,,,,,,,,,,,,,,,,,,,,,,,,,,,,,,,,,,,,,,,,,,,,,,
,,,,,,,,,,stimuli/images/PICTURE_491.png,GLASS,5f1305051d80f12cccbca0bf,04/08/1945,2020-09-12_09h23.44.873,proactive3.2,2020.1.2,Win32,60,5f5adea66120081ea0f57a61,5f5c85108f9451484a0f92e3,4,,,,,,rug,,,,,,0,31,31,14,1,2,1,,,,,,,,,,,,,,,,,,,,,,,,,,,,,,,,,,,,,,,,,,,,,,,,,,,,,,,,,,,,,,,,,,,,,,,,,,,
,,,,,,,,,,stimuli/images/PICTURE_677.png,APPLE,5f1305051d80f12cccbca0bf,04/08/1945,2020-09-12_09h23.44.873,proactive3.2,2020.1.2,Win32,60,5f5adea66120081ea0f57a61,5f5c85108f9451484a0f92e3,4,,,,,,map,,,,,,0,32,32,43,1,5,1,,,,,,,,,,,,,,,,,,,,,,,,,,,,,,,,,,,,,,,,,,,,,,,,,,,,,,,,,,,,,,,,,,,,,,,,,,,
,,,,,,,,,,stimuli/images/PICTURE_504.png,COPS,5f1305051d80f12cccbca0bf,04/08/1945,2020-09-12_09h23.44.873,proactive3.2,2020.1.2,Win32,60,5f5adea66120081ea0f57a61,5f5c85108f9451484a0f92e3,4,,,,,,wheel,,,,,,0,33,33,52,1,6,1,,,,,,,,,,,,,,,,,,,,,,,,,,,,,,,,,,,,,,,,,,,,,,,,,,,,,,,,,,,,,,,,,,,,,,,,,,,
,,,,,,,,,,stimuli/images/PICTURE_340.png,LETTER,5f1305051d80f12cccbca0bf,04/08/1945,2020-09-12_09h23.44.873,proactive3.2,2020.1.2,Win32,60,5f5adea66120081ea0f57a61,5f5c85108f9451484a0f92e3,4,,,,,,mirror,,,,,,0,34,34,24,1,3,1,,,,,,,,,,,,,,,,,,,,,,,,,,,,,,,,,,,,,,,,,,,,,,,,,,,,,,,,,,,,,,,,,,,,,,,,,,,
,,,,,,,,,,stimuli/images/PICTURE_147.png,WOMEN,5f1305051d80f12cccbca0bf,04/08/1945,2020-09-12_09h23.44.873,proactive3.2,2020.1.2,Win32,60,5f5adea66120081ea0f57a61,5f5c85108f9451484a0f92e3,4,,,,,,hanger,,,,,,0,35,35,7,1,1,1,,,,,,,,,,,,,,,,,,,,,,,,,,,,,,,,,,,,,,,,,,,,,,,,,,,,,,,,,,,,,,,,,,,,,,,,,,,
,,,,,,,,,,stimuli/images/PICTURE_654.png,MONTH,5f1305051d80f12cccbca0bf,04/08/1945,2020-09-12_09h23.44.873,proactive3.2,2020.1.2,Win32,60,5f5adea66120081ea0f57a61,5f5c85108f9451484a0f92e3,4,,,,,,pencil,,,,,,0,36,36,29,1,3,1,,,,,,,,,,,,,,,,,,,,,,,,,,,,,,,,,,,,,,,,,,,,,,,,,,,,,,,,,,,,,,,,,,,,,,,,,,,
,,,,,,,,,,stimuli/images/PICTURE_405.png,YEAR,5f1305051d80f12cccbca0bf,04/08/1945,2020-09-12_09h23.44.873,proactive3.2,2020.1.2,Win32,60,5f5adea66120081ea0f57a61,5f5c85108f9451484a0f92e3,4,,,,,,anchor,,,,,,0,37,37,34,1,4,1,,,,,,,,,,,,,,,,,,,,,,,,,,,,,,,,,,,,,,,,,,,,,,,,,,,,,,,,,,,,,,,,,,,,,,,,,,,
,,,,,,,,,,stimuli/images/PICTURE_108.png,FLIGHT,5f1305051d80f12cccbca0bf,04/08/1945,2020-09-12_09h23.44.873,proactive3.2,2020.1.2,Win32,60,5f5adea66120081ea0f57a61,5f5c85108f9451484a0f92e3,4,,,,,,calendar,,,,,,0,38,38,59,1,6,1,,,,,,,,,,,,,,,,,,,,,,,,,,,,,,,,,,,,,,,,,,,,,,,,,,,,,,,,,,,,,,,,,,,,,,,,,,,
,,,,,,,,,,stimuli/images/PICTURE_2.png,FLIGHT,5f1305051d80f12cccbca0bf,04/08/1945,2020-09-12_09h23.44.873,proactive3.2,2020.1.2,Win32,60,5f5adea66120081ea0f57a61,5f5c85108f9451484a0f92e3,4,,,,,,tyre,,,,,,0,39,39,15,1,2,1,,,,,,,,,,,,,,,,,,,,,,,,,,,,,,,,,,,,,,,,,,,,,,,,,,,,,,,,,,,,,,,,,,,,,,,,,,,
,,,,,,,,,,stimuli/images/PICTURE_42.png,BOYS,5f1305051d80f12cccbca0bf,04/08/1945,2020-09-12_09h23.44.873,proactive3.2,2020.1.2,Win32,60,5f5adea66120081ea0f57a61,5f5c85108f9451484a0f92e3,4,,,,,,pear,,,,,,0,40,40,55,1,6,1,,,,,,,,,,,,,,,,,,,,,,,,,,,,,,,,,,,,,,,,,,,,,,,,,,,,,,,,,,,,,,,,,,,,,,,,,,,
,,,,,,,,,,stimuli/images/PICTURE_33.png,FRIEND,5f1305051d80f12cccbca0bf,04/08/1945,2020-09-12_09h23.44.873,proactive3.2,2020.1.2,Win32,60,5f5adea66120081ea0f57a61,5f5c85108f9451484a0f92e3,4,,,,,,frame,,,,,,0,41,41,8,1,1,1,,,,,,,,,,,,,,,,,,,,,,,,,,,,,,,,,,,,,,,,,,,,,,,,,,,,,,,,,,,,,,,,,,,,,,,,,,,
,,,,,,,,,,stimuli/images/PICTURE_68.png,MILE,5f1305051d80f12cccbca0bf,04/08/1945,2020-09-12_09h23.44.873,proactive3.2,2020.1.2,Win32,60,5f5adea66120081ea0f57a61,5f5c85108f9451484a0f92e3,4,,,,,,candle,,,,,,0,42,42,51,1,6,1,,,,,,,,,,,,,,,,,,,,,,,,,,,,,,,,,,,,,,,,,,,,,,,,,,,,,,,,,,,,,,,,,,,,,,,,,,,
,,,,,,,,,,stimuli/images/PICTURE_504.png,YEAR,5f1305051d80f12cccbca0bf,04/08/1945,2020-09-12_09h23.44.873,proactive3.2,2020.1.2,Win32,60,5f5adea66120081ea0f57a61,5f5c85108f9451484a0f92e3,4,,,,,,wheel,,,,,,0,43,43,13,1,2,1,,,,,,,,,,,,,,,,,,,,,,,,,,,,,,,,,,,,,,,,,,,,,,,,,,,,,,,,,,,,,,,,,,,,,,,,,,,
,,,,,,,,,,stimuli/images/PICTURE_95.png,BOYS,5f1305051d80f12cccbca0bf,04/08/1945,2020-09-12_09h23.44.873,proactive3.2,2020.1.2,Win32,60,5f5adea66120081ea0f57a61,5f5c85108f9451484a0f92e3,4,,,,,,suitcase,,,,,,0,44,44,1,1,1,1,,,,,,,,,,,,,,,,,,,,,,,,,,,,,,,,,,,,,,,,,,,,,,,,,,,,,,,,,,,,,,,,,,,,,,,,,,,
,,,,,,,,,,stimuli/images/PICTURE_327.png,SERIES,5f1305051d80f12cccbca0bf,04/08/1945,2020-09-12_09h23.44.873,proactive3.2,2020.1.2,Win32,60,5f5adea66120081ea0f57a61,5f5c85108f9451484a0f92e3,4,,,,,,helmet,,,,,,0,45,45,3,1,1,1,,,,,,,,,,,,,,,,,,,,,,,,,,,,,,,,,,,,,,,,,,,,,,,,,,,,,,,,,,,,,,,,,,,,,,,,,,,
,,,,,,,,,,stimuli/images/PICTURE_32.png,PILLS,5f1305051d80f12cccbca0bf,04/08/1945,2020-09-12_09h23.44.873,proactive3.2,2020.1.2,Win32,60,5f5adea66120081ea0f57a61,5f5c85108f9451484a0f92e3,4,,,,,,crown,,,,,,0,46,46,18,1,2,1,,,,,,,,,,,,,,,,,,,,,,,,,,,,,,,,,,,,,,,,,,,,,,,,,,,,,,,,,,,,,,,,,,,,,,,,,,,
,,,,,,,,,,stimuli/images/PICTURE_403.png,TOILET,5f1305051d80f12cccbca0bf,04/08/1945,2020-09-12_09h23.44.873,proactive3.2,2020.1.2,Win32,60,5f5adea66120081ea0f57a61,5f5c85108f9451484a0f92e3,4,,,,,,cathedral,,,,,,0,47,47,25,1,3,1,,,,,,,,,,,,,,,,,,,,,,,,,,,,,,,,,,,,,,,,,,,,,,,,,,,,,,,,,,,,,,,,,,,,,,,,,,,
,,,,,,,,,,stimuli/images/PICTURE_685.png,PENNY,5f1305051d80f12cccbca0bf,04/08/1945,2020-09-12_09h23.44.873,proactive3.2,2020.1.2,Win32,60,5f5adea66120081ea0f57a61,5f5c85108f9451484a0f92e3,4,,,,,,goose,,,,,,0,48,48,4,1,1,1,,,,,,,,,,,,,,,,,,,,,,,,,,,,,,,,,,,,,,,,,,,,,,,,,,,,,,,,,,,,,,,,,,,,,,,,,,,
,,,,,,,,,,stimuli/images/PICTURE_487.png,GIRL,5f1305051d80f12cccbca0bf,04/08/1945,2020-09-12_09h23.44.873,proactive3.2,2020.1.2,Win32,60,5f5adea66120081ea0f57a61,5f5c85108f9451484a0f92e3,4,,,,,,basket,,,,,,0,49,49,45,1,5,1,,,,,,,,,,,,,,,,,,,,,,,,,,,,,,,,,,,,,,,,,,,,,,,,,,,,,,,,,,,,,,,,,,,,,,,,,,,
,,,,,,,,,,stimuli/images/PICTURE_32.png,KIND,5f1305051d80f12cccbca0bf,04/08/1945,2020-09-12_09h23.44.873,proactive3.2,2020.1.2,Win32,60,5f5adea66120081ea0f57a61,5f5c85108f9451484a0f92e3,4,,,,,,crown,,,,,,0,50,50,35,1,4,1,,,,,,,,,,,,,,,,,,,,,,,,,,,,,,,,,,,,,,,,,,,,,,,,,,,,,,,,,,,,,,,,,,,,,,,,,,,
,,,,,,,,,,stimuli/images/PICTURE_564.png,BATH,5f1305051d80f12cccbca0bf,04/08/1945,2020-09-12_09h23.44.873,proactive3.2,2020.1.2,Win32,60,5f5adea66120081ea0f57a61,5f5c85108f9451484a0f92e3,4,,,,,,spoon,,,,,,0,51,51,26,1,3,1,,,,,,,,,,,,,,,,,,,,,,,,,,,,,,,,,,,,,,,,,,,,,,,,,,,,,,,,,,,,,,,,,,,,,,,,,,,
,,,,,,,,,,stimuli/images/PICTURE_667.png,RIVER,5f1305051d80f12cccbca0bf,04/08/1945,2020-09-12_09h23.44.873,proactive3.2,2020.1.2,Win32,60,5f5adea66120081ea0f57a61,5f5c85108f9451484a0f92e3,4,,,,,,daisy,,,,,,0,52,52,10,1,2,1,,,,,,,,,,,,,,,,,,,,,,,,,,,,,,,,,,,,,,,,,,,,,,,,,,,,,,,,,,,,,,,,,,,,,,,,,,,
,,,,,,,,,,stimuli/images/PICTURE_108.png,POLICY,5f1305051d80f12cccbca0bf,04/08/1945,2020-09-12_09h23.44.873,proactive3.2,2020.1.2,Win32,60,5f5adea66120081ea0f57a61,5f5c85108f9451484a0f92e3,4,,,,,,calendar,,,,,,0,53,53,22,1,3,1,,,,,,,,,,,,,,,,,,,,,,,,,,,,,,,,,,,,,,,,,,,,,,,,,,,,,,,,,,,,,,,,,,,,,,,,,,,
,,,,,,,,,,stimuli/images/PICTURE_296.png,LIFE,5f1305051d80f12cccbca0bf,04/08/1945,2020-09-12_09h23.44.873,proactive3.2,2020.1.2,Win32,60,5f5adea66120081ea0f57a61,5f5c85108f9451484a0f92e3,4,,,,,,bolt,,,,,,0,54,54,57,1,6,1,,,,,,,,,,,,,,,,,,,,,,,,,,,,,,,,,,,,,,,,,,,,,,,,,,,,,,,,,,,,,,,,,,,,,,,,,,,
,,,,,,,,,,stimuli/images/PICTURE_233.png,LOTS,5f1305051d80f12cccbca0bf,04/08/1945,2020-09-12_09h23.44.873,proactive3.2,2020.1.2,Win32,60,5f5adea66120081ea0f57a61,5f5c85108f9451484a0f92e3,4,,,,,,salt,,,,,,0,55,55,42,1,5,1,,,,,,,,,,,,,,,,,,,,,,,,,,,,,,,,,,,,,,,,,,,,,,,,,,,,,,,,,,,,,,,,,,,,,,,,,,,
,,,,,,,,,,stimuli/images/PICTURE_491.png,RIVER,5f1305051d80f12cccbca0bf,04/08/1945,2020-09-12_09h23.44.873,proactive3.2,2020.1.2,Win32,60,5f5adea66120081ea0f57a61,5f5c85108f9451484a0f92e3,4,,,,,,rug,,,,,,0,56,56,6,1,1,1,,,,,,,,,,,,,,,,,,,,,,,,,,,,,,,,,,,,,,,,,,,,,,,,,,,,,,,,,,,,,,,,,,,,,,,,,,,
,,,,,,,,,,stimuli/images/PICTURE_504.png,ARTIST,5f1305051d80f12cccbca0bf,04/08/1945,2020-09-12_09h23.44.873,proactive3.2,2020.1.2,Win32,60,5f5adea66120081ea0f57a61,5f5c85108f9451484a0f92e3,4,,,,,,wheel,,,,,,0,57,57,49,1,5,1,,,,,,,,,,,,,,,,,,,,,,,,,,,,,,,,,,,,,,,,,,,,,,,,,,,,,,,,,,,,,,,,,,,,,,,,,,,
,,,,,,,,,,stimuli/images/PICTURE_403.png,WRITER,5f1305051d80f12cccbca0bf,04/08/1945,2020-09-12_09h23.44.873,proactive3.2,2020.1.2,Win32,60,5f5adea66120081ea0f57a61,5f5c85108f9451484a0f92e3,4,,,,,,cathedral,,,,,,0,58,58,31,1,4,1,,,,,,,,,,,,,,,,,,,,,,,,,,,,,,,,,,,,,,,,,,,,,,,,,,,,,,,,,,,,,,,,,,,,,,,,,,,
,,?,0.00046,0,,,,,,stimuli/images/PICTURE_708.png,RECORD,5f1305051d80f12cccbca0bf,04/08/1945,2020-09-12_09h23.44.873,proactive3.2,2020.1.2,Win32,60,5f5adea66120081ea0f57a61,5f5c85108f9451484a0f92e3,4,,,,,,monkey,,,,,,,,,,,6,1,0,0,0,58,1,,,,,,,,,,,,,,,,,,,,,,,,,,,,,,,,,,,,,,,,,,,,,,,,,,,,,,,,,,,,,,,,,,,,,,
,,?,0.000295,0,,,,,,stimuli/images/PICTURE_95.png,HONEY,5f1305051d80f12cccbca0bf,04/08/1945,2020-09-12_09h23.44.873,proactive3.2,2020.1.2,Win32,60,5f5adea66120081ea0f57a61,5f5c85108f9451484a0f92e3,4,,,,,,suitcase,,,,,,,,,,,5,1,0,1,1,44,1,,,,,,,,,,,,,,,,,,,,,,,,,,,,,,,,,,,,,,,,,,,,,,,,,,,,,,,,,,,,,,,,,,,,,,
,,?,0.00122,0,,,,,,stimuli/images/PICTURE_685.png,PENNY,5f1305051d80f12cccbca0bf,04/08/1945,2020-09-12_09h23.44.873,proactive3.2,2020.1.2,Win32,60,5f5adea66120081ea0f57a61,5f5c85108f9451484a0f92e3,4,,,,,,goose,,,,,,,,,,,1,1,0,2,2,4,1,,,,,,,,,,,,,,,,,,,,,,,,,,,,,,,,,,,,,,,,,,,,,,,,,,,,,,,,,,,,,,,,,,,,,,
,,?,0.000285,0,,,,,,stimuli/images/PICTURE_147.png,WOMEN,5f1305051d80f12cccbca0bf,04/08/1945,2020-09-12_09h23.44.873,proactive3.2,2020.1.2,Win32,60,5f5adea66120081ea0f57a61,5f5c85108f9451484a0f92e3,4,,,,,,hanger,,,,,,,,,,,1,1,0,3,3,7,1,,,,,,,,,,,,,,,,,,,,,,,,,,,,,,,,,,,,,,,,,,,,,,,,,,,,,,,,,,,,,,,,,,,,,,
,,?,0.00028,0,,,,,,stimuli/images/PICTURE_108.png,FLIGHT,5f1305051d80f12cccbca0bf,04/08/1945,2020-09-12_09h23.44.873,proactive3.2,2020.1.2,Win32,60,5f5adea66120081ea0f57a61,5f5c85108f9451484a0f92e3,4,,,,,,calendar,,,,,,,,,,,6,1,0,4,4,59,1,,,,,,,,,,,,,,,,,,,,,,,,,,,,,,,,,,,,,,,,,,,,,,,,,,,,,,,,,,,,,,,,,,,,,,
,,?,0.000295,0,,,,,,stimuli/images/PICTURE_42.png,BOYS,5f1305051d80f12cccbca0bf,04/08/1945,2020-09-12_09h23.44.873,proactive3.2,2020.1.2,Win32,60,5f5adea66120081ea0f57a61,5f5c85108f9451484a0f92e3,4,,,,,,pear,,,,,,,,,,,6,1,0,5,5,55,1,,,,,,,,,,,,,,,,,,,,,,,,,,,,,,,,,,,,,,,,,,,,,,,,,,,,,,,,,,,,,,,,,,,,,,
,,?,0.000275,0,,,,,,stimuli/images/PICTURE_504.png,YEAR,5f1305051d80f12cccbca0bf,04/08/1945,2020-09-12_09h23.44.873,proactive3.2,2020.1.2,Win32,60,5f5adea66120081ea0f57a61,5f5c85108f9451484a0f92e3,4,,,,,,wheel,,,,,,,,,,,2,1,0,6,6,13,1,,,,,,,,,,,,,,,,,,,,,,,,,,,,,,,,,,,,,,,,,,,,,,,,,,,,,,,,,,,,,,,,,,,,,,
,,?,0.000635,0,,,,,,stimuli/images/PICTURE_147.png,YEAR,5f1305051d80f12cccbca0bf,04/08/1945,2020-09-12_09h23.44.873,proactive3.2,2020.1.2,Win32,60,5f5adea66120081ea0f57a61,5f5c85108f9451484a0f92e3,4,,,,,,hanger,,,,,,,,,,,3,1,0,7,7,21,1,,,,,,,,,,,,,,,,,,,,,,,,,,,,,,,,,,,,,,,,,,,,,,,,,,,,,,,,,,,,,,,,,,,,,,
,,?,0.00028,0,,,,,,stimuli/images/PICTURE_469.png,AGENT,5f1305051d80f12cccbca0bf,04/08/1945,2020-09-12_09h23.44.873,proactive3.2,2020.1.2,Win32,60,5f5adea66120081ea0f57a61,5f5c85108f9451484a0f92e3,4,,,,,,stool,,,,,,,,,,,2,1,0,8,8,16,1,,,,,,,,,,,,,,,,,,,,,,,,,,,,,,,,,,,,,,,,,,,,,,,,,,,,,,,,,,,,,,,,,,,,,,
,,?,0.000355,0,,,,,,stimuli/images/PICTURE_654.png,MONTH,5f1305051d80f12cccbca0bf,04/08/1945,2020-09-12_09h23.44.873,proactive3.2,2020.1.2,Win32,60,5f5adea66120081ea0f57a61,5f5c85108f9451484a0f92e3,4,,,,,,pencil,,,,,,,,,,,3,1,0,9,9,29,1,,,,,,,,,,,,,,,,,,,,,,,,,,,,,,,,,,,,,,,,,,,,,,,,,,,,,,,,,,,,,,,,,,,,,,
,,?,0.00028,0,,,,,,stimuli/images/PICTURE_68.png,MILE,5f1305051d80f12cccbca0bf,04/08/1945,2020-09-12_09h23.44.873,proactive3.2,2020.1.2,Win32,60,5f5adea66120081ea0f57a61,5f5c85108f9451484a0f92e3,4,,,,,,candle,,,,,,,,,,,6,1,0,10,10,51,1,,,,,,,,,,,,,,,,,,,,,,,,,,,,,,,,,,,,,,,,,,,,,,,,,,,,,,,,,,,,,,,,,,,,,,
,,?,0.00027,0,,,,,,stimuli/images/PICTURE_203.png,NIGHT,5f1305051d80f12cccbca0bf,04/08/1945,2020-09-12_09h23.44.873,proactive3.2,2020.1.2,Win32,60,5f5adea66120081ea0f57a61,5f5c85108f9451484a0f92e3,4,,,,,,cap,,,,,,,,,,,1,1,0,11,11,2,1,,,,,,,,,,,,,,,,,,,,,,,,,,,,,,,,,,,,,,,,,,,,,,,,,,,,,,,,,,,,,,,,,,,,,,
,,?,0.00028,0,,,,,,stimuli/images/PICTURE_405.png,PLENTY,5f1305051d80f12cccbca0bf,04/08/1945,2020-09-12_09h23.44.873,proactive3.2,2020.1.2,Win32,60,5f5adea66120081ea0f57a61,5f5c85108f9451484a0f92e3,4,,,,,,anchor,,,,,,,,,,,3,1,0,12,12,23,1,,,,,,,,,,,,,,,,,,,,,,,,,,,,,,,,,,,,,,,,,,,,,,,,,,,,,,,,,,,,,,,,,,,,,,
,,?,0.00028,0,,,,,,stimuli/images/PICTURE_177.png,WRITER,5f1305051d80f12cccbca0bf,04/08/1945,2020-09-12_09h23.44.873,proactive3.2,2020.1.2,Win32,60,5f5adea66120081ea0f57a61,5f5c85108f9451484a0f92e3,4,,,,,,mushroom,,,,,,,,,,,5,1,0,13,13,41,1,,,,,,,,,,,,,,,,,,,,,,,,,,,,,,,,,,,,,,,,,,,,,,,,,,,,,,,,,,,,,,,,,,,,,,
,,?,0.000325,0,,,,,,stimuli/images/PICTURE_233.png,LOTS,5f1305051d80f12cccbca0bf,04/08/1945,2020-09-12_09h23.44.873,proactive3.2,2020.1.2,Win32,60,5f5adea66120081ea0f57a61,5f5c85108f9451484a0f92e3,4,,,,,,salt,,,,,,,,,,,5,1,0,14,14,42,1,,,,,,,,,,,,,,,,,,,,,,,,,,,,,,,,,,,,,,,,,,,,,,,,,,,,,,,,,,,,,,,,,,,,,,
,,?,0.000295,0,,,,,,stimuli/images/PICTURE_340.png,LETTER,5f1305051d80f12cccbca0bf,04/08/1945,2020-09-12_09h23.44.873,proactive3.2,2020.1.2,Win32,60,5f5adea66120081ea0f57a61,5f5c85108f9451484a0f92e3,4,,,,,,mirror,,,,,,,,,,,3,1,0,15,15,24,1,,,,,,,,,,,,,,,,,,,,,,,,,,,,,,,,,,,,,,,,,,,,,,,,,,,,,,,,,,,,,,,,,,,,,,
,,?,0.00028,0,,,,,,stimuli/images/PICTURE_487.png,GIRL,5f1305051d80f12cccbca0bf,04/08/1945,2020-09-12_09h23.44.873,proactive3.2,2020.1.2,Win32,60,5f5adea66120081ea0f57a61,5f5c85108f9451484a0f92e3,4,,,,,,basket,,,,,,,,,,,5,1,0,16,16,45,1,,,,,,,,,,,,,,,,,,,,,,,,,,,,,,,,,,,,,,,,,,,,,,,,,,,,,,,,,,,,,,,,,,,,,,
,,?,0.000285,0,,,,,,stimuli/images/PICTURE_327.png,SERIES,5f1305051d80f12cccbca0bf,04/08/1945,2020-09-12_09h23.44.873,proactive3.2,2020.1.2,Win32,60,5f5adea66120081ea0f57a61,5f5c85108f9451484a0f92e3,4,,,,,,helmet,,,,,,,,,,,1,1,0,17,17,3,1,,,,,,,,,,,,,,,,,,,,,,,,,,,,,,,,,,,,,,,,,,,,,,,,,,,,,,,,,,,,,,,,,,,,,,
,,MOMENT,8.673865,0,,,,,,stimuli/images/PICTURE_68.png,ROOF,5f1305051d80f12cccbca0bf,04/08/1945,2020-09-12_09h23.44.873,proactive3.2,2020.1.2,Win32,60,5f5adea66120081ea0f57a61,5f5c85108f9451484a0f92e3,4,,,,,,candle,,,,,,,,,,,4,1,0,18,18,38,1,,,,,,,,,,,,,,,,,,,,,,,,,,,,,,,,,,,,,,,,,,,,,,,,,,,,,,,,,,,,,,,,,,,,,,
,,?,0.000555,0,,,,,,stimuli/images/PICTURE_296.png,LIFE,5f1305051d80f12cccbca0bf,04/08/1945,2020-09-12_09h23.44.873,proactive3.2,2020.1.2,Win32,60,5f5adea66120081ea0f57a61,5f5c85108f9451484a0f92e3,4,,,,,,bolt,,,,,,,,,,,6,1,0,19,19,57,1,,,,,,,,,,,,,,,,,,,,,,,,,,,,,,,,,,,,,,,,,,,,,,,,,,,,,,,,,,,,,,,,,,,,,,
,,?,0.00036,0,,,,,,stimuli/images/PICTURE_403.png,TOILET,5f1305051d80f12cccbca0bf,04/08/1945,2020-09-12_09h23.44.873,proactive3.2,2020.1.2,Win32,60,5f5adea66120081ea0f57a61,5f5c85108f9451484a0f92e3,4,,,,,,cathedral,,,,,,,,,,,3,1,0,20,20,25,1,,,,,,,,,,,,,,,,,,,,,,,,,,,,,,,,,,,,,,,,,,,,,,,,,,,,,,,,,,,,,,,,,,,,,,
,,?,0.000335,0,,,,,,stimuli/images/PICTURE_383.png,SERIES,5f1305051d80f12cccbca0bf,04/08/1945,2020-09-12_09h23.44.873,proactive3.2,2020.1.2,Win32,60,5f5adea66120081ea0f57a61,5f5c85108f9451484a0f92e3,4,,,,,,coin,,,,,,,,,,,5,1,0,21,21,46,1,,,,,,,,,,,,,,,,,,,,,,,,,,,,,,,,,,,,,,,,,,,,,,,,,,,,,,,,,,,,,,,,,,,,,,
,,?,0.000335,0,,,,,,stimuli/images/PICTURE_296.png,LOTS,5f1305051d80f12cccbca0bf,04/08/1945,2020-09-12_09h23.44.873,proactive3.2,2020.1.2,Win32,60,5f5adea66120081ea0f57a61,5f5c85108f9451484a0f92e3,4,,,,,,bolt,,,,,,,,,,,1,1,0,22,22,9,1,,,,,,,,,,,,,,,,,,,,,,,,,,,,,,,,,,,,,,,,,,,,,,,,,,,,,,,,,,,,,,,,,,,,,,
,,?,0.00036,0,,,,,,stimuli/images/PICTURE_491.png,RIVER,5f1305051d80f12cccbca0bf,04/08/1945,2020-09-12_09h23.44.873,proactive3.2,2020.1.2,Win32,60,5f5adea66120081ea0f57a61,5f5c85108f9451484a0f92e3,4,,,,,,rug,,,,,,,,,,,1,1,0,23,23,6,1,,,,,,,,,,,,,,,,,,,,,,,,,,,,,,,,,,,,,,,,,,,,,,,,,,,,,,,,,,,,,,,,,,,,,,
,,?,0.000495,0,,,,,,stimuli/images/PICTURE_449.png,DUDE,5f1305051d80f12cccbca0bf,04/08/1945,2020-09-12_09h23.44.873,proactive3.2,2020.1.2,Win32,60,5f5adea66120081ea0f57a61,5f5c85108f9451484a0f92e3,4,,,,,,bench,,,,,,,,,,,2,1,0,24,24,17,1,,,,,,,,,,,,,,,,,,,,,,,,,,,,,,,,,,,,,,,,,,,,,,,,,,,,,,,,,,,,,,,,,,,,,,
,,YEAR,3.712495,1,,,,,,stimuli/images/PICTURE_405.png,YEAR,5f1305051d80f12cccbca0bf,04/08/1945,2020-09-12_09h23.44.873,proactive3.2,2020.1.2,Win32,60,5f5adea66120081ea0f57a61,5f5c85108f9451484a0f92e3,4,,,,,,anchor,,,,,,,,,,,4,1,0,25,25,34,1,,,,,,,,,,,,,,,,,,,,,,,,,,,,,,,,,,,,,,,,,,,,,,,,,,,,,,,,,,,,,,,,,,,,,,
,,?,0.0005,0,,,,,,stimuli/images/PICTURE_403.png,RIVER,5f1305051d80f12cccbca0bf,04/08/1945,2020-09-12_09h23.44.873,proactive3.2,2020.1.2,Win32,60,5f5adea66120081ea0f57a61,5f5c85108f9451484a0f92e3,4,,,,,,cathedral,,,,,,,,,,,5,1,0,26,26,40,1,,,,,,,,,,,,,,,,,,,,,,,,,,,,,,,,,,,,,,,,,,,,,,,,,,,,,,,,,,,,,,,,,,,,,,
,,GODS,3.71916,1,,,,,,stimuli/images/PICTURE_203.png,GODS,5f1305051d80f12cccbca0bf,04/08/1945,2020-09-12_09h23.44.873,proactive3.2,2020.1.2,Win32,60,5f5adea66120081ea0f57a61,5f5c85108f9451484a0f92e3,4,,,,,,cap,,,,,,,,,,,4,1,0,27,27,30,1,,,,,,,,,,,,,,,,,,,,,,,,,,,,,,,,,,,,,,,,,,,,,,,,,,,,,,,,,,,,,,,,,,,,,,
,,FAMILY,4.470485,1,,,,,,stimuli/images/PICTURE_308.png,FAMILY,5f1305051d80f12cccbca0bf,04/08/1945,2020-09-12_09h23.44.873,proactive3.2,2020.1.2,Win32,60,5f5adea66120081ea0f57a61,5f5c85108f9451484a0f92e3,4,,,,,,dice,,,,,,,,,,,4,1,0,28,28,36,1,,,,,,,,,,,,,,,,,,,,,,,,,,,,,,,,,,,,,,,,,,,,,,,,,,,,,,,,,,,,,,,,,,,,,,
,,?,0.00046,0,,,,,,stimuli/images/PICTURE_33.png,FRIEND,5f1305051d80f12cccbca0bf,04/08/1945,2020-09-12_09h23.44.873,proactive3.2,2020.1.2,Win32,60,5f5adea66120081ea0f57a61,5f5c85108f9451484a0f92e3,4,,,,,,frame,,,,,,,,,,,1,1,0,29,29,8,1,,,,,,,,,,,,,,,,,,,,,,,,,,,,,,,,,,,,,,,,,,,,,,,,,,,,,,,,,,,,,,,,,,,,,,
,,?,0.000295,0,,,,,,stimuli/images/PICTURE_675.png,SALE,5f1305051d80f12cccbca0bf,04/08/1945,2020-09-12_09h23.44.873,proactive3.2,2020.1.2,Win32,60,5f5adea66120081ea0f57a61,5f5c85108f9451484a0f92e3,4,,,,,,windmill,,,,,,,,,,,5,1,0,30,30,47,1,,,,,,,,,,,,,,,,,,,,,,,,,,,,,,,,,,,,,,,,,,,,,,,,,,,,,,,,,,,,,,,,,,,,,,
,,?,0.000275,0,,,,,,stimuli/images/PICTURE_383.png,WRITER,5f1305051d80f12cccbca0bf,04/08/1945,2020-09-12_09h23.44.873,proactive3.2,2020.1.2,Win32,60,5f5adea66120081ea0f57a61,5f5c85108f9451484a0f92e3,4,,,,,,coin,,,,,,,,,,,3,1,0,31,31,28,1,,,,,,,,,,,,,,,,,,,,,,,,,,,,,,,,,,,,,,,,,,,,,,,,,,,,,,,,,,,,,,,,,,,,,,
,,RIVER,3.51758,1,,,,,,stimuli/images/PICTURE_297.png,RIVER,5f1305051d80f12cccbca0bf,04/08/1945,2020-09-12_09h23.44.873,proactive3.2,2020.1.2,Win32,60,5f5adea66120081ea0f57a61,5f5c85108f9451484a0f92e3,4,,,,,,aeroplane,,,,,,,,,,,4,1,0,32,32,39,1,,,,,,,,,,,,,,,,,,,,,,,,,,,,,,,,,,,,,,,,,,,,,,,,,,,,,,,,,,,,,,,,,,,,,,
,,LIFE,2.21919,1,,,,,,stimuli/images/PICTURE_285.png,LIFE,5f1305051d80f12cccbca0bf,04/08/1945,2020-09-12_09h23.44.873,proactive3.2,2020.1.2,Win32,60,5f5adea66120081ea0f57a61,5f5c85108f9451484a0f92e3,4,,,,,,carrot,,,,,,,,,,,4,1,0,33,33,33,1,,,,,,,,,,,,,,,,,,,,,,,,,,,,,,,,,,,,,,,,,,,,,,,,,,,,,,,,,,,,,,,,,,,,,,
,,?,0.000475,0,,,,,,stimuli/images/PICTURE_95.png,MILLER,5f1305051d80f12cccbca0bf,04/08/1945,2020-09-12_09h23.44.873,proactive3.2,2020.1.2,Win32,60,5f5adea66120081ea0f57a61,5f5c85108f9451484a0f92e3,4,,,,,,suitcase,,,,,,,,,,,6,1,0,34,34,56,1,,,,,,,,,,,,,,,,,,,,,,,,,,,,,,,,,,,,,,,,,,,,,,,,,,,,,,,,,,,,,,,,,,,,,,
,,?,0.00031,0,,,,,,stimuli/images/PICTURE_85.png,NATION,5f1305051d80f12cccbca0bf,04/08/1945,2020-09-12_09h23.44.873,proactive3.2,2020.1.2,Win32,60,5f5adea66120081ea0f57a61,5f5c85108f9451484a0f92e3,4,,,,,,diamond,,,,,,,,,,,1,1,0,35,35,5,1,,,,,,,,,,,,,,,,,,,,,,,,,,,,,,,,,,,,,,,,,,,,,,,,,,,,,,,,,,,,,,,,,,,,,,
,,KIND,2.15013,1,,,,,,stimuli/images/PICTURE_32.png,KIND,5f1305051d80f12cccbca0bf,04/08/1945,2020-09-12_09h23.44.873,proactive3.2,2020.1.2,Win32,60,5f5adea66120081ea0f57a61,5f5c85108f9451484a0f92e3,4,,,,,,crown,,,,,,,,,,,4,1,0,36,36,35,1,,,,,,,,,,,,,,,,,,,,,,,,,,,,,,,,,,,,,,,,,,,,,,,,,,,,,,,,,,,,,,,,,,,,,,
,,?,0.00056,0,,,,,,stimuli/images/PICTURE_667.png,RIVER,5f1305051d80f12cccbca0bf,04/08/1945,2020-09-12_09h23.44.873,proactive3.2,2020.1.2,Win32,60,5f5adea66120081ea0f57a61,5f5c85108f9451484a0f92e3,4,,,,,,daisy,,,,,,,,,,,2,1,0,37,37,10,1,,,,,,,,,,,,,,,,,,,,,,,,,,,,,,,,,,,,,,,,,,,,,,,,,,,,,,,,,,,,,,,,,,,,,,
,,?,0.000335,0,,,,,,stimuli/images/PICTURE_32.png,PILLS,5f1305051d80f12cccbca0bf,04/08/1945,2020-09-12_09h23.44.873,proactive3.2,2020.1.2,Win32,60,5f5adea66120081ea0f57a61,5f5c85108f9451484a0f92e3,4,,,,,,crown,,,,,,,,,,,2,1,0,38,38,18,1,,,,,,,,,,,,,,,,,,,,,,,,,,,,,,,,,,,,,,,,,,,,,,,,,,,,,,,,,,,,,,,,,,,,,,
,,?,0.0003,0,,,,,,stimuli/images/PICTURE_467.png,POLICY,5f1305051d80f12cccbca0bf,04/08/1945,2020-09-12_09h23.44.873,proactive3.2,2020.1.2,Win32,60,5f5adea66120081ea0f57a61,5f5c85108f9451484a0f92e3,4,,,,,,peg,,,,,,,,,,,6,1,0,39,39,53,1,,,,,,,,,,,,,,,,,,,,,,,,,,,,,,,,,,,,,,,,,,,,,,,,,,,,,,,,,,,,,,,,,,,,,,
,,?,0.00042,0,,,,,,stimuli/images/PICTURE_85.png,TOILET,5f1305051d80f12cccbca0bf,04/08/1945,2020-09-12_09h23.44.873,proactive3.2,2020.1.2,Win32,60,5f5adea66120081ea0f57a61,5f5c85108f9451484a0f92e3,4,,,,,,diamond,,,,,,,,,,,5,1,0,40,40,48,1,,,,,,,,,,,,,,,,,,,,,,,,,,,,,,,,,,,,,,,,,,,,,,,,,,,,,,,,,,,,,,,,,,,,,,
,,?,0.00028,0,,,,,,stimuli/images/PICTURE_564.png,BATH,5f1305051d80f12cccbca0bf,04/08/1945,2020-09-12_09h23.44.873,proactive3.2,2020.1.2,Win32,60,5f5adea66120081ea0f57a61,5f5c85108f9451484a0f92e3,4,,,,,,spoon,,,,,,,,,,,3,1,0,41,41,26,1,,,,,,,,,,,,,,,,,,,,,,,,,,,,,,,,,,,,,,,,,,,,,,,,,,,,,,,,,,,,,,,,,,,,,,
,,?,0.00028,0,,,,,,stimuli/images/PICTURE_340.png,VALLEY,5f1305051d80f12cccbca0bf,04/08/1945,2020-09-12_09h23.44.873,proactive3.2,2020.1.2,Win32,60,5f5adea66120081ea0f57a61,5f5c85108f9451484a0f92e3,4,,,,,,mirror,,,,,,,,,,,6,1,0,42,42,54,1,,,,,,,,,,,,,,,,,,,,,,,,,,,,,,,,,,,,,,,,,,,,,,,,,,,,,,,,,,,,,,,,,,,,,,
,,?,0.000365,0,,,,,,stimuli/images/PICTURE_655.png,TOILET,5f1305051d80f12cccbca0bf,04/08/1945,2020-09-12_09h23.44.873,proactive3.2,2020.1.2,Win32,60,5f5adea66120081ea0f57a61,5f5c85108f9451484a0f92e3,4,,,,,,megaphone,,,,,,,,,,,2,1,0,43,43,12,1,,,,,,,,,,,,,,,,,,,,,,,,,,,,,,,,,,,,,,,,,,,,,,,,,,,,,,,,,,,,,,,,,,,,,,
,,?,0.00028,0,,,,,,stimuli/images/PICTURE_504.png,COPS,5f1305051d80f12cccbca0bf,04/08/1945,2020-09-12_09h23.44.873,proactive3.2,2020.1.2,Win32,60,5f5adea66120081ea0f57a61,5f5c85108f9451484a0f92e3,4,,,,,,wheel,,,,,,,,,,,6,1,0,44,44,52,1,,,,,,,,,,,,,,,,,,,,,,,,,,,,,,,,,,,,,,,,,,,,,,,,,,,,,,,,,,,,,,,,,,,,,,
,,SYSTEM,3.379935,1,,,,,,stimuli/images/PICTURE_208.png,SYSTEM,5f1305051d80f12cccbca0bf,04/08/1945,2020-09-12_09h23.44.873,proactive3.2,2020.1.2,Win32,60,5f5adea66120081ea0f57a61,5f5c85108f9451484a0f92e3,4,,,,,,microphone,,,,,,,,,,,4,1,0,45,45,32,1,,,,,,,,,,,,,,,,,,,,,,,,,,,,,,,,,,,,,,,,,,,,,,,,,,,,,,,,,,,,,,,,,,,,,,
,,?,0.0005,0,,,,,,stimuli/images/PICTURE_744.png,WEAPON,5f1305051d80f12cccbca0bf,04/08/1945,2020-09-12_09h23.44.873,proactive3.2,2020.1.2,Win32,60,5f5adea66120081ea0f57a61,5f5c85108f9451484a0f92e3,4,,,,,,ring,,,,,,,,,,,6,1,0,46,46,50,1,,,,,,,,,,,,,,,,,,,,,,,,,,,,,,,,,,,,,,,,,,,,,,,,,,,,,,,,,,,,,,,,,,,,,,
,,?,0.0003,0,,,,,,stimuli/images/PICTURE_95.png,BOYS,5f1305051d80f12cccbca0bf,04/08/1945,2020-09-12_09h23.44.873,proactive3.2,2020.1.2,Win32,60,5f5adea66120081ea0f57a61,5f5c85108f9451484a0f92e3,4,,,,,,suitcase,,,,,,,,,,,1,1,0,47,47,1,1,,,,,,,,,,,,,,,,,,,,,,,,,,,,,,,,,,,,,,,,,,,,,,,,,,,,,,,,,,,,,,,,,,,,,,
,,WRITER,3.652135,1,,,,,,stimuli/images/PICTURE_403.png,WRITER,5f1305051d80f12cccbca0bf,04/08/1945,2020-09-12_09h23.44.873,proactive3.2,2020.1.2,Win32,60,5f5adea66120081ea0f57a61,5f5c85108f9451484a0f92e3,4,,,,,,cathedral,,,,,,,,,,,4,1,0,48,48,31,1,,,,,,,,,,,,,,,,,,,,,,,,,,,,,,,,,,,,,,,,,,,,,,,,,,,,,,,,,,,,,,,,,,,,,,
,,?,0.000495,0,,,,,,stimuli/images/PICTURE_750.png,HOTEL,5f1305051d80f12cccbca0bf,04/08/1945,2020-09-12_09h23.44.873,proactive3.2,2020.1.2,Win32,60,5f5adea66120081ea0f57a61,5f5c85108f9451484a0f92e3,4,,,,,,kettle,,,,,,,,,,,3,1,0,49,49,27,1,,,,,,,,,,,,,,,,,,,,,,,,,,,,,,,,,,,,,,,,,,,,,,,,,,,,,,,,,,,,,,,,,,,,,,
,,?,0.000385,0,,,,,,stimuli/images/PICTURE_327.png,CASINO,5f1305051d80f12cccbca0bf,04/08/1945,2020-09-12_09h23.44.873,proactive3.2,2020.1.2,Win32,60,5f5adea66120081ea0f57a61,5f5c85108f9451484a0f92e3,4,,,,,,helmet,,,,,,,,,,,3,1,0,50,50,20,1,,,,,,,,,,,,,,,,,,,,,,,,,,,,,,,,,,,,,,,,,,,,,,,,,,,,,,,,,,,,,,,,,,,,,,
,,?,0.00028,0,,,,,,stimuli/images/PICTURE_491.png,GLASS,5f1305051d80f12cccbca0bf,04/08/1945,2020-09-12_09h23.44.873,proactive3.2,2020.1.2,Win32,60,5f5adea66120081ea0f57a61,5f5c85108f9451484a0f92e3,4,,,,,,rug,,,,,,,,,,,2,1,0,51,51,14,1,,,,,,,,,,,,,,,,,,,,,,,,,,,,,,,,,,,,,,,,,,,,,,,,,,,,,,,,,,,,,,,,,,,,,,
,,?,0.000275,0,,,,,,stimuli/images/PICTURE_2.png,FLIGHT,5f1305051d80f12cccbca0bf,04/08/1945,2020-09-12_09h23.44.873,proactive3.2,2020.1.2,Win32,60,5f5adea66120081ea0f57a61,5f5c85108f9451484a0f92e3,4,,,,,,tyre,,,,,,,,,,,2,1,0,52,52,15,1,,,,,,,,,,,,,,,,,,,,,,,,,,,,,,,,,,,,,,,,,,,,,,,,,,,,,,,,,,,,,,,,,,,,,,
,,?,0.00029,0,,,,,,stimuli/images/PICTURE_504.png,ARTIST,5f1305051d80f12cccbca0bf,04/08/1945,2020-09-12_09h23.44.873,proactive3.2,2020.1.2,Win32,60,5f5adea66120081ea0f57a61,5f5c85108f9451484a0f92e3,4,,,,,,wheel,,,,,,,,,,,5,1,0,53,53,49,1,,,,,,,,,,,,,,,,,,,,,,,,,,,,,,,,,,,,,,,,,,,,,,,,,,,,,,,,,,,,,,,,,,,,,,
,,?,0.00031,0,,,,,,stimuli/images/PICTURE_339.png,CLIENT,5f1305051d80f12cccbca0bf,04/08/1945,2020-09-12_09h23.44.873,proactive3.2,2020.1.2,Win32,60,5f5adea66120081ea0f57a61,5f5c85108f9451484a0f92e3,4,,,,,,backpack,,,,,,,,,,,2,1,0,54,54,11,1,,,,,,,,,,,,,,,,,,,,,,,,,,,,,,,,,,,,,,,,,,,,,,,,,,,,,,,,,,,,,,,,,,,,,,
,,?,0.00027,0,,,,,,stimuli/images/PICTURE_677.png,APPLE,5f1305051d80f12cccbca0bf,04/08/1945,2020-09-12_09h23.44.873,proactive3.2,2020.1.2,Win32,60,5f5adea66120081ea0f57a61,5f5c85108f9451484a0f92e3,4,,,,,,map,,,,,,,,,,,5,1,0,55,55,43,1,,,,,,,,,,,,,,,,,,,,,,,,,,,,,,,,,,,,,,,,,,,,,,,,,,,,,,,,,,,,,,,,,,,,,,
,,?,0.000275,0,,,,,,stimuli/images/PICTURE_380.png,CANDY,5f1305051d80f12cccbca0bf,04/08/1945,2020-09-12_09h23.44.873,proactive3.2,2020.1.2,Win32,60,5f5adea66120081ea0f57a61,5f5c85108f9451484a0f92e3,4,,,,,,gorilla,,,,,,,,,,,1,1,0,56,56,0,1,,,,,,,,,,,,,,,,,,,,,,,,,,,,,,,,,,,,,,,,,,,,,,,,,,,,,,,,,,,,,,,,,,,,,,
,,MOMENT,7.05,1,,,,,,stimuli/images/PICTURE_57.png,MOMENT,5f1305051d80f12cccbca0bf,04/08/1945,2020-09-12_09h23.44.873,proactive3.2,2020.1.2,Win32,60,5f5adea66120081ea0f57a61,5f5c85108f9451484a0f92e3,4,,,,,,stamp,,,,,,,,,,,4,1,0,57,57,37,1,,,,,,,,,,,,,,,,,,,,,,,,,,,,,,,,,,,,,,,,,,,,,,,,,,,,,,,,,,,,,,,,,,,,,,
,,?,0.000495,0,,,,,,stimuli/images/PICTURE_380.png,HONEY,5f1305051d80f12cccbca0bf,04/08/1945,2020-09-12_09h23.44.873,proactive3.2,2020.1.2,Win32,60,5f5adea66120081ea0f57a61,5f5c85108f9451484a0f92e3,4,,,,,,gorilla,,,,,,,,,,,2,1,0,58,58,19,1,,,,,,,,,,,,,,,,,,,,,,,,,,,,,,,,,,,,,,,,,,,,,,,,,,,,,,,,,,,,,,,,,,,,,,
,,?,0.00035,0,,,,,,stimuli/images/PICTURE_108.png,POLICY,5f1305051d80f12cccbca0bf,04/08/1945,2020-09-12_09h23.44.873,proactive3.2,2020.1.2,Win32,60,5f5adea66120081ea0f57a61,5f5c85108f9451484a0f92e3,4,,,,,,calendar,,,,,,,,,,,3,1,0,59,59,22,1,,,,,,,,,,,,,,,,,,,,,,,,,,,,,,,,,,,,,,,,,,,,,,,,,,,,,,,,,,,,,,,,,,,,,,
,,,,,,,,,,,,5f1305051d80f12cccbca0bf,04/08/1945,2020-09-12_09h23.44.873,proactive3.2,2020.1.2,Win32,60,5f5adea66120081ea0f57a61,5f5c85108f9451484a0f92e3,4,,,,,,,,,,,,,,,,,,,,,,,,0,1,1,1,1,stimuli/learn-block2.csv,,,,,,,,,,,,,,,,,,,,,,,,,,,,,,,,,,,,,,,,,,,,,,,,,,,,,,,,,,,,,,,,
,,,,,,,,,,stimuli/images/PICTURE_85.png,THING,5f1305051d80f12cccbca0bf,04/08/1945,2020-09-12_09h23.44.873,proactive3.2,2020.1.2,Win32,60,5f5adea66120081ea0f57a61,5f5c85108f9451484a0f92e3,4,,,,,,diamond,,,,,,0,0,0,15,1,2,0,,,,,,,,,,,,,,,,,,,,,,,,,,,,,,,,,,,,,,,,,,,,,,,,,,,,,,,,,,,,,,,,,,,,,,,,,,,
,,,,,,,,,,stimuli/images/PICTURE_467.png,DEMON,5f1305051d80f12cccbca0bf,04/08/1945,2020-09-12_09h23.44.873,proactive3.2,2020.1.2,Win32,60,5f5adea66120081ea0f57a61,5f5c85108f9451484a0f92e3,4,,,,,,peg,,,,,,0,1,1,23,1,3,0,,,,,,,,,,,,,,,,,,,,,,,,,,,,,,,,,,,,,,,,,,,,,,,,,,,,,,,,,,,,,,,,,,,,,,,,,,,
,,,,,,,,,,stimuli/images/PICTURE_356.png,DANGER,5f1305051d80f12cccbca0bf,04/08/1945,2020-09-12_09h23.44.873,proactive3.2,2020.1.2,Win32,60,5f5adea66120081ea0f57a61,5f5c85108f9451484a0f92e3,4,,,,,,pawn,,,,,,0,2,2,55,1,6,0,,,,,,,,,,,,,,,,,,,,,,,,,,,,,,,,,,,,,,,,,,,,,,,,,,,,,,,,,,,,,,,,,,,,,,,,,,,
,,,,,,,,,,stimuli/images/PICTURE_692.png,MONTH,5f1305051d80f12cccbca0bf,04/08/1945,2020-09-12_09h23.44.873,proactive3.2,2020.1.2,Win32,60,5f5adea66120081ea0f57a61,5f5c85108f9451484a0f92e3,4,,,,,,cherry,,,,,,0,3,3,16,1,2,0,,,,,,,,,,,,,,,,,,,,,,,,,,,,,,,,,,,,,,,,,,,,,,,,,,,,,,,,,,,,,,,,,,,,,,,,,,,
,,,,,,,,,,stimuli/images/PICTURE_95.png,STYLE,5f1305051d80f12cccbca0bf,04/08/1945,2020-09-12_09h23.44.873,proactive3.2,2020.1.2,Win32,60,5f5adea66120081ea0f57a61,5f5c85108f9451484a0f92e3,4,,,,,,suitcase,,,,,,0,4,4,25,1,3,0,,,,,,,,,,,,,,,,,,,,,,,,,,,,,,,,,,,,,,,,,,,,,,,,,,,,,,,,,,,,,,,,,,,,,,,,,,,
,,,,,,,,,,stimuli/images/PICTURE_469.png,LETTER,5f1305051d80f12cccbca0bf,04/08/1945,2020-09-12_09h23.44.873,proactive3.2,2020.1.2,Win32,60,5f5adea66120081ea0f57a61,5f5c85108f9451484a0f92e3,4,,,,,,stool,,,,,,0,5,5,42,1,5,0,,,,,,,,,,,,,,,,,,,,,,,,,,,,,,,,,,,,,,,,,,,,,,,,,,,,,,,,,,,,,,,,,,,,,,,,,,,
,,,,,,,,,,stimuli/images/PICTURE_339.png,PLENTY,5f1305051d80f12cccbca0bf,04/08/1945,2020-09-12_09h23.44.873,proactive3.2,2020.1.2,Win32,60,5f5adea66120081ea0f57a61,5f5c85108f9451484a0f92e3,4,,,,,,backpack,,,,,,0,6,6,0,1,1,0,,,,,,,,,,,,,,,,,,,,,,,,,,,,,,,,,,,,,,,,,,,,,,,,,,,,,,,,,,,,,,,,,,,,,,,,,,,
,,,,,,,,,,stimuli/images/PICTURE_314.png,SAKE,5f1305051d80f12cccbca0bf,04/08/1945,2020-09-12_09h23.44.873,proactive3.2,2020.1.2,Win32,60,5f5adea66120081ea0f57a61,5f5c85108f9451484a0f92e3,4,,,,,,perfume,,,,,,0,7,7,7,1,1,0,,,,,,,,,,,,,,,,,,,,,,,,,,,,,,,,,,,,,,,,,,,,,,,,,,,,,,,,,,,,,,,,,,,,,,,,,,,
,,,,,,,,,,stimuli/images/PICTURE_469.png,ARTIST,5f1305051d80f12cccbca0bf,04/08/1945,2020-09-12_09h23.44.873,proactive3.2,2020.1.2,Win32,60,5f5adea66120081ea0f57a61,5f5c85108f9451484a0f92e3,4,,,,,,stool,,,,,,0,8,8,6,1,1,0,,,,,,,,,,,,,,,,,,,,,,,,,,,,,,,,,,,,,,,,,,,,,,,,,,,,,,,,,,,,,,,,,,,,,,,,,,,
,,,,,,,,,,stimuli/images/PICTURE_233.png,WOMEN,5f1305051d80f12cccbca0bf,04/08/1945,2020-09-12_09h23.44.873,proactive3.2,2020.1.2,Win32,60,5f5adea66120081ea0f57a61,5f5c85108f9451484a0f92e3,4,,,,,,salt,,,,,,0,9,9,38,1,4,0,,,,,,,,,,,,,,,,,,,,,,,,,,,,,,,,,,,,,,,,,,,,,,,,,,,,,,,,,,,,,,,,,,,,,,,,,,,
,,,,,,,,,,stimuli/images/PICTURE_675.png,WEAPON,5f1305051d80f12cccbca0bf,04/08/1945,2020-09-12_09h23.44.873,proactive3.2,2020.1.2,Win32,60,5f5adea66120081ea0f57a61,5f5c85108f9451484a0f92e3,4,,,,,,windmill,,,,,,0,10,10,32,1,4,0,,,,,,,,,,,,,,,,,,,,,,,,,,,,,,,,,,,,,,,,,,,,,,,,,,,,,,,,,,,,,,,,,,,,,,,,,,,
,,,,,,,,,,stimuli/images/PICTURE_654.png,VALLEY,5f1305051d80f12cccbca0bf,04/08/1945,2020-09-12_09h23.44.873,proactive3.2,2020.1.2,Win32,60,5f5adea66120081ea0f57a61,5f5c85108f9451484a0f92e3,4,,,,,,pencil,,,,,,0,11,11,1,1,1,0,,,,,,,,,,,,,,,,,,,,,,,,,,,,,,,,,,,,,,,,,,,,,,,,,,,,,,,,,,,,,,,,,,,,,,,,,,,
,,,,,,,,,,stimuli/images/PICTURE_308.png,ESTATE,5f1305051d80f12cccbca0bf,04/08/1945,2020-09-12_09h23.44.873,proactive3.2,2020.1.2,Win32,60,5f5adea66120081ea0f57a61,5f5c85108f9451484a0f92e3,4,,,,,,dice,,,,,,0,12,12,46,1,5,0,,,,,,,,,,,,,,,,,,,,,,,,,,,,,,,,,,,,,,,,,,,,,,,,,,,,,,,,,,,,,,,,,,,,,,,,,,,
,,,,,,,,,,stimuli/images/PICTURE_491.png,ROOF,5f1305051d80f12cccbca0bf,04/08/1945,2020-09-12_09h23.44.873,proactive3.2,2020.1.2,Win32,60,5f5adea66120081ea0f57a61,5f5c85108f9451484a0f92e3,4,,,,,,rug,,,,,,0,13,13,24,1,3,0,,,,,,,,,,,,,,,,,,,,,,,,,,,,,,,,,,,,,,,,,,,,,,,,,,,,,,,,,,,,,,,,,,,,,,,,,,,
,,,,,,,,,,stimuli/images/PICTURE_667.png,PLENTY,5f1305051d80f12cccbca0bf,04/08/1945,2020-09-12_09h23.44.873,proactive3.2,2020.1.2,Win32,60,5f5adea66120081ea0f57a61,5f5c85108f9451484a0f92e3,4,,,,,,daisy,,,,,,0,14,14,41,1,5,0,,,,,,,,,,,,,,,,,,,,,,,,,,,,,,,,,,,,,,,,,,,,,,,,,,,,,,,,,,,,,,,,,,,,,,,,,,,
,,,,,,,,,,stimuli/images/PICTURE_160.png,LEADER,5f1305051d80f12cccbca0bf,04/08/1945,2020-09-12_09h23.44.873,proactive3.2,2020.1.2,Win32,60,5f5adea66120081ea0f57a61,5f5c85108f9451484a0f92e3,4,,,,,,wheelbarrow,,,,,,0,15,15,3,1,1,0,,,,,,,,,,,,,,,,,,,,,,,,,,,,,,,,,,,,,,,,,,,,,,,,,,,,,,,,,,,,,,,,,,,,,,,,,,,
,,,,,,,,,,stimuli/images/PICTURE_215.png,PLENTY,5f1305051d80f12cccbca0bf,04/08/1945,2020-09-12_09h23.44.873,proactive3.2,2020.1.2,Win32,60,5f5adea66120081ea0f57a61,5f5c85108f9451484a0f92e3,4,,,,,,boot,,,,,,0,16,16,37,1,4,0,,,,,,,,,,,,,,,,,,,,,,,,,,,,,,,,,,,,,,,,,,,,,,,,,,,,,,,,,,,,,,,,,,,,,,,,,,,
,,,,,,,,,,stimuli/images/PICTURE_708.png,CLIENT,5f1305051d80f12cccbca0bf,04/08/1945,2020-09-12_09h23.44.873,proactive3.2,2020.1.2,Win32,60,5f5adea66120081ea0f57a61,5f5c85108f9451484a0f92e3,4,,,,,,monkey,,,,,,0,17,17,5,1,1,0,,,,,,,,,,,,,,,,,,,,,,,,,,,,,,,,,,,,,,,,,,,,,,,,,,,,,,,,,,,,,,,,,,,,,,,,,,,
,,,,,,,,,,stimuli/images/PICTURE_380.png,DEATH,5f1305051d80f12cccbca0bf,04/08/1945,2020-09-12_09h23.44.873,proactive3.2,2020.1.2,Win32,60,5f5adea66120081ea0f57a61,5f5c85108f9451484a0f92e3,4,,,,,,gorilla,,,,,,0,18,18,49,1,5,0,,,,,,,,,,,,,,,,,,,,,,,,,,,,,,,,,,,,,,,,,,,,,,,,,,,,,,,,,,,,,,,,,,,,,,,,,,,
,,,,,,,,,,stimuli/images/PICTURE_311.png,BEAUTY,5f1305051d80f12cccbca0bf,04/08/1945,2020-09-12_09h23.44.873,proactive3.2,2020.1.2,Win32,60,5f5adea66120081ea0f57a61,5f5c85108f9451484a0f92e3,4,,,,,,razor,,,,,,0,19,19,13,1,2,0,,,,,,,,,,,,,,,,,,,,,,,,,,,,,,,,,,,,,,,,,,,,,,,,,,,,,,,,,,,,,,,,,,,,,,,,,,,
,,,,,,,,,,stimuli/images/PICTURE_744.png,SAKE,5f1305051d80f12cccbca0bf,04/08/1945,2020-09-12_09h23.44.873,proactive3.2,2020.1.2,Win32,60,5f5adea66120081ea0f57a61,5f5c85108f9451484a0f92e3,4,,,,,,ring,,,,,,0,20,20,17,1,2,0,,,,,,,,,,,,,,,,,,,,,,,,,,,,,,,,,,,,,,,,,,,,,,,,,,,,,,,,,,,,,,,,,,,,,,,,,,,
,,,,,,,,,,stimuli/images/PICTURE_208.png,THING,5f1305051d80f12cccbca0bf,04/08/1945,2020-09-12_09h23.44.873,proactive3.2,2020.1.2,Win32,60,5f5adea66120081ea0f57a61,5f5c85108f9451484a0f92e3,4,,,,,,microphone,,,,,,0,21,21,47,1,5,0,,,,,,,,,,,,,,,,,,,,,,,,,,,,,,,,,,,,,,,,,,,,,,,,,,,,,,,,,,,,,,,,,,,,,,,,,,,
,,,,,,,,,,stimuli/images/PICTURE_677.png,MILE,5f1305051d80f12cccbca0bf,04/08/1945,2020-09-12_09h23.44.873,proactive3.2,2020.1.2,Win32,60,5f5adea66120081ea0f57a61,5f5c85108f9451484a0f92e3,4,,,,,,map,,,,,,0,22,22,30,1,4,0,,,,,,,,,,,,,,,,,,,,,,,,,,,,,,,,,,,,,,,,,,,,,,,,,,,,,,,,,,,,,,,,,,,,,,,,,,,
,,,,,,,,,,stimuli/images/PICTURE_208.png,LOTS,5f1305051d80f12cccbca0bf,04/08/1945,2020-09-12_09h23.44.873,proactive3.2,2020.1.2,Win32,60,5f5adea66120081ea0f57a61,5f5c85108f9451484a0f92e3,4,,,,,,microphone,,,,,,0,23,23,10,1,2,0,,,,,,,,,,,,,,,,,,,,,,,,,,,,,,,,,,,,,,,,,,,,,,,,,,,,,,,,,,,,,,,,,,,,,,,,,,,
,,,,,,,,,,stimuli/images/PICTURE_308.png,KIND,5f1305051d80f12cccbca0bf,04/08/1945,2020-09-12_09h23.44.873,proactive3.2,2020.1.2,Win32,60,5f5adea66120081ea0f57a61,5f5c85108f9451484a0f92e3,4,,,,,,dice,,,,,,0,24,24,54,1,6,0,,,,,,,,,,,,,,,,,,,,,,,,,,,,,,,,,,,,,,,,,,,,,,,,,,,,,,,,,,,,,,,,,,,,,,,,,,,
,,,,,,,,,,stimuli/images/PICTURE_509.png,PHOTO,5f1305051d80f12cccbca0bf,04/08/1945,2020-09-12_09h23.44.873,proactive3.2,2020.1.2,Win32,60,5f5adea66120081ea0f57a61,5f5c85108f9451484a0f92e3,4,,,,,,telephone,,,,,,0,25,25,21,1,3,0,,,,,,,,,,,,,,,,,,,,,,,,,,,,,,,,,,,,,,,,,,,,,,,,,,,,,,,,,,,,,,,,,,,,,,,,,,,
,,,,,,,,,,stimuli/images/PICTURE_203.png,ARTIST,5f1305051d80f12cccbca0bf,04/08/1945,2020-09-12_09h23.44.873,proactive3.2,2020.1.2,Win32,60,5f5adea66120081ea0f57a61,5f5c85108f9451484a0f92e3,4,,,,,,cap,,,,,,0,26,26,26,1,3,0,,,,,,,,,,,,,,,,,,,,,,,,,,,,,,,,,,,,,,,,,,,,,,,,,,,,,,,,,,,,,,,,,,,,,,,,,,,
,,,,,,,,,,stimuli/images/PICTURE_285.png,ADVICE,5f1305051d80f12cccbca0bf,04/08/1945,2020-09-12_09h23.44.873,proactive3.2,2020.1.2,Win32,60,5f5adea66120081ea0f57a61,5f5c85108f9451484a0f92e3,4,,,,,,carrot,,,,,,0,27,27,12,1,2,0,,,,,,,,,,,,,,,,,,,,,,,,,,,,,,,,,,,,,,,,,,,,,,,,,,,,,,,,,,,,,,,,,,,,,,,,,,,
,,,,,,,,,,stimuli/images/PICTURE_302.png,FAMILY,5f1305051d80f12cccbca0bf,04/08/1945,2020-09-12_09h23.44.873,proactive3.2,2020.1.2,Win32,60,5f5adea66120081ea0f57a61,5f5c85108f9451484a0f92e3,4,,,,,,taxi,,,,,,0,28,28,18,1,2,0,,,,,,,,,,,,,,,,,,,,,,,,,,,,,,,,,,,,,,,,,,,,,,,,,,,,,,,,,,,,,,,,,,,,,,,,,,,
,,,,,,,,,,stimuli/images/PICTURE_123.png,ADVICE,5f1305051d80f12cccbca0bf,04/08/1945,2020-09-12_09h23.44.873,proactive3.2,2020.1.2,Win32,60,5f5adea66120081ea0f57a61,5f5c85108f9451484a0f92e3,4,,,,,,dart,,,,,,0,29,29,50,1,6,0,,,,,,,,,,,,,,,,,,,,,,,,,,,,,,,,,,,,,,,,,,,,,,,,,,,,,,,,,,,,,,,,,,,,,,,,,,,
,,,,,,,,,,stimuli/images/PICTURE_488.png,STYLE,5f1305051d80f12cccbca0bf,04/08/1945,2020-09-12_09h23.44.873,proactive3.2,2020.1.2,Win32,60,5f5adea66120081ea0f57a61,5f5c85108f9451484a0f92e3,4,,,,,,sun,,,,,,0,30,30,33,1,4,0,,,,,,,,,,,,,,,,,,,,,,,,,,,,,,,,,,,,,,,,,,,,,,,,,,,,,,,,,,,,,,,,,,,,,,,,,,,
,,,,,,,,,,stimuli/images/PICTURE_147.png,MOMENT,5f1305051d80f12cccbca0bf,04/08/1945,2020-09-12_09h23.44.873,proactive3.2,2020.1.2,Win32,60,5f5adea66120081ea0f57a61,5f5c85108f9451484a0f92e3,4,,,,,,hanger,,,,,,0,31,31,51,1,6,0,,,,,,,,,,,,,,,,,,,,,,,,,,,,,,,,,,,,,,,,,,,,,,,,,,,,,,,,,,,,,,,,,,,,,,,,,,,
,,,,,,,,,,stimuli/images/PICTURE_487.png,FLIGHT,5f1305051d80f12cccbca0bf,04/08/1945,2020-09-12_09h23.44.873,proactive3.2,2020.1.2,Win32,60,5f5adea66120081ea0f57a61,5f5c85108f9451484a0f92e3,4,,,,,,basket,,,,,,0,32,32,9,1,1,0,,,,,,,,,,,,,,,,,,,,,,,,,,,,,,,,,,,,,,,,,,,,,,,,,,,,,,,,,,,,,,,,,,,,,,,,,,,
,,,,,,,,,,stimuli/images/PICTURE_348.png,SPEECH,5f1305051d80f12cccbca0bf,04/08/1945,2020-09-12_09h23.44.873,proactive3.2,2020.1.2,Win32,60,5f5adea66120081ea0f57a61,5f5c85108f9451484a0f92e3,4,,,,,,pepper,,,,,,0,33,33,20,1,3,0,,,,,,,,,,,,,,,,,,,,,,,,,,,,,,,,,,,,,,,,,,,,,,,,,,,,,,,,,,,,,,,,,,,,,,,,,,,
,,,,,,,,,,stimuli/images/PICTURE_667.png,BATH,5f1305051d80f12cccbca0bf,04/08/1945,2020-09-12_09h23.44.873,proactive3.2,2020.1.2,Win32,60,5f5adea66120081ea0f57a61,5f5c85108f9451484a0f92e3,4,,,,,,daisy,,,,,,0,34,34,4,1,1,0,,,,,,,,,,,,,,,,,,,,,,,,,,,,,,,,,,,,,,,,,,,,,,,,,,,,,,,,,,,,,,,,,,,,,,,,,,,
,,,,,,,,,,stimuli/images/PICTURE_32.png,JUNGLE,5f1305051d80f12cccbca0bf,04/08/1945,2020-09-12_09h23.44.873,proactive3.2,2020.1.2,Win32,60,5f5adea66120081ea0f57a61,5f5c85108f9451484a0f92e3,4,,,,,,crown,,,,,,0,35,35,45,1,5,0,,,,,,,,,,,,,,,,,,,,,,,,,,,,,,,,,,,,,,,,,,,,,,,,,,,,,,,,,,,,,,,,,,,,,,,,,,,
,,,,,,,,,,stimuli/images/PICTURE_470.png,CASINO,5f1305051d80f12cccbca0bf,04/08/1945,2020-09-12_09h23.44.873,proactive3.2,2020.1.2,Win32,60,5f5adea66120081ea0f57a61,5f5c85108f9451484a0f92e3,4,,,,,,motorbike,,,,,,0,36,36,36,1,4,0,,,,,,,,,,,,,,,,,,,,,,,,,,,,,,,,,,,,,,,,,,,,,,,,,,,,,,,,,,,,,,,,,,,,,,,,,,,
,,,,,,,,,,stimuli/images/PICTURE_744.png,SYSTEM,5f1305051d80f12cccbca0bf,04/08/1945,2020-09-12_09h23.44.873,proactive3.2,2020.1.2,Win32,60,5f5adea66120081ea0f57a61,5f5c85108f9451484a0f92e3,4,,,,,,ring,,,,,,0,37,37,43,1,5,0,,,,,,,,,,,,,,,,,,,,,,,,,,,,,,,,,,,,,,,,,,,,,,,,,,,,,,,,,,,,,,,,,,,,,,,,,,,
,,,,,,,,,,stimuli/images/PICTURE_123.png,ADVICE,5f1305051d80f12cccbca0bf,04/08/1945,2020-09-12_09h23.44.873,proactive3.2,2020.1.2,Win32,60,5f5adea66120081ea0f57a61,5f5c85108f9451484a0f92e3,4,,,,,,dart,,,,,,0,38,38,40,1,5,0,,,,,,,,,,,,,,,,,,,,,,,,,,,,,,,,,,,,,,,,,,,,,,,,,,,,,,,,,,,,,,,,,,,,,,,,,,,
,,,,,,,,,,stimuli/images/PICTURE_151.png,GIRL,5f1305051d80f12cccbca0bf,04/08/1945,2020-09-12_09h23.44.873,proactive3.2,2020.1.2,Win32,60,5f5adea66120081ea0f57a61,5f5c85108f9451484a0f92e3,4,,,,,,tray,,,,,,0,39,39,19,1,2,0,,,,,,,,,,,,,,,,,,,,,,,,,,,,,,,,,,,,,,,,,,,,,,,,,,,,,,,,,,,,,,,,,,,,,,,,,,,
,,,,,,,,,,stimuli/images/PICTURE_327.png,BEAUTY,5f1305051d80f12cccbca0bf,04/08/1945,2020-09-12_09h23.44.873,proactive3.2,2020.1.2,Win32,60,5f5adea66120081ea0f57a61,5f5c85108f9451484a0f92e3,4,,,,,,helmet,,,,,,0,40,40,48,1,5,0,,,,,,,,,,,,,,,,,,,,,,,,,,,,,,,,,,,,,,,,,,,,,,,,,,,,,,,,,,,,,,,,,,,,,,,,,,,
,,,,,,,,,,stimuli/images/PICTURE_255.png,AREA,5f1305051d80f12cccbca0bf,04/08/1945,2020-09-12_09h23.44.873,proactive3.2,2020.1.2,Win32,60,5f5adea66120081ea0f57a61,5f5c85108f9451484a0f92e3,4,,,,,,shovel,,,,,,0,41,41,22,1,3,0,,,,,,,,,,,,,,,,,,,,,,,,,,,,,,,,,,,,,,,,,,,,,,,,,,,,,,,,,,,,,,,,,,,,,,,,,,,
,,,,,,,,,,stimuli/images/PICTURE_453.png,PLENTY,5f1305051d80f12cccbca0bf,04/08/1945,2020-09-12_09h23.44.873,proactive3.2,2020.1.2,Win32,60,5f5adea66120081ea0f57a61,5f5c85108f9451484a0f92e3,4,,,,,,scissors,,,,,,0,42,42,56,1,6,0,,,,,,,,,,,,,,,,,,,,,,,,,,,,,,,,,,,,,,,,,,,,,,,,,,,,,,,,,,,,,,,,,,,,,,,,,,,
,,,,,,,,,,stimuli/images/PICTURE_708.png,YARD,5f1305051d80f12cccbca0bf,04/08/1945,2020-09-12_09h23.44.873,proactive3.2,2020.1.2,Win32,60,5f5adea66120081ea0f57a61,5f5c85108f9451484a0f92e3,4,,,,,,monkey,,,,,,0,43,43,29,1,3,0,,,,,,,,,,,,,,,,,,,,,,,,,,,,,,,,,,,,,,,,,,,,,,,,,,,,,,,,,,,,,,,,,,,,,,,,,,,
,,,,,,,,,,stimuli/images/PICTURE_688.png,CASINO,5f1305051d80f12cccbca0bf,04/08/1945,2020-09-12_09h23.44.873,proactive3.2,2020.1.2,Win32,60,5f5adea66120081ea0f57a61,5f5c85108f9451484a0f92e3,4,,,,,,runner,,,,,,0,44,44,2,1,1,0,,,,,,,,,,,,,,,,,,,,,,,,,,,,,,,,,,,,,,,,,,,,,,,,,,,,,,,,,,,,,,,,,,,,,,,,,,,
,,,,,,,,,,stimuli/images/PICTURE_177.png,CARS,5f1305051d80f12cccbca0bf,04/08/1945,2020-09-12_09h23.44.873,proactive3.2,2020.1.2,Win32,60,5f5adea66120081ea0f57a61,5f5c85108f9451484a0f92e3,4,,,,,,mushroom,,,,,,0,45,45,35,1,4,0,,,,,,,,,,,,,,,,,,,,,,,,,,,,,,,,,,,,,,,,,,,,,,,,,,,,,,,,,,,,,,,,,,,,,,,,,,,
,,,,,,,,,,stimuli/images/PICTURE_688.png,WOMEN,5f1305051d80f12cccbca0bf,04/08/1945,2020-09-12_09h23.44.873,proactive3.2,2020.1.2,Win32,60,5f5adea66120081ea0f57a61,5f5c85108f9451484a0f92e3,4,,,,,,runner,,,,,,0,46,46,14,1,2,0,,,,,,,,,,,,,,,,,,,,,,,,,,,,,,,,,,,,,,,,,,,,,,,,,,,,,,,,,,,,,,,,,,,,,,,,,,,
,,,,,,,,,,stimuli/images/PICTURE_380.png,PHOTO,5f1305051d80f12cccbca0bf,04/08/1945,2020-09-12_09h23.44.873,proactive3.2,2020.1.2,Win32,60,5f5adea66120081ea0f57a61,5f5c85108f9451484a0f92e3,4,,,,,,gorilla,,,,,,0,47,47,52,1,6,0,,,,,,,,,,,,,,,,,,,,,,,,,,,,,,,,,,,,,,,,,,,,,,,,,,,,,,,,,,,,,,,,,,,,,,,,,,,
,,,,,,,,,,stimuli/images/PICTURE_208.png,MONTH,5f1305051d80f12cccbca0bf,04/08/1945,2020-09-12_09h23.44.873,proactive3.2,2020.1.2,Win32,60,5f5adea66120081ea0f57a61,5f5c85108f9451484a0f92e3,4,,,,,,microphone,,,,,,0,48,48,53,1,6,0,,,,,,,,,,,,,,,,,,,,,,,,,,,,,,,,,,,,,,,,,,,,,,,,,,,,,,,,,,,,,,,,,,,,,,,,,,,
,,,,,,,,,,stimuli/images/PICTURE_311.png,FRIEND,5f1305051d80f12cccbca0bf,04/08/1945,2020-09-12_09h23.44.873,proactive3.2,2020.1.2,Win32,60,5f5adea66120081ea0f57a61,5f5c85108f9451484a0f92e3,4,,,,,,razor,,,,,,0,49,49,34,1,4,0,,,,,,,,,,,,,,,,,,,,,,,,,,,,,,,,,,,,,,,,,,,,,,,,,,,,,,,,,,,,,,,,,,,,,,,,,,,
,,,,,,,,,,stimuli/images/PICTURE_68.png,MILE,5f1305051d80f12cccbca0bf,04/08/1945,2020-09-12_09h23.44.873,proactive3.2,2020.1.2,Win32,60,5f5adea66120081ea0f57a61,5f5c85108f9451484a0f92e3,4,,,,,,candle,,,,,,0,50,50,44,1,5,0,,,,,,,,,,,,,,,,,,,,,,,,,,,,,,,,,,,,,,,,,,,,,,,,,,,,,,,,,,,,,,,,,,,,,,,,,,,
,,,,,,,,,,stimuli/images/PICTURE_248.png,DOZEN,5f1305051d80f12cccbca0bf,04/08/1945,2020-09-12_09h23.44.873,proactive3.2,2020.1.2,Win32,60,5f5adea66120081ea0f57a61,5f5c85108f9451484a0f92e3,4,,,,,,cart,,,,,,0,51,51,39,1,4,0,,,,,,,,,,,,,,,,,,,,,,,,,,,,,,,,,,,,,,,,,,,,,,,,,,,,,,,,,,,,,,,,,,,,,,,,,,,
,,,,,,,,,,stimuli/images/PICTURE_449.png,THING,5f1305051d80f12cccbca0bf,04/08/1945,2020-09-12_09h23.44.873,proactive3.2,2020.1.2,Win32,60,5f5adea66120081ea0f57a61,5f5c85108f9451484a0f92e3,4,,,,,,bench,,,,,,0,52,52,59,1,6,0,,,,,,,,,,,,,,,,,,,,,,,,,,,,,,,,,,,,,,,,,,,,,,,,,,,,,,,,,,,,,,,,,,,,,,,,,,,
,,,,,,,,,,stimuli/images/PICTURE_504.png,BODY,5f1305051d80f12cccbca0bf,04/08/1945,2020-09-12_09h23.44.873,proactive3.2,2020.1.2,Win32,60,5f5adea66120081ea0f57a61,5f5c85108f9451484a0f92e3,4,,,,,,wheel,,,,,,0,53,53,8,1,1,0,,,,,,,,,,,,,,,,,,,,,,,,,,,,,,,,,,,,,,,,,,,,,,,,,,,,,,,,,,,,,,,,,,,,,,,,,,,
,,,,,,,,,,stimuli/images/PICTURE_233.png,IDEAS,5f1305051d80f12cccbca0bf,04/08/1945,2020-09-12_09h23.44.873,proactive3.2,2020.1.2,Win32,60,5f5adea66120081ea0f57a61,5f5c85108f9451484a0f92e3,4,,,,,,salt,,,,,,0,54,54,28,1,3,0,,,,,,,,,,,,,,,,,,,,,,,,,,,,,,,,,,,,,,,,,,,,,,,,,,,,,,,,,,,,,,,,,,,,,,,,,,,
,,,,,,,,,,stimuli/images/PICTURE_708.png,PENNY,5f1305051d80f12cccbca0bf,04/08/1945,2020-09-12_09h23.44.873,proactive3.2,2020.1.2,Win32,60,5f5adea66120081ea0f57a61,5f5c85108f9451484a0f92e3,4,,,,,,monkey,,,,,,0,55,55,31,1,4,0,,,,,,,,,,,,,,,,,,,,,,,,,,,,,,,,,,,,,,,,,,,,,,,,,,,,,,,,,,,,,,,,,,,,,,,,,,,
,,,,,,,,,,stimuli/images/PICTURE_491.png,WRITER,5f1305051d80f12cccbca0bf,04/08/1945,2020-09-12_09h23.44.873,proactive3.2,2020.1.2,Win32,60,5f5adea66120081ea0f57a61,5f5c85108f9451484a0f92e3,4,,,,,,rug,,,,,,0,56,56,57,1,6,0,,,,,,,,,,,,,,,,,,,,,,,,,,,,,,,,,,,,,,,,,,,,,,,,,,,,,,,,,,,,,,,,,,,,,,,,,,,
,,,,,,,,,,stimuli/images/PICTURE_453.png,DUDE,5f1305051d80f12cccbca0bf,04/08/1945,2020-09-12_09h23.44.873,proactive3.2,2020.1.2,Win32,60,5f5adea66120081ea0f57a61,5f5c85108f9451484a0f92e3,4,,,,,,scissors,,,,,,0,57,57,27,1,3,0,,,,,,,,,,,,,,,,,,,,,,,,,,,,,,,,,,,,,,,,,,,,,,,,,,,,,,,,,,,,,,,,,,,,,,,,,,,
,,,,,,,,,,stimuli/images/PICTURE_160.png,FEET,5f1305051d80f12cccbca0bf,04/08/1945,2020-09-12_09h23.44.873,proactive3.2,2020.1.2,Win32,60,5f5adea66120081ea0f57a61,5f5c85108f9451484a0f92e3,4,,,,,,wheelbarrow,,,,,,0,58,58,58,1,6,0,,,,,,,,,,,,,,,,,,,,,,,,,,,,,,,,,,,,,,,,,,,,,,,,,,,,,,,,,,,,,,,,,,,,,,,,,,,
,,?,0.00052,0,,,,,,stimuli/images/PICTURE_308.png,KIND,5f1305051d80f12cccbca0bf,04/08/1945,2020-09-12_09h23.44.873,proactive3.2,2020.1.2,Win32,60,5f5adea66120081ea0f57a61,5f5c85108f9451484a0f92e3,4,,,,,,dice,,,,,,,,,,,6,0,0,0,0,54,1,,,,,,,,,,,,,,,,,,,,,,,,,,,,,,,,,,,,,,,,,,,,,,,,,,,,,,,,,,,,,,,,,,,,,,
,,?,0.000335,0,,,,,,stimuli/images/PICTURE_85.png,THING,5f1305051d80f12cccbca0bf,04/08/1945,2020-09-12_09h23.44.873,proactive3.2,2020.1.2,Win32,60,5f5adea66120081ea0f57a61,5f5c85108f9451484a0f92e3,4,,,,,,diamond,,,,,,,,,,,2,0,0,1,1,15,1,,,,,,,,,,,,,,,,,,,,,,,,,,,,,,,,,,,,,,,,,,,,,,,,,,,,,,,,,,,,,,,,,,,,,,
,,FRIEND,4.46432,1,,,,,,stimuli/images/PICTURE_311.png,FRIEND,5f1305051d80f12cccbca0bf,04/08/1945,2020-09-12_09h23.44.873,proactive3.2,2020.1.2,Win32,60,5f5adea66120081ea0f57a61,5f5c85108f9451484a0f92e3,4,,,,,,razor,,,,,,,,,,,4,0,0,2,2,34,1,,,,,,,,,,,,,,,,,,,,,,,,,,,,,,,,,,,,,,,,,,,,,,,,,,,,,,,,,,,,,,,,,,,,,,
,,?,0.000465,0,,,,,,stimuli/images/PICTURE_744.png,SAKE,5f1305051d80f12cccbca0bf,04/08/1945,2020-09-12_09h23.44.873,proactive3.2,2020.1.2,Win32,60,5f5adea66120081ea0f57a61,5f5c85108f9451484a0f92e3,4,,,,,,ring,,,,,,,,,,,2,0,0,3,3,17,1,,,,,,,,,,,,,,,,,,,,,,,,,,,,,,,,,,,,,,,,,,,,,,,,,,,,,,,,,,,,,,,,,,,,,,
,,CARS,3.085385,1,,,,,,stimuli/images/PICTURE_177.png,CARS,5f1305051d80f12cccbca0bf,04/08/1945,2020-09-12_09h23.44.873,proactive3.2,2020.1.2,Win32,60,5f5adea66120081ea0f57a61,5f5c85108f9451484a0f92e3,4,,,,,,mushroom,,,,,,,,,,,4,0,0,4,4,35,1,,,,,,,,,,,,,,,,,,,,,,,,,,,,,,,,,,,,,,,,,,,,,,,,,,,,,,,,,,,,,,,,,,,,,,
,,WEAPON,9.659675,1,,,,,,stimuli/images/PICTURE_675.png,WEAPON,5f1305051d80f12cccbca0bf,04/08/1945,2020-09-12_09h23.44.873,proactive3.2,2020.1.2,Win32,60,5f5adea66120081ea0f57a61,5f5c85108f9451484a0f92e3,4,,,,,,windmill,,,,,,,,,,,4,0,0,5,5,32,1,,,,,,,,,,,,,,,,,,,,,,,,,,,,,,,,,,,,,,,,,,,,,,,,,,,,,,,,,,,,,,,,,,,,,,
,,?,0.000565,0,,,,,,stimuli/images/PICTURE_208.png,MONTH,5f1305051d80f12cccbca0bf,04/08/1945,2020-09-12_09h23.44.873,proactive3.2,2020.1.2,Win32,60,5f5adea66120081ea0f57a61,5f5c85108f9451484a0f92e3,4,,,,,,microphone,,,,,,,,,,,6,0,0,6,6,53,1,,,,,,,,,,,,,,,,,,,,,,,,,,,,,,,,,,,,,,,,,,,,,,,,,,,,,,,,,,,,,,,,,,,,,,
,,?,0.000455,0,,,,,,stimuli/images/PICTURE_453.png,PLENTY,5f1305051d80f12cccbca0bf,04/08/1945,2020-09-12_09h23.44.873,proactive3.2,2020.1.2,Win32,60,5f5adea66120081ea0f57a61,5f5c85108f9451484a0f92e3,4,,,,,,scissors,,,,,,,,,,,6,0,0,7,7,56,1,,,,,,,,,,,,,,,,,,,,,,,,,,,,,,,,,,,,,,,,,,,,,,,,,,,,,,,,,,,,,,,,,,,,,,
,,?,0.00037,0,,,,,,stimuli/images/PICTURE_68.png,MILE,5f1305051d80f12cccbca0bf,04/08/1945,2020-09-12_09h23.44.873,proactive3.2,2020.1.2,Win32,60,5f5adea66120081ea0f57a61,5f5c85108f9451484a0f92e3,4,,,,,,candle,,,,,,,,,,,5,0,0,8,8,44,1,,,,,,,,,,,,,,,,,,,,,,,,,,,,,,,,,,,,,,,,,,,,,,,,,,,,,,,,,,,,,,,,,,,,,,
,,?,0.000345,0,,,,,,stimuli/images/PICTURE_688.png,WOMEN,5f1305051d80f12cccbca0bf,04/08/1945,2020-09-12_09h23.44.873,proactive3.2,2020.1.2,Win32,60,5f5adea66120081ea0f57a61,5f5c85108f9451484a0f92e3,4,,,,,,runner,,,,,,,,,,,2,0,0,9,9,14,1,,,,,,,,,,,,,,,,,,,,,,,,,,,,,,,,,,,,,,,,,,,,,,,,,,,,,,,,,,,,,,,,,,,,,,
,,?,0.00034,0,,,,,,stimuli/images/PICTURE_302.png,FAMILY,5f1305051d80f12cccbca0bf,04/08/1945,2020-09-12_09h23.44.873,proactive3.2,2020.1.2,Win32,60,5f5adea66120081ea0f57a61,5f5c85108f9451484a0f92e3,4,,,,,,taxi,,,,,,,,,,,2,0,0,10,10,18,1,,,,,,,,,,,,,,,,,,,,,,,,,,,,,,,,,,,,,,,,,,,,,,,,,,,,,,,,,,,,,,,,,,,,,,
,,STYLE,3.16459,1,,,,,,stimuli/images/PICTURE_488.png,STYLE,5f1305051d80f12cccbca0bf,04/08/1945,2020-09-12_09h23.44.873,proactive3.2,2020.1.2,Win32,60,5f5adea66120081ea0f57a61,5f5c85108f9451484a0f92e3,4,,,,,,sun,,,,,,,,,,,4,0,0,11,11,33,1,,,,,,,,,,,,,,,,,,,,,,,,,,,,,,,,,,,,,,,,,,,,,,,,,,,,,,,,,,,,,,,,,,,,,,
,,?,0.000455,0,,,,,,stimuli/images/PICTURE_453.png,DUDE,5f1305051d80f12cccbca0bf,04/08/1945,2020-09-12_09h23.44.873,proactive3.2,2020.1.2,Win32,60,5f5adea66120081ea0f57a61,5f5c85108f9451484a0f92e3,4,,,,,,scissors,,,,,,,,,,,3,0,0,12,12,27,1,,,,,,,,,,,,,,,,,,,,,,,,,,,,,,,,,,,,,,,,,,,,,,,,,,,,,,,,,,,,,,,,,,,,,,
,,?,0.000285,0,,,,,,stimuli/images/PICTURE_314.png,GODS,5f1305051d80f12cccbca0bf,04/08/1945,2020-09-12_09h23.44.873,proactive3.2,2020.1.2,Win32,60,5f5adea66120081ea0f57a61,5f5c85108f9451484a0f92e3,4,,,,,,perfume,,,,,,,,,,,2,0,0,13,13,11,1,,,,,,,,,,,,,,,,,,,,,,,,,,,,,,,,,,,,,,,,,,,,,,,,,,,,,,,,,,,,,,,,,,,,,,
