consent_key.keys,consent_key.rt,recalled,recalled_rt,recall_acc,example_recall.thisRepN,example_recall.thisTrialN,example_recall.thisN,example_recall.thisIndex,example_recall.ran,file,word,participant,please enter your date of birth (dd/mm/yyyy),date,expName,psychopyVersion,OS,frameRate,STUDY_ID,SESSION_ID,list,prac_learn_study_loop.thisRepN,prac_learn_study_loop.thisTrialN,prac_learn_study_loop.thisN,prac_learn_study_loop.thisIndex,prac_learn_study_loop.ran,image,prac_learn_test_loop.thisRepN,prac_learn_test_loop.thisTrialN,prac_learn_test_loop.thisN,prac_learn_test_loop.thisIndex,prac_learn_test_loop.ran,learn_study_loop.thisRepN,learn_study_loop.thisTrialN,learn_study_loop.thisN,learn_study_loop.thisIndex,learn_study_loop.ran,list_no,block_no,learn_test_loop.thisRepN,learn_test_loop.thisTrialN,learn_test_loop.thisN,learn_test_loop.thisIndex,learn_test_loop.ran,learn_blocks.thisRepN,learn_blocks.thisTrialN,learn_blocks.thisN,learn_blocks.thisIndex,learn_blocks.ran,block_csv,key_resp_13.keys,key_resp_13.rt,learn_blocks_loop.thisRepN,learn_blocks_loop.thisTrialN,learn_blocks_loop.thisN,learn_blocks_loop.thisIndex,learn_blocks_loop.ran,final_learn_test.thisRepN,final_learn_test.thisTrialN,final_learn_test.thisN,final_learn_test.thisIndex,final_learn_test.ran,prac_wm_test_loop.thisRepN,prac_wm_test_loop.thisTrialN,prac_wm_test_loop.thisN,prac_wm_test_loop.thisIndex,prac_wm_test_loop.ran,wm_recalled1,wm_recall_rt1,wm_probed1,wm_recall_acc1,wm_recalled2,wm_recall_rt2,wm_probed2,wm_recall_acc2,wm_recalled3,wm_recall_rt3,wm_probed3,wm_recall_acc3,wm_recalled4,wm_recall_rt4,wm_probed4,wm_recall_acc4,prac_wm_trial_loop.thisRepN,prac_wm_trial_loop.thisTrialN,prac_wm_trial_loop.thisN,prac_wm_trial_loop.thisIndex,prac_wm_trial_loop.ran,word1,image1,file1,item_type1,word2,image2,file2,item_type2,word4,image4,file4,item_type4,word3,image3,file3,item_type3,wm_test_loop.thisRepN,wm_test_loop.thisTrialN,wm_test_loop.thisN,wm_test_loop.thisIndex,wm_test_loop.ran,wm_trial_loop.thisRepN,wm_trial_loop.thisTrialN,wm_trial_loop.thisN,wm_trial_loop.thisIndex,wm_trial_loop.ran
y,3.7392,TOUGH,3.5651,1,0,0,0,0,1,stimuli/images/PICTURE_747.png,TOUGH,5f3b14845efc2180b7600665,11/01/2002,2020-08-27_15h47.06.759,proactive3.2,2020.1.2,Win32,60,5f47c0b9b035471e11593a5c,5f47c671586c801f1df22818,6,,,,,,,,,,,,,,,,,,,,,,,,,,,,,,,,,,,,,,,,,,,,,,,,,,,,,,,,,,,,,,,,,,,,,,,,,,,,,,,,,,,,,,,,,,,,,
,,,,,,,,,,stimuli/images/PICTURE_727.png,CELL,5f3b14845efc2180b7600665,11/01/2002,2020-08-27_15h47.06.759,proactive3.2,2020.1.2,Win32,60,5f47c0b9b035471e11593a5c,5f47c671586c801f1df22818,6,0,0,0,1,1,hose,,,,,,,,,,,,,,,,,,,,,,,,,,,,,,,,,,,,,,,,,,,,,,,,,,,,,,,,,,,,,,,,,,,,,,,,,,,,,,,,,,,,,,,
,,,,,,,,,,stimuli/images/PICTURE_378.png,LOSS,5f3b14845efc2180b7600665,11/01/2002,2020-08-27_15h47.06.759,proactive3.2,2020.1.2,Win32,60,5f47c0b9b035471e11593a5c,5f47c671586c801f1df22818,6,0,1,1,2,1,lobster,,,,,,,,,,,,,,,,,,,,,,,,,,,,,,,,,,,,,,,,,,,,,,,,,,,,,,,,,,,,,,,,,,,,,,,,,,,,,,,,,,,,,,,
,,,,,,,,,,stimuli/images/PICTURE_697.png,KILLER,5f3b14845efc2180b7600665,11/01/2002,2020-08-27_15h47.06.759,proactive3.2,2020.1.2,Win32,60,5f47c0b9b035471e11593a5c,5f47c671586c801f1df22818,6,0,2,2,4,1,peach,,,,,,,,,,,,,,,,,,,,,,,,,,,,,,,,,,,,,,,,,,,,,,,,,,,,,,,,,,,,,,,,,,,,,,,,,,,,,,,,,,,,,,,
,,,,,,,,,,stimuli/images/PICTURE_658.png,DEVIL,5f3b14845efc2180b7600665,11/01/2002,2020-08-27_15h47.06.759,proactive3.2,2020.1.2,Win32,60,5f47c0b9b035471e11593a5c,5f47c671586c801f1df22818,6,0,3,3,3,1,crow,,,,,,,,,,,,,,,,,,,,,,,,,,,,,,,,,,,,,,,,,,,,,,,,,,,,,,,,,,,,,,,,,,,,,,,,,,,,,,,,,,,,,,,
,,CELL,5.30721,0,,,,,,stimuli/images/PICTURE_378.png,LOSS,5f3b14845efc2180b7600665,11/01/2002,2020-08-27_15h47.06.759,proactive3.2,2020.1.2,Win32,60,5f47c0b9b035471e11593a5c,5f47c671586c801f1df22818,6,,,,,,lobster,0,0,0,2,1,,,,,,,,,,,,,,,,,,,,,,,,,,,,,,,,,,,,,,,,,,,,,,,,,,,,,,,,,,,,,,,,,,,,,,,,,,,,,,,,,,
,,DEVIL,3.513525,1,,,,,,stimuli/images/PICTURE_658.png,DEVIL,5f3b14845efc2180b7600665,11/01/2002,2020-08-27_15h47.06.759,proactive3.2,2020.1.2,Win32,60,5f47c0b9b035471e11593a5c,5f47c671586c801f1df22818,6,,,,,,crow,0,1,1,3,1,,,,,,,,,,,,,,,,,,,,,,,,,,,,,,,,,,,,,,,,,,,,,,,,,,,,,,,,,,,,,,,,,,,,,,,,,,,,,,,,,,
,,KILLER,4.298665,1,,,,,,stimuli/images/PICTURE_697.png,KILLER,5f3b14845efc2180b7600665,11/01/2002,2020-08-27_15h47.06.759,proactive3.2,2020.1.2,Win32,60,5f47c0b9b035471e11593a5c,5f47c671586c801f1df22818,6,,,,,,peach,0,2,2,4,1,,,,,,,,,,,,,,,,,,,,,,,,,,,,,,,,,,,,,,,,,,,,,,,,,,,,,,,,,,,,,,,,,,,,,,,,,,,,,,,,,,
,,GENIUS,3.563575,1,,,,,,stimuli/images/PICTURE_269.png,GENIUS,5f3b14845efc2180b7600665,11/01/2002,2020-08-27_15h47.06.759,proactive3.2,2020.1.2,Win32,60,5f47c0b9b035471e11593a5c,5f47c671586c801f1df22818,6,,,,,,chameleon,0,3,3,0,1,,,,,,,,,,,,,,,,,,,,,,,,,,,,,,,,,,,,,,,,,,,,,,,,,,,,,,,,,,,,,,,,,,,,,,,,,,,,,,,,,,
,,CELL,4.34709,1,,,,,,stimuli/images/PICTURE_727.png,CELL,5f3b14845efc2180b7600665,11/01/2002,2020-08-27_15h47.06.759,proactive3.2,2020.1.2,Win32,60,5f47c0b9b035471e11593a5c,5f47c671586c801f1df22818,6,,,,,,hose,0,4,4,1,1,,,,,,,,,,,,,,,,,,,,,,,,,,,,,,,,,,,,,,,,,,,,,,,,,,,,,,,,,,,,,,,,,,,,,,,,,,,,,,,,,,
,,,,,,,,,,stimuli/images/PICTURE_327.png,SERIES,5f3b14845efc2180b7600665,11/01/2002,2020-08-27_15h47.06.759,proactive3.2,2020.1.2,Win32,60,5f47c0b9b035471e11593a5c,5f47c671586c801f1df22818,6,,,,,,helmet,,,,,,0,0,0,3,1,1,1,,,,,,,,,,,,,,,,,,,,,,,,,,,,,,,,,,,,,,,,,,,,,,,,,,,,,,,,,,,,,,,,,,,,,,,,,,,
,,,,,,,,,,stimuli/images/PICTURE_677.png,APPLE,5f3b14845efc2180b7600665,11/01/2002,2020-08-27_15h47.06.759,proactive3.2,2020.1.2,Win32,60,5f47c0b9b035471e11593a5c,5f47c671586c801f1df22818,6,,,,,,map,,,,,,0,1,1,43,1,5,1,,,,,,,,,,,,,,,,,,,,,,,,,,,,,,,,,,,,,,,,,,,,,,,,,,,,,,,,,,,,,,,,,,,,,,,,,,,
,,,,,,,,,,stimuli/images/PICTURE_208.png,SYSTEM,5f3b14845efc2180b7600665,11/01/2002,2020-08-27_15h47.06.759,proactive3.2,2020.1.2,Win32,60,5f47c0b9b035471e11593a5c,5f47c671586c801f1df22818,6,,,,,,microphone,,,,,,0,2,2,32,1,4,1,,,,,,,,,,,,,,,,,,,,,,,,,,,,,,,,,,,,,,,,,,,,,,,,,,,,,,,,,,,,,,,,,,,,,,,,,,,
,,,,,,,,,,stimuli/images/PICTURE_675.png,SALE,5f3b14845efc2180b7600665,11/01/2002,2020-08-27_15h47.06.759,proactive3.2,2020.1.2,Win32,60,5f47c0b9b035471e11593a5c,5f47c671586c801f1df22818,6,,,,,,windmill,,,,,,0,3,3,47,1,5,1,,,,,,,,,,,,,,,,,,,,,,,,,,,,,,,,,,,,,,,,,,,,,,,,,,,,,,,,,,,,,,,,,,,,,,,,,,,
,,,,,,,,,,stimuli/images/PICTURE_308.png,FAMILY,5f3b14845efc2180b7600665,11/01/2002,2020-08-27_15h47.06.759,proactive3.2,2020.1.2,Win32,60,5f47c0b9b035471e11593a5c,5f47c671586c801f1df22818,6,,,,,,dice,,,,,,0,4,4,36,1,4,1,,,,,,,,,,,,,,,,,,,,,,,,,,,,,,,,,,,,,,,,,,,,,,,,,,,,,,,,,,,,,,,,,,,,,,,,,,,
,,,,,,,,,,stimuli/images/PICTURE_68.png,MILE,5f3b14845efc2180b7600665,11/01/2002,2020-08-27_15h47.06.759,proactive3.2,2020.1.2,Win32,60,5f47c0b9b035471e11593a5c,5f47c671586c801f1df22818,6,,,,,,candle,,,,,,0,5,5,51,1,6,1,,,,,,,,,,,,,,,,,,,,,,,,,,,,,,,,,,,,,,,,,,,,,,,,,,,,,,,,,,,,,,,,,,,,,,,,,,,
,,,,,,,,,,stimuli/images/PICTURE_85.png,NATION,5f3b14845efc2180b7600665,11/01/2002,2020-08-27_15h47.06.759,proactive3.2,2020.1.2,Win32,60,5f47c0b9b035471e11593a5c,5f47c671586c801f1df22818,6,,,,,,diamond,,,,,,0,6,6,5,1,1,1,,,,,,,,,,,,,,,,,,,,,,,,,,,,,,,,,,,,,,,,,,,,,,,,,,,,,,,,,,,,,,,,,,,,,,,,,,,
,,,,,,,,,,stimuli/images/PICTURE_32.png,KIND,5f3b14845efc2180b7600665,11/01/2002,2020-08-27_15h47.06.759,proactive3.2,2020.1.2,Win32,60,5f47c0b9b035471e11593a5c,5f47c671586c801f1df22818,6,,,,,,crown,,,,,,0,7,7,35,1,4,1,,,,,,,,,,,,,,,,,,,,,,,,,,,,,,,,,,,,,,,,,,,,,,,,,,,,,,,,,,,,,,,,,,,,,,,,,,,
,,,,,,,,,,stimuli/images/PICTURE_655.png,TOILET,5f3b14845efc2180b7600665,11/01/2002,2020-08-27_15h47.06.759,proactive3.2,2020.1.2,Win32,60,5f47c0b9b035471e11593a5c,5f47c671586c801f1df22818,6,,,,,,megaphone,,,,,,0,8,8,12,1,2,1,,,,,,,,,,,,,,,,,,,,,,,,,,,,,,,,,,,,,,,,,,,,,,,,,,,,,,,,,,,,,,,,,,,,,,,,,,,
,,,,,,,,,,stimuli/images/PICTURE_667.png,RIVER,5f3b14845efc2180b7600665,11/01/2002,2020-08-27_15h47.06.759,proactive3.2,2020.1.2,Win32,60,5f47c0b9b035471e11593a5c,5f47c671586c801f1df22818,6,,,,,,daisy,,,,,,0,9,9,10,1,2,1,,,,,,,,,,,,,,,,,,,,,,,,,,,,,,,,,,,,,,,,,,,,,,,,,,,,,,,,,,,,,,,,,,,,,,,,,,,
,,,,,,,,,,stimuli/images/PICTURE_57.png,MOMENT,5f3b14845efc2180b7600665,11/01/2002,2020-08-27_15h47.06.759,proactive3.2,2020.1.2,Win32,60,5f47c0b9b035471e11593a5c,5f47c671586c801f1df22818,6,,,,,,stamp,,,,,,0,10,10,37,1,4,1,,,,,,,,,,,,,,,,,,,,,,,,,,,,,,,,,,,,,,,,,,,,,,,,,,,,,,,,,,,,,,,,,,,,,,,,,,,
,,,,,,,,,,stimuli/images/PICTURE_147.png,WOMEN,5f3b14845efc2180b7600665,11/01/2002,2020-08-27_15h47.06.759,proactive3.2,2020.1.2,Win32,60,5f47c0b9b035471e11593a5c,5f47c671586c801f1df22818,6,,,,,,hanger,,,,,,0,11,11,7,1,1,1,,,,,,,,,,,,,,,,,,,,,,,,,,,,,,,,,,,,,,,,,,,,,,,,,,,,,,,,,,,,,,,,,,,,,,,,,,,
,,,,,,,,,,stimuli/images/PICTURE_564.png,BATH,5f3b14845efc2180b7600665,11/01/2002,2020-08-27_15h47.06.759,proactive3.2,2020.1.2,Win32,60,5f47c0b9b035471e11593a5c,5f47c671586c801f1df22818,6,,,,,,spoon,,,,,,0,12,12,26,1,3,1,,,,,,,,,,,,,,,,,,,,,,,,,,,,,,,,,,,,,,,,,,,,,,,,,,,,,,,,,,,,,,,,,,,,,,,,,,,
,,,,,,,,,,stimuli/images/PICTURE_504.png,YEAR,5f3b14845efc2180b7600665,11/01/2002,2020-08-27_15h47.06.759,proactive3.2,2020.1.2,Win32,60,5f47c0b9b035471e11593a5c,5f47c671586c801f1df22818,6,,,,,,wheel,,,,,,0,13,13,13,1,2,1,,,,,,,,,,,,,,,,,,,,,,,,,,,,,,,,,,,,,,,,,,,,,,,,,,,,,,,,,,,,,,,,,,,,,,,,,,,
,,,,,,,,,,stimuli/images/PICTURE_405.png,YEAR,5f3b14845efc2180b7600665,11/01/2002,2020-08-27_15h47.06.759,proactive3.2,2020.1.2,Win32,60,5f47c0b9b035471e11593a5c,5f47c671586c801f1df22818,6,,,,,,anchor,,,,,,0,14,14,34,1,4,1,,,,,,,,,,,,,,,,,,,,,,,,,,,,,,,,,,,,,,,,,,,,,,,,,,,,,,,,,,,,,,,,,,,,,,,,,,,
,,,,,,,,,,stimuli/images/PICTURE_108.png,POLICY,5f3b14845efc2180b7600665,11/01/2002,2020-08-27_15h47.06.759,proactive3.2,2020.1.2,Win32,60,5f47c0b9b035471e11593a5c,5f47c671586c801f1df22818,6,,,,,,calendar,,,,,,0,15,15,22,1,3,1,,,,,,,,,,,,,,,,,,,,,,,,,,,,,,,,,,,,,,,,,,,,,,,,,,,,,,,,,,,,,,,,,,,,,,,,,,,
,,,,,,,,,,stimuli/images/PICTURE_491.png,GLASS,5f3b14845efc2180b7600665,11/01/2002,2020-08-27_15h47.06.759,proactive3.2,2020.1.2,Win32,60,5f47c0b9b035471e11593a5c,5f47c671586c801f1df22818,6,,,,,,rug,,,,,,0,16,16,14,1,2,1,,,,,,,,,,,,,,,,,,,,,,,,,,,,,,,,,,,,,,,,,,,,,,,,,,,,,,,,,,,,,,,,,,,,,,,,,,,
,,,,,,,,,,stimuli/images/PICTURE_383.png,WRITER,5f3b14845efc2180b7600665,11/01/2002,2020-08-27_15h47.06.759,proactive3.2,2020.1.2,Win32,60,5f47c0b9b035471e11593a5c,5f47c671586c801f1df22818,6,,,,,,coin,,,,,,0,17,17,28,1,3,1,,,,,,,,,,,,,,,,,,,,,,,,,,,,,,,,,,,,,,,,,,,,,,,,,,,,,,,,,,,,,,,,,,,,,,,,,,,
,,,,,,,,,,stimuli/images/PICTURE_467.png,POLICY,5f3b14845efc2180b7600665,11/01/2002,2020-08-27_15h47.06.759,proactive3.2,2020.1.2,Win32,60,5f47c0b9b035471e11593a5c,5f47c671586c801f1df22818,6,,,,,,peg,,,,,,0,18,18,53,1,6,1,,,,,,,,,,,,,,,,,,,,,,,,,,,,,,,,,,,,,,,,,,,,,,,,,,,,,,,,,,,,,,,,,,,,,,,,,,,
,,,,,,,,,,stimuli/images/PICTURE_504.png,ARTIST,5f3b14845efc2180b7600665,11/01/2002,2020-08-27_15h47.06.759,proactive3.2,2020.1.2,Win32,60,5f47c0b9b035471e11593a5c,5f47c671586c801f1df22818,6,,,,,,wheel,,,,,,0,19,19,49,1,5,1,,,,,,,,,,,,,,,,,,,,,,,,,,,,,,,,,,,,,,,,,,,,,,,,,,,,,,,,,,,,,,,,,,,,,,,,,,,
,,,,,,,,,,stimuli/images/PICTURE_203.png,GODS,5f3b14845efc2180b7600665,11/01/2002,2020-08-27_15h47.06.759,proactive3.2,2020.1.2,Win32,60,5f47c0b9b035471e11593a5c,5f47c671586c801f1df22818,6,,,,,,cap,,,,,,0,20,20,30,1,4,1,,,,,,,,,,,,,,,,,,,,,,,,,,,,,,,,,,,,,,,,,,,,,,,,,,,,,,,,,,,,,,,,,,,,,,,,,,,
,,,,,,,,,,stimuli/images/PICTURE_95.png,BOYS,5f3b14845efc2180b7600665,11/01/2002,2020-08-27_15h47.06.759,proactive3.2,2020.1.2,Win32,60,5f47c0b9b035471e11593a5c,5f47c671586c801f1df22818,6,,,,,,suitcase,,,,,,0,21,21,1,1,1,1,,,,,,,,,,,,,,,,,,,,,,,,,,,,,,,,,,,,,,,,,,,,,,,,,,,,,,,,,,,,,,,,,,,,,,,,,,,
,,,,,,,,,,stimuli/images/PICTURE_285.png,LIFE,5f3b14845efc2180b7600665,11/01/2002,2020-08-27_15h47.06.759,proactive3.2,2020.1.2,Win32,60,5f47c0b9b035471e11593a5c,5f47c671586c801f1df22818,6,,,,,,carrot,,,,,,0,22,22,33,1,4,1,,,,,,,,,,,,,,,,,,,,,,,,,,,,,,,,,,,,,,,,,,,,,,,,,,,,,,,,,,,,,,,,,,,,,,,,,,,
,,,,,,,,,,stimuli/images/PICTURE_403.png,TOILET,5f3b14845efc2180b7600665,11/01/2002,2020-08-27_15h47.06.759,proactive3.2,2020.1.2,Win32,60,5f47c0b9b035471e11593a5c,5f47c671586c801f1df22818,6,,,,,,cathedral,,,,,,0,23,23,25,1,3,1,,,,,,,,,,,,,,,,,,,,,,,,,,,,,,,,,,,,,,,,,,,,,,,,,,,,,,,,,,,,,,,,,,,,,,,,,,,
,,,,,,,,,,stimuli/images/PICTURE_469.png,AGENT,5f3b14845efc2180b7600665,11/01/2002,2020-08-27_15h47.06.759,proactive3.2,2020.1.2,Win32,60,5f47c0b9b035471e11593a5c,5f47c671586c801f1df22818,6,,,,,,stool,,,,,,0,24,24,16,1,2,1,,,,,,,,,,,,,,,,,,,,,,,,,,,,,,,,,,,,,,,,,,,,,,,,,,,,,,,,,,,,,,,,,,,,,,,,,,,
,,,,,,,,,,stimuli/images/PICTURE_403.png,RIVER,5f3b14845efc2180b7600665,11/01/2002,2020-08-27_15h47.06.759,proactive3.2,2020.1.2,Win32,60,5f47c0b9b035471e11593a5c,5f47c671586c801f1df22818,6,,,,,,cathedral,,,,,,0,25,25,40,1,5,1,,,,,,,,,,,,,,,,,,,,,,,,,,,,,,,,,,,,,,,,,,,,,,,,,,,,,,,,,,,,,,,,,,,,,,,,,,,
,,,,,,,,,,stimuli/images/PICTURE_449.png,DUDE,5f3b14845efc2180b7600665,11/01/2002,2020-08-27_15h47.06.759,proactive3.2,2020.1.2,Win32,60,5f47c0b9b035471e11593a5c,5f47c671586c801f1df22818,6,,,,,,bench,,,,,,0,26,26,17,1,2,1,,,,,,,,,,,,,,,,,,,,,,,,,,,,,,,,,,,,,,,,,,,,,,,,,,,,,,,,,,,,,,,,,,,,,,,,,,,
,,,,,,,,,,stimuli/images/PICTURE_380.png,CANDY,5f3b14845efc2180b7600665,11/01/2002,2020-08-27_15h47.06.759,proactive3.2,2020.1.2,Win32,60,5f47c0b9b035471e11593a5c,5f47c671586c801f1df22818,6,,,,,,gorilla,,,,,,0,27,27,0,1,1,1,,,,,,,,,,,,,,,,,,,,,,,,,,,,,,,,,,,,,,,,,,,,,,,,,,,,,,,,,,,,,,,,,,,,,,,,,,,
,,,,,,,,,,stimuli/images/PICTURE_504.png,COPS,5f3b14845efc2180b7600665,11/01/2002,2020-08-27_15h47.06.759,proactive3.2,2020.1.2,Win32,60,5f47c0b9b035471e11593a5c,5f47c671586c801f1df22818,6,,,,,,wheel,,,,,,0,28,28,52,1,6,1,,,,,,,,,,,,,,,,,,,,,,,,,,,,,,,,,,,,,,,,,,,,,,,,,,,,,,,,,,,,,,,,,,,,,,,,,,,
,,,,,,,,,,stimuli/images/PICTURE_33.png,FRIEND,5f3b14845efc2180b7600665,11/01/2002,2020-08-27_15h47.06.759,proactive3.2,2020.1.2,Win32,60,5f47c0b9b035471e11593a5c,5f47c671586c801f1df22818,6,,,,,,frame,,,,,,0,29,29,8,1,1,1,,,,,,,,,,,,,,,,,,,,,,,,,,,,,,,,,,,,,,,,,,,,,,,,,,,,,,,,,,,,,,,,,,,,,,,,,,,
,,,,,,,,,,stimuli/images/PICTURE_685.png,PENNY,5f3b14845efc2180b7600665,11/01/2002,2020-08-27_15h47.06.759,proactive3.2,2020.1.2,Win32,60,5f47c0b9b035471e11593a5c,5f47c671586c801f1df22818,6,,,,,,goose,,,,,,0,30,30,4,1,1,1,,,,,,,,,,,,,,,,,,,,,,,,,,,,,,,,,,,,,,,,,,,,,,,,,,,,,,,,,,,,,,,,,,,,,,,,,,,
,,,,,,,,,,stimuli/images/PICTURE_405.png,PLENTY,5f3b14845efc2180b7600665,11/01/2002,2020-08-27_15h47.06.759,proactive3.2,2020.1.2,Win32,60,5f47c0b9b035471e11593a5c,5f47c671586c801f1df22818,6,,,,,,anchor,,,,,,0,31,31,23,1,3,1,,,,,,,,,,,,,,,,,,,,,,,,,,,,,,,,,,,,,,,,,,,,,,,,,,,,,,,,,,,,,,,,,,,,,,,,,,,
,,,,,,,,,,stimuli/images/PICTURE_203.png,NIGHT,5f3b14845efc2180b7600665,11/01/2002,2020-08-27_15h47.06.759,proactive3.2,2020.1.2,Win32,60,5f47c0b9b035471e11593a5c,5f47c671586c801f1df22818,6,,,,,,cap,,,,,,0,32,32,2,1,1,1,,,,,,,,,,,,,,,,,,,,,,,,,,,,,,,,,,,,,,,,,,,,,,,,,,,,,,,,,,,,,,,,,,,,,,,,,,,
,,,,,,,,,,stimuli/images/PICTURE_296.png,LOTS,5f3b14845efc2180b7600665,11/01/2002,2020-08-27_15h47.06.759,proactive3.2,2020.1.2,Win32,60,5f47c0b9b035471e11593a5c,5f47c671586c801f1df22818,6,,,,,,bolt,,,,,,0,33,33,9,1,1,1,,,,,,,,,,,,,,,,,,,,,,,,,,,,,,,,,,,,,,,,,,,,,,,,,,,,,,,,,,,,,,,,,,,,,,,,,,,
,,,,,,,,,,stimuli/images/PICTURE_85.png,TOILET,5f3b14845efc2180b7600665,11/01/2002,2020-08-27_15h47.06.759,proactive3.2,2020.1.2,Win32,60,5f47c0b9b035471e11593a5c,5f47c671586c801f1df22818,6,,,,,,diamond,,,,,,0,34,34,48,1,5,1,,,,,,,,,,,,,,,,,,,,,,,,,,,,,,,,,,,,,,,,,,,,,,,,,,,,,,,,,,,,,,,,,,,,,,,,,,,
,,,,,,,,,,stimuli/images/PICTURE_327.png,CASINO,5f3b14845efc2180b7600665,11/01/2002,2020-08-27_15h47.06.759,proactive3.2,2020.1.2,Win32,60,5f47c0b9b035471e11593a5c,5f47c671586c801f1df22818,6,,,,,,helmet,,,,,,0,35,35,20,1,3,1,,,,,,,,,,,,,,,,,,,,,,,,,,,,,,,,,,,,,,,,,,,,,,,,,,,,,,,,,,,,,,,,,,,,,,,,,,,
,,,,,,,,,,stimuli/images/PICTURE_708.png,RECORD,5f3b14845efc2180b7600665,11/01/2002,2020-08-27_15h47.06.759,proactive3.2,2020.1.2,Win32,60,5f47c0b9b035471e11593a5c,5f47c671586c801f1df22818,6,,,,,,monkey,,,,,,0,36,36,58,1,6,1,,,,,,,,,,,,,,,,,,,,,,,,,,,,,,,,,,,,,,,,,,,,,,,,,,,,,,,,,,,,,,,,,,,,,,,,,,,
,,,,,,,,,,stimuli/images/PICTURE_750.png,HOTEL,5f3b14845efc2180b7600665,11/01/2002,2020-08-27_15h47.06.759,proactive3.2,2020.1.2,Win32,60,5f47c0b9b035471e11593a5c,5f47c671586c801f1df22818,6,,,,,,kettle,,,,,,0,37,37,27,1,3,1,,,,,,,,,,,,,,,,,,,,,,,,,,,,,,,,,,,,,,,,,,,,,,,,,,,,,,,,,,,,,,,,,,,,,,,,,,,
,,,,,,,,,,stimuli/images/PICTURE_487.png,GIRL,5f3b14845efc2180b7600665,11/01/2002,2020-08-27_15h47.06.759,proactive3.2,2020.1.2,Win32,60,5f47c0b9b035471e11593a5c,5f47c671586c801f1df22818,6,,,,,,basket,,,,,,0,38,38,45,1,5,1,,,,,,,,,,,,,,,,,,,,,,,,,,,,,,,,,,,,,,,,,,,,,,,,,,,,,,,,,,,,,,,,,,,,,,,,,,,
,,,,,,,,,,stimuli/images/PICTURE_108.png,FLIGHT,5f3b14845efc2180b7600665,11/01/2002,2020-08-27_15h47.06.759,proactive3.2,2020.1.2,Win32,60,5f47c0b9b035471e11593a5c,5f47c671586c801f1df22818,6,,,,,,calendar,,,,,,0,39,39,59,1,6,1,,,,,,,,,,,,,,,,,,,,,,,,,,,,,,,,,,,,,,,,,,,,,,,,,,,,,,,,,,,,,,,,,,,,,,,,,,,
,,,,,,,,,,stimuli/images/PICTURE_32.png,PILLS,5f3b14845efc2180b7600665,11/01/2002,2020-08-27_15h47.06.759,proactive3.2,2020.1.2,Win32,60,5f47c0b9b035471e11593a5c,5f47c671586c801f1df22818,6,,,,,,crown,,,,,,0,40,40,18,1,2,1,,,,,,,,,,,,,,,,,,,,,,,,,,,,,,,,,,,,,,,,,,,,,,,,,,,,,,,,,,,,,,,,,,,,,,,,,,,
,,,,,,,,,,stimuli/images/PICTURE_340.png,VALLEY,5f3b14845efc2180b7600665,11/01/2002,2020-08-27_15h47.06.759,proactive3.2,2020.1.2,Win32,60,5f47c0b9b035471e11593a5c,5f47c671586c801f1df22818,6,,,,,,mirror,,,,,,0,41,41,54,1,6,1,,,,,,,,,,,,,,,,,,,,,,,,,,,,,,,,,,,,,,,,,,,,,,,,,,,,,,,,,,,,,,,,,,,,,,,,,,,
,,,,,,,,,,stimuli/images/PICTURE_744.png,WEAPON,5f3b14845efc2180b7600665,11/01/2002,2020-08-27_15h47.06.759,proactive3.2,2020.1.2,Win32,60,5f47c0b9b035471e11593a5c,5f47c671586c801f1df22818,6,,,,,,ring,,,,,,0,42,42,50,1,6,1,,,,,,,,,,,,,,,,,,,,,,,,,,,,,,,,,,,,,,,,,,,,,,,,,,,,,,,,,,,,,,,,,,,,,,,,,,,
,,,,,,,,,,stimuli/images/PICTURE_147.png,YEAR,5f3b14845efc2180b7600665,11/01/2002,2020-08-27_15h47.06.759,proactive3.2,2020.1.2,Win32,60,5f47c0b9b035471e11593a5c,5f47c671586c801f1df22818,6,,,,,,hanger,,,,,,0,43,43,21,1,3,1,,,,,,,,,,,,,,,,,,,,,,,,,,,,,,,,,,,,,,,,,,,,,,,,,,,,,,,,,,,,,,,,,,,,,,,,,,,
,,,,,,,,,,stimuli/images/PICTURE_95.png,HONEY,5f3b14845efc2180b7600665,11/01/2002,2020-08-27_15h47.06.759,proactive3.2,2020.1.2,Win32,60,5f47c0b9b035471e11593a5c,5f47c671586c801f1df22818,6,,,,,,suitcase,,,,,,0,44,44,44,1,5,1,,,,,,,,,,,,,,,,,,,,,,,,,,,,,,,,,,,,,,,,,,,,,,,,,,,,,,,,,,,,,,,,,,,,,,,,,,,
,,,,,,,,,,stimuli/images/PICTURE_383.png,SERIES,5f3b14845efc2180b7600665,11/01/2002,2020-08-27_15h47.06.759,proactive3.2,2020.1.2,Win32,60,5f47c0b9b035471e11593a5c,5f47c671586c801f1df22818,6,,,,,,coin,,,,,,0,45,45,46,1,5,1,,,,,,,,,,,,,,,,,,,,,,,,,,,,,,,,,,,,,,,,,,,,,,,,,,,,,,,,,,,,,,,,,,,,,,,,,,,
,,,,,,,,,,stimuli/images/PICTURE_42.png,BOYS,5f3b14845efc2180b7600665,11/01/2002,2020-08-27_15h47.06.759,proactive3.2,2020.1.2,Win32,60,5f47c0b9b035471e11593a5c,5f47c671586c801f1df22818,6,,,,,,pear,,,,,,0,46,46,55,1,6,1,,,,,,,,,,,,,,,,,,,,,,,,,,,,,,,,,,,,,,,,,,,,,,,,,,,,,,,,,,,,,,,,,,,,,,,,,,,
,,,,,,,,,,stimuli/images/PICTURE_340.png,LETTER,5f3b14845efc2180b7600665,11/01/2002,2020-08-27_15h47.06.759,proactive3.2,2020.1.2,Win32,60,5f47c0b9b035471e11593a5c,5f47c671586c801f1df22818,6,,,,,,mirror,,,,,,0,47,47,24,1,3,1,,,,,,,,,,,,,,,,,,,,,,,,,,,,,,,,,,,,,,,,,,,,,,,,,,,,,,,,,,,,,,,,,,,,,,,,,,,
,,,,,,,,,,stimuli/images/PICTURE_654.png,MONTH,5f3b14845efc2180b7600665,11/01/2002,2020-08-27_15h47.06.759,proactive3.2,2020.1.2,Win32,60,5f47c0b9b035471e11593a5c,5f47c671586c801f1df22818,6,,,,,,pencil,,,,,,0,48,48,29,1,3,1,,,,,,,,,,,,,,,,,,,,,,,,,,,,,,,,,,,,,,,,,,,,,,,,,,,,,,,,,,,,,,,,,,,,,,,,,,,
,,,,,,,,,,stimuli/images/PICTURE_403.png,WRITER,5f3b14845efc2180b7600665,11/01/2002,2020-08-27_15h47.06.759,proactive3.2,2020.1.2,Win32,60,5f47c0b9b035471e11593a5c,5f47c671586c801f1df22818,6,,,,,,cathedral,,,,,,0,49,49,31,1,4,1,,,,,,,,,,,,,,,,,,,,,,,,,,,,,,,,,,,,,,,,,,,,,,,,,,,,,,,,,,,,,,,,,,,,,,,,,,,
,,,,,,,,,,stimuli/images/PICTURE_297.png,RIVER,5f3b14845efc2180b7600665,11/01/2002,2020-08-27_15h47.06.759,proactive3.2,2020.1.2,Win32,60,5f47c0b9b035471e11593a5c,5f47c671586c801f1df22818,6,,,,,,aeroplane,,,,,,0,50,50,39,1,4,1,,,,,,,,,,,,,,,,,,,,,,,,,,,,,,,,,,,,,,,,,,,,,,,,,,,,,,,,,,,,,,,,,,,,,,,,,,,
,,,,,,,,,,stimuli/images/PICTURE_233.png,LOTS,5f3b14845efc2180b7600665,11/01/2002,2020-08-27_15h47.06.759,proactive3.2,2020.1.2,Win32,60,5f47c0b9b035471e11593a5c,5f47c671586c801f1df22818,6,,,,,,salt,,,,,,0,51,51,42,1,5,1,,,,,,,,,,,,,,,,,,,,,,,,,,,,,,,,,,,,,,,,,,,,,,,,,,,,,,,,,,,,,,,,,,,,,,,,,,,
,,,,,,,,,,stimuli/images/PICTURE_177.png,WRITER,5f3b14845efc2180b7600665,11/01/2002,2020-08-27_15h47.06.759,proactive3.2,2020.1.2,Win32,60,5f47c0b9b035471e11593a5c,5f47c671586c801f1df22818,6,,,,,,mushroom,,,,,,0,52,52,41,1,5,1,,,,,,,,,,,,,,,,,,,,,,,,,,,,,,,,,,,,,,,,,,,,,,,,,,,,,,,,,,,,,,,,,,,,,,,,,,,
,,,,,,,,,,stimuli/images/PICTURE_2.png,FLIGHT,5f3b14845efc2180b7600665,11/01/2002,2020-08-27_15h47.06.759,proactive3.2,2020.1.2,Win32,60,5f47c0b9b035471e11593a5c,5f47c671586c801f1df22818,6,,,,,,tyre,,,,,,0,53,53,15,1,2,1,,,,,,,,,,,,,,,,,,,,,,,,,,,,,,,,,,,,,,,,,,,,,,,,,,,,,,,,,,,,,,,,,,,,,,,,,,,
,,,,,,,,,,stimuli/images/PICTURE_68.png,ROOF,5f3b14845efc2180b7600665,11/01/2002,2020-08-27_15h47.06.759,proactive3.2,2020.1.2,Win32,60,5f47c0b9b035471e11593a5c,5f47c671586c801f1df22818,6,,,,,,candle,,,,,,0,54,54,38,1,4,1,,,,,,,,,,,,,,,,,,,,,,,,,,,,,,,,,,,,,,,,,,,,,,,,,,,,,,,,,,,,,,,,,,,,,,,,,,,
,,,,,,,,,,stimuli/images/PICTURE_491.png,RIVER,5f3b14845efc2180b7600665,11/01/2002,2020-08-27_15h47.06.759,proactive3.2,2020.1.2,Win32,60,5f47c0b9b035471e11593a5c,5f47c671586c801f1df22818,6,,,,,,rug,,,,,,0,55,55,6,1,1,1,,,,,,,,,,,,,,,,,,,,,,,,,,,,,,,,,,,,,,,,,,,,,,,,,,,,,,,,,,,,,,,,,,,,,,,,,,,
,,,,,,,,,,stimuli/images/PICTURE_380.png,HONEY,5f3b14845efc2180b7600665,11/01/2002,2020-08-27_15h47.06.759,proactive3.2,2020.1.2,Win32,60,5f47c0b9b035471e11593a5c,5f47c671586c801f1df22818,6,,,,,,gorilla,,,,,,0,56,56,19,1,2,1,,,,,,,,,,,,,,,,,,,,,,,,,,,,,,,,,,,,,,,,,,,,,,,,,,,,,,,,,,,,,,,,,,,,,,,,,,,
,,,,,,,,,,stimuli/images/PICTURE_339.png,CLIENT,5f3b14845efc2180b7600665,11/01/2002,2020-08-27_15h47.06.759,proactive3.2,2020.1.2,Win32,60,5f47c0b9b035471e11593a5c,5f47c671586c801f1df22818,6,,,,,,backpack,,,,,,0,57,57,11,1,2,1,,,,,,,,,,,,,,,,,,,,,,,,,,,,,,,,,,,,,,,,,,,,,,,,,,,,,,,,,,,,,,,,,,,,,,,,,,,
,,,,,,,,,,stimuli/images/PICTURE_296.png,LIFE,5f3b14845efc2180b7600665,11/01/2002,2020-08-27_15h47.06.759,proactive3.2,2020.1.2,Win32,60,5f47c0b9b035471e11593a5c,5f47c671586c801f1df22818,6,,,,,,bolt,,,,,,0,58,58,57,1,6,1,,,,,,,,,,,,,,,,,,,,,,,,,,,,,,,,,,,,,,,,,,,,,,,,,,,,,,,,,,,,,,,,,,,,,,,,,,,
,,?,0.00256,0,,,,,,stimuli/images/PICTURE_33.png,FRIEND,5f3b14845efc2180b7600665,11/01/2002,2020-08-27_15h47.06.759,proactive3.2,2020.1.2,Win32,60,5f47c0b9b035471e11593a5c,5f47c671586c801f1df22818,6,,,,,,frame,,,,,,,,,,,1,1,0,0,0,8,1,,,,,,,,,,,,,,,,,,,,,,,,,,,,,,,,,,,,,,,,,,,,,,,,,,,,,,,,,,,,,,,,,,,,,,
,,BOYS,6.124845,1,,,,,,stimuli/images/PICTURE_42.png,BOYS,5f3b14845efc2180b7600665,11/01/2002,2020-08-27_15h47.06.759,proactive3.2,2020.1.2,Win32,60,5f47c0b9b035471e11593a5c,5f47c671586c801f1df22818,6,,,,,,pear,,,,,,,,,,,6,1,0,1,1,55,1,,,,,,,,,,,,,,,,,,,,,,,,,,,,,,,,,,,,,,,,,,,,,,,,,,,,,,,,,,,,,,,,,,,,,,
,,?,5.898485,0,,,,,,stimuli/images/PICTURE_296.png,LIFE,5f3b14845efc2180b7600665,11/01/2002,2020-08-27_15h47.06.759,proactive3.2,2020.1.2,Win32,60,5f47c0b9b035471e11593a5c,5f47c671586c801f1df22818,6,,,,,,bolt,,,,,,,,,,,6,1,0,2,2,57,1,,,,,,,,,,,,,,,,,,,,,,,,,,,,,,,,,,,,,,,,,,,,,,,,,,,,,,,,,,,,,,,,,,,,,,
,,?,0.002785,0,,,,,,stimuli/images/PICTURE_380.png,HONEY,5f3b14845efc2180b7600665,11/01/2002,2020-08-27_15h47.06.759,proactive3.2,2020.1.2,Win32,60,5f47c0b9b035471e11593a5c,5f47c671586c801f1df22818,6,,,,,,gorilla,,,,,,,,,,,2,1,0,3,3,19,1,,,,,,,,,,,,,,,,,,,,,,,,,,,,,,,,,,,,,,,,,,,,,,,,,,,,,,,,,,,,,,,,,,,,,,
,,?,0.003015,0,,,,,,stimuli/images/PICTURE_308.png,FAMILY,5f3b14845efc2180b7600665,11/01/2002,2020-08-27_15h47.06.759,proactive3.2,2020.1.2,Win32,60,5f47c0b9b035471e11593a5c,5f47c671586c801f1df22818,6,,,,,,dice,,,,,,,,,,,4,1,0,4,4,36,1,,,,,,,,,,,,,,,,,,,,,,,,,,,,,,,,,,,,,,,,,,,,,,,,,,,,,,,,,,,,,,,,,,,,,,
,,?,0.002695,0,,,,,,stimuli/images/PICTURE_32.png,PILLS,5f3b14845efc2180b7600665,11/01/2002,2020-08-27_15h47.06.759,proactive3.2,2020.1.2,Win32,60,5f47c0b9b035471e11593a5c,5f47c671586c801f1df22818,6,,,,,,crown,,,,,,,,,,,2,1,0,5,5,18,1,,,,,,,,,,,,,,,,,,,,,,,,,,,,,,,,,,,,,,,,,,,,,,,,,,,,,,,,,,,,,,,,,,,,,,
,,?,0.002525,0,,,,,,stimuli/images/PICTURE_504.png,ARTIST,5f3b14845efc2180b7600665,11/01/2002,2020-08-27_15h47.06.759,proactive3.2,2020.1.2,Win32,60,5f47c0b9b035471e11593a5c,5f47c671586c801f1df22818,6,,,,,,wheel,,,,,,,,,,,5,1,0,6,6,49,1,,,,,,,,,,,,,,,,,,,,,,,,,,,,,,,,,,,,,,,,,,,,,,,,,,,,,,,,,,,,,,,,,,,,,,
,,?,0.003275,0,,,,,,stimuli/images/PICTURE_487.png,GIRL,5f3b14845efc2180b7600665,11/01/2002,2020-08-27_15h47.06.759,proactive3.2,2020.1.2,Win32,60,5f47c0b9b035471e11593a5c,5f47c671586c801f1df22818,6,,,,,,basket,,,,,,,,,,,5,1,0,7,7,45,1,,,,,,,,,,,,,,,,,,,,,,,,,,,,,,,,,,,,,,,,,,,,,,,,,,,,,,,,,,,,,,,,,,,,,,
,,?,0.00253,0,,,,,,stimuli/images/PICTURE_383.png,SERIES,5f3b14845efc2180b7600665,11/01/2002,2020-08-27_15h47.06.759,proactive3.2,2020.1.2,Win32,60,5f47c0b9b035471e11593a5c,5f47c671586c801f1df22818,6,,,,,,coin,,,,,,,,,,,5,1,0,8,8,46,1,,,,,,,,,,,,,,,,,,,,,,,,,,,,,,,,,,,,,,,,,,,,,,,,,,,,,,,,,,,,,,,,,,,,,,
,,?,0.00227,0,,,,,,stimuli/images/PICTURE_68.png,ROOF,5f3b14845efc2180b7600665,11/01/2002,2020-08-27_15h47.06.759,proactive3.2,2020.1.2,Win32,60,5f47c0b9b035471e11593a5c,5f47c671586c801f1df22818,6,,,,,,candle,,,,,,,,,,,4,1,0,9,9,38,1,,,,,,,,,,,,,,,,,,,,,,,,,,,,,,,,,,,,,,,,,,,,,,,,,,,,,,,,,,,,,,,,,,,,,,
,,?,0.003,0,,,,,,stimuli/images/PICTURE_750.png,HOTEL,5f3b14845efc2180b7600665,11/01/2002,2020-08-27_15h47.06.759,proactive3.2,2020.1.2,Win32,60,5f47c0b9b035471e11593a5c,5f47c671586c801f1df22818,6,,,,,,kettle,,,,,,,,,,,3,1,0,10,10,27,1,,,,,,,,,,,,,,,,,,,,,,,,,,,,,,,,,,,,,,,,,,,,,,,,,,,,,,,,,,,,,,,,,,,,,,
,,?,15.00986,0,,,,,,stimuli/images/PICTURE_68.png,MILE,5f3b14845efc2180b7600665,11/01/2002,2020-08-27_15h47.06.759,proactive3.2,2020.1.2,Win32,60,5f47c0b9b035471e11593a5c,5f47c671586c801f1df22818,6,,,,,,candle,,,,,,,,,,,6,1,0,11,11,51,1,,,,,,,,,,,,,,,,,,,,,,,,,,,,,,,,,,,,,,,,,,,,,,,,,,,,,,,,,,,,,,,,,,,,,,
,,VALLEY,5.3643,1,,,,,,stimuli/images/PICTURE_340.png,VALLEY,5f3b14845efc2180b7600665,11/01/2002,2020-08-27_15h47.06.759,proactive3.2,2020.1.2,Win32,60,5f47c0b9b035471e11593a5c,5f47c671586c801f1df22818,6,,,,,,mirror,,,,,,,,,,,6,1,0,12,12,54,1,,,,,,,,,,,,,,,,,,,,,,,,,,,,,,,,,,,,,,,,,,,,,,,,,,,,,,,,,,,,,,,,,,,,,,
,,?,0.001465,0,,,,,,stimuli/images/PICTURE_504.png,YEAR,5f3b14845efc2180b7600665,11/01/2002,2020-08-27_15h47.06.759,proactive3.2,2020.1.2,Win32,60,5f47c0b9b035471e11593a5c,5f47c671586c801f1df22818,6,,,,,,wheel,,,,,,,,,,,2,1,0,13,13,13,1,,,,,,,,,,,,,,,,,,,,,,,,,,,,,,,,,,,,,,,,,,,,,,,,,,,,,,,,,,,,,,,,,,,,,,
,,?,0.00128,0,,,,,,stimuli/images/PICTURE_95.png,HONEY,5f3b14845efc2180b7600665,11/01/2002,2020-08-27_15h47.06.759,proactive3.2,2020.1.2,Win32,60,5f47c0b9b035471e11593a5c,5f47c671586c801f1df22818,6,,,,,,suitcase,,,,,,,,,,,5,1,0,14,14,44,1,,,,,,,,,,,,,,,,,,,,,,,,,,,,,,,,,,,,,,,,,,,,,,,,,,,,,,,,,,,,,,,,,,,,,,
,,?,0.001885,0,,,,,,stimuli/images/PICTURE_403.png,RIVER,5f3b14845efc2180b7600665,11/01/2002,2020-08-27_15h47.06.759,proactive3.2,2020.1.2,Win32,60,5f47c0b9b035471e11593a5c,5f47c671586c801f1df22818,6,,,,,,cathedral,,,,,,,,,,,5,1,0,15,15,40,1,,,,,,,,,,,,,,,,,,,,,,,,,,,,,,,,,,,,,,,,,,,,,,,,,,,,,,,,,,,,,,,,,,,,,,
,,?,0.001455,0,,,,,,stimuli/images/PICTURE_383.png,WRITER,5f3b14845efc2180b7600665,11/01/2002,2020-08-27_15h47.06.759,proactive3.2,2020.1.2,Win32,60,5f47c0b9b035471e11593a5c,5f47c671586c801f1df22818,6,,,,,,coin,,,,,,,,,,,3,1,0,16,16,28,1,,,,,,,,,,,,,,,,,,,,,,,,,,,,,,,,,,,,,,,,,,,,,,,,,,,,,,,,,,,,,,,,,,,,,,
,,?,0.00212,0,,,,,,stimuli/images/PICTURE_564.png,BATH,5f3b14845efc2180b7600665,11/01/2002,2020-08-27_15h47.06.759,proactive3.2,2020.1.2,Win32,60,5f47c0b9b035471e11593a5c,5f47c671586c801f1df22818,6,,,,,,spoon,,,,,,,,,,,3,1,0,17,17,26,1,,,,,,,,,,,,,,,,,,,,,,,,,,,,,,,,,,,,,,,,,,,,,,,,,,,,,,,,,,,,,,,,,,,,,,
,,?,0.001445,0,,,,,,stimuli/images/PICTURE_491.png,RIVER,5f3b14845efc2180b7600665,11/01/2002,2020-08-27_15h47.06.759,proactive3.2,2020.1.2,Win32,60,5f47c0b9b035471e11593a5c,5f47c671586c801f1df22818,6,,,,,,rug,,,,,,,,,,,1,1,0,18,18,6,1,,,,,,,,,,,,,,,,,,,,,,,,,,,,,,,,,,,,,,,,,,,,,,,,,,,,,,,,,,,,,,,,,,,,,,
,,?,0.001485,0,,,,,,stimuli/images/PICTURE_654.png,MONTH,5f3b14845efc2180b7600665,11/01/2002,2020-08-27_15h47.06.759,proactive3.2,2020.1.2,Win32,60,5f47c0b9b035471e11593a5c,5f47c671586c801f1df22818,6,,,,,,pencil,,,,,,,,,,,3,1,0,19,19,29,1,,,,,,,,,,,,,,,,,,,,,,,,,,,,,,,,,,,,,,,,,,,,,,,,,,,,,,,,,,,,,,,,,,,,,,
,,PATROL,6.003785,0,,,,,,stimuli/images/PICTURE_467.png,POLICY,5f3b14845efc2180b7600665,11/01/2002,2020-08-27_15h47.06.759,proactive3.2,2020.1.2,Win32,60,5f47c0b9b035471e11593a5c,5f47c671586c801f1df22818,6,,,,,,peg,,,,,,,,,,,6,1,0,20,20,53,1,,,,,,,,,,,,,,,,,,,,,,,,,,,,,,,,,,,,,,,,,,,,,,,,,,,,,,,,,,,,,,,,,,,,,,
,,?,0.00248,0,,,,,,stimuli/images/PICTURE_85.png,TOILET,5f3b14845efc2180b7600665,11/01/2002,2020-08-27_15h47.06.759,proactive3.2,2020.1.2,Win32,60,5f47c0b9b035471e11593a5c,5f47c671586c801f1df22818,6,,,,,,diamond,,,,,,,,,,,5,1,0,21,21,48,1,,,,,,,,,,,,,,,,,,,,,,,,,,,,,,,,,,,,,,,,,,,,,,,,,,,,,,,,,,,,,,,,,,,,,,
,,WEAPON,4.80787,1,,,,,,stimuli/images/PICTURE_744.png,WEAPON,5f3b14845efc2180b7600665,11/01/2002,2020-08-27_15h47.06.759,proactive3.2,2020.1.2,Win32,60,5f47c0b9b035471e11593a5c,5f47c671586c801f1df22818,6,,,,,,ring,,,,,,,,,,,6,1,0,22,22,50,1,,,,,,,,,,,,,,,,,,,,,,,,,,,,,,,,,,,,,,,,,,,,,,,,,,,,,,,,,,,,,,,,,,,,,,
,,?,0.0022,0,,,,,,stimuli/images/PICTURE_667.png,RIVER,5f3b14845efc2180b7600665,11/01/2002,2020-08-27_15h47.06.759,proactive3.2,2020.1.2,Win32,60,5f47c0b9b035471e11593a5c,5f47c671586c801f1df22818,6,,,,,,daisy,,,,,,,,,,,2,1,0,23,23,10,1,,,,,,,,,,,,,,,,,,,,,,,,,,,,,,,,,,,,,,,,,,,,,,,,,,,,,,,,,,,,,,,,,,,,,,
,,?,0.001905,0,,,,,,stimuli/images/PICTURE_403.png,TOILET,5f3b14845efc2180b7600665,11/01/2002,2020-08-27_15h47.06.759,proactive3.2,2020.1.2,Win32,60,5f47c0b9b035471e11593a5c,5f47c671586c801f1df22818,6,,,,,,cathedral,,,,,,,,,,,3,1,0,24,24,25,1,,,,,,,,,,,,,,,,,,,,,,,,,,,,,,,,,,,,,,,,,,,,,,,,,,,,,,,,,,,,,,,,,,,,,,
,,?,5.553135,0,,,,,,stimuli/images/PICTURE_504.png,COPS,5f3b14845efc2180b7600665,11/01/2002,2020-08-27_15h47.06.759,proactive3.2,2020.1.2,Win32,60,5f47c0b9b035471e11593a5c,5f47c671586c801f1df22818,6,,,,,,wheel,,,,,,,,,,,6,1,0,25,25,52,1,,,,,,,,,,,,,,,,,,,,,,,,,,,,,,,,,,,,,,,,,,,,,,,,,,,,,,,,,,,,,,,,,,,,,,
,,VILLIAN,8.1789,0,,,,,,stimuli/images/PICTURE_708.png,RECORD,5f3b14845efc2180b7600665,11/01/2002,2020-08-27_15h47.06.759,proactive3.2,2020.1.2,Win32,60,5f47c0b9b035471e11593a5c,5f47c671586c801f1df22818,6,,,,,,monkey,,,,,,,,,,,6,1,0,26,26,58,1,,,,,,,,,,,,,,,,,,,,,,,,,,,,,,,,,,,,,,,,,,,,,,,,,,,,,,,,,,,,,,,,,,,,,,
,,?,0.00325,0,,,,,,stimuli/images/PICTURE_208.png,SYSTEM,5f3b14845efc2180b7600665,11/01/2002,2020-08-27_15h47.06.759,proactive3.2,2020.1.2,Win32,60,5f47c0b9b035471e11593a5c,5f47c671586c801f1df22818,6,,,,,,microphone,,,,,,,,,,,4,1,0,27,27,32,1,,,,,,,,,,,,,,,,,,,,,,,,,,,,,,,,,,,,,,,,,,,,,,,,,,,,,,,,,,,,,,,,,,,,,,
,,FLIGHT,5.287935,1,,,,,,stimuli/images/PICTURE_108.png,FLIGHT,5f3b14845efc2180b7600665,11/01/2002,2020-08-27_15h47.06.759,proactive3.2,2020.1.2,Win32,60,5f47c0b9b035471e11593a5c,5f47c671586c801f1df22818,6,,,,,,calendar,,,,,,,,,,,6,1,0,28,28,59,1,,,,,,,,,,,,,,,,,,,,,,,,,,,,,,,,,,,,,,,,,,,,,,,,,,,,,,,,,,,,,,,,,,,,,,
,,?,0.003035,0,,,,,,stimuli/images/PICTURE_339.png,CLIENT,5f3b14845efc2180b7600665,11/01/2002,2020-08-27_15h47.06.759,proactive3.2,2020.1.2,Win32,60,5f47c0b9b035471e11593a5c,5f47c671586c801f1df22818,6,,,,,,backpack,,,,,,,,,,,2,1,0,29,29,11,1,,,,,,,,,,,,,,,,,,,,,,,,,,,,,,,,,,,,,,,,,,,,,,,,,,,,,,,,,,,,,,,,,,,,,,
,,?,0.00278,0,,,,,,stimuli/images/PICTURE_405.png,PLENTY,5f3b14845efc2180b7600665,11/01/2002,2020-08-27_15h47.06.759,proactive3.2,2020.1.2,Win32,60,5f47c0b9b035471e11593a5c,5f47c671586c801f1df22818,6,,,,,,anchor,,,,,,,,,,,3,1,0,30,30,23,1,,,,,,,,,,,,,,,,,,,,,,,,,,,,,,,,,,,,,,,,,,,,,,,,,,,,,,,,,,,,,,,,,,,,,,
,,?,0.003055,0,,,,,,stimuli/images/PICTURE_95.png,BOYS,5f3b14845efc2180b7600665,11/01/2002,2020-08-27_15h47.06.759,proactive3.2,2020.1.2,Win32,60,5f47c0b9b035471e11593a5c,5f47c671586c801f1df22818,6,,,,,,suitcase,,,,,,,,,,,1,1,0,31,31,1,1,,,,,,,,,,,,,,,,,,,,,,,,,,,,,,,,,,,,,,,,,,,,,,,,,,,,,,,,,,,,,,,,,,,,,,
,,?,0.00222,0,,,,,,stimuli/images/PICTURE_449.png,DUDE,5f3b14845efc2180b7600665,11/01/2002,2020-08-27_15h47.06.759,proactive3.2,2020.1.2,Win32,60,5f47c0b9b035471e11593a5c,5f47c671586c801f1df22818,6,,,,,,bench,,,,,,,,,,,2,1,0,32,32,17,1,,,,,,,,,,,,,,,,,,,,,,,,,,,,,,,,,,,,,,,,,,,,,,,,,,,,,,,,,,,,,,,,,,,,,,
,,?,0.00246,0,,,,,,stimuli/images/PICTURE_108.png,POLICY,5f3b14845efc2180b7600665,11/01/2002,2020-08-27_15h47.06.759,proactive3.2,2020.1.2,Win32,60,5f47c0b9b035471e11593a5c,5f47c671586c801f1df22818,6,,,,,,calendar,,,,,,,,,,,3,1,0,33,33,22,1,,,,,,,,,,,,,,,,,,,,,,,,,,,,,,,,,,,,,,,,,,,,,,,,,,,,,,,,,,,,,,,,,,,,,,
,,?,0.00199,0,,,,,,stimuli/images/PICTURE_469.png,AGENT,5f3b14845efc2180b7600665,11/01/2002,2020-08-27_15h47.06.759,proactive3.2,2020.1.2,Win32,60,5f47c0b9b035471e11593a5c,5f47c671586c801f1df22818,6,,,,,,stool,,,,,,,,,,,2,1,0,34,34,16,1,,,,,,,,,,,,,,,,,,,,,,,,,,,,,,,,,,,,,,,,,,,,,,,,,,,,,,,,,,,,,,,,,,,,,,
,,?,0.00179,0,,,,,,stimuli/images/PICTURE_380.png,CANDY,5f3b14845efc2180b7600665,11/01/2002,2020-08-27_15h47.06.759,proactive3.2,2020.1.2,Win32,60,5f47c0b9b035471e11593a5c,5f47c671586c801f1df22818,6,,,,,,gorilla,,,,,,,,,,,1,1,0,35,35,0,1,,,,,,,,,,,,,,,,,,,,,,,,,,,,,,,,,,,,,,,,,,,,,,,,,,,,,,,,,,,,,,,,,,,,,,
,,?,0.002075,0,,,,,,stimuli/images/PICTURE_405.png,YEAR,5f3b14845efc2180b7600665,11/01/2002,2020-08-27_15h47.06.759,proactive3.2,2020.1.2,Win32,60,5f47c0b9b035471e11593a5c,5f47c671586c801f1df22818,6,,,,,,anchor,,,,,,,,,,,4,1,0,36,36,34,1,,,,,,,,,,,,,,,,,,,,,,,,,,,,,,,,,,,,,,,,,,,,,,,,,,,,,,,,,,,,,,,,,,,,,,
,,?,0.00175,0,,,,,,stimuli/images/PICTURE_177.png,WRITER,5f3b14845efc2180b7600665,11/01/2002,2020-08-27_15h47.06.759,proactive3.2,2020.1.2,Win32,60,5f47c0b9b035471e11593a5c,5f47c671586c801f1df22818,6,,,,,,mushroom,,,,,,,,,,,5,1,0,37,37,41,1,,,,,,,,,,,,,,,,,,,,,,,,,,,,,,,,,,,,,,,,,,,,,,,,,,,,,,,,,,,,,,,,,,,,,,
,,?,0.0017,0,,,,,,stimuli/images/PICTURE_491.png,GLASS,5f3b14845efc2180b7600665,11/01/2002,2020-08-27_15h47.06.759,proactive3.2,2020.1.2,Win32,60,5f47c0b9b035471e11593a5c,5f47c671586c801f1df22818,6,,,,,,rug,,,,,,,,,,,2,1,0,38,38,14,1,,,,,,,,,,,,,,,,,,,,,,,,,,,,,,,,,,,,,,,,,,,,,,,,,,,,,,,,,,,,,,,,,,,,,,
,,?,0.001835,0,,,,,,stimuli/images/PICTURE_57.png,MOMENT,5f3b14845efc2180b7600665,11/01/2002,2020-08-27_15h47.06.759,proactive3.2,2020.1.2,Win32,60,5f47c0b9b035471e11593a5c,5f47c671586c801f1df22818,6,,,,,,stamp,,,,,,,,,,,4,1,0,39,39,37,1,,,,,,,,,,,,,,,,,,,,,,,,,,,,,,,,,,,,,,,,,,,,,,,,,,,,,,,,,,,,,,,,,,,,,,
,,?,0.002065,0,,,,,,stimuli/images/PICTURE_85.png,NATION,5f3b14845efc2180b7600665,11/01/2002,2020-08-27_15h47.06.759,proactive3.2,2020.1.2,Win32,60,5f47c0b9b035471e11593a5c,5f47c671586c801f1df22818,6,,,,,,diamond,,,,,,,,,,,1,1,0,40,40,5,1,,,,,,,,,,,,,,,,,,,,,,,,,,,,,,,,,,,,,,,,,,,,,,,,,,,,,,,,,,,,,,,,,,,,,,
,,?,0.00185,0,,,,,,stimuli/images/PICTURE_327.png,SERIES,5f3b14845efc2180b7600665,11/01/2002,2020-08-27_15h47.06.759,proactive3.2,2020.1.2,Win32,60,5f47c0b9b035471e11593a5c,5f47c671586c801f1df22818,6,,,,,,helmet,,,,,,,,,,,1,1,0,41,41,3,1,,,,,,,,,,,,,,,,,,,,,,,,,,,,,,,,,,,,,,,,,,,,,,,,,,,,,,,,,,,,,,,,,,,,,,
,,?,0.00167,0,,,,,,stimuli/images/PICTURE_340.png,LETTER,5f3b14845efc2180b7600665,11/01/2002,2020-08-27_15h47.06.759,proactive3.2,2020.1.2,Win32,60,5f47c0b9b035471e11593a5c,5f47c671586c801f1df22818,6,,,,,,mirror,,,,,,,,,,,3,1,0,42,42,24,1,,,,,,,,,,,,,,,,,,,,,,,,,,,,,,,,,,,,,,,,,,,,,,,,,,,,,,,,,,,,,,,,,,,,,,
,,?,0.00126,0,,,,,,stimuli/images/PICTURE_32.png,KIND,5f3b14845efc2180b7600665,11/01/2002,2020-08-27_15h47.06.759,proactive3.2,2020.1.2,Win32,60,5f47c0b9b035471e11593a5c,5f47c671586c801f1df22818,6,,,,,,crown,,,,,,,,,,,4,1,0,43,43,35,1,,,,,,,,,,,,,,,,,,,,,,,,,,,,,,,,,,,,,,,,,,,,,,,,,,,,,,,,,,,,,,,,,,,,,,
,,?,0.001235,0,,,,,,stimuli/images/PICTURE_2.png,FLIGHT,5f3b14845efc2180b7600665,11/01/2002,2020-08-27_15h47.06.759,proactive3.2,2020.1.2,Win32,60,5f47c0b9b035471e11593a5c,5f47c671586c801f1df22818,6,,,,,,tyre,,,,,,,,,,,2,1,0,44,44,15,1,,,,,,,,,,,,,,,,,,,,,,,,,,,,,,,,,,,,,,,,,,,,,,,,,,,,,,,,,,,,,,,,,,,,,,
,,?,0.001215,0,,,,,,stimuli/images/PICTURE_403.png,WRITER,5f3b14845efc2180b7600665,11/01/2002,2020-08-27_15h47.06.759,proactive3.2,2020.1.2,Win32,60,5f47c0b9b035471e11593a5c,5f47c671586c801f1df22818,6,,,,,,cathedral,,,,,,,,,,,4,1,0,45,45,31,1,,,,,,,,,,,,,,,,,,,,,,,,,,,,,,,,,,,,,,,,,,,,,,,,,,,,,,,,,,,,,,,,,,,,,,
,,?,0.00099,0,,,,,,stimuli/images/PICTURE_685.png,PENNY,5f3b14845efc2180b7600665,11/01/2002,2020-08-27_15h47.06.759,proactive3.2,2020.1.2,Win32,60,5f47c0b9b035471e11593a5c,5f47c671586c801f1df22818,6,,,,,,goose,,,,,,,,,,,1,1,0,46,46,4,1,,,,,,,,,,,,,,,,,,,,,,,,,,,,,,,,,,,,,,,,,,,,,,,,,,,,,,,,,,,,,,,,,,,,,,
,,MILLERS,3.377125,0,,,,,,stimuli/images/PICTURE_95.png,MILLER,5f3b14845efc2180b7600665,11/01/2002,2020-08-27_15h47.06.759,proactive3.2,2020.1.2,Win32,60,5f47c0b9b035471e11593a5c,5f47c671586c801f1df22818,6,,,,,,suitcase,,,,,,,,,,,6,1,0,47,47,56,1,,,,,,,,,,,,,,,,,,,,,,,,,,,,,,,,,,,,,,,,,,,,,,,,,,,,,,,,,,,,,,,,,,,,,,
,,?,0.00218,0,,,,,,stimuli/images/PICTURE_655.png,TOILET,5f3b14845efc2180b7600665,11/01/2002,2020-08-27_15h47.06.759,proactive3.2,2020.1.2,Win32,60,5f47c0b9b035471e11593a5c,5f47c671586c801f1df22818,6,,,,,,megaphone,,,,,,,,,,,2,1,0,48,48,12,1,,,,,,,,,,,,,,,,,,,,,,,,,,,,,,,,,,,,,,,,,,,,,,,,,,,,,,,,,,,,,,,,,,,,,,
,,?,0.00166,0,,,,,,stimuli/images/PICTURE_203.png,NIGHT,5f3b14845efc2180b7600665,11/01/2002,2020-08-27_15h47.06.759,proactive3.2,2020.1.2,Win32,60,5f47c0b9b035471e11593a5c,5f47c671586c801f1df22818,6,,,,,,cap,,,,,,,,,,,1,1,0,49,49,2,1,,,,,,,,,,,,,,,,,,,,,,,,,,,,,,,,,,,,,,,,,,,,,,,,,,,,,,,,,,,,,,,,,,,,,,
,,?,0.0017,0,,,,,,stimuli/images/PICTURE_327.png,CASINO,5f3b14845efc2180b7600665,11/01/2002,2020-08-27_15h47.06.759,proactive3.2,2020.1.2,Win32,60,5f47c0b9b035471e11593a5c,5f47c671586c801f1df22818,6,,,,,,helmet,,,,,,,,,,,3,1,0,50,50,20,1,,,,,,,,,,,,,,,,,,,,,,,,,,,,,,,,,,,,,,,,,,,,,,,,,,,,,,,,,,,,,,,,,,,,,,
,,?,0.002375,0,,,,,,stimuli/images/PICTURE_297.png,RIVER,5f3b14845efc2180b7600665,11/01/2002,2020-08-27_15h47.06.759,proactive3.2,2020.1.2,Win32,60,5f47c0b9b035471e11593a5c,5f47c671586c801f1df22818,6,,,,,,aeroplane,,,,,,,,,,,4,1,0,51,51,39,1,,,,,,,,,,,,,,,,,,,,,,,,,,,,,,,,,,,,,,,,,,,,,,,,,,,,,,,,,,,,,,,,,,,,,,
,,?,0.00172,0,,,,,,stimuli/images/PICTURE_296.png,LOTS,5f3b14845efc2180b7600665,11/01/2002,2020-08-27_15h47.06.759,proactive3.2,2020.1.2,Win32,60,5f47c0b9b035471e11593a5c,5f47c671586c801f1df22818,6,,,,,,bolt,,,,,,,,,,,1,1,0,52,52,9,1,,,,,,,,,,,,,,,,,,,,,,,,,,,,,,,,,,,,,,,,,,,,,,,,,,,,,,,,,,,,,,,,,,,,,,
,,?,0.001675,0,,,,,,stimuli/images/PICTURE_285.png,LIFE,5f3b14845efc2180b7600665,11/01/2002,2020-08-27_15h47.06.759,proactive3.2,2020.1.2,Win32,60,5f47c0b9b035471e11593a5c,5f47c671586c801f1df22818,6,,,,,,carrot,,,,,,,,,,,4,1,0,53,53,33,1,,,,,,,,,,,,,,,,,,,,,,,,,,,,,,,,,,,,,,,,,,,,,,,,,,,,,,,,,,,,,,,,,,,,,,
,,?,0.002395,0,,,,,,stimuli/images/PICTURE_233.png,LOTS,5f3b14845efc2180b7600665,11/01/2002,2020-08-27_15h47.06.759,proactive3.2,2020.1.2,Win32,60,5f47c0b9b035471e11593a5c,5f47c671586c801f1df22818,6,,,,,,salt,,,,,,,,,,,5,1,0,54,54,42,1,,,,,,,,,,,,,,,,,,,,,,,,,,,,,,,,,,,,,,,,,,,,,,,,,,,,,,,,,,,,,,,,,,,,,,
,,?,0.02446,0,,,,,,stimuli/images/PICTURE_147.png,YEAR,5f3b14845efc2180b7600665,11/01/2002,2020-08-27_15h47.06.759,proactive3.2,2020.1.2,Win32,60,5f47c0b9b035471e11593a5c,5f47c671586c801f1df22818,6,,,,,,hanger,,,,,,,,,,,3,1,0,55,55,21,1,,,,,,,,,,,,,,,,,,,,,,,,,,,,,,,,,,,,,,,,,,,,,,,,,,,,,,,,,,,,,,,,,,,,,,
,,?,0.001395,0,,,,,,stimuli/images/PICTURE_677.png,APPLE,5f3b14845efc2180b7600665,11/01/2002,2020-08-27_15h47.06.759,proactive3.2,2020.1.2,Win32,60,5f47c0b9b035471e11593a5c,5f47c671586c801f1df22818,6,,,,,,map,,,,,,,,,,,5,1,0,56,56,43,1,,,,,,,,,,,,,,,,,,,,,,,,,,,,,,,,,,,,,,,,,,,,,,,,,,,,,,,,,,,,,,,,,,,,,,
,,?,0.001565,0,,,,,,stimuli/images/PICTURE_675.png,SALE,5f3b14845efc2180b7600665,11/01/2002,2020-08-27_15h47.06.759,proactive3.2,2020.1.2,Win32,60,5f47c0b9b035471e11593a5c,5f47c671586c801f1df22818,6,,,,,,windmill,,,,,,,,,,,5,1,0,57,57,47,1,,,,,,,,,,,,,,,,,,,,,,,,,,,,,,,,,,,,,,,,,,,,,,,,,,,,,,,,,,,,,,,,,,,,,,
,,?,0.00205,0,,,,,,stimuli/images/PICTURE_203.png,GODS,5f3b14845efc2180b7600665,11/01/2002,2020-08-27_15h47.06.759,proactive3.2,2020.1.2,Win32,60,5f47c0b9b035471e11593a5c,5f47c671586c801f1df22818,6,,,,,,cap,,,,,,,,,,,4,1,0,58,58,30,1,,,,,,,,,,,,,,,,,,,,,,,,,,,,,,,,,,,,,,,,,,,,,,,,,,,,,,,,,,,,,,,,,,,,,,
,,?,0.001425,0,,,,,,stimuli/images/PICTURE_147.png,WOMEN,5f3b14845efc2180b7600665,11/01/2002,2020-08-27_15h47.06.759,proactive3.2,2020.1.2,Win32,60,5f47c0b9b035471e11593a5c,5f47c671586c801f1df22818,6,,,,,,hanger,,,,,,,,,,,1,1,0,59,59,7,1,,,,,,,,,,,,,,,,,,,,,,,,,,,,,,,,,,,,,,,,,,,,,,,,,,,,,,,,,,,,,,,,,,,,,,
,,,,,,,,,,,,5f3b14845efc2180b7600665,11/01/2002,2020-08-27_15h47.06.759,proactive3.2,2020.1.2,Win32,60,5f47c0b9b035471e11593a5c,5f47c671586c801f1df22818,6,,,,,,,,,,,,,,,,,,,,,,,,0,0,0,1,1,stimuli/learn-block2.csv,,,,,,,,,,,,,,,,,,,,,,,,,,,,,,,,,,,,,,,,,,,,,,,,,,,,,,,,,,,,,,,,
,,,,,,,,,,stimuli/images/PICTURE_285.png,PRINCE,5f3b14845efc2180b7600665,11/01/2002,2020-08-27_15h47.06.759,proactive3.2,2020.1.2,Win32,60,5f47c0b9b035471e11593a5c,5f47c671586c801f1df22818,6,,,,,,carrot,,,,,,0,0,0,20,1,3,2,,,,,,,,,,,,,,,,,,,,,,,,,,,,,,,,,,,,,,,,,,,,,,,,,,,,,,,,,,,,,,,,,,,,,,,,,,,
,,,,,,,,,,stimuli/images/PICTURE_677.png,PHOTO,5f3b14845efc2180b7600665,11/01/2002,2020-08-27_15h47.06.759,proactive3.2,2020.1.2,Win32,60,5f47c0b9b035471e11593a5c,5f47c671586c801f1df22818,6,,,,,,map,,,,,,0,1,1,14,1,2,2,,,,,,,,,,,,,,,,,,,,,,,,,,,,,,,,,,,,,,,,,,,,,,,,,,,,,,,,,,,,,,,,,,,,,,,,,,,
,,,,,,,,,,stimuli/images/PICTURE_491.png,SERIES,5f3b14845efc2180b7600665,11/01/2002,2020-08-27_15h47.06.759,proactive3.2,2020.1.2,Win32,60,5f47c0b9b035471e11593a5c,5f47c671586c801f1df22818,6,,,,,,rug,,,,,,0,2,2,39,1,4,2,,,,,,,,,,,,,,,,,,,,,,,,,,,,,,,,,,,,,,,,,,,,,,,,,,,,,,,,,,,,,,,,,,,,,,,,,,,
,,,,,,,,,,stimuli/images/PICTURE_68.png,KIND,5f3b14845efc2180b7600665,11/01/2002,2020-08-27_15h47.06.759,proactive3.2,2020.1.2,Win32,60,5f47c0b9b035471e11593a5c,5f47c671586c801f1df22818,6,,,,,,candle,,,,,,0,3,3,23,1,3,2,,,,,,,,,,,,,,,,,,,,,,,,,,,,,,,,,,,,,,,,,,,,,,,,,,,,,,,,,,,,,,,,,,,,,,,,,,,
,,,,,,,,,,stimuli/images/PICTURE_487.png,POLICY,5f3b14845efc2180b7600665,11/01/2002,2020-08-27_15h47.06.759,proactive3.2,2020.1.2,Win32,60,5f47c0b9b035471e11593a5c,5f47c671586c801f1df22818,6,,,,,,basket,,,,,,0,4,4,34,1,4,2,,,,,,,,,,,,,,,,,,,,,,,,,,,,,,,,,,,,,,,,,,,,,,,,,,,,,,,,,,,,,,,,,,,,,,,,,,,
,,,,,,,,,,stimuli/images/PICTURE_297.png,BODY,5f3b14845efc2180b7600665,11/01/2002,2020-08-27_15h47.06.759,proactive3.2,2020.1.2,Win32,60,5f47c0b9b035471e11593a5c,5f47c671586c801f1df22818,6,,,,,,aeroplane,,,,,,0,5,5,51,1,6,2,,,,,,,,,,,,,,,,,,,,,,,,,,,,,,,,,,,,,,,,,,,,,,,,,,,,,,,,,,,,,,,,,,,,,,,,,,,
,,,,,,,,,,stimuli/images/PICTURE_311.png,TOILET,5f3b14845efc2180b7600665,11/01/2002,2020-08-27_15h47.06.759,proactive3.2,2020.1.2,Win32,60,5f47c0b9b035471e11593a5c,5f47c671586c801f1df22818,6,,,,,,razor,,,,,,0,6,6,54,1,6,2,,,,,,,,,,,,,,,,,,,,,,,,,,,,,,,,,,,,,,,,,,,,,,,,,,,,,,,,,,,,,,,,,,,,,,,,,,,
,,,,,,,,,,stimuli/images/PICTURE_2.png,JUNGLE,5f3b14845efc2180b7600665,11/01/2002,2020-08-27_15h47.06.759,proactive3.2,2020.1.2,Win32,60,5f47c0b9b035471e11593a5c,5f47c671586c801f1df22818,6,,,,,,tyre,,,,,,0,7,7,1,1,1,2,,,,,,,,,,,,,,,,,,,,,,,,,,,,,,,,,,,,,,,,,,,,,,,,,,,,,,,,,,,,,,,,,,,,,,,,,,,
,,,,,,,,,,stimuli/images/PICTURE_32.png,LETTER,5f3b14845efc2180b7600665,11/01/2002,2020-08-27_15h47.06.759,proactive3.2,2020.1.2,Win32,60,5f47c0b9b035471e11593a5c,5f47c671586c801f1df22818,6,,,,,,crown,,,,,,0,8,8,56,1,6,2,,,,,,,,,,,,,,,,,,,,,,,,,,,,,,,,,,,,,,,,,,,,,,,,,,,,,,,,,,,,,,,,,,,,,,,,,,,
,,,,,,,,,,stimuli/images/PICTURE_57.png,CANDY,5f3b14845efc2180b7600665,11/01/2002,2020-08-27_15h47.06.759,proactive3.2,2020.1.2,Win32,60,5f47c0b9b035471e11593a5c,5f47c671586c801f1df22818,6,,,,,,stamp,,,,,,0,9,9,52,1,6,2,,,,,,,,,,,,,,,,,,,,,,,,,,,,,,,,,,,,,,,,,,,,,,,,,,,,,,,,,,,,,,,,,,,,,,,,,,,
,,,,,,,,,,stimuli/images/PICTURE_356.png,CANDY,5f3b14845efc2180b7600665,11/01/2002,2020-08-27_15h47.06.759,proactive3.2,2020.1.2,Win32,60,5f47c0b9b035471e11593a5c,5f47c671586c801f1df22818,6,,,,,,pawn,,,,,,0,10,10,46,1,5,2,,,,,,,,,,,,,,,,,,,,,,,,,,,,,,,,,,,,,,,,,,,,,,,,,,,,,,,,,,,,,,,,,,,,,,,,,,,
,,,,,,,,,,stimuli/images/PICTURE_2.png,AREA,5f3b14845efc2180b7600665,11/01/2002,2020-08-27_15h47.06.759,proactive3.2,2020.1.2,Win32,60,5f47c0b9b035471e11593a5c,5f47c671586c801f1df22818,6,,,,,,tyre,,,,,,0,11,11,32,1,4,2,,,,,,,,,,,,,,,,,,,,,,,,,,,,,,,,,,,,,,,,,,,,,,,,,,,,,,,,,,,,,,,,,,,,,,,,,,,
,,,,,,,,,,stimuli/images/PICTURE_160.png,HOTEL,5f3b14845efc2180b7600665,11/01/2002,2020-08-27_15h47.06.759,proactive3.2,2020.1.2,Win32,60,5f47c0b9b035471e11593a5c,5f47c671586c801f1df22818,6,,,,,,wheelbarrow,,,,,,0,12,12,16,1,2,2,,,,,,,,,,,,,,,,,,,,,,,,,,,,,,,,,,,,,,,,,,,,,,,,,,,,,,,,,,,,,,,,,,,,,,,,,,,
,,,,,,,,,,stimuli/images/PICTURE_504.png,HOUSE,5f3b14845efc2180b7600665,11/01/2002,2020-08-27_15h47.06.759,proactive3.2,2020.1.2,Win32,60,5f47c0b9b035471e11593a5c,5f47c671586c801f1df22818,6,,,,,,wheel,,,,,,0,13,13,36,1,4,2,,,,,,,,,,,,,,,,,,,,,,,,,,,,,,,,,,,,,,,,,,,,,,,,,,,,,,,,,,,,,,,,,,,,,,,,,,,
,,,,,,,,,,stimuli/images/PICTURE_470.png,MOMENT,5f3b14845efc2180b7600665,11/01/2002,2020-08-27_15h47.06.759,proactive3.2,2020.1.2,Win32,60,5f47c0b9b035471e11593a5c,5f47c671586c801f1df22818,6,,,,,,motorbike,,,,,,0,14,14,40,1,5,2,,,,,,,,,,,,,,,,,,,,,,,,,,,,,,,,,,,,,,,,,,,,,,,,,,,,,,,,,,,,,,,,,,,,,,,,,,,
,,,,,,,,,,stimuli/images/PICTURE_453.png,FAMILY,5f3b14845efc2180b7600665,11/01/2002,2020-08-27_15h47.06.759,proactive3.2,2020.1.2,Win32,60,5f47c0b9b035471e11593a5c,5f47c671586c801f1df22818,6,,,,,,scissors,,,,,,0,15,15,48,1,5,2,,,,,,,,,,,,,,,,,,,,,,,,,,,,,,,,,,,,,,,,,,,,,,,,,,,,,,,,,,,,,,,,,,,,,,,,,,,
,,,,,,,,,,stimuli/images/PICTURE_655.png,SALE,5f3b14845efc2180b7600665,11/01/2002,2020-08-27_15h47.06.759,proactive3.2,2020.1.2,Win32,60,5f47c0b9b035471e11593a5c,5f47c671586c801f1df22818,6,,,,,,megaphone,,,,,,0,16,16,57,1,6,2,,,,,,,,,,,,,,,,,,,,,,,,,,,,,,,,,,,,,,,,,,,,,,,,,,,,,,,,,,,,,,,,,,,,,,,,,,,
,,,,,,,,,,stimuli/images/PICTURE_123.png,SALE,5f3b14845efc2180b7600665,11/01/2002,2020-08-27_15h47.06.759,proactive3.2,2020.1.2,Win32,60,5f47c0b9b035471e11593a5c,5f47c671586c801f1df22818,6,,,,,,dart,,,,,,0,17,17,8,1,1,2,,,,,,,,,,,,,,,,,,,,,,,,,,,,,,,,,,,,,,,,,,,,,,,,,,,,,,,,,,,,,,,,,,,,,,,,,,,
,,,,,,,,,,stimuli/images/PICTURE_348.png,DUDE,5f3b14845efc2180b7600665,11/01/2002,2020-08-27_15h47.06.759,proactive3.2,2020.1.2,Win32,60,5f47c0b9b035471e11593a5c,5f47c671586c801f1df22818,6,,,,,,pepper,,,,,,0,18,18,59,1,6,2,,,,,,,,,,,,,,,,,,,,,,,,,,,,,,,,,,,,,,,,,,,,,,,,,,,,,,,,,,,,,,,,,,,,,,,,,,,
,,,,,,,,,,stimuli/images/PICTURE_141.png,CLIENT,5f3b14845efc2180b7600665,11/01/2002,2020-08-27_15h47.06.759,proactive3.2,2020.1.2,Win32,60,5f47c0b9b035471e11593a5c,5f47c671586c801f1df22818,6,,,,,,sunflower,,,,,,0,19,19,30,1,4,2,,,,,,,,,,,,,,,,,,,,,,,,,,,,,,,,,,,,,,,,,,,,,,,,,,,,,,,,,,,,,,,,,,,,,,,,,,,
,,,,,,,,,,stimuli/images/PICTURE_57.png,CASINO,5f3b14845efc2180b7600665,11/01/2002,2020-08-27_15h47.06.759,proactive3.2,2020.1.2,Win32,60,5f47c0b9b035471e11593a5c,5f47c671586c801f1df22818,6,,,,,,stamp,,,,,,0,20,20,12,1,2,2,,,,,,,,,,,,,,,,,,,,,,,,,,,,,,,,,,,,,,,,,,,,,,,,,,,,,,,,,,,,,,,,,,,,,,,,,,,
,,,,,,,,,,stimuli/images/PICTURE_147.png,LEADER,5f3b14845efc2180b7600665,11/01/2002,2020-08-27_15h47.06.759,proactive3.2,2020.1.2,Win32,60,5f47c0b9b035471e11593a5c,5f47c671586c801f1df22818,6,,,,,,hanger,,,,,,0,21,21,33,1,4,2,,,,,,,,,,,,,,,,,,,,,,,,,,,,,,,,,,,,,,,,,,,,,,,,,,,,,,,,,,,,,,,,,,,,,,,,,,,
,,,,,,,,,,stimuli/images/PICTURE_348.png,TOILET,5f3b14845efc2180b7600665,11/01/2002,2020-08-27_15h47.06.759,proactive3.2,2020.1.2,Win32,60,5f47c0b9b035471e11593a5c,5f47c671586c801f1df22818,6,,,,,,pepper,,,,,,0,22,22,4,1,1,2,,,,,,,,,,,,,,,,,,,,,,,,,,,,,,,,,,,,,,,,,,,,,,,,,,,,,,,,,,,,,,,,,,,,,,,,,,,
,,,,,,,,,,stimuli/images/PICTURE_33.png,COPS,5f3b14845efc2180b7600665,11/01/2002,2020-08-27_15h47.06.759,proactive3.2,2020.1.2,Win32,60,5f47c0b9b035471e11593a5c,5f47c671586c801f1df22818,6,,,,,,frame,,,,,,0,23,23,29,1,3,2,,,,,,,,,,,,,,,,,,,,,,,,,,,,,,,,,,,,,,,,,,,,,,,,,,,,,,,,,,,,,,,,,,,,,,,,,,,
,,,,,,,,,,stimuli/images/PICTURE_470.png,BEAUTY,5f3b14845efc2180b7600665,11/01/2002,2020-08-27_15h47.06.759,proactive3.2,2020.1.2,Win32,60,5f47c0b9b035471e11593a5c,5f47c671586c801f1df22818,6,,,,,,motorbike,,,,,,0,24,24,26,1,3,2,,,,,,,,,,,,,,,,,,,,,,,,,,,,,,,,,,,,,,,,,,,,,,,,,,,,,,,,,,,,,,,,,,,,,,,,,,,
,,,,,,,,,,stimuli/images/PICTURE_405.png,HOUSE,5f3b14845efc2180b7600665,11/01/2002,2020-08-27_15h47.06.759,proactive3.2,2020.1.2,Win32,60,5f47c0b9b035471e11593a5c,5f47c671586c801f1df22818,6,,,,,,anchor,,,,,,0,25,25,2,1,1,2,,,,,,,,,,,,,,,,,,,,,,,,,,,,,,,,,,,,,,,,,,,,,,,,,,,,,,,,,,,,,,,,,,,,,,,,,,,
,,,,,,,,,,stimuli/images/PICTURE_677.png,FAMILY,5f3b14845efc2180b7600665,11/01/2002,2020-08-27_15h47.06.759,proactive3.2,2020.1.2,Win32,60,5f47c0b9b035471e11593a5c,5f47c671586c801f1df22818,6,,,,,,map,,,,,,0,26,26,53,1,6,2,,,,,,,,,,,,,,,,,,,,,,,,,,,,,,,,,,,,,,,,,,,,,,,,,,,,,,,,,,,,,,,,,,,,,,,,,,,
,,,,,,,,,,stimuli/images/PICTURE_654.png,YEAR,5f3b14845efc2180b7600665,11/01/2002,2020-08-27_15h47.06.759,proactive3.2,2020.1.2,Win32,60,5f47c0b9b035471e11593a5c,5f47c671586c801f1df22818,6,,,,,,pencil,,,,,,0,27,27,41,1,5,2,,,,,,,,,,,,,,,,,,,,,,,,,,,,,,,,,,,,,,,,,,,,,,,,,,,,,,,,,,,,,,,,,,,,,,,,,,,
,,,,,,,,,,stimuli/images/PICTURE_509.png,SHOTS,5f3b14845efc2180b7600665,11/01/2002,2020-08-27_15h47.06.759,proactive3.2,2020.1.2,Win32,60,5f47c0b9b035471e11593a5c,5f47c671586c801f1df22818,6,,,,,,telephone,,,,,,0,28,28,7,1,1,2,,,,,,,,,,,,,,,,,,,,,,,,,,,,,,,,,,,,,,,,,,,,,,,,,,,,,,,,,,,,,,,,,,,,,,,,,,,
,,,,,,,,,,stimuli/images/PICTURE_487.png,ROOF,5f3b14845efc2180b7600665,11/01/2002,2020-08-27_15h47.06.759,proactive3.2,2020.1.2,Win32,60,5f47c0b9b035471e11593a5c,5f47c671586c801f1df22818,6,,,,,,basket,,,,,,0,29,29,50,1,6,2,,,,,,,,,,,,,,,,,,,,,,,,,,,,,,,,,,,,,,,,,,,,,,,,,,,,,,,,,,,,,,,,,,,,,,,,,,,
,,,,,,,,,,stimuli/images/PICTURE_750.png,POLICY,5f3b14845efc2180b7600665,11/01/2002,2020-08-27_15h47.06.759,proactive3.2,2020.1.2,Win32,60,5f47c0b9b035471e11593a5c,5f47c671586c801f1df22818,6,,,,,,kettle,,,,,,0,30,30,44,1,5,2,,,,,,,,,,,,,,,,,,,,,,,,,,,,,,,,,,,,,,,,,,,,,,,,,,,,,,,,,,,,,,,,,,,,,,,,,,,
,,,,,,,,,,stimuli/images/PICTURE_688.png,CLOCK,5f3b14845efc2180b7600665,11/01/2002,2020-08-27_15h47.06.759,proactive3.2,2020.1.2,Win32,60,5f47c0b9b035471e11593a5c,5f47c671586c801f1df22818,6,,,,,,runner,,,,,,0,31,31,42,1,5,2,,,,,,,,,,,,,,,,,,,,,,,,,,,,,,,,,,,,,,,,,,,,,,,,,,,,,,,,,,,,,,,,,,,,,,,,,,,
,,,,,,,,,,stimuli/images/PICTURE_509.png,MILLER,5f3b14845efc2180b7600665,11/01/2002,2020-08-27_15h47.06.759,proactive3.2,2020.1.2,Win32,60,5f47c0b9b035471e11593a5c,5f47c671586c801f1df22818,6,,,,,,telephone,,,,,,0,32,32,49,1,5,2,,,,,,,,,,,,,,,,,,,,,,,,,,,,,,,,,,,,,,,,,,,,,,,,,,,,,,,,,,,,,,,,,,,,,,,,,,,
,,,,,,,,,,stimuli/images/PICTURE_692.png,DUDE,5f3b14845efc2180b7600665,11/01/2002,2020-08-27_15h47.06.759,proactive3.2,2020.1.2,Win32,60,5f47c0b9b035471e11593a5c,5f47c671586c801f1df22818,6,,,,,,cherry,,,,,,0,33,33,47,1,5,2,,,,,,,,,,,,,,,,,,,,,,,,,,,,,,,,,,,,,,,,,,,,,,,,,,,,,,,,,,,,,,,,,,,,,,,,,,,
,,,,,,,,,,stimuli/images/PICTURE_403.png,FAMILY,5f3b14845efc2180b7600665,11/01/2002,2020-08-27_15h47.06.759,proactive3.2,2020.1.2,Win32,60,5f47c0b9b035471e11593a5c,5f47c671586c801f1df22818,6,,,,,,cathedral,,,,,,0,34,34,9,1,1,2,,,,,,,,,,,,,,,,,,,,,,,,,,,,,,,,,,,,,,,,,,,,,,,,,,,,,,,,,,,,,,,,,,,,,,,,,,,
,,,,,,,,,,stimuli/images/PICTURE_208.png,SPIRIT,5f3b14845efc2180b7600665,11/01/2002,2020-08-27_15h47.06.759,proactive3.2,2020.1.2,Win32,60,5f47c0b9b035471e11593a5c,5f47c671586c801f1df22818,6,,,,,,microphone,,,,,,0,35,35,28,1,3,2,,,,,,,,,,,,,,,,,,,,,,,,,,,,,,,,,,,,,,,,,,,,,,,,,,,,,,,,,,,,,,,,,,,,,,,,,,,
,,,,,,,,,,stimuli/images/PICTURE_405.png,JUNGLE,5f3b14845efc2180b7600665,11/01/2002,2020-08-27_15h47.06.759,proactive3.2,2020.1.2,Win32,60,5f47c0b9b035471e11593a5c,5f47c671586c801f1df22818,6,,,,,,anchor,,,,,,0,36,36,58,1,6,2,,,,,,,,,,,,,,,,,,,,,,,,,,,,,,,,,,,,,,,,,,,,,,,,,,,,,,,,,,,,,,,,,,,,,,,,,,,
,,,,,,,,,,stimuli/images/PICTURE_95.png,NIGHT,5f3b14845efc2180b7600665,11/01/2002,2020-08-27_15h47.06.759,proactive3.2,2020.1.2,Win32,60,5f47c0b9b035471e11593a5c,5f47c671586c801f1df22818,6,,,,,,suitcase,,,,,,0,37,37,37,1,4,2,,,,,,,,,,,,,,,,,,,,,,,,,,,,,,,,,,,,,,,,,,,,,,,,,,,,,,,,,,,,,,,,,,,,,,,,,,,
,,,,,,,,,,stimuli/images/PICTURE_564.png,PLENTY,5f3b14845efc2180b7600665,11/01/2002,2020-08-27_15h47.06.759,proactive3.2,2020.1.2,Win32,60,5f47c0b9b035471e11593a5c,5f47c671586c801f1df22818,6,,,,,,spoon,,,,,,0,38,38,11,1,2,2,,,,,,,,,,,,,,,,,,,,,,,,,,,,,,,,,,,,,,,,,,,,,,,,,,,,,,,,,,,,,,,,,,,,,,,,,,,
,,,,,,,,,,stimuli/images/PICTURE_215.png,LEADER,5f3b14845efc2180b7600665,11/01/2002,2020-08-27_15h47.06.759,proactive3.2,2020.1.2,Win32,60,5f47c0b9b035471e11593a5c,5f47c671586c801f1df22818,6,,,,,,boot,,,,,,0,39,39,43,1,5,2,,,,,,,,,,,,,,,,,,,,,,,,,,,,,,,,,,,,,,,,,,,,,,,,,,,,,,,,,,,,,,,,,,,,,,,,,,,
,,,,,,,,,,stimuli/images/PICTURE_327.png,LEADER,5f3b14845efc2180b7600665,11/01/2002,2020-08-27_15h47.06.759,proactive3.2,2020.1.2,Win32,60,5f47c0b9b035471e11593a5c,5f47c671586c801f1df22818,6,,,,,,helmet,,,,,,0,40,40,17,1,2,2,,,,,,,,,,,,,,,,,,,,,,,,,,,,,,,,,,,,,,,,,,,,,,,,,,,,,,,,,,,,,,,,,,,,,,,,,,,
,,,,,,,,,,stimuli/images/PICTURE_296.png,CLOCK,5f3b14845efc2180b7600665,11/01/2002,2020-08-27_15h47.06.759,proactive3.2,2020.1.2,Win32,60,5f47c0b9b035471e11593a5c,5f47c671586c801f1df22818,6,,,,,,bolt,,,,,,0,41,41,18,1,2,2,,,,,,,,,,,,,,,,,,,,,,,,,,,,,,,,,,,,,,,,,,,,,,,,,,,,,,,,,,,,,,,,,,,,,,,,,,,
,,,,,,,,,,stimuli/images/PICTURE_509.png,APPLE,5f3b14845efc2180b7600665,11/01/2002,2020-08-27_15h47.06.759,proactive3.2,2020.1.2,Win32,60,5f47c0b9b035471e11593a5c,5f47c671586c801f1df22818,6,,,,,,telephone,,,,,,0,42,42,38,1,4,2,,,,,,,,,,,,,,,,,,,,,,,,,,,,,,,,,,,,,,,,,,,,,,,,,,,,,,,,,,,,,,,,,,,,,,,,,,,
,,,,,,,,,,stimuli/images/PICTURE_667.png,GLASS,5f3b14845efc2180b7600665,11/01/2002,2020-08-27_15h47.06.759,proactive3.2,2020.1.2,Win32,60,5f47c0b9b035471e11593a5c,5f47c671586c801f1df22818,6,,,,,,daisy,,,,,,0,43,43,27,1,3,2,,,,,,,,,,,,,,,,,,,,,,,,,,,,,,,,,,,,,,,,,,,,,,,,,,,,,,,,,,,,,,,,,,,,,,,,,,,
,,,,,,,,,,stimuli/images/PICTURE_452.png,COPS,5f3b14845efc2180b7600665,11/01/2002,2020-08-27_15h47.06.759,proactive3.2,2020.1.2,Win32,60,5f47c0b9b035471e11593a5c,5f47c671586c801f1df22818,6,,,,,,watch,,,,,,0,44,44,0,1,1,2,,,,,,,,,,,,,,,,,,,,,,,,,,,,,,,,,,,,,,,,,,,,,,,,,,,,,,,,,,,,,,,,,,,,,,,,,,,
,,,,,,,,,,stimuli/images/PICTURE_255.png,PENNY,5f3b14845efc2180b7600665,11/01/2002,2020-08-27_15h47.06.759,proactive3.2,2020.1.2,Win32,60,5f47c0b9b035471e11593a5c,5f47c671586c801f1df22818,6,,,,,,shovel,,,,,,0,45,45,19,1,2,2,,,,,,,,,,,,,,,,,,,,,,,,,,,,,,,,,,,,,,,,,,,,,,,,,,,,,,,,,,,,,,,,,,,,,,,,,,,
,,,,,,,,,,stimuli/images/PICTURE_311.png,FLESH,5f3b14845efc2180b7600665,11/01/2002,2020-08-27_15h47.06.759,proactive3.2,2020.1.2,Win32,60,5f47c0b9b035471e11593a5c,5f47c671586c801f1df22818,6,,,,,,razor,,,,,,0,46,46,3,1,1,2,,,,,,,,,,,,,,,,,,,,,,,,,,,,,,,,,,,,,,,,,,,,,,,,,,,,,,,,,,,,,,,,,,,,,,,,,,,
,,,,,,,,,,stimuli/images/PICTURE_314.png,SPEECH,5f3b14845efc2180b7600665,11/01/2002,2020-08-27_15h47.06.759,proactive3.2,2020.1.2,Win32,60,5f47c0b9b035471e11593a5c,5f47c671586c801f1df22818,6,,,,,,perfume,,,,,,0,47,47,35,1,4,2,,,,,,,,,,,,,,,,,,,,,,,,,,,,,,,,,,,,,,,,,,,,,,,,,,,,,,,,,,,,,,,,,,,,,,,,,,,
,,,,,,,,,,stimuli/images/PICTURE_93.png,GIRL,5f3b14845efc2180b7600665,11/01/2002,2020-08-27_15h47.06.759,proactive3.2,2020.1.2,Win32,60,5f47c0b9b035471e11593a5c,5f47c671586c801f1df22818,6,,,,,,skateboard,,,,,,0,48,48,31,1,4,2,,,,,,,,,,,,,,,,,,,,,,,,,,,,,,,,,,,,,,,,,,,,,,,,,,,,,,,,,,,,,,,,,,,,,,,,,,,
,,,,,,,,,,stimuli/images/PICTURE_285.png,WRITER,5f3b14845efc2180b7600665,11/01/2002,2020-08-27_15h47.06.759,proactive3.2,2020.1.2,Win32,60,5f47c0b9b035471e11593a5c,5f47c671586c801f1df22818,6,,,,,,carrot,,,,,,0,49,49,6,1,1,2,,,,,,,,,,,,,,,,,,,,,,,,,,,,,,,,,,,,,,,,,,,,,,,,,,,,,,,,,,,,,,,,,,,,,,,,,,,
,,,,,,,,,,stimuli/images/PICTURE_708.png,VALLEY,5f3b14845efc2180b7600665,11/01/2002,2020-08-27_15h47.06.759,proactive3.2,2020.1.2,Win32,60,5f47c0b9b035471e11593a5c,5f47c671586c801f1df22818,6,,,,,,monkey,,,,,,0,50,50,45,1,5,2,,,,,,,,,,,,,,,,,,,,,,,,,,,,,,,,,,,,,,,,,,,,,,,,,,,,,,,,,,,,,,,,,,,,,,,,,,,
,,,,,,,,,,stimuli/images/PICTURE_405.png,JUNGLE,5f3b14845efc2180b7600665,11/01/2002,2020-08-27_15h47.06.759,proactive3.2,2020.1.2,Win32,60,5f47c0b9b035471e11593a5c,5f47c671586c801f1df22818,6,,,,,,anchor,,,,,,0,51,51,13,1,2,2,,,,,,,,,,,,,,,,,,,,,,,,,,,,,,,,,,,,,,,,,,,,,,,,,,,,,,,,,,,,,,,,,,,,,,,,,,,
,,,,,,,,,,stimuli/images/PICTURE_18.png,RIVER,5f3b14845efc2180b7600665,11/01/2002,2020-08-27_15h47.06.759,proactive3.2,2020.1.2,Win32,60,5f47c0b9b035471e11593a5c,5f47c671586c801f1df22818,6,,,,,,planet,,,,,,0,52,52,22,1,3,2,,,,,,,,,,,,,,,,,,,,,,,,,,,,,,,,,,,,,,,,,,,,,,,,,,,,,,,,,,,,,,,,,,,,,,,,,,,
,,,,,,,,,,stimuli/images/PICTURE_509.png,BATH,5f3b14845efc2180b7600665,11/01/2002,2020-08-27_15h47.06.759,proactive3.2,2020.1.2,Win32,60,5f47c0b9b035471e11593a5c,5f47c671586c801f1df22818,6,,,,,,telephone,,,,,,0,53,53,15,1,2,2,,,,,,,,,,,,,,,,,,,,,,,,,,,,,,,,,,,,,,,,,,,,,,,,,,,,,,,,,,,,,,,,,,,,,,,,,,,
,,,,,,,,,,stimuli/images/PICTURE_2.png,YARD,5f3b14845efc2180b7600665,11/01/2002,2020-08-27_15h47.06.759,proactive3.2,2020.1.2,Win32,60,5f47c0b9b035471e11593a5c,5f47c671586c801f1df22818,6,,,,,,tyre,,,,,,0,54,54,55,1,6,2,,,,,,,,,,,,,,,,,,,,,,,,,,,,,,,,,,,,,,,,,,,,,,,,,,,,,,,,,,,,,,,,,,,,,,,,,,,
,,,,,,,,,,stimuli/images/PICTURE_57.png,NATION,5f3b14845efc2180b7600665,11/01/2002,2020-08-27_15h47.06.759,proactive3.2,2020.1.2,Win32,60,5f47c0b9b035471e11593a5c,5f47c671586c801f1df22818,6,,,,,,stamp,,,,,,0,55,55,21,1,3,2,,,,,,,,,,,,,,,,,,,,,,,,,,,,,,,,,,,,,,,,,,,,,,,,,,,,,,,,,,,,,,,,,,,,,,,,,,,
,,,,,,,,,,stimuli/images/PICTURE_654.png,COPS,5f3b14845efc2180b7600665,11/01/2002,2020-08-27_15h47.06.759,proactive3.2,2020.1.2,Win32,60,5f47c0b9b035471e11593a5c,5f47c671586c801f1df22818,6,,,,,,pencil,,,,,,0,56,56,10,1,2,2,,,,,,,,,,,,,,,,,,,,,,,,,,,,,,,,,,,,,,,,,,,,,,,,,,,,,,,,,,,,,,,,,,,,,,,,,,,
,,,,,,,,,,stimuli/images/PICTURE_215.png,BOYS,5f3b14845efc2180b7600665,11/01/2002,2020-08-27_15h47.06.759,proactive3.2,2020.1.2,Win32,60,5f47c0b9b035471e11593a5c,5f47c671586c801f1df22818,6,,,,,,boot,,,,,,0,57,57,24,1,3,2,,,,,,,,,,,,,,,,,,,,,,,,,,,,,,,,,,,,,,,,,,,,,,,,,,,,,,,,,,,,,,,,,,,,,,,,,,,
,,,,,,,,,,stimuli/images/PICTURE_215.png,FOOD,5f3b14845efc2180b7600665,11/01/2002,2020-08-27_15h47.06.759,proactive3.2,2020.1.2,Win32,60,5f47c0b9b035471e11593a5c,5f47c671586c801f1df22818,6,,,,,,boot,,,,,,0,58,58,5,1,1,2,,,,,,,,,,,,,,,,,,,,,,,,,,,,,,,,,,,,,,,,,,,,,,,,,,,,,,,,,,,,,,,,,,,,,,,,,,,
,,SALE,2.417145,1,,,,,,stimuli/images/PICTURE_655.png,SALE,5f3b14845efc2180b7600665,11/01/2002,2020-08-27_15h47.06.759,proactive3.2,2020.1.2,Win32,60,5f47c0b9b035471e11593a5c,5f47c671586c801f1df22818,6,,,,,,megaphone,,,,,,,,,,,6,2,0,0,0,57,1,,,,,,,,,,,,,,,,,,,,,,,,,,,,,,,,,,,,,,,,,,,,,,,,,,,,,,,,,,,,,,,,,,,,,,
,,?,0.003025,0,,,,,,stimuli/images/PICTURE_509.png,SHOTS,5f3b14845efc2180b7600665,11/01/2002,2020-08-27_15h47.06.759,proactive3.2,2020.1.2,Win32,60,5f47c0b9b035471e11593a5c,5f47c671586c801f1df22818,6,,,,,,telephone,,,,,,,,,,,1,2,0,1,1,7,1,,,,,,,,,,,,,,,,,,,,,,,,,,,,,,,,,,,,,,,,,,,,,,,,,,,,,,,,,,,,,,,,,,,,,,
,,?,0.00301,0,,,,,,stimuli/images/PICTURE_654.png,YEAR,5f3b14845efc2180b7600665,11/01/2002,2020-08-27_15h47.06.759,proactive3.2,2020.1.2,Win32,60,5f47c0b9b035471e11593a5c,5f47c671586c801f1df22818,6,,,,,,pencil,,,,,,,,,,,5,2,0,2,2,41,1,,,,,,,,,,,,,,,,,,,,,,,,,,,,,,,,,,,,,,,,,,,,,,,,,,,,,,,,,,,,,,,,,,,,,,
,,?,0.00281,0,,,,,,stimuli/images/PICTURE_470.png,BEAUTY,5f3b14845efc2180b7600665,11/01/2002,2020-08-27_15h47.06.759,proactive3.2,2020.1.2,Win32,60,5f47c0b9b035471e11593a5c,5f47c671586c801f1df22818,6,,,,,,motorbike,,,,,,,,,,,3,2,0,3,3,26,1,,,,,,,,,,,,,,,,,,,,,,,,,,,,,,,,,,,,,,,,,,,,,,,,,,,,,,,,,,,,,,,,,,,,,,
,,?,0.002565,0,,,,,,stimuli/images/PICTURE_95.png,NIGHT,5f3b14845efc2180b7600665,11/01/2002,2020-08-27_15h47.06.759,proactive3.2,2020.1.2,Win32,60,5f47c0b9b035471e11593a5c,5f47c671586c801f1df22818,6,,,,,,suitcase,,,,,,,,,,,4,2,0,4,4,37,1,,,,,,,,,,,,,,,,,,,,,,,,,,,,,,,,,,,,,,,,,,,,,,,,,,,,,,,,,,,,,,,,,,,,,,
,,?,0.00171,0,,,,,,stimuli/images/PICTURE_314.png,SPEECH,5f3b14845efc2180b7600665,11/01/2002,2020-08-27_15h47.06.759,proactive3.2,2020.1.2,Win32,60,5f47c0b9b035471e11593a5c,5f47c671586c801f1df22818,6,,,,,,perfume,,,,,,,,,,,4,2,0,5,5,35,1,,,,,,,,,,,,,,,,,,,,,,,,,,,,,,,,,,,,,,,,,,,,,,,,,,,,,,,,,,,,,,,,,,,,,,
,,?,0.001445,0,,,,,,stimuli/images/PICTURE_208.png,SPIRIT,5f3b14845efc2180b7600665,11/01/2002,2020-08-27_15h47.06.759,proactive3.2,2020.1.2,Win32,60,5f47c0b9b035471e11593a5c,5f47c671586c801f1df22818,6,,,,,,microphone,,,,,,,,,,,3,2,0,6,6,28,1,,,,,,,,,,,,,,,,,,,,,,,,,,,,,,,,,,,,,,,,,,,,,,,,,,,,,,,,,,,,,,,,,,,,,,
,,LETTER,2.82228,1,,,,,,stimuli/images/PICTURE_32.png,LETTER,5f3b14845efc2180b7600665,11/01/2002,2020-08-27_15h47.06.759,proactive3.2,2020.1.2,Win32,60,5f47c0b9b035471e11593a5c,5f47c671586c801f1df22818,6,,,,,,crown,,,,,,,,,,,6,2,0,7,7,56,1,,,,,,,,,,,,,,,,,,,,,,,,,,,,,,,,,,,,,,,,,,,,,,,,,,,,,,,,,,,,,,,,,,,,,,
,,?,0.00122,0,,,,,,stimuli/images/PICTURE_470.png,MOMENT,5f3b14845efc2180b7600665,11/01/2002,2020-08-27_15h47.06.759,proactive3.2,2020.1.2,Win32,60,5f47c0b9b035471e11593a5c,5f47c671586c801f1df22818,6,,,,,,motorbike,,,,,,,,,,,5,2,0,8,8,40,1,,,,,,,,,,,,,,,,,,,,,,,,,,,,,,,,,,,,,,,,,,,,,,,,,,,,,,,,,,,,,,,,,,,,,,
,,?,0.000945,0,,,,,,stimuli/images/PICTURE_285.png,PRINCE,5f3b14845efc2180b7600665,11/01/2002,2020-08-27_15h47.06.759,proactive3.2,2020.1.2,Win32,60,5f47c0b9b035471e11593a5c,5f47c671586c801f1df22818,6,,,,,,carrot,,,,,,,,,,,3,2,0,9,9,20,1,,,,,,,,,,,,,,,,,,,,,,,,,,,,,,,,,,,,,,,,,,,,,,,,,,,,,,,,,,,,,,,,,,,,,,
,,?,0.000925,0,,,,,,stimuli/images/PICTURE_688.png,CLOCK,5f3b14845efc2180b7600665,11/01/2002,2020-08-27_15h47.06.759,proactive3.2,2020.1.2,Win32,60,5f47c0b9b035471e11593a5c,5f47c671586c801f1df22818,6,,,,,,runner,,,,,,,,,,,5,2,0,10,10,42,1,,,,,,,,,,,,,,,,,,,,,,,,,,,,,,,,,,,,,,,,,,,,,,,,,,,,,,,,,,,,,,,,,,,,,,
,,?,0.00074,0,,,,,,stimuli/images/PICTURE_453.png,FAMILY,5f3b14845efc2180b7600665,11/01/2002,2020-08-27_15h47.06.759,proactive3.2,2020.1.2,Win32,60,5f47c0b9b035471e11593a5c,5f47c671586c801f1df22818,6,,,,,,scissors,,,,,,,,,,,5,2,0,11,11,48,1,,,,,,,,,,,,,,,,,,,,,,,,,,,,,,,,,,,,,,,,,,,,,,,,,,,,,,,,,,,,,,,,,,,,,,
,,?,0.0008,0,,,,,,stimuli/images/PICTURE_311.png,FLESH,5f3b14845efc2180b7600665,11/01/2002,2020-08-27_15h47.06.759,proactive3.2,2020.1.2,Win32,60,5f47c0b9b035471e11593a5c,5f47c671586c801f1df22818,6,,,,,,razor,,,,,,,,,,,1,2,0,12,12,3,1,,,,,,,,,,,,,,,,,,,,,,,,,,,,,,,,,,,,,,,,,,,,,,,,,,,,,,,,,,,,,,,,,,,,,,
,,BOY,4.321695,0,,,,,,stimuli/images/PICTURE_348.png,DUDE,5f3b14845efc2180b7600665,11/01/2002,2020-08-27_15h47.06.759,proactive3.2,2020.1.2,Win32,60,5f47c0b9b035471e11593a5c,5f47c671586c801f1df22818,6,,,,,,pepper,,,,,,,,,,,6,2,0,13,13,59,1,,,,,,,,,,,,,,,,,,,,,,,,,,,,,,,,,,,,,,,,,,,,,,,,,,,,,,,,,,,,,,,,,,,,,,
,,?,0.00213,0,,,,,,stimuli/images/PICTURE_509.png,MILLER,5f3b14845efc2180b7600665,11/01/2002,2020-08-27_15h47.06.759,proactive3.2,2020.1.2,Win32,60,5f47c0b9b035471e11593a5c,5f47c671586c801f1df22818,6,,,,,,telephone,,,,,,,,,,,5,2,0,14,14,49,1,,,,,,,,,,,,,,,,,,,,,,,,,,,,,,,,,,,,,,,,,,,,,,,,,,,,,,,,,,,,,,,,,,,,,,
,,?,0.00192,0,,,,,,stimuli/images/PICTURE_18.png,RIVER,5f3b14845efc2180b7600665,11/01/2002,2020-08-27_15h47.06.759,proactive3.2,2020.1.2,Win32,60,5f47c0b9b035471e11593a5c,5f47c671586c801f1df22818,6,,,,,,planet,,,,,,,,,,,3,2,0,15,15,22,1,,,,,,,,,,,,,,,,,,,,,,,,,,,,,,,,,,,,,,,,,,,,,,,,,,,,,,,,,,,,,,,,,,,,,,
,,?,0.002515,0,,,,,,stimuli/images/PICTURE_708.png,VALLEY,5f3b14845efc2180b7600665,11/01/2002,2020-08-27_15h47.06.759,proactive3.2,2020.1.2,Win32,60,5f47c0b9b035471e11593a5c,5f47c671586c801f1df22818,6,,,,,,monkey,,,,,,,,,,,5,2,0,16,16,45,1,,,,,,,,,,,,,,,,,,,,,,,,,,,,,,,,,,,,,,,,,,,,,,,,,,,,,,,,,,,,,,,,,,,,,,
,,?,0.002015,0,,,,,,stimuli/images/PICTURE_491.png,SERIES,5f3b14845efc2180b7600665,11/01/2002,2020-08-27_15h47.06.759,proactive3.2,2020.1.2,Win32,60,5f47c0b9b035471e11593a5c,5f47c671586c801f1df22818,6,,,,,,rug,,,,,,,,,,,4,2,0,17,17,39,1,,,,,,,,,,,,,,,,,,,,,,,,,,,,,,,,,,,,,,,,,,,,,,,,,,,,,,,,,,,,,,,,,,,,,,
,,?,0.002075,0,,,,,,stimuli/images/PICTURE_215.png,FOOD,5f3b14845efc2180b7600665,11/01/2002,2020-08-27_15h47.06.759,proactive3.2,2020.1.2,Win32,60,5f47c0b9b035471e11593a5c,5f47c671586c801f1df22818,6,,,,,,boot,,,,,,,,,,,1,2,0,18,18,5,1,,,,,,,,,,,,,,,,,,,,,,,,,,,,,,,,,,,,,,,,,,,,,,,,,,,,,,,,,,,,,,,,,,,,,,
,,?,0.00211,0,,,,,,stimuli/images/PICTURE_405.png,JUNGLE,5f3b14845efc2180b7600665,11/01/2002,2020-08-27_15h47.06.759,proactive3.2,2020.1.2,Win32,60,5f47c0b9b035471e11593a5c,5f47c671586c801f1df22818,6,,,,,,anchor,,,,,,,,,,,2,2,0,19,19,13,1,,,,,,,,,,,,,,,,,,,,,,,,,,,,,,,,,,,,,,,,,,,,,,,,,,,,,,,,,,,,,,,,,,,,,,
,,TOILET,7.26335,1,,,,,,stimuli/images/PICTURE_311.png,TOILET,5f3b14845efc2180b7600665,11/01/2002,2020-08-27_15h47.06.759,proactive3.2,2020.1.2,Win32,60,5f47c0b9b035471e11593a5c,5f47c671586c801f1df22818,6,,,,,,razor,,,,,,,,,,,6,2,0,20,20,54,1,,,,,,,,,,,,,,,,,,,,,,,,,,,,,,,,,,,,,,,,,,,,,,,,,,,,,,,,,,,,,,,,,,,,,,
,,?,0.002565,0,,,,,,stimuli/images/PICTURE_215.png,BOYS,5f3b14845efc2180b7600665,11/01/2002,2020-08-27_15h47.06.759,proactive3.2,2020.1.2,Win32,60,5f47c0b9b035471e11593a5c,5f47c671586c801f1df22818,6,,,,,,boot,,,,,,,,,,,3,2,0,21,21,24,1,,,,,,,,,,,,,,,,,,,,,,,,,,,,,,,,,,,,,,,,,,,,,,,,,,,,,,,,,,,,,,,,,,,,,,
,,?,0.00222,0,,,,,,stimuli/images/PICTURE_564.png,PLENTY,5f3b14845efc2180b7600665,11/01/2002,2020-08-27_15h47.06.759,proactive3.2,2020.1.2,Win32,60,5f47c0b9b035471e11593a5c,5f47c671586c801f1df22818,6,,,,,,spoon,,,,,,,,,,,2,2,0,22,22,11,1,,,,,,,,,,,,,,,,,,,,,,,,,,,,,,,,,,,,,,,,,,,,,,,,,,,,,,,,,,,,,,,,,,,,,,
,,?,0.001845,0,,,,,,stimuli/images/PICTURE_750.png,POLICY,5f3b14845efc2180b7600665,11/01/2002,2020-08-27_15h47.06.759,proactive3.2,2020.1.2,Win32,60,5f47c0b9b035471e11593a5c,5f47c671586c801f1df22818,6,,,,,,kettle,,,,,,,,,,,5,2,0,23,23,44,1,,,,,,,,,,,,,,,,,,,,,,,,,,,,,,,,,,,,,,,,,,,,,,,,,,,,,,,,,,,,,,,,,,,,,,
,,BODY,2.343135,1,,,,,,stimuli/images/PICTURE_297.png,BODY,5f3b14845efc2180b7600665,11/01/2002,2020-08-27_15h47.06.759,proactive3.2,2020.1.2,Win32,60,5f47c0b9b035471e11593a5c,5f47c671586c801f1df22818,6,,,,,,aeroplane,,,,,,,,,,,6,2,0,24,24,51,1,,,,,,,,,,,,,,,,,,,,,,,,,,,,,,,,,,,,,,,,,,,,,,,,,,,,,,,,,,,,,,,,,,,,,,
,,?,0.002115,0,,,,,,stimuli/images/PICTURE_2.png,JUNGLE,5f3b14845efc2180b7600665,11/01/2002,2020-08-27_15h47.06.759,proactive3.2,2020.1.2,Win32,60,5f47c0b9b035471e11593a5c,5f47c671586c801f1df22818,6,,,,,,tyre,,,,,,,,,,,1,2,0,25,25,1,1,,,,,,,,,,,,,,,,,,,,,,,,,,,,,,,,,,,,,,,,,,,,,,,,,,,,,,,,,,,,,,,,,,,,,,
,,?,0.00179,0,,,,,,stimuli/images/PICTURE_487.png,POLICY,5f3b14845efc2180b7600665,11/01/2002,2020-08-27_15h47.06.759,proactive3.2,2020.1.2,Win32,60,5f47c0b9b035471e11593a5c,5f47c671586c801f1df22818,6,,,,,,basket,,,,,,,,,,,4,2,0,26,26,34,1,,,,,,,,,,,,,,,,,,,,,,,,,,,,,,,,,,,,,,,,,,,,,,,,,,,,,,,,,,,,,,,,,,,,,,
,,?,0.00166,0,,,,,,stimuli/images/PICTURE_504.png,HOUSE,5f3b14845efc2180b7600665,11/01/2002,2020-08-27_15h47.06.759,proactive3.2,2020.1.2,Win32,60,5f47c0b9b035471e11593a5c,5f47c671586c801f1df22818,6,,,,,,wheel,,,,,,,,,,,4,2,0,27,27,36,1,,,,,,,,,,,,,,,,,,,,,,,,,,,,,,,,,,,,,,,,,,,,,,,,,,,,,,,,,,,,,,,,,,,,,,
,,?,0.00249,0,,,,,,stimuli/images/PICTURE_296.png,CLOCK,5f3b14845efc2180b7600665,11/01/2002,2020-08-27_15h47.06.759,proactive3.2,2020.1.2,Win32,60,5f47c0b9b035471e11593a5c,5f47c671586c801f1df22818,6,,,,,,bolt,,,,,,,,,,,2,2,0,28,28,18,1,,,,,,,,,,,,,,,,,,,,,,,,,,,,,,,,,,,,,,,,,,,,,,,,,,,,,,,,,,,,,,,,,,,,,,
,,?,0.001895,0,,,,,,stimuli/images/PICTURE_123.png,SALE,5f3b14845efc2180b7600665,11/01/2002,2020-08-27_15h47.06.759,proactive3.2,2020.1.2,Win32,60,5f47c0b9b035471e11593a5c,5f47c671586c801f1df22818,6,,,,,,dart,,,,,,,,,,,1,2,0,29,29,8,1,,,,,,,,,,,,,,,,,,,,,,,,,,,,,,,,,,,,,,,,,,,,,,,,,,,,,,,,,,,,,,,,,,,,,,
,,YARD,3.290375,1,,,,,,stimuli/images/PICTURE_2.png,YARD,5f3b14845efc2180b7600665,11/01/2002,2020-08-27_15h47.06.759,proactive3.2,2020.1.2,Win32,60,5f47c0b9b035471e11593a5c,5f47c671586c801f1df22818,6,,,,,,tyre,,,,,,,,,,,6,2,0,30,30,55,1,,,,,,,,,,,,,,,,,,,,,,,,,,,,,,,,,,,,,,,,,,,,,,,,,,,,,,,,,,,,,,,,,,,,,,
,,?,0.002425,0,,,,,,stimuli/images/PICTURE_57.png,NATION,5f3b14845efc2180b7600665,11/01/2002,2020-08-27_15h47.06.759,proactive3.2,2020.1.2,Win32,60,5f47c0b9b035471e11593a5c,5f47c671586c801f1df22818,6,,,,,,stamp,,,,,,,,,,,3,2,0,31,31,21,1,,,,,,,,,,,,,,,,,,,,,,,,,,,,,,,,,,,,,,,,,,,,,,,,,,,,,,,,,,,,,,,,,,,,,,
,,?,0.00217,0,,,,,,stimuli/images/PICTURE_255.png,PENNY,5f3b14845efc2180b7600665,11/01/2002,2020-08-27_15h47.06.759,proactive3.2,2020.1.2,Win32,60,5f47c0b9b035471e11593a5c,5f47c671586c801f1df22818,6,,,,,,shovel,,,,,,,,,,,2,2,0,32,32,19,1,,,,,,,,,,,,,,,,,,,,,,,,,,,,,,,,,,,,,,,,,,,,,,,,,,,,,,,,,,,,,,,,,,,,,,
,,?,0.002265,0,,,,,,stimuli/images/PICTURE_160.png,HOTEL,5f3b14845efc2180b7600665,11/01/2002,2020-08-27_15h47.06.759,proactive3.2,2020.1.2,Win32,60,5f47c0b9b035471e11593a5c,5f47c671586c801f1df22818,6,,,,,,wheelbarrow,,,,,,,,,,,2,2,0,33,33,16,1,,,,,,,,,,,,,,,,,,,,,,,,,,,,,,,,,,,,,,,,,,,,,,,,,,,,,,,,,,,,,,,,,,,,,,
,,?,0.002905,0,,,,,,stimuli/images/PICTURE_215.png,LEADER,5f3b14845efc2180b7600665,11/01/2002,2020-08-27_15h47.06.759,proactive3.2,2020.1.2,Win32,60,5f47c0b9b035471e11593a5c,5f47c671586c801f1df22818,6,,,,,,boot,,,,,,,,,,,5,2,0,34,34,43,1,,,,,,,,,,,,,,,,,,,,,,,,,,,,,,,,,,,,,,,,,,,,,,,,,,,,,,,,,,,,,,,,,,,,,,
,,?,0.0019,0,,,,,,stimuli/images/PICTURE_285.png,WRITER,5f3b14845efc2180b7600665,11/01/2002,2020-08-27_15h47.06.759,proactive3.2,2020.1.2,Win32,60,5f47c0b9b035471e11593a5c,5f47c671586c801f1df22818,6,,,,,,carrot,,,,,,,,,,,1,2,0,35,35,6,1,,,,,,,,,,,,,,,,,,,,,,,,,,,,,,,,,,,,,,,,,,,,,,,,,,,,,,,,,,,,,,,,,,,,,,
,,?,0.0028,0,,,,,,stimuli/images/PICTURE_147.png,LEADER,5f3b14845efc2180b7600665,11/01/2002,2020-08-27_15h47.06.759,proactive3.2,2020.1.2,Win32,60,5f47c0b9b035471e11593a5c,5f47c671586c801f1df22818,6,,,,,,hanger,,,,,,,,,,,4,2,0,36,36,33,1,,,,,,,,,,,,,,,,,,,,,,,,,,,,,,,,,,,,,,,,,,,,,,,,,,,,,,,,,,,,,,,,,,,,,,
,,?,0.00365,0,,,,,,stimuli/images/PICTURE_509.png,BATH,5f3b14845efc2180b7600665,11/01/2002,2020-08-27_15h47.06.759,proactive3.2,2020.1.2,Win32,60,5f47c0b9b035471e11593a5c,5f47c671586c801f1df22818,6,,,,,,telephone,,,,,,,,,,,2,2,0,37,37,15,1,,,,,,,,,,,,,,,,,,,,,,,,,,,,,,,,,,,,,,,,,,,,,,,,,,,,,,,,,,,,,,,,,,,,,,
,,?,0.003605,0,,,,,,stimuli/images/PICTURE_33.png,COPS,5f3b14845efc2180b7600665,11/01/2002,2020-08-27_15h47.06.759,proactive3.2,2020.1.2,Win32,60,5f47c0b9b035471e11593a5c,5f47c671586c801f1df22818,6,,,,,,frame,,,,,,,,,,,3,2,0,38,38,29,1,,,,,,,,,,,,,,,,,,,,,,,,,,,,,,,,,,,,,,,,,,,,,,,,,,,,,,,,,,,,,,,,,,,,,,
,,?,0.007705,0,,,,,,stimuli/images/PICTURE_692.png,DUDE,5f3b14845efc2180b7600665,11/01/2002,2020-08-27_15h47.06.759,proactive3.2,2020.1.2,Win32,60,5f47c0b9b035471e11593a5c,5f47c671586c801f1df22818,6,,,,,,cherry,,,,,,,,,,,5,2,0,39,39,47,1,,,,,,,,,,,,,,,,,,,,,,,,,,,,,,,,,,,,,,,,,,,,,,,,,,,,,,,,,,,,,,,,,,,,,,
,,?,0.003235,0,,,,,,stimuli/images/PICTURE_93.png,GIRL,5f3b14845efc2180b7600665,11/01/2002,2020-08-27_15h47.06.759,proactive3.2,2020.1.2,Win32,60,5f47c0b9b035471e11593a5c,5f47c671586c801f1df22818,6,,,,,,skateboard,,,,,,,,,,,4,2,0,40,40,31,1,,,,,,,,,,,,,,,,,,,,,,,,,,,,,,,,,,,,,,,,,,,,,,,,,,,,,,,,,,,,,,,,,,,,,,
,,?,0.001945,0,,,,,,stimuli/images/PICTURE_405.png,HOUSE,5f3b14845efc2180b7600665,11/01/2002,2020-08-27_15h47.06.759,proactive3.2,2020.1.2,Win32,60,5f47c0b9b035471e11593a5c,5f47c671586c801f1df22818,6,,,,,,anchor,,,,,,,,,,,1,2,0,41,41,2,1,,,,,,,,,,,,,,,,,,,,,,,,,,,,,,,,,,,,,,,,,,,,,,,,,,,,,,,,,,,,,,,,,,,,,,
,,?,0.00188,0,,,,,,stimuli/images/PICTURE_327.png,LEADER,5f3b14845efc2180b7600665,11/01/2002,2020-08-27_15h47.06.759,proactive3.2,2020.1.2,Win32,60,5f47c0b9b035471e11593a5c,5f47c671586c801f1df22818,6,,,,,,helmet,,,,,,,,,,,2,2,0,42,42,17,1,,,,,,,,,,,,,,,,,,,,,,,,,,,,,,,,,,,,,,,,,,,,,,,,,,,,,,,,,,,,,,,,,,,,,,
,,?,0.002175,0,,,,,,stimuli/images/PICTURE_57.png,CASINO,5f3b14845efc2180b7600665,11/01/2002,2020-08-27_15h47.06.759,proactive3.2,2020.1.2,Win32,60,5f47c0b9b035471e11593a5c,5f47c671586c801f1df22818,6,,,,,,stamp,,,,,,,,,,,2,2,0,43,43,12,1,,,,,,,,,,,,,,,,,,,,,,,,,,,,,,,,,,,,,,,,,,,,,,,,,,,,,,,,,,,,,,,,,,,,,,
,,?,0.00187,0,,,,,,stimuli/images/PICTURE_177.png,HOUSE,5f3b14845efc2180b7600665,11/01/2002,2020-08-27_15h47.06.759,proactive3.2,2020.1.2,Win32,60,5f47c0b9b035471e11593a5c,5f47c671586c801f1df22818,6,,,,,,mushroom,,,,,,,,,,,3,2,0,44,44,25,1,,,,,,,,,,,,,,,,,,,,,,,,,,,,,,,,,,,,,,,,,,,,,,,,,,,,,,,,,,,,,,,,,,,,,,
,,?,0.00184,0,,,,,,stimuli/images/PICTURE_667.png,GLASS,5f3b14845efc2180b7600665,11/01/2002,2020-08-27_15h47.06.759,proactive3.2,2020.1.2,Win32,60,5f47c0b9b035471e11593a5c,5f47c671586c801f1df22818,6,,,,,,daisy,,,,,,,,,,,3,2,0,45,45,27,1,,,,,,,,,,,,,,,,,,,,,,,,,,,,,,,,,,,,,,,,,,,,,,,,,,,,,,,,,,,,,,,,,,,,,,
,,?,8.00367,0,,,,,,stimuli/images/PICTURE_405.png,JUNGLE,5f3b14845efc2180b7600665,11/01/2002,2020-08-27_15h47.06.759,proactive3.2,2020.1.2,Win32,60,5f47c0b9b035471e11593a5c,5f47c671586c801f1df22818,6,,,,,,anchor,,,,,,,,,,,6,2,0,46,46,58,1,,,,,,,,,,,,,,,,,,,,,,,,,,,,,,,,,,,,,,,,,,,,,,,,,,,,,,,,,,,,,,,,,,,,,,
,,?,0.002855,0,,,,,,stimuli/images/PICTURE_356.png,CANDY,5f3b14845efc2180b7600665,11/01/2002,2020-08-27_15h47.06.759,proactive3.2,2020.1.2,Win32,60,5f47c0b9b035471e11593a5c,5f47c671586c801f1df22818,6,,,,,,pawn,,,,,,,,,,,5,2,0,47,47,46,1,,,,,,,,,,,,,,,,,,,,,,,,,,,,,,,,,,,,,,,,,,,,,,,,,,,,,,,,,,,,,,,,,,,,,,
,,?,0.002125,0,,,,,,stimuli/images/PICTURE_68.png,KIND,5f3b14845efc2180b7600665,11/01/2002,2020-08-27_15h47.06.759,proactive3.2,2020.1.2,Win32,60,5f47c0b9b035471e11593a5c,5f47c671586c801f1df22818,6,,,,,,candle,,,,,,,,,,,3,2,0,48,48,23,1,,,,,,,,,,,,,,,,,,,,,,,,,,,,,,,,,,,,,,,,,,,,,,,,,,,,,,,,,,,,,,,,,,,,,,
,,?,0.003005,0,,,,,,stimuli/images/PICTURE_677.png,PHOTO,5f3b14845efc2180b7600665,11/01/2002,2020-08-27_15h47.06.759,proactive3.2,2020.1.2,Win32,60,5f47c0b9b035471e11593a5c,5f47c671586c801f1df22818,6,,,,,,map,,,,,,,,,,,2,2,0,49,49,14,1,,,,,,,,,,,,,,,,,,,,,,,,,,,,,,,,,,,,,,,,,,,,,,,,,,,,,,,,,,,,,,,,,,,,,,
,,?,0.001895,0,,,,,,stimuli/images/PICTURE_452.png,COPS,5f3b14845efc2180b7600665,11/01/2002,2020-08-27_15h47.06.759,proactive3.2,2020.1.2,Win32,60,5f47c0b9b035471e11593a5c,5f47c671586c801f1df22818,6,,,,,,watch,,,,,,,,,,,1,2,0,50,50,0,1,,,,,,,,,,,,,,,,,,,,,,,,,,,,,,,,,,,,,,,,,,,,,,,,,,,,,,,,,,,,,,,,,,,,,,
,,?,0.001905,0,,,,,,stimuli/images/PICTURE_348.png,TOILET,5f3b14845efc2180b7600665,11/01/2002,2020-08-27_15h47.06.759,proactive3.2,2020.1.2,Win32,60,5f47c0b9b035471e11593a5c,5f47c671586c801f1df22818,6,,,,,,pepper,,,,,,,,,,,1,2,0,51,51,4,1,,,,,,,,,,,,,,,,,,,,,,,,,,,,,,,,,,,,,,,,,,,,,,,,,,,,,,,,,,,,,,,,,,,,,,
,,FAMILY,4.202375,1,,,,,,stimuli/images/PICTURE_677.png,FAMILY,5f3b14845efc2180b7600665,11/01/2002,2020-08-27_15h47.06.759,proactive3.2,2020.1.2,Win32,60,5f47c0b9b035471e11593a5c,5f47c671586c801f1df22818,6,,,,,,map,,,,,,,,,,,6,2,0,52,52,53,1,,,,,,,,,,,,,,,,,,,,,,,,,,,,,,,,,,,,,,,,,,,,,,,,,,,,,,,,,,,,,,,,,,,,,,
,,?,0.00209,0,,,,,,stimuli/images/PICTURE_2.png,AREA,5f3b14845efc2180b7600665,11/01/2002,2020-08-27_15h47.06.759,proactive3.2,2020.1.2,Win32,60,5f47c0b9b035471e11593a5c,5f47c671586c801f1df22818,6,,,,,,tyre,,,,,,,,,,,4,2,0,53,53,32,1,,,,,,,,,,,,,,,,,,,,,,,,,,,,,,,,,,,,,,,,,,,,,,,,,,,,,,,,,,,,,,,,,,,,,,
,,ROOF,2.60999,1,,,,,,stimuli/images/PICTURE_487.png,ROOF,5f3b14845efc2180b7600665,11/01/2002,2020-08-27_15h47.06.759,proactive3.2,2020.1.2,Win32,60,5f47c0b9b035471e11593a5c,5f47c671586c801f1df22818,6,,,,,,basket,,,,,,,,,,,6,2,0,54,54,50,1,,,,,,,,,,,,,,,,,,,,,,,,,,,,,,,,,,,,,,,,,,,,,,,,,,,,,,,,,,,,,,,,,,,,,,
,,?,0.00701,0,,,,,,stimuli/images/PICTURE_403.png,FAMILY,5f3b14845efc2180b7600665,11/01/2002,2020-08-27_15h47.06.759,proactive3.2,2020.1.2,Win32,60,5f47c0b9b035471e11593a5c,5f47c671586c801f1df22818,6,,,,,,cathedral,,,,,,,,,,,1,2,0,55,55,9,1,,,,,,,,,,,,,,,,,,,,,,,,,,,,,,,,,,,,,,,,,,,,,,,,,,,,,,,,,,,,,,,,,,,,,,
,,?,0.002275,0,,,,,,stimuli/images/PICTURE_509.png,APPLE,5f3b14845efc2180b7600665,11/01/2002,2020-08-27_15h47.06.759,proactive3.2,2020.1.2,Win32,60,5f47c0b9b035471e11593a5c,5f47c671586c801f1df22818,6,,,,,,telephone,,,,,,,,,,,4,2,0,56,56,38,1,,,,,,,,,,,,,,,,,,,,,,,,,,,,,,,,,,,,,,,,,,,,,,,,,,,,,,,,,,,,,,,,,,,,,,
,,?,0.00234,0,,,,,,stimuli/images/PICTURE_141.png,CLIENT,5f3b14845efc2180b7600665,11/01/2002,2020-08-27_15h47.06.759,proactive3.2,2020.1.2,Win32,60,5f47c0b9b035471e11593a5c,5f47c671586c801f1df22818,6,,,,,,sunflower,,,,,,,,,,,4,2,0,57,57,30,1,,,,,,,,,,,,,,,,,,,,,,,,,,,,,,,,,,,,,,,,,,,,,,,,,,,,,,,,,,,,,,,,,,,,,,
,,CANDY,3.391855,1,,,,,,stimuli/images/PICTURE_57.png,CANDY,5f3b14845efc2180b7600665,11/01/2002,2020-08-27_15h47.06.759,proactive3.2,2020.1.2,Win32,60,5f47c0b9b035471e11593a5c,5f47c671586c801f1df22818,6,,,,,,stamp,,,,,,,,,,,6,2,0,58,58,52,1,,,,,,,,,,,,,,,,,,,,,,,,,,,,,,,,,,,,,,,,,,,,,,,,,,,,,,,,,,,,,,,,,,,,,,
,,?,0.00252,0,,,,,,stimuli/images/PICTURE_654.png,COPS,5f3b14845efc2180b7600665,11/01/2002,2020-08-27_15h47.06.759,proactive3.2,2020.1.2,Win32,60,5f47c0b9b035471e11593a5c,5f47c671586c801f1df22818,6,,,,,,pencil,,,,,,,,,,,2,2,0,59,59,10,1,,,,,,,,,,,,,,,,,,,,,,,,,,,,,,,,,,,,,,,,,,,,,,,,,,,,,,,,,,,,,,,,,,,,,,
,,,,,,,,,,,,5f3b14845efc2180b7600665,11/01/2002,2020-08-27_15h47.06.759,proactive3.2,2020.1.2,Win32,60,5f47c0b9b035471e11593a5c,5f47c671586c801f1df22818,6,,,,,,,,,,,,,,,,,,,,,,,,0,1,1,2,1,stimuli/learn-block3.csv,,,,,,,,,,,,,,,,,,,,,,,,,,,,,,,,,,,,,,,,,,,,,,,,,,,,,,,,,,,,,,,,
,,,,,,,,,,stimuli/images/PICTURE_688.png,CASINO,5f3b14845efc2180b7600665,11/01/2002,2020-08-27_15h47.06.759,proactive3.2,2020.1.2,Win32,60,5f47c0b9b035471e11593a5c,5f47c671586c801f1df22818,6,,,,,,runner,,,,,,0,0,0,2,1,1,0,,,,,,,,,,,,,,,,,,,,,,,,,,,,,,,,,,,,,,,,,,,,,,,,,,,,,,,,,,,,,,,,,,,,,,,,,,,
,,,,,,,,,,stimuli/images/PICTURE_504.png,BODY,5f3b14845efc2180b7600665,11/01/2002,2020-08-27_15h47.06.759,proactive3.2,2020.1.2,Win32,60,5f47c0b9b035471e11593a5c,5f47c671586c801f1df22818,6,,,,,,wheel,,,,,,0,1,1,8,1,1,0,,,,,,,,,,,,,,,,,,,,,,,,,,,,,,,,,,,,,,,,,,,,,,,,,,,,,,,,,,,,,,,,,,,,,,,,,,,
,,,,,,,,,,stimuli/images/PICTURE_339.png,PLENTY,5f3b14845efc2180b7600665,11/01/2002,2020-08-27_15h47.06.759,proactive3.2,2020.1.2,Win32,60,5f47c0b9b035471e11593a5c,5f47c671586c801f1df22818,6,,,,,,backpack,,,,,,0,2,2,0,1,1,0,,,,,,,,,,,,,,,,,,,,,,,,,,,,,,,,,,,,,,,,,,,,,,,,,,,,,,,,,,,,,,,,,,,,,,,,,,,
,,,,,,,,,,stimuli/images/PICTURE_208.png,LOTS,5f3b14845efc2180b7600665,11/01/2002,2020-08-27_15h47.06.759,proactive3.2,2020.1.2,Win32,60,5f47c0b9b035471e11593a5c,5f47c671586c801f1df22818,6,,,,,,microphone,,,,,,0,3,3,10,1,2,0,,,,,,,,,,,,,,,,,,,,,,,,,,,,,,,,,,,,,,,,,,,,,,,,,,,,,,,,,,,,,,,,,,,,,,,,,,,
,,,,,,,,,,stimuli/images/PICTURE_327.png,BEAUTY,5f3b14845efc2180b7600665,11/01/2002,2020-08-27_15h47.06.759,proactive3.2,2020.1.2,Win32,60,5f47c0b9b035471e11593a5c,5f47c671586c801f1df22818,6,,,,,,helmet,,,,,,0,4,4,48,1,5,0,,,,,,,,,,,,,,,,,,,,,,,,,,,,,,,,,,,,,,,,,,,,,,,,,,,,,,,,,,,,,,,,,,,,,,,,,,,
,,,,,,,,,,stimuli/images/PICTURE_667.png,PLENTY,5f3b14845efc2180b7600665,11/01/2002,2020-08-27_15h47.06.759,proactive3.2,2020.1.2,Win32,60,5f47c0b9b035471e11593a5c,5f47c671586c801f1df22818,6,,,,,,daisy,,,,,,0,5,5,41,1,5,0,,,,,,,,,,,,,,,,,,,,,,,,,,,,,,,,,,,,,,,,,,,,,,,,,,,,,,,,,,,,,,,,,,,,,,,,,,,
,,,,,,,,,,stimuli/images/PICTURE_356.png,DANGER,5f3b14845efc2180b7600665,11/01/2002,2020-08-27_15h47.06.759,proactive3.2,2020.1.2,Win32,60,5f47c0b9b035471e11593a5c,5f47c671586c801f1df22818,6,,,,,,pawn,,,,,,0,6,6,55,1,6,0,,,,,,,,,,,,,,,,,,,,,,,,,,,,,,,,,,,,,,,,,,,,,,,,,,,,,,,,,,,,,,,,,,,,,,,,,,,
,,,,,,,,,,stimuli/images/PICTURE_744.png,SAKE,5f3b14845efc2180b7600665,11/01/2002,2020-08-27_15h47.06.759,proactive3.2,2020.1.2,Win32,60,5f47c0b9b035471e11593a5c,5f47c671586c801f1df22818,6,,,,,,ring,,,,,,0,7,7,17,1,2,0,,,,,,,,,,,,,,,,,,,,,,,,,,,,,,,,,,,,,,,,,,,,,,,,,,,,,,,,,,,,,,,,,,,,,,,,,,,
,,,,,,,,,,stimuli/images/PICTURE_314.png,SAKE,5f3b14845efc2180b7600665,11/01/2002,2020-08-27_15h47.06.759,proactive3.2,2020.1.2,Win32,60,5f47c0b9b035471e11593a5c,5f47c671586c801f1df22818,6,,,,,,perfume,,,,,,0,8,8,7,1,1,0,,,,,,,,,,,,,,,,,,,,,,,,,,,,,,,,,,,,,,,,,,,,,,,,,,,,,,,,,,,,,,,,,,,,,,,,,,,
,,,,,,,,,,stimuli/images/PICTURE_453.png,DUDE,5f3b14845efc2180b7600665,11/01/2002,2020-08-27_15h47.06.759,proactive3.2,2020.1.2,Win32,60,5f47c0b9b035471e11593a5c,5f47c671586c801f1df22818,6,,,,,,scissors,,,,,,0,9,9,27,1,3,0,,,,,,,,,,,,,,,,,,,,,,,,,,,,,,,,,,,,,,,,,,,,,,,,,,,,,,,,,,,,,,,,,,,,,,,,,,,
,,,,,,,,,,stimuli/images/PICTURE_467.png,DEMON,5f3b14845efc2180b7600665,11/01/2002,2020-08-27_15h47.06.759,proactive3.2,2020.1.2,Win32,60,5f47c0b9b035471e11593a5c,5f47c671586c801f1df22818,6,,,,,,peg,,,,,,0,10,10,23,1,3,0,,,,,,,,,,,,,,,,,,,,,,,,,,,,,,,,,,,,,,,,,,,,,,,,,,,,,,,,,,,,,,,,,,,,,,,,,,,
,,,,,,,,,,stimuli/images/PICTURE_708.png,YARD,5f3b14845efc2180b7600665,11/01/2002,2020-08-27_15h47.06.759,proactive3.2,2020.1.2,Win32,60,5f47c0b9b035471e11593a5c,5f47c671586c801f1df22818,6,,,,,,monkey,,,,,,0,11,11,29,1,3,0,,,,,,,,,,,,,,,,,,,,,,,,,,,,,,,,,,,,,,,,,,,,,,,,,,,,,,,,,,,,,,,,,,,,,,,,,,,
,,,,,,,,,,stimuli/images/PICTURE_215.png,PLENTY,5f3b14845efc2180b7600665,11/01/2002,2020-08-27_15h47.06.759,proactive3.2,2020.1.2,Win32,60,5f47c0b9b035471e11593a5c,5f47c671586c801f1df22818,6,,,,,,boot,,,,,,0,12,12,37,1,4,0,,,,,,,,,,,,,,,,,,,,,,,,,,,,,,,,,,,,,,,,,,,,,,,,,,,,,,,,,,,,,,,,,,,,,,,,,,,
,,,,,,,,,,stimuli/images/PICTURE_147.png,MOMENT,5f3b14845efc2180b7600665,11/01/2002,2020-08-27_15h47.06.759,proactive3.2,2020.1.2,Win32,60,5f47c0b9b035471e11593a5c,5f47c671586c801f1df22818,6,,,,,,hanger,,,,,,0,13,13,51,1,6,0,,,,,,,,,,,,,,,,,,,,,,,,,,,,,,,,,,,,,,,,,,,,,,,,,,,,,,,,,,,,,,,,,,,,,,,,,,,
,,,,,,,,,,stimuli/images/PICTURE_255.png,AREA,5f3b14845efc2180b7600665,11/01/2002,2020-08-27_15h47.06.759,proactive3.2,2020.1.2,Win32,60,5f47c0b9b035471e11593a5c,5f47c671586c801f1df22818,6,,,,,,shovel,,,,,,0,14,14,22,1,3,0,,,,,,,,,,,,,,,,,,,,,,,,,,,,,,,,,,,,,,,,,,,,,,,,,,,,,,,,,,,,,,,,,,,,,,,,,,,
,,,,,,,,,,stimuli/images/PICTURE_151.png,GIRL,5f3b14845efc2180b7600665,11/01/2002,2020-08-27_15h47.06.759,proactive3.2,2020.1.2,Win32,60,5f47c0b9b035471e11593a5c,5f47c671586c801f1df22818,6,,,,,,tray,,,,,,0,15,15,19,1,2,0,,,,,,,,,,,,,,,,,,,,,,,,,,,,,,,,,,,,,,,,,,,,,,,,,,,,,,,,,,,,,,,,,,,,,,,,,,,
,,,,,,,,,,stimuli/images/PICTURE_744.png,SYSTEM,5f3b14845efc2180b7600665,11/01/2002,2020-08-27_15h47.06.759,proactive3.2,2020.1.2,Win32,60,5f47c0b9b035471e11593a5c,5f47c671586c801f1df22818,6,,,,,,ring,,,,,,0,16,16,43,1,5,0,,,,,,,,,,,,,,,,,,,,,,,,,,,,,,,,,,,,,,,,,,,,,,,,,,,,,,,,,,,,,,,,,,,,,,,,,,,
,,,,,,,,,,stimuli/images/PICTURE_487.png,FLIGHT,5f3b14845efc2180b7600665,11/01/2002,2020-08-27_15h47.06.759,proactive3.2,2020.1.2,Win32,60,5f47c0b9b035471e11593a5c,5f47c671586c801f1df22818,6,,,,,,basket,,,,,,0,17,17,9,1,1,0,,,,,,,,,,,,,,,,,,,,,,,,,,,,,,,,,,,,,,,,,,,,,,,,,,,,,,,,,,,,,,,,,,,,,,,,,,,
,,,,,,,,,,stimuli/images/PICTURE_208.png,MONTH,5f3b14845efc2180b7600665,11/01/2002,2020-08-27_15h47.06.759,proactive3.2,2020.1.2,Win32,60,5f47c0b9b035471e11593a5c,5f47c671586c801f1df22818,6,,,,,,microphone,,,,,,0,18,18,53,1,6,0,,,,,,,,,,,,,,,,,,,,,,,,,,,,,,,,,,,,,,,,,,,,,,,,,,,,,,,,,,,,,,,,,,,,,,,,,,,
,,,,,,,,,,stimuli/images/PICTURE_491.png,ROOF,5f3b14845efc2180b7600665,11/01/2002,2020-08-27_15h47.06.759,proactive3.2,2020.1.2,Win32,60,5f47c0b9b035471e11593a5c,5f47c671586c801f1df22818,6,,,,,,rug,,,,,,0,19,19,24,1,3,0,,,,,,,,,,,,,,,,,,,,,,,,,,,,,,,,,,,,,,,,,,,,,,,,,,,,,,,,,,,,,,,,,,,,,,,,,,,
,,,,,,,,,,stimuli/images/PICTURE_449.png,THING,5f3b14845efc2180b7600665,11/01/2002,2020-08-27_15h47.06.759,proactive3.2,2020.1.2,Win32,60,5f47c0b9b035471e11593a5c,5f47c671586c801f1df22818,6,,,,,,bench,,,,,,0,20,20,59,1,6,0,,,,,,,,,,,,,,,,,,,,,,,,,,,,,,,,,,,,,,,,,,,,,,,,,,,,,,,,,,,,,,,,,,,,,,,,,,,
,,,,,,,,,,stimuli/images/PICTURE_688.png,WOMEN,5f3b14845efc2180b7600665,11/01/2002,2020-08-27_15h47.06.759,proactive3.2,2020.1.2,Win32,60,5f47c0b9b035471e11593a5c,5f47c671586c801f1df22818,6,,,,,,runner,,,,,,0,21,21,14,1,2,0,,,,,,,,,,,,,,,,,,,,,,,,,,,,,,,,,,,,,,,,,,,,,,,,,,,,,,,,,,,,,,,,,,,,,,,,,,,
,,,,,,,,,,stimuli/images/PICTURE_314.png,GODS,5f3b14845efc2180b7600665,11/01/2002,2020-08-27_15h47.06.759,proactive3.2,2020.1.2,Win32,60,5f47c0b9b035471e11593a5c,5f47c671586c801f1df22818,6,,,,,,perfume,,,,,,0,22,22,11,1,2,0,,,,,,,,,,,,,,,,,,,,,,,,,,,,,,,,,,,,,,,,,,,,,,,,,,,,,,,,,,,,,,,,,,,,,,,,,,,
,,,,,,,,,,stimuli/images/PICTURE_68.png,MILE,5f3b14845efc2180b7600665,11/01/2002,2020-08-27_15h47.06.759,proactive3.2,2020.1.2,Win32,60,5f47c0b9b035471e11593a5c,5f47c671586c801f1df22818,6,,,,,,candle,,,,,,0,23,23,44,1,5,0,,,,,,,,,,,,,,,,,,,,,,,,,,,,,,,,,,,,,,,,,,,,,,,,,,,,,,,,,,,,,,,,,,,,,,,,,,,
,,,,,,,,,,stimuli/images/PICTURE_177.png,CARS,5f3b14845efc2180b7600665,11/01/2002,2020-08-27_15h47.06.759,proactive3.2,2020.1.2,Win32,60,5f47c0b9b035471e11593a5c,5f47c671586c801f1df22818,6,,,,,,mushroom,,,,,,0,24,24,35,1,4,0,,,,,,,,,,,,,,,,,,,,,,,,,,,,,,,,,,,,,,,,,,,,,,,,,,,,,,,,,,,,,,,,,,,,,,,,,,,
,,,,,,,,,,stimuli/images/PICTURE_308.png,ESTATE,5f3b14845efc2180b7600665,11/01/2002,2020-08-27_15h47.06.759,proactive3.2,2020.1.2,Win32,60,5f47c0b9b035471e11593a5c,5f47c671586c801f1df22818,6,,,,,,dice,,,,,,0,25,25,46,1,5,0,,,,,,,,,,,,,,,,,,,,,,,,,,,,,,,,,,,,,,,,,,,,,,,,,,,,,,,,,,,,,,,,,,,,,,,,,,,
,,,,,,,,,,stimuli/images/PICTURE_667.png,BATH,5f3b14845efc2180b7600665,11/01/2002,2020-08-27_15h47.06.759,proactive3.2,2020.1.2,Win32,60,5f47c0b9b035471e11593a5c,5f47c671586c801f1df22818,6,,,,,,daisy,,,,,,0,26,26,4,1,1,0,,,,,,,,,,,,,,,,,,,,,,,,,,,,,,,,,,,,,,,,,,,,,,,,,,,,,,,,,,,,,,,,,,,,,,,,,,,
,,,,,,,,,,stimuli/images/PICTURE_285.png,ADVICE,5f3b14845efc2180b7600665,11/01/2002,2020-08-27_15h47.06.759,proactive3.2,2020.1.2,Win32,60,5f47c0b9b035471e11593a5c,5f47c671586c801f1df22818,6,,,,,,carrot,,,,,,0,27,27,12,1,2,0,,,,,,,,,,,,,,,,,,,,,,,,,,,,,,,,,,,,,,,,,,,,,,,,,,,,,,,,,,,,,,,,,,,,,,,,,,,
,,,,,,,,,,stimuli/images/PICTURE_470.png,CASINO,5f3b14845efc2180b7600665,11/01/2002,2020-08-27_15h47.06.759,proactive3.2,2020.1.2,Win32,60,5f47c0b9b035471e11593a5c,5f47c671586c801f1df22818,6,,,,,,motorbike,,,,,,0,28,28,36,1,4,0,,,,,,,,,,,,,,,,,,,,,,,,,,,,,,,,,,,,,,,,,,,,,,,,,,,,,,,,,,,,,,,,,,,,,,,,,,,
,,,,,,,,,,stimuli/images/PICTURE_160.png,FEET,5f3b14845efc2180b7600665,11/01/2002,2020-08-27_15h47.06.759,proactive3.2,2020.1.2,Win32,60,5f47c0b9b035471e11593a5c,5f47c671586c801f1df22818,6,,,,,,wheelbarrow,,,,,,0,29,29,58,1,6,0,,,,,,,,,,,,,,,,,,,,,,,,,,,,,,,,,,,,,,,,,,,,,,,,,,,,,,,,,,,,,,,,,,,,,,,,,,,
,,,,,,,,,,stimuli/images/PICTURE_708.png,CLIENT,5f3b14845efc2180b7600665,11/01/2002,2020-08-27_15h47.06.759,proactive3.2,2020.1.2,Win32,60,5f47c0b9b035471e11593a5c,5f47c671586c801f1df22818,6,,,,,,monkey,,,,,,0,30,30,5,1,1,0,,,,,,,,,,,,,,,,,,,,,,,,,,,,,,,,,,,,,,,,,,,,,,,,,,,,,,,,,,,,,,,,,,,,,,,,,,,
,,,,,,,,,,stimuli/images/PICTURE_302.png,FAMILY,5f3b14845efc2180b7600665,11/01/2002,2020-08-27_15h47.06.759,proactive3.2,2020.1.2,Win32,60,5f47c0b9b035471e11593a5c,5f47c671586c801f1df22818,6,,,,,,taxi,,,,,,0,31,31,18,1,2,0,,,,,,,,,,,,,,,,,,,,,,,,,,,,,,,,,,,,,,,,,,,,,,,,,,,,,,,,,,,,,,,,,,,,,,,,,,,
,,,,,,,,,,stimuli/images/PICTURE_708.png,PENNY,5f3b14845efc2180b7600665,11/01/2002,2020-08-27_15h47.06.759,proactive3.2,2020.1.2,Win32,60,5f47c0b9b035471e11593a5c,5f47c671586c801f1df22818,6,,,,,,monkey,,,,,,0,32,32,31,1,4,0,,,,,,,,,,,,,,,,,,,,,,,,,,,,,,,,,,,,,,,,,,,,,,,,,,,,,,,,,,,,,,,,,,,,,,,,,,,
,,,,,,,,,,stimuli/images/PICTURE_654.png,VALLEY,5f3b14845efc2180b7600665,11/01/2002,2020-08-27_15h47.06.759,proactive3.2,2020.1.2,Win32,60,5f47c0b9b035471e11593a5c,5f47c671586c801f1df22818,6,,,,,,pencil,,,,,,0,33,33,1,1,1,0,,,,,,,,,,,,,,,,,,,,,,,,,,,,,,,,,,,,,,,,,,,,,,,,,,,,,,,,,,,,,,,,,,,,,,,,,,,
,,,,,,,,,,stimuli/images/PICTURE_233.png,IDEAS,5f3b14845efc2180b7600665,11/01/2002,2020-08-27_15h47.06.759,proactive3.2,2020.1.2,Win32,60,5f47c0b9b035471e11593a5c,5f47c671586c801f1df22818,6,,,,,,salt,,,,,,0,34,34,28,1,3,0,,,,,,,,,,,,,,,,,,,,,,,,,,,,,,,,,,,,,,,,,,,,,,,,,,,,,,,,,,,,,,,,,,,,,,,,,,,
,,,,,,,,,,stimuli/images/PICTURE_208.png,THING,5f3b14845efc2180b7600665,11/01/2002,2020-08-27_15h47.06.759,proactive3.2,2020.1.2,Win32,60,5f47c0b9b035471e11593a5c,5f47c671586c801f1df22818,6,,,,,,microphone,,,,,,0,35,35,47,1,5,0,,,,,,,,,,,,,,,,,,,,,,,,,,,,,,,,,,,,,,,,,,,,,,,,,,,,,,,,,,,,,,,,,,,,,,,,,,,
,,,,,,,,,,stimuli/images/PICTURE_509.png,PHOTO,5f3b14845efc2180b7600665,11/01/2002,2020-08-27_15h47.06.759,proactive3.2,2020.1.2,Win32,60,5f47c0b9b035471e11593a5c,5f47c671586c801f1df22818,6,,,,,,telephone,,,,,,0,36,36,21,1,3,0,,,,,,,,,,,,,,,,,,,,,,,,,,,,,,,,,,,,,,,,,,,,,,,,,,,,,,,,,,,,,,,,,,,,,,,,,,,
,,,,,,,,,,stimuli/images/PICTURE_233.png,WOMEN,5f3b14845efc2180b7600665,11/01/2002,2020-08-27_15h47.06.759,proactive3.2,2020.1.2,Win32,60,5f47c0b9b035471e11593a5c,5f47c671586c801f1df22818,6,,,,,,salt,,,,,,0,37,37,38,1,4,0,,,,,,,,,,,,,,,,,,,,,,,,,,,,,,,,,,,,,,,,,,,,,,,,,,,,,,,,,,,,,,,,,,,,,,,,,,,
,,,,,,,,,,stimuli/images/PICTURE_248.png,DOZEN,5f3b14845efc2180b7600665,11/01/2002,2020-08-27_15h47.06.759,proactive3.2,2020.1.2,Win32,60,5f47c0b9b035471e11593a5c,5f47c671586c801f1df22818,6,,,,,,cart,,,,,,0,38,38,39,1,4,0,,,,,,,,,,,,,,,,,,,,,,,,,,,,,,,,,,,,,,,,,,,,,,,,,,,,,,,,,,,,,,,,,,,,,,,,,,,
,,,,,,,,,,stimuli/images/PICTURE_308.png,KIND,5f3b14845efc2180b7600665,11/01/2002,2020-08-27_15h47.06.759,proactive3.2,2020.1.2,Win32,60,5f47c0b9b035471e11593a5c,5f47c671586c801f1df22818,6,,,,,,dice,,,,,,0,39,39,54,1,6,0,,,,,,,,,,,,,,,,,,,,,,,,,,,,,,,,,,,,,,,,,,,,,,,,,,,,,,,,,,,,,,,,,,,,,,,,,,,
,,,,,,,,,,stimuli/images/PICTURE_203.png,ARTIST,5f3b14845efc2180b7600665,11/01/2002,2020-08-27_15h47.06.759,proactive3.2,2020.1.2,Win32,60,5f47c0b9b035471e11593a5c,5f47c671586c801f1df22818,6,,,,,,cap,,,,,,0,40,40,26,1,3,0,,,,,,,,,,,,,,,,,,,,,,,,,,,,,,,,,,,,,,,,,,,,,,,,,,,,,,,,,,,,,,,,,,,,,,,,,,,
,,,,,,,,,,stimuli/images/PICTURE_160.png,LEADER,5f3b14845efc2180b7600665,11/01/2002,2020-08-27_15h47.06.759,proactive3.2,2020.1.2,Win32,60,5f47c0b9b035471e11593a5c,5f47c671586c801f1df22818,6,,,,,,wheelbarrow,,,,,,0,41,41,3,1,1,0,,,,,,,,,,,,,,,,,,,,,,,,,,,,,,,,,,,,,,,,,,,,,,,,,,,,,,,,,,,,,,,,,,,,,,,,,,,
,,,,,,,,,,stimuli/images/PICTURE_469.png,ARTIST,5f3b14845efc2180b7600665,11/01/2002,2020-08-27_15h47.06.759,proactive3.2,2020.1.2,Win32,60,5f47c0b9b035471e11593a5c,5f47c671586c801f1df22818,6,,,,,,stool,,,,,,0,42,42,6,1,1,0,,,,,,,,,,,,,,,,,,,,,,,,,,,,,,,,,,,,,,,,,,,,,,,,,,,,,,,,,,,,,,,,,,,,,,,,,,,
,,,,,,,,,,stimuli/images/PICTURE_380.png,PHOTO,5f3b14845efc2180b7600665,11/01/2002,2020-08-27_15h47.06.759,proactive3.2,2020.1.2,Win32,60,5f47c0b9b035471e11593a5c,5f47c671586c801f1df22818,6,,,,,,gorilla,,,,,,0,43,43,52,1,6,0,,,,,,,,,,,,,,,,,,,,,,,,,,,,,,,,,,,,,,,,,,,,,,,,,,,,,,,,,,,,,,,,,,,,,,,,,,,
,,,,,,,,,,stimuli/images/PICTURE_311.png,FRIEND,5f3b14845efc2180b7600665,11/01/2002,2020-08-27_15h47.06.759,proactive3.2,2020.1.2,Win32,60,5f47c0b9b035471e11593a5c,5f47c671586c801f1df22818,6,,,,,,razor,,,,,,0,44,44,34,1,4,0,,,,,,,,,,,,,,,,,,,,,,,,,,,,,,,,,,,,,,,,,,,,,,,,,,,,,,,,,,,,,,,,,,,,,,,,,,,
,,,,,,,,,,stimuli/images/PICTURE_95.png,STYLE,5f3b14845efc2180b7600665,11/01/2002,2020-08-27_15h47.06.759,proactive3.2,2020.1.2,Win32,60,5f47c0b9b035471e11593a5c,5f47c671586c801f1df22818,6,,,,,,suitcase,,,,,,0,45,45,25,1,3,0,,,,,,,,,,,,,,,,,,,,,,,,,,,,,,,,,,,,,,,,,,,,,,,,,,,,,,,,,,,,,,,,,,,,,,,,,,,
,,,,,,,,,,stimuli/images/PICTURE_491.png,WRITER,5f3b14845efc2180b7600665,11/01/2002,2020-08-27_15h47.06.759,proactive3.2,2020.1.2,Win32,60,5f47c0b9b035471e11593a5c,5f47c671586c801f1df22818,6,,,,,,rug,,,,,,0,46,46,57,1,6,0,,,,,,,,,,,,,,,,,,,,,,,,,,,,,,,,,,,,,,,,,,,,,,,,,,,,,,,,,,,,,,,,,,,,,,,,,,,
,,,,,,,,,,stimuli/images/PICTURE_677.png,MILE,5f3b14845efc2180b7600665,11/01/2002,2020-08-27_15h47.06.759,proactive3.2,2020.1.2,Win32,60,5f47c0b9b035471e11593a5c,5f47c671586c801f1df22818,6,,,,,,map,,,,,,0,47,47,30,1,4,0,,,,,,,,,,,,,,,,,,,,,,,,,,,,,,,,,,,,,,,,,,,,,,,,,,,,,,,,,,,,,,,,,,,,,,,,,,,
,,,,,,,,,,stimuli/images/PICTURE_380.png,DEATH,5f3b14845efc2180b7600665,11/01/2002,2020-08-27_15h47.06.759,proactive3.2,2020.1.2,Win32,60,5f47c0b9b035471e11593a5c,5f47c671586c801f1df22818,6,,,,,,gorilla,,,,,,0,48,48,49,1,5,0,,,,,,,,,,,,,,,,,,,,,,,,,,,,,,,,,,,,,,,,,,,,,,,,,,,,,,,,,,,,,,,,,,,,,,,,,,,
,,,,,,,,,,stimuli/images/PICTURE_469.png,LETTER,5f3b14845efc2180b7600665,11/01/2002,2020-08-27_15h47.06.759,proactive3.2,2020.1.2,Win32,60,5f47c0b9b035471e11593a5c,5f47c671586c801f1df22818,6,,,,,,stool,,,,,,0,49,49,42,1,5,0,,,,,,,,,,,,,,,,,,,,,,,,,,,,,,,,,,,,,,,,,,,,,,,,,,,,,,,,,,,,,,,,,,,,,,,,,,,
,,,,,,,,,,stimuli/images/PICTURE_348.png,SPEECH,5f3b14845efc2180b7600665,11/01/2002,2020-08-27_15h47.06.759,proactive3.2,2020.1.2,Win32,60,5f47c0b9b035471e11593a5c,5f47c671586c801f1df22818,6,,,,,,pepper,,,,,,0,50,50,20,1,3,0,,,,,,,,,,,,,,,,,,,,,,,,,,,,,,,,,,,,,,,,,,,,,,,,,,,,,,,,,,,,,,,,,,,,,,,,,,,
,,,,,,,,,,stimuli/images/PICTURE_675.png,WEAPON,5f3b14845efc2180b7600665,11/01/2002,2020-08-27_15h47.06.759,proactive3.2,2020.1.2,Win32,60,5f47c0b9b035471e11593a5c,5f47c671586c801f1df22818,6,,,,,,windmill,,,,,,0,51,51,32,1,4,0,,,,,,,,,,,,,,,,,,,,,,,,,,,,,,,,,,,,,,,,,,,,,,,,,,,,,,,,,,,,,,,,,,,,,,,,,,,
,,,,,,,,,,stimuli/images/PICTURE_123.png,ADVICE,5f3b14845efc2180b7600665,11/01/2002,2020-08-27_15h47.06.759,proactive3.2,2020.1.2,Win32,60,5f47c0b9b035471e11593a5c,5f47c671586c801f1df22818,6,,,,,,dart,,,,,,0,52,52,40,1,5,0,,,,,,,,,,,,,,,,,,,,,,,,,,,,,,,,,,,,,,,,,,,,,,,,,,,,,,,,,,,,,,,,,,,,,,,,,,,
,,,,,,,,,,stimuli/images/PICTURE_488.png,STYLE,5f3b14845efc2180b7600665,11/01/2002,2020-08-27_15h47.06.759,proactive3.2,2020.1.2,Win32,60,5f47c0b9b035471e11593a5c,5f47c671586c801f1df22818,6,,,,,,sun,,,,,,0,53,53,33,1,4,0,,,,,,,,,,,,,,,,,,,,,,,,,,,,,,,,,,,,,,,,,,,,,,,,,,,,,,,,,,,,,,,,,,,,,,,,,,,
,,,,,,,,,,stimuli/images/PICTURE_85.png,THING,5f3b14845efc2180b7600665,11/01/2002,2020-08-27_15h47.06.759,proactive3.2,2020.1.2,Win32,60,5f47c0b9b035471e11593a5c,5f47c671586c801f1df22818,6,,,,,,diamond,,,,,,0,54,54,15,1,2,0,,,,,,,,,,,,,,,,,,,,,,,,,,,,,,,,,,,,,,,,,,,,,,,,,,,,,,,,,,,,,,,,,,,,,,,,,,,
,,,,,,,,,,stimuli/images/PICTURE_311.png,BEAUTY,5f3b14845efc2180b7600665,11/01/2002,2020-08-27_15h47.06.759,proactive3.2,2020.1.2,Win32,60,5f47c0b9b035471e11593a5c,5f47c671586c801f1df22818,6,,,,,,razor,,,,,,0,55,55,13,1,2,0,,,,,,,,,,,,,,,,,,,,,,,,,,,,,,,,,,,,,,,,,,,,,,,,,,,,,,,,,,,,,,,,,,,,,,,,,,,
,,,,,,,,,,stimuli/images/PICTURE_32.png,JUNGLE,5f3b14845efc2180b7600665,11/01/2002,2020-08-27_15h47.06.759,proactive3.2,2020.1.2,Win32,60,5f47c0b9b035471e11593a5c,5f47c671586c801f1df22818,6,,,,,,crown,,,,,,0,56,56,45,1,5,0,,,,,,,,,,,,,,,,,,,,,,,,,,,,,,,,,,,,,,,,,,,,,,,,,,,,,,,,,,,,,,,,,,,,,,,,,,,
,,,,,,,,,,stimuli/images/PICTURE_453.png,PLENTY,5f3b14845efc2180b7600665,11/01/2002,2020-08-27_15h47.06.759,proactive3.2,2020.1.2,Win32,60,5f47c0b9b035471e11593a5c,5f47c671586c801f1df22818,6,,,,,,scissors,,,,,,0,57,57,56,1,6,0,,,,,,,,,,,,,,,,,,,,,,,,,,,,,,,,,,,,,,,,,,,,,,,,,,,,,,,,,,,,,,,,,,,,,,,,,,,
,,,,,,,,,,stimuli/images/PICTURE_123.png,ADVICE,5f3b14845efc2180b7600665,11/01/2002,2020-08-27_15h47.06.759,proactive3.2,2020.1.2,Win32,60,5f47c0b9b035471e11593a5c,5f47c671586c801f1df22818,6,,,,,,dart,,,,,,0,58,58,50,1,6,0,,,,,,,,,,,,,,,,,,,,,,,,,,,,,,,,,,,,,,,,,,,,,,,,,,,,,,,,,,,,,,,,,,,,,,,,,,,
,,?,4.91627,0,,,,,,stimuli/images/PICTURE_208.png,MONTH,5f3b14845efc2180b7600665,11/01/2002,2020-08-27_15h47.06.759,proactive3.2,2020.1.2,Win32,60,5f47c0b9b035471e11593a5c,5f47c671586c801f1df22818,6,,,,,,microphone,,,,,,,,,,,6,0,0,0,0,53,1,,,,,,,,,,,,,,,,,,,,,,,,,,,,,,,,,,,,,,,,,,,,,,,,,,,,,,,,,,,,,,,,,,,,,,
,,?,0.00205,0,,,,,,stimuli/images/PICTURE_708.png,CLIENT,5f3b14845efc2180b7600665,11/01/2002,2020-08-27_15h47.06.759,proactive3.2,2020.1.2,Win32,60,5f47c0b9b035471e11593a5c,5f47c671586c801f1df22818,6,,,,,,monkey,,,,,,,,,,,1,0,0,1,1,5,1,,,,,,,,,,,,,,,,,,,,,,,,,,,,,,,,,,,,,,,,,,,,,,,,,,,,,,,,,,,,,,,,,,,,,,
,,LETTER,3.607765,0,,,,,,stimuli/images/PICTURE_491.png,WRITER,5f3b14845efc2180b7600665,11/01/2002,2020-08-27_15h47.06.759,proactive3.2,2020.1.2,Win32,60,5f47c0b9b035471e11593a5c,5f47c671586c801f1df22818,6,,,,,,rug,,,,,,,,,,,6,0,0,2,2,57,1,,,,,,,,,,,,,,,,,,,,,,,,,,,,,,,,,,,,,,,,,,,,,,,,,,,,,,,,,,,,,,,,,,,,,,
,,?,0.001585,0,,,,,,stimuli/images/PICTURE_215.png,PLENTY,5f3b14845efc2180b7600665,11/01/2002,2020-08-27_15h47.06.759,proactive3.2,2020.1.2,Win32,60,5f47c0b9b035471e11593a5c,5f47c671586c801f1df22818,6,,,,,,boot,,,,,,,,,,,4,0,0,3,3,37,1,,,,,,,,,,,,,,,,,,,,,,,,,,,,,,,,,,,,,,,,,,,,,,,,,,,,,,,,,,,,,,,,,,,,,,
,,?,3.91018,0,,,,,,stimuli/images/PICTURE_449.png,THING,5f3b14845efc2180b7600665,11/01/2002,2020-08-27_15h47.06.759,proactive3.2,2020.1.2,Win32,60,5f47c0b9b035471e11593a5c,5f47c671586c801f1df22818,6,,,,,,bench,,,,,,,,,,,6,0,0,4,4,59,1,,,,,,,,,,,,,,,,,,,,,,,,,,,,,,,,,,,,,,,,,,,,,,,,,,,,,,,,,,,,,,,,,,,,,,
,,?,0.0026,0,,,,,,stimuli/images/PICTURE_311.png,BEAUTY,5f3b14845efc2180b7600665,11/01/2002,2020-08-27_15h47.06.759,proactive3.2,2020.1.2,Win32,60,5f47c0b9b035471e11593a5c,5f47c671586c801f1df22818,6,,,,,,razor,,,,,,,,,,,2,0,0,5,5,13,1,,,,,,,,,,,,,,,,,,,,,,,,,,,,,,,,,,,,,,,,,,,,,,,,,,,,,,,,,,,,,,,,,,,,,,
,,?,0.002335,0,,,,,,stimuli/images/PICTURE_469.png,ARTIST,5f3b14845efc2180b7600665,11/01/2002,2020-08-27_15h47.06.759,proactive3.2,2020.1.2,Win32,60,5f47c0b9b035471e11593a5c,5f47c671586c801f1df22818,6,,,,,,stool,,,,,,,,,,,1,0,0,6,6,6,1,,,,,,,,,,,,,,,,,,,,,,,,,,,,,,,,,,,,,,,,,,,,,,,,,,,,,,,,,,,,,,,,,,,,,,
,,?,0.003415,0,,,,,,stimuli/images/PICTURE_744.png,SYSTEM,5f3b14845efc2180b7600665,11/01/2002,2020-08-27_15h47.06.759,proactive3.2,2020.1.2,Win32,60,5f47c0b9b035471e11593a5c,5f47c671586c801f1df22818,6,,,,,,ring,,,,,,,,,,,5,0,0,7,7,43,1,,,,,,,,,,,,,,,,,,,,,,,,,,,,,,,,,,,,,,,,,,,,,,,,,,,,,,,,,,,,,,,,,,,,,,
,,?,0.002335,0,,,,,,stimuli/images/PICTURE_32.png,JUNGLE,5f3b14845efc2180b7600665,11/01/2002,2020-08-27_15h47.06.759,proactive3.2,2020.1.2,Win32,60,5f47c0b9b035471e11593a5c,5f47c671586c801f1df22818,6,,,,,,crown,,,,,,,,,,,5,0,0,8,8,45,1,,,,,,,,,,,,,,,,,,,,,,,,,,,,,,,,,,,,,,,,,,,,,,,,,,,,,,,,,,,,,,,,,,,,,,
,,?,0.00874,0,,,,,,stimuli/images/PICTURE_339.png,PLENTY,5f3b14845efc2180b7600665,11/01/2002,2020-08-27_15h47.06.759,proactive3.2,2020.1.2,Win32,60,5f47c0b9b035471e11593a5c,5f47c671586c801f1df22818,6,,,,,,backpack,,,,,,,,,,,1,0,0,9,9,0,1,,,,,,,,,,,,,,,,,,,,,,,,,,,,,,,,,,,,,,,,,,,,,,,,,,,,,,,,,,,,,,,,,,,,,,
,,?,0.00216,0,,,,,,stimuli/images/PICTURE_302.png,FAMILY,5f3b14845efc2180b7600665,11/01/2002,2020-08-27_15h47.06.759,proactive3.2,2020.1.2,Win32,60,5f47c0b9b035471e11593a5c,5f47c671586c801f1df22818,6,,,,,,taxi,,,,,,,,,,,2,0,0,10,10,18,1,,,,,,,,,,,,,,,,,,,,,,,,,,,,,,,,,,,,,,,,,,,,,,,,,,,,,,,,,,,,,,,,,,,,,,
,,?,0.007585,0,,,,,,stimuli/images/PICTURE_509.png,PHOTO,5f3b14845efc2180b7600665,11/01/2002,2020-08-27_15h47.06.759,proactive3.2,2020.1.2,Win32,60,5f47c0b9b035471e11593a5c,5f47c671586c801f1df22818,6,,,,,,telephone,,,,,,,,,,,3,0,0,11,11,21,1,,,,,,,,,,,,,,,,,,,,,,,,,,,,,,,,,,,,,,,,,,,,,,,,,,,,,,,,,,,,,,,,,,,,,,
,,?,2.326965,0,,,,,,stimuli/images/PICTURE_123.png,ADVICE,5f3b14845efc2180b7600665,11/01/2002,2020-08-27_15h47.06.759,proactive3.2,2020.1.2,Win32,60,5f47c0b9b035471e11593a5c,5f47c671586c801f1df22818,6,,,,,,dart,,,,,,,,,,,6,0,0,12,12,50,1,,,,,,,,,,,,,,,,,,,,,,,,,,,,,,,,,,,,,,,,,,,,,,,,,,,,,,,,,,,,,,,,,,,,,,
,,?,0.002805,0,,,,,,stimuli/images/PICTURE_708.png,YARD,5f3b14845efc2180b7600665,11/01/2002,2020-08-27_15h47.06.759,proactive3.2,2020.1.2,Win32,60,5f47c0b9b035471e11593a5c,5f47c671586c801f1df22818,6,,,,,,monkey,,,,,,,,,,,3,0,0,13,13,29,1,,,,,,,,,,,,,,,,,,,,,,,,,,,,,,,,,,,,,,,,,,,,,,,,,,,,,,,,,,,,,,,,,,,,,,
