consent_key.keys,consent_key.rt,recalled,recalled_rt,recall_acc,example_recall.thisRepN,example_recall.thisTrialN,example_recall.thisN,example_recall.thisIndex,example_recall.ran,file,word,participant,please enter your date of birth (dd/mm/yyyy),date,expName,psychopyVersion,OS,frameRate,STUDY_ID,SESSION_ID,list,prac_learn_study_loop.thisRepN,prac_learn_study_loop.thisTrialN,prac_learn_study_loop.thisN,prac_learn_study_loop.thisIndex,prac_learn_study_loop.ran,image,prac_learn_test_loop.thisRepN,prac_learn_test_loop.thisTrialN,prac_learn_test_loop.thisN,prac_learn_test_loop.thisIndex,prac_learn_test_loop.ran,learn_study_loop.thisRepN,learn_study_loop.thisTrialN,learn_study_loop.thisN,learn_study_loop.thisIndex,learn_study_loop.ran,list_no,block_no,learn_test_loop.thisRepN,learn_test_loop.thisTrialN,learn_test_loop.thisN,learn_test_loop.thisIndex,learn_test_loop.ran,learn_blocks.thisRepN,learn_blocks.thisTrialN,learn_blocks.thisN,learn_blocks.thisIndex,learn_blocks.ran,block_csv,key_resp_13.keys,key_resp_13.rt,learn_blocks_loop.thisRepN,learn_blocks_loop.thisTrialN,learn_blocks_loop.thisN,learn_blocks_loop.thisIndex,learn_blocks_loop.ran,final_learn_test.thisRepN,final_learn_test.thisTrialN,final_learn_test.thisN,final_learn_test.thisIndex,final_learn_test.ran,prac_wm_test_loop.thisRepN,prac_wm_test_loop.thisTrialN,prac_wm_test_loop.thisN,prac_wm_test_loop.thisIndex,prac_wm_test_loop.ran,wm_recalled1,wm_recall_rt1,wm_probed1,wm_recall_acc1,wm_recalled2,wm_recall_rt2,wm_probed2,wm_recall_acc2,wm_recalled3,wm_recall_rt3,wm_probed3,wm_recall_acc3,wm_recalled4,wm_recall_rt4,wm_probed4,wm_recall_acc4,prac_wm_trial_loop.thisRepN,prac_wm_trial_loop.thisTrialN,prac_wm_trial_loop.thisN,prac_wm_trial_loop.thisIndex,prac_wm_trial_loop.ran,word1,image1,file1,item_type1,word2,image2,file2,item_type2,word4,image4,file4,item_type4,word3,image3,file3,item_type3,wm_test_loop.thisRepN,wm_test_loop.thisTrialN,wm_test_loop.thisN,wm_test_loop.thisIndex,wm_test_loop.ran,wm_trial_loop.thisRepN,wm_trial_loop.thisTrialN,wm_trial_loop.thisN,wm_trial_loop.thisIndex,wm_trial_loop.ran
y,20.17604,TOUGH,2.16969,1,0,0,0,0,1,stimuli/images/PICTURE_747.png,TOUGH,5f3bccb10da2a70993ec38f2,08/05/1994,2020-09-02_12h40.31.345,proactive3.2,2020.1.2,Win32,60,5f47c0b9b035471e11593a5c,5f4f849481a77803ee32d4ff,4,,,,,,,,,,,,,,,,,,,,,,,,,,,,,,,,,,,,,,,,,,,,,,,,,,,,,,,,,,,,,,,,,,,,,,,,,,,,,,,,,,,,,,,,,,,,,
,,,,,,,,,,stimuli/images/PICTURE_658.png,DEVIL,5f3bccb10da2a70993ec38f2,08/05/1994,2020-09-02_12h40.31.345,proactive3.2,2020.1.2,Win32,60,5f47c0b9b035471e11593a5c,5f4f849481a77803ee32d4ff,4,0,0,0,3,1,crow,,,,,,,,,,,,,,,,,,,,,,,,,,,,,,,,,,,,,,,,,,,,,,,,,,,,,,,,,,,,,,,,,,,,,,,,,,,,,,,,,,,,,,,
,,,,,,,,,,stimuli/images/PICTURE_378.png,LOSS,5f3bccb10da2a70993ec38f2,08/05/1994,2020-09-02_12h40.31.345,proactive3.2,2020.1.2,Win32,60,5f47c0b9b035471e11593a5c,5f4f849481a77803ee32d4ff,4,0,1,1,2,1,lobster,,,,,,,,,,,,,,,,,,,,,,,,,,,,,,,,,,,,,,,,,,,,,,,,,,,,,,,,,,,,,,,,,,,,,,,,,,,,,,,,,,,,,,,
,,,,,,,,,,stimuli/images/PICTURE_727.png,CELL,5f3bccb10da2a70993ec38f2,08/05/1994,2020-09-02_12h40.31.345,proactive3.2,2020.1.2,Win32,60,5f47c0b9b035471e11593a5c,5f4f849481a77803ee32d4ff,4,0,2,2,1,1,hose,,,,,,,,,,,,,,,,,,,,,,,,,,,,,,,,,,,,,,,,,,,,,,,,,,,,,,,,,,,,,,,,,,,,,,,,,,,,,,,,,,,,,,,
,,,,,,,,,,stimuli/images/PICTURE_269.png,GENIUS,5f3bccb10da2a70993ec38f2,08/05/1994,2020-09-02_12h40.31.345,proactive3.2,2020.1.2,Win32,60,5f47c0b9b035471e11593a5c,5f4f849481a77803ee32d4ff,4,0,3,3,0,1,chameleon,,,,,,,,,,,,,,,,,,,,,,,,,,,,,,,,,,,,,,,,,,,,,,,,,,,,,,,,,,,,,,,,,,,,,,,,,,,,,,,,,,,,,,,
,,GENIUS,5.56315,1,,,,,,stimuli/images/PICTURE_269.png,GENIUS,5f3bccb10da2a70993ec38f2,08/05/1994,2020-09-02_12h40.31.345,proactive3.2,2020.1.2,Win32,60,5f47c0b9b035471e11593a5c,5f4f849481a77803ee32d4ff,4,,,,,,chameleon,0,0,0,0,1,,,,,,,,,,,,,,,,,,,,,,,,,,,,,,,,,,,,,,,,,,,,,,,,,,,,,,,,,,,,,,,,,,,,,,,,,,,,,,,,,,
,,CELL,1.46591,1,,,,,,stimuli/images/PICTURE_727.png,CELL,5f3bccb10da2a70993ec38f2,08/05/1994,2020-09-02_12h40.31.345,proactive3.2,2020.1.2,Win32,60,5f47c0b9b035471e11593a5c,5f4f849481a77803ee32d4ff,4,,,,,,hose,0,1,1,1,1,,,,,,,,,,,,,,,,,,,,,,,,,,,,,,,,,,,,,,,,,,,,,,,,,,,,,,,,,,,,,,,,,,,,,,,,,,,,,,,,,,
,,KILLER,1.75052,1,,,,,,stimuli/images/PICTURE_697.png,KILLER,5f3bccb10da2a70993ec38f2,08/05/1994,2020-09-02_12h40.31.345,proactive3.2,2020.1.2,Win32,60,5f47c0b9b035471e11593a5c,5f4f849481a77803ee32d4ff,4,,,,,,peach,0,2,2,4,1,,,,,,,,,,,,,,,,,,,,,,,,,,,,,,,,,,,,,,,,,,,,,,,,,,,,,,,,,,,,,,,,,,,,,,,,,,,,,,,,,,
,,DEVIL,1.982385,1,,,,,,stimuli/images/PICTURE_658.png,DEVIL,5f3bccb10da2a70993ec38f2,08/05/1994,2020-09-02_12h40.31.345,proactive3.2,2020.1.2,Win32,60,5f47c0b9b035471e11593a5c,5f4f849481a77803ee32d4ff,4,,,,,,crow,0,3,3,3,1,,,,,,,,,,,,,,,,,,,,,,,,,,,,,,,,,,,,,,,,,,,,,,,,,,,,,,,,,,,,,,,,,,,,,,,,,,,,,,,,,,
,,LOSS,1.46741,1,,,,,,stimuli/images/PICTURE_378.png,LOSS,5f3bccb10da2a70993ec38f2,08/05/1994,2020-09-02_12h40.31.345,proactive3.2,2020.1.2,Win32,60,5f47c0b9b035471e11593a5c,5f4f849481a77803ee32d4ff,4,,,,,,lobster,0,4,4,2,1,,,,,,,,,,,,,,,,,,,,,,,,,,,,,,,,,,,,,,,,,,,,,,,,,,,,,,,,,,,,,,,,,,,,,,,,,,,,,,,,,,
,,,,,,,,,,stimuli/images/PICTURE_285.png,WRITER,5f3bccb10da2a70993ec38f2,08/05/1994,2020-09-02_12h40.31.345,proactive3.2,2020.1.2,Win32,60,5f47c0b9b035471e11593a5c,5f4f849481a77803ee32d4ff,4,,,,,,carrot,,,,,,0,0,0,6,1,1,2,,,,,,,,,,,,,,,,,,,,,,,,,,,,,,,,,,,,,,,,,,,,,,,,,,,,,,,,,,,,,,,,,,,,,,,,,,,
,,,,,,,,,,stimuli/images/PICTURE_403.png,FAMILY,5f3bccb10da2a70993ec38f2,08/05/1994,2020-09-02_12h40.31.345,proactive3.2,2020.1.2,Win32,60,5f47c0b9b035471e11593a5c,5f4f849481a77803ee32d4ff,4,,,,,,cathedral,,,,,,0,1,1,9,1,1,2,,,,,,,,,,,,,,,,,,,,,,,,,,,,,,,,,,,,,,,,,,,,,,,,,,,,,,,,,,,,,,,,,,,,,,,,,,,
,,,,,,,,,,stimuli/images/PICTURE_57.png,CASINO,5f3bccb10da2a70993ec38f2,08/05/1994,2020-09-02_12h40.31.345,proactive3.2,2020.1.2,Win32,60,5f47c0b9b035471e11593a5c,5f4f849481a77803ee32d4ff,4,,,,,,stamp,,,,,,0,2,2,12,1,2,2,,,,,,,,,,,,,,,,,,,,,,,,,,,,,,,,,,,,,,,,,,,,,,,,,,,,,,,,,,,,,,,,,,,,,,,,,,,
,,,,,,,,,,stimuli/images/PICTURE_123.png,SALE,5f3bccb10da2a70993ec38f2,08/05/1994,2020-09-02_12h40.31.345,proactive3.2,2020.1.2,Win32,60,5f47c0b9b035471e11593a5c,5f4f849481a77803ee32d4ff,4,,,,,,dart,,,,,,0,3,3,8,1,1,2,,,,,,,,,,,,,,,,,,,,,,,,,,,,,,,,,,,,,,,,,,,,,,,,,,,,,,,,,,,,,,,,,,,,,,,,,,,
,,,,,,,,,,stimuli/images/PICTURE_708.png,VALLEY,5f3bccb10da2a70993ec38f2,08/05/1994,2020-09-02_12h40.31.345,proactive3.2,2020.1.2,Win32,60,5f47c0b9b035471e11593a5c,5f4f849481a77803ee32d4ff,4,,,,,,monkey,,,,,,0,4,4,45,1,5,2,,,,,,,,,,,,,,,,,,,,,,,,,,,,,,,,,,,,,,,,,,,,,,,,,,,,,,,,,,,,,,,,,,,,,,,,,,,
,,,,,,,,,,stimuli/images/PICTURE_509.png,BATH,5f3bccb10da2a70993ec38f2,08/05/1994,2020-09-02_12h40.31.345,proactive3.2,2020.1.2,Win32,60,5f47c0b9b035471e11593a5c,5f4f849481a77803ee32d4ff,4,,,,,,telephone,,,,,,0,5,5,15,1,2,2,,,,,,,,,,,,,,,,,,,,,,,,,,,,,,,,,,,,,,,,,,,,,,,,,,,,,,,,,,,,,,,,,,,,,,,,,,,
,,,,,,,,,,stimuli/images/PICTURE_33.png,COPS,5f3bccb10da2a70993ec38f2,08/05/1994,2020-09-02_12h40.31.345,proactive3.2,2020.1.2,Win32,60,5f47c0b9b035471e11593a5c,5f4f849481a77803ee32d4ff,4,,,,,,frame,,,,,,0,6,6,29,1,3,2,,,,,,,,,,,,,,,,,,,,,,,,,,,,,,,,,,,,,,,,,,,,,,,,,,,,,,,,,,,,,,,,,,,,,,,,,,,
,,,,,,,,,,stimuli/images/PICTURE_405.png,JUNGLE,5f3bccb10da2a70993ec38f2,08/05/1994,2020-09-02_12h40.31.345,proactive3.2,2020.1.2,Win32,60,5f47c0b9b035471e11593a5c,5f4f849481a77803ee32d4ff,4,,,,,,anchor,,,,,,0,7,7,13,1,2,2,,,,,,,,,,,,,,,,,,,,,,,,,,,,,,,,,,,,,,,,,,,,,,,,,,,,,,,,,,,,,,,,,,,,,,,,,,,
,,,,,,,,,,stimuli/images/PICTURE_677.png,FAMILY,5f3bccb10da2a70993ec38f2,08/05/1994,2020-09-02_12h40.31.345,proactive3.2,2020.1.2,Win32,60,5f47c0b9b035471e11593a5c,5f4f849481a77803ee32d4ff,4,,,,,,map,,,,,,0,8,8,53,1,6,2,,,,,,,,,,,,,,,,,,,,,,,,,,,,,,,,,,,,,,,,,,,,,,,,,,,,,,,,,,,,,,,,,,,,,,,,,,,
,,,,,,,,,,stimuli/images/PICTURE_68.png,KIND,5f3bccb10da2a70993ec38f2,08/05/1994,2020-09-02_12h40.31.345,proactive3.2,2020.1.2,Win32,60,5f47c0b9b035471e11593a5c,5f4f849481a77803ee32d4ff,4,,,,,,candle,,,,,,0,9,9,23,1,3,2,,,,,,,,,,,,,,,,,,,,,,,,,,,,,,,,,,,,,,,,,,,,,,,,,,,,,,,,,,,,,,,,,,,,,,,,,,,
,,,,,,,,,,stimuli/images/PICTURE_491.png,SERIES,5f3bccb10da2a70993ec38f2,08/05/1994,2020-09-02_12h40.31.345,proactive3.2,2020.1.2,Win32,60,5f47c0b9b035471e11593a5c,5f4f849481a77803ee32d4ff,4,,,,,,rug,,,,,,0,10,10,39,1,4,2,,,,,,,,,,,,,,,,,,,,,,,,,,,,,,,,,,,,,,,,,,,,,,,,,,,,,,,,,,,,,,,,,,,,,,,,,,,
,,,,,,,,,,stimuli/images/PICTURE_405.png,JUNGLE,5f3bccb10da2a70993ec38f2,08/05/1994,2020-09-02_12h40.31.345,proactive3.2,2020.1.2,Win32,60,5f47c0b9b035471e11593a5c,5f4f849481a77803ee32d4ff,4,,,,,,anchor,,,,,,0,11,11,58,1,6,2,,,,,,,,,,,,,,,,,,,,,,,,,,,,,,,,,,,,,,,,,,,,,,,,,,,,,,,,,,,,,,,,,,,,,,,,,,,
,,,,,,,,,,stimuli/images/PICTURE_285.png,PRINCE,5f3bccb10da2a70993ec38f2,08/05/1994,2020-09-02_12h40.31.345,proactive3.2,2020.1.2,Win32,60,5f47c0b9b035471e11593a5c,5f4f849481a77803ee32d4ff,4,,,,,,carrot,,,,,,0,12,12,20,1,3,2,,,,,,,,,,,,,,,,,,,,,,,,,,,,,,,,,,,,,,,,,,,,,,,,,,,,,,,,,,,,,,,,,,,,,,,,,,,
,,,,,,,,,,stimuli/images/PICTURE_208.png,SPIRIT,5f3bccb10da2a70993ec38f2,08/05/1994,2020-09-02_12h40.31.345,proactive3.2,2020.1.2,Win32,60,5f47c0b9b035471e11593a5c,5f4f849481a77803ee32d4ff,4,,,,,,microphone,,,,,,0,13,13,28,1,3,2,,,,,,,,,,,,,,,,,,,,,,,,,,,,,,,,,,,,,,,,,,,,,,,,,,,,,,,,,,,,,,,,,,,,,,,,,,,
,,,,,,,,,,stimuli/images/PICTURE_564.png,PLENTY,5f3bccb10da2a70993ec38f2,08/05/1994,2020-09-02_12h40.31.345,proactive3.2,2020.1.2,Win32,60,5f47c0b9b035471e11593a5c,5f4f849481a77803ee32d4ff,4,,,,,,spoon,,,,,,0,14,14,11,1,2,2,,,,,,,,,,,,,,,,,,,,,,,,,,,,,,,,,,,,,,,,,,,,,,,,,,,,,,,,,,,,,,,,,,,,,,,,,,,
,,,,,,,,,,stimuli/images/PICTURE_655.png,SALE,5f3bccb10da2a70993ec38f2,08/05/1994,2020-09-02_12h40.31.345,proactive3.2,2020.1.2,Win32,60,5f47c0b9b035471e11593a5c,5f4f849481a77803ee32d4ff,4,,,,,,megaphone,,,,,,0,15,15,57,1,6,2,,,,,,,,,,,,,,,,,,,,,,,,,,,,,,,,,,,,,,,,,,,,,,,,,,,,,,,,,,,,,,,,,,,,,,,,,,,
,,,,,,,,,,stimuli/images/PICTURE_356.png,CANDY,5f3bccb10da2a70993ec38f2,08/05/1994,2020-09-02_12h40.31.345,proactive3.2,2020.1.2,Win32,60,5f47c0b9b035471e11593a5c,5f4f849481a77803ee32d4ff,4,,,,,,pawn,,,,,,0,16,16,46,1,5,2,,,,,,,,,,,,,,,,,,,,,,,,,,,,,,,,,,,,,,,,,,,,,,,,,,,,,,,,,,,,,,,,,,,,,,,,,,,
,,,,,,,,,,stimuli/images/PICTURE_405.png,HOUSE,5f3bccb10da2a70993ec38f2,08/05/1994,2020-09-02_12h40.31.345,proactive3.2,2020.1.2,Win32,60,5f47c0b9b035471e11593a5c,5f4f849481a77803ee32d4ff,4,,,,,,anchor,,,,,,0,17,17,2,1,1,2,,,,,,,,,,,,,,,,,,,,,,,,,,,,,,,,,,,,,,,,,,,,,,,,,,,,,,,,,,,,,,,,,,,,,,,,,,,
,,,,,,,,,,stimuli/images/PICTURE_677.png,PHOTO,5f3bccb10da2a70993ec38f2,08/05/1994,2020-09-02_12h40.31.345,proactive3.2,2020.1.2,Win32,60,5f47c0b9b035471e11593a5c,5f4f849481a77803ee32d4ff,4,,,,,,map,,,,,,0,18,18,14,1,2,2,,,,,,,,,,,,,,,,,,,,,,,,,,,,,,,,,,,,,,,,,,,,,,,,,,,,,,,,,,,,,,,,,,,,,,,,,,,
,,,,,,,,,,stimuli/images/PICTURE_297.png,BODY,5f3bccb10da2a70993ec38f2,08/05/1994,2020-09-02_12h40.31.345,proactive3.2,2020.1.2,Win32,60,5f47c0b9b035471e11593a5c,5f4f849481a77803ee32d4ff,4,,,,,,aeroplane,,,,,,0,19,19,51,1,6,2,,,,,,,,,,,,,,,,,,,,,,,,,,,,,,,,,,,,,,,,,,,,,,,,,,,,,,,,,,,,,,,,,,,,,,,,,,,
,,,,,,,,,,stimuli/images/PICTURE_215.png,FOOD,5f3bccb10da2a70993ec38f2,08/05/1994,2020-09-02_12h40.31.345,proactive3.2,2020.1.2,Win32,60,5f47c0b9b035471e11593a5c,5f4f849481a77803ee32d4ff,4,,,,,,boot,,,,,,0,20,20,5,1,1,2,,,,,,,,,,,,,,,,,,,,,,,,,,,,,,,,,,,,,,,,,,,,,,,,,,,,,,,,,,,,,,,,,,,,,,,,,,,
,,,,,,,,,,stimuli/images/PICTURE_160.png,HOTEL,5f3bccb10da2a70993ec38f2,08/05/1994,2020-09-02_12h40.31.345,proactive3.2,2020.1.2,Win32,60,5f47c0b9b035471e11593a5c,5f4f849481a77803ee32d4ff,4,,,,,,wheelbarrow,,,,,,0,21,21,16,1,2,2,,,,,,,,,,,,,,,,,,,,,,,,,,,,,,,,,,,,,,,,,,,,,,,,,,,,,,,,,,,,,,,,,,,,,,,,,,,
,,,,,,,,,,stimuli/images/PICTURE_215.png,LEADER,5f3bccb10da2a70993ec38f2,08/05/1994,2020-09-02_12h40.31.345,proactive3.2,2020.1.2,Win32,60,5f47c0b9b035471e11593a5c,5f4f849481a77803ee32d4ff,4,,,,,,boot,,,,,,0,22,22,43,1,5,2,,,,,,,,,,,,,,,,,,,,,,,,,,,,,,,,,,,,,,,,,,,,,,,,,,,,,,,,,,,,,,,,,,,,,,,,,,,
,,,,,,,,,,stimuli/images/PICTURE_487.png,ROOF,5f3bccb10da2a70993ec38f2,08/05/1994,2020-09-02_12h40.31.345,proactive3.2,2020.1.2,Win32,60,5f47c0b9b035471e11593a5c,5f4f849481a77803ee32d4ff,4,,,,,,basket,,,,,,0,23,23,50,1,6,2,,,,,,,,,,,,,,,,,,,,,,,,,,,,,,,,,,,,,,,,,,,,,,,,,,,,,,,,,,,,,,,,,,,,,,,,,,,
,,,,,,,,,,stimuli/images/PICTURE_93.png,GIRL,5f3bccb10da2a70993ec38f2,08/05/1994,2020-09-02_12h40.31.345,proactive3.2,2020.1.2,Win32,60,5f47c0b9b035471e11593a5c,5f4f849481a77803ee32d4ff,4,,,,,,skateboard,,,,,,0,24,24,31,1,4,2,,,,,,,,,,,,,,,,,,,,,,,,,,,,,,,,,,,,,,,,,,,,,,,,,,,,,,,,,,,,,,,,,,,,,,,,,,,
,,,,,,,,,,stimuli/images/PICTURE_470.png,BEAUTY,5f3bccb10da2a70993ec38f2,08/05/1994,2020-09-02_12h40.31.345,proactive3.2,2020.1.2,Win32,60,5f47c0b9b035471e11593a5c,5f4f849481a77803ee32d4ff,4,,,,,,motorbike,,,,,,0,25,25,26,1,3,2,,,,,,,,,,,,,,,,,,,,,,,,,,,,,,,,,,,,,,,,,,,,,,,,,,,,,,,,,,,,,,,,,,,,,,,,,,,
,,,,,,,,,,stimuli/images/PICTURE_2.png,JUNGLE,5f3bccb10da2a70993ec38f2,08/05/1994,2020-09-02_12h40.31.345,proactive3.2,2020.1.2,Win32,60,5f47c0b9b035471e11593a5c,5f4f849481a77803ee32d4ff,4,,,,,,tyre,,,,,,0,26,26,1,1,1,2,,,,,,,,,,,,,,,,,,,,,,,,,,,,,,,,,,,,,,,,,,,,,,,,,,,,,,,,,,,,,,,,,,,,,,,,,,,
,,,,,,,,,,stimuli/images/PICTURE_296.png,CLOCK,5f3bccb10da2a70993ec38f2,08/05/1994,2020-09-02_12h40.31.345,proactive3.2,2020.1.2,Win32,60,5f47c0b9b035471e11593a5c,5f4f849481a77803ee32d4ff,4,,,,,,bolt,,,,,,0,27,27,18,1,2,2,,,,,,,,,,,,,,,,,,,,,,,,,,,,,,,,,,,,,,,,,,,,,,,,,,,,,,,,,,,,,,,,,,,,,,,,,,,
,,,,,,,,,,stimuli/images/PICTURE_141.png,CLIENT,5f3bccb10da2a70993ec38f2,08/05/1994,2020-09-02_12h40.31.345,proactive3.2,2020.1.2,Win32,60,5f47c0b9b035471e11593a5c,5f4f849481a77803ee32d4ff,4,,,,,,sunflower,,,,,,0,28,28,30,1,4,2,,,,,,,,,,,,,,,,,,,,,,,,,,,,,,,,,,,,,,,,,,,,,,,,,,,,,,,,,,,,,,,,,,,,,,,,,,,
,,,,,,,,,,stimuli/images/PICTURE_18.png,RIVER,5f3bccb10da2a70993ec38f2,08/05/1994,2020-09-02_12h40.31.345,proactive3.2,2020.1.2,Win32,60,5f47c0b9b035471e11593a5c,5f4f849481a77803ee32d4ff,4,,,,,,planet,,,,,,0,29,29,22,1,3,2,,,,,,,,,,,,,,,,,,,,,,,,,,,,,,,,,,,,,,,,,,,,,,,,,,,,,,,,,,,,,,,,,,,,,,,,,,,
,,,,,,,,,,stimuli/images/PICTURE_255.png,PENNY,5f3bccb10da2a70993ec38f2,08/05/1994,2020-09-02_12h40.31.345,proactive3.2,2020.1.2,Win32,60,5f47c0b9b035471e11593a5c,5f4f849481a77803ee32d4ff,4,,,,,,shovel,,,,,,0,30,30,19,1,2,2,,,,,,,,,,,,,,,,,,,,,,,,,,,,,,,,,,,,,,,,,,,,,,,,,,,,,,,,,,,,,,,,,,,,,,,,,,,
,,,,,,,,,,stimuli/images/PICTURE_2.png,YARD,5f3bccb10da2a70993ec38f2,08/05/1994,2020-09-02_12h40.31.345,proactive3.2,2020.1.2,Win32,60,5f47c0b9b035471e11593a5c,5f4f849481a77803ee32d4ff,4,,,,,,tyre,,,,,,0,31,31,55,1,6,2,,,,,,,,,,,,,,,,,,,,,,,,,,,,,,,,,,,,,,,,,,,,,,,,,,,,,,,,,,,,,,,,,,,,,,,,,,,
,,,,,,,,,,stimuli/images/PICTURE_2.png,AREA,5f3bccb10da2a70993ec38f2,08/05/1994,2020-09-02_12h40.31.345,proactive3.2,2020.1.2,Win32,60,5f47c0b9b035471e11593a5c,5f4f849481a77803ee32d4ff,4,,,,,,tyre,,,,,,0,32,32,32,1,4,2,,,,,,,,,,,,,,,,,,,,,,,,,,,,,,,,,,,,,,,,,,,,,,,,,,,,,,,,,,,,,,,,,,,,,,,,,,,
,,,,,,,,,,stimuli/images/PICTURE_32.png,LETTER,5f3bccb10da2a70993ec38f2,08/05/1994,2020-09-02_12h40.31.345,proactive3.2,2020.1.2,Win32,60,5f47c0b9b035471e11593a5c,5f4f849481a77803ee32d4ff,4,,,,,,crown,,,,,,0,33,33,56,1,6,2,,,,,,,,,,,,,,,,,,,,,,,,,,,,,,,,,,,,,,,,,,,,,,,,,,,,,,,,,,,,,,,,,,,,,,,,,,,
,,,,,,,,,,stimuli/images/PICTURE_215.png,BOYS,5f3bccb10da2a70993ec38f2,08/05/1994,2020-09-02_12h40.31.345,proactive3.2,2020.1.2,Win32,60,5f47c0b9b035471e11593a5c,5f4f849481a77803ee32d4ff,4,,,,,,boot,,,,,,0,34,34,24,1,3,2,,,,,,,,,,,,,,,,,,,,,,,,,,,,,,,,,,,,,,,,,,,,,,,,,,,,,,,,,,,,,,,,,,,,,,,,,,,
,,,,,,,,,,stimuli/images/PICTURE_509.png,APPLE,5f3bccb10da2a70993ec38f2,08/05/1994,2020-09-02_12h40.31.345,proactive3.2,2020.1.2,Win32,60,5f47c0b9b035471e11593a5c,5f4f849481a77803ee32d4ff,4,,,,,,telephone,,,,,,0,35,35,38,1,4,2,,,,,,,,,,,,,,,,,,,,,,,,,,,,,,,,,,,,,,,,,,,,,,,,,,,,,,,,,,,,,,,,,,,,,,,,,,,
,,,,,,,,,,stimuli/images/PICTURE_509.png,SHOTS,5f3bccb10da2a70993ec38f2,08/05/1994,2020-09-02_12h40.31.345,proactive3.2,2020.1.2,Win32,60,5f47c0b9b035471e11593a5c,5f4f849481a77803ee32d4ff,4,,,,,,telephone,,,,,,0,36,36,7,1,1,2,,,,,,,,,,,,,,,,,,,,,,,,,,,,,,,,,,,,,,,,,,,,,,,,,,,,,,,,,,,,,,,,,,,,,,,,,,,
,,,,,,,,,,stimuli/images/PICTURE_667.png,GLASS,5f3bccb10da2a70993ec38f2,08/05/1994,2020-09-02_12h40.31.345,proactive3.2,2020.1.2,Win32,60,5f47c0b9b035471e11593a5c,5f4f849481a77803ee32d4ff,4,,,,,,daisy,,,,,,0,37,37,27,1,3,2,,,,,,,,,,,,,,,,,,,,,,,,,,,,,,,,,,,,,,,,,,,,,,,,,,,,,,,,,,,,,,,,,,,,,,,,,,,
,,,,,,,,,,stimuli/images/PICTURE_750.png,POLICY,5f3bccb10da2a70993ec38f2,08/05/1994,2020-09-02_12h40.31.345,proactive3.2,2020.1.2,Win32,60,5f47c0b9b035471e11593a5c,5f4f849481a77803ee32d4ff,4,,,,,,kettle,,,,,,0,38,38,44,1,5,2,,,,,,,,,,,,,,,,,,,,,,,,,,,,,,,,,,,,,,,,,,,,,,,,,,,,,,,,,,,,,,,,,,,,,,,,,,,
,,,,,,,,,,stimuli/images/PICTURE_504.png,HOUSE,5f3bccb10da2a70993ec38f2,08/05/1994,2020-09-02_12h40.31.345,proactive3.2,2020.1.2,Win32,60,5f47c0b9b035471e11593a5c,5f4f849481a77803ee32d4ff,4,,,,,,wheel,,,,,,0,39,39,36,1,4,2,,,,,,,,,,,,,,,,,,,,,,,,,,,,,,,,,,,,,,,,,,,,,,,,,,,,,,,,,,,,,,,,,,,,,,,,,,,
,,,,,,,,,,stimuli/images/PICTURE_692.png,DUDE,5f3bccb10da2a70993ec38f2,08/05/1994,2020-09-02_12h40.31.345,proactive3.2,2020.1.2,Win32,60,5f47c0b9b035471e11593a5c,5f4f849481a77803ee32d4ff,4,,,,,,cherry,,,,,,0,40,40,47,1,5,2,,,,,,,,,,,,,,,,,,,,,,,,,,,,,,,,,,,,,,,,,,,,,,,,,,,,,,,,,,,,,,,,,,,,,,,,,,,
,,,,,,,,,,stimuli/images/PICTURE_311.png,TOILET,5f3bccb10da2a70993ec38f2,08/05/1994,2020-09-02_12h40.31.345,proactive3.2,2020.1.2,Win32,60,5f47c0b9b035471e11593a5c,5f4f849481a77803ee32d4ff,4,,,,,,razor,,,,,,0,41,41,54,1,6,2,,,,,,,,,,,,,,,,,,,,,,,,,,,,,,,,,,,,,,,,,,,,,,,,,,,,,,,,,,,,,,,,,,,,,,,,,,,
,,,,,,,,,,stimuli/images/PICTURE_57.png,NATION,5f3bccb10da2a70993ec38f2,08/05/1994,2020-09-02_12h40.31.345,proactive3.2,2020.1.2,Win32,60,5f47c0b9b035471e11593a5c,5f4f849481a77803ee32d4ff,4,,,,,,stamp,,,,,,0,42,42,21,1,3,2,,,,,,,,,,,,,,,,,,,,,,,,,,,,,,,,,,,,,,,,,,,,,,,,,,,,,,,,,,,,,,,,,,,,,,,,,,,
,,,,,,,,,,stimuli/images/PICTURE_509.png,MILLER,5f3bccb10da2a70993ec38f2,08/05/1994,2020-09-02_12h40.31.345,proactive3.2,2020.1.2,Win32,60,5f47c0b9b035471e11593a5c,5f4f849481a77803ee32d4ff,4,,,,,,telephone,,,,,,0,43,43,49,1,5,2,,,,,,,,,,,,,,,,,,,,,,,,,,,,,,,,,,,,,,,,,,,,,,,,,,,,,,,,,,,,,,,,,,,,,,,,,,,
,,,,,,,,,,stimuli/images/PICTURE_654.png,COPS,5f3bccb10da2a70993ec38f2,08/05/1994,2020-09-02_12h40.31.345,proactive3.2,2020.1.2,Win32,60,5f47c0b9b035471e11593a5c,5f4f849481a77803ee32d4ff,4,,,,,,pencil,,,,,,0,44,44,10,1,2,2,,,,,,,,,,,,,,,,,,,,,,,,,,,,,,,,,,,,,,,,,,,,,,,,,,,,,,,,,,,,,,,,,,,,,,,,,,,
,,,,,,,,,,stimuli/images/PICTURE_57.png,CANDY,5f3bccb10da2a70993ec38f2,08/05/1994,2020-09-02_12h40.31.345,proactive3.2,2020.1.2,Win32,60,5f47c0b9b035471e11593a5c,5f4f849481a77803ee32d4ff,4,,,,,,stamp,,,,,,0,45,45,52,1,6,2,,,,,,,,,,,,,,,,,,,,,,,,,,,,,,,,,,,,,,,,,,,,,,,,,,,,,,,,,,,,,,,,,,,,,,,,,,,
,,,,,,,,,,stimuli/images/PICTURE_348.png,DUDE,5f3bccb10da2a70993ec38f2,08/05/1994,2020-09-02_12h40.31.345,proactive3.2,2020.1.2,Win32,60,5f47c0b9b035471e11593a5c,5f4f849481a77803ee32d4ff,4,,,,,,pepper,,,,,,0,46,46,59,1,6,2,,,,,,,,,,,,,,,,,,,,,,,,,,,,,,,,,,,,,,,,,,,,,,,,,,,,,,,,,,,,,,,,,,,,,,,,,,,
,,,,,,,,,,stimuli/images/PICTURE_311.png,FLESH,5f3bccb10da2a70993ec38f2,08/05/1994,2020-09-02_12h40.31.345,proactive3.2,2020.1.2,Win32,60,5f47c0b9b035471e11593a5c,5f4f849481a77803ee32d4ff,4,,,,,,razor,,,,,,0,47,47,3,1,1,2,,,,,,,,,,,,,,,,,,,,,,,,,,,,,,,,,,,,,,,,,,,,,,,,,,,,,,,,,,,,,,,,,,,,,,,,,,,
,,,,,,,,,,stimuli/images/PICTURE_452.png,COPS,5f3bccb10da2a70993ec38f2,08/05/1994,2020-09-02_12h40.31.345,proactive3.2,2020.1.2,Win32,60,5f47c0b9b035471e11593a5c,5f4f849481a77803ee32d4ff,4,,,,,,watch,,,,,,0,48,48,0,1,1,2,,,,,,,,,,,,,,,,,,,,,,,,,,,,,,,,,,,,,,,,,,,,,,,,,,,,,,,,,,,,,,,,,,,,,,,,,,,
,,,,,,,,,,stimuli/images/PICTURE_314.png,SPEECH,5f3bccb10da2a70993ec38f2,08/05/1994,2020-09-02_12h40.31.345,proactive3.2,2020.1.2,Win32,60,5f47c0b9b035471e11593a5c,5f4f849481a77803ee32d4ff,4,,,,,,perfume,,,,,,0,49,49,35,1,4,2,,,,,,,,,,,,,,,,,,,,,,,,,,,,,,,,,,,,,,,,,,,,,,,,,,,,,,,,,,,,,,,,,,,,,,,,,,,
,,,,,,,,,,stimuli/images/PICTURE_147.png,LEADER,5f3bccb10da2a70993ec38f2,08/05/1994,2020-09-02_12h40.31.345,proactive3.2,2020.1.2,Win32,60,5f47c0b9b035471e11593a5c,5f4f849481a77803ee32d4ff,4,,,,,,hanger,,,,,,0,50,50,33,1,4,2,,,,,,,,,,,,,,,,,,,,,,,,,,,,,,,,,,,,,,,,,,,,,,,,,,,,,,,,,,,,,,,,,,,,,,,,,,,
,,,,,,,,,,stimuli/images/PICTURE_487.png,POLICY,5f3bccb10da2a70993ec38f2,08/05/1994,2020-09-02_12h40.31.345,proactive3.2,2020.1.2,Win32,60,5f47c0b9b035471e11593a5c,5f4f849481a77803ee32d4ff,4,,,,,,basket,,,,,,0,51,51,34,1,4,2,,,,,,,,,,,,,,,,,,,,,,,,,,,,,,,,,,,,,,,,,,,,,,,,,,,,,,,,,,,,,,,,,,,,,,,,,,,
,,,,,,,,,,stimuli/images/PICTURE_327.png,LEADER,5f3bccb10da2a70993ec38f2,08/05/1994,2020-09-02_12h40.31.345,proactive3.2,2020.1.2,Win32,60,5f47c0b9b035471e11593a5c,5f4f849481a77803ee32d4ff,4,,,,,,helmet,,,,,,0,52,52,17,1,2,2,,,,,,,,,,,,,,,,,,,,,,,,,,,,,,,,,,,,,,,,,,,,,,,,,,,,,,,,,,,,,,,,,,,,,,,,,,,
,,,,,,,,,,stimuli/images/PICTURE_688.png,CLOCK,5f3bccb10da2a70993ec38f2,08/05/1994,2020-09-02_12h40.31.345,proactive3.2,2020.1.2,Win32,60,5f47c0b9b035471e11593a5c,5f4f849481a77803ee32d4ff,4,,,,,,runner,,,,,,0,53,53,42,1,5,2,,,,,,,,,,,,,,,,,,,,,,,,,,,,,,,,,,,,,,,,,,,,,,,,,,,,,,,,,,,,,,,,,,,,,,,,,,,
,,,,,,,,,,stimuli/images/PICTURE_95.png,NIGHT,5f3bccb10da2a70993ec38f2,08/05/1994,2020-09-02_12h40.31.345,proactive3.2,2020.1.2,Win32,60,5f47c0b9b035471e11593a5c,5f4f849481a77803ee32d4ff,4,,,,,,suitcase,,,,,,0,54,54,37,1,4,2,,,,,,,,,,,,,,,,,,,,,,,,,,,,,,,,,,,,,,,,,,,,,,,,,,,,,,,,,,,,,,,,,,,,,,,,,,,
,,,,,,,,,,stimuli/images/PICTURE_470.png,MOMENT,5f3bccb10da2a70993ec38f2,08/05/1994,2020-09-02_12h40.31.345,proactive3.2,2020.1.2,Win32,60,5f47c0b9b035471e11593a5c,5f4f849481a77803ee32d4ff,4,,,,,,motorbike,,,,,,0,55,55,40,1,5,2,,,,,,,,,,,,,,,,,,,,,,,,,,,,,,,,,,,,,,,,,,,,,,,,,,,,,,,,,,,,,,,,,,,,,,,,,,,
,,,,,,,,,,stimuli/images/PICTURE_453.png,FAMILY,5f3bccb10da2a70993ec38f2,08/05/1994,2020-09-02_12h40.31.345,proactive3.2,2020.1.2,Win32,60,5f47c0b9b035471e11593a5c,5f4f849481a77803ee32d4ff,4,,,,,,scissors,,,,,,0,56,56,48,1,5,2,,,,,,,,,,,,,,,,,,,,,,,,,,,,,,,,,,,,,,,,,,,,,,,,,,,,,,,,,,,,,,,,,,,,,,,,,,,
,,,,,,,,,,stimuli/images/PICTURE_348.png,TOILET,5f3bccb10da2a70993ec38f2,08/05/1994,2020-09-02_12h40.31.345,proactive3.2,2020.1.2,Win32,60,5f47c0b9b035471e11593a5c,5f4f849481a77803ee32d4ff,4,,,,,,pepper,,,,,,0,57,57,4,1,1,2,,,,,,,,,,,,,,,,,,,,,,,,,,,,,,,,,,,,,,,,,,,,,,,,,,,,,,,,,,,,,,,,,,,,,,,,,,,
,,,,,,,,,,stimuli/images/PICTURE_177.png,HOUSE,5f3bccb10da2a70993ec38f2,08/05/1994,2020-09-02_12h40.31.345,proactive3.2,2020.1.2,Win32,60,5f47c0b9b035471e11593a5c,5f4f849481a77803ee32d4ff,4,,,,,,mushroom,,,,,,0,58,58,25,1,3,2,,,,,,,,,,,,,,,,,,,,,,,,,,,,,,,,,,,,,,,,,,,,,,,,,,,,,,,,,,,,,,,,,,,,,,,,,,,
,,APPLE,2.206445,1,,,,,,stimuli/images/PICTURE_509.png,APPLE,5f3bccb10da2a70993ec38f2,08/05/1994,2020-09-02_12h40.31.345,proactive3.2,2020.1.2,Win32,60,5f47c0b9b035471e11593a5c,5f4f849481a77803ee32d4ff,4,,,,,,telephone,,,,,,,,,,,4,2,0,0,0,38,1,,,,,,,,,,,,,,,,,,,,,,,,,,,,,,,,,,,,,,,,,,,,,,,,,,,,,,,,,,,,,,,,,,,,,,
,,?,0.00314,0,,,,,,stimuli/images/PICTURE_403.png,FAMILY,5f3bccb10da2a70993ec38f2,08/05/1994,2020-09-02_12h40.31.345,proactive3.2,2020.1.2,Win32,60,5f47c0b9b035471e11593a5c,5f4f849481a77803ee32d4ff,4,,,,,,cathedral,,,,,,,,,,,1,2,0,1,1,9,1,,,,,,,,,,,,,,,,,,,,,,,,,,,,,,,,,,,,,,,,,,,,,,,,,,,,,,,,,,,,,,,,,,,,,,
,,?,0.00206,0,,,,,,stimuli/images/PICTURE_285.png,WRITER,5f3bccb10da2a70993ec38f2,08/05/1994,2020-09-02_12h40.31.345,proactive3.2,2020.1.2,Win32,60,5f47c0b9b035471e11593a5c,5f4f849481a77803ee32d4ff,4,,,,,,carrot,,,,,,,,,,,1,2,0,2,2,6,1,,,,,,,,,,,,,,,,,,,,,,,,,,,,,,,,,,,,,,,,,,,,,,,,,,,,,,,,,,,,,,,,,,,,,,
,,?,0.003245,0,,,,,,stimuli/images/PICTURE_667.png,GLASS,5f3bccb10da2a70993ec38f2,08/05/1994,2020-09-02_12h40.31.345,proactive3.2,2020.1.2,Win32,60,5f47c0b9b035471e11593a5c,5f4f849481a77803ee32d4ff,4,,,,,,daisy,,,,,,,,,,,3,2,0,3,3,27,1,,,,,,,,,,,,,,,,,,,,,,,,,,,,,,,,,,,,,,,,,,,,,,,,,,,,,,,,,,,,,,,,,,,,,,
,,LEADER,2.07998,1,,,,,,stimuli/images/PICTURE_147.png,LEADER,5f3bccb10da2a70993ec38f2,08/05/1994,2020-09-02_12h40.31.345,proactive3.2,2020.1.2,Win32,60,5f47c0b9b035471e11593a5c,5f4f849481a77803ee32d4ff,4,,,,,,hanger,,,,,,,,,,,4,2,0,4,4,33,1,,,,,,,,,,,,,,,,,,,,,,,,,,,,,,,,,,,,,,,,,,,,,,,,,,,,,,,,,,,,,,,,,,,,,,
,,?,0.00217,0,,,,,,stimuli/images/PICTURE_348.png,DUDE,5f3bccb10da2a70993ec38f2,08/05/1994,2020-09-02_12h40.31.345,proactive3.2,2020.1.2,Win32,60,5f47c0b9b035471e11593a5c,5f4f849481a77803ee32d4ff,4,,,,,,pepper,,,,,,,,,,,6,2,0,5,5,59,1,,,,,,,,,,,,,,,,,,,,,,,,,,,,,,,,,,,,,,,,,,,,,,,,,,,,,,,,,,,,,,,,,,,,,,
,,?,0.000895,0,,,,,,stimuli/images/PICTURE_677.png,PHOTO,5f3bccb10da2a70993ec38f2,08/05/1994,2020-09-02_12h40.31.345,proactive3.2,2020.1.2,Win32,60,5f47c0b9b035471e11593a5c,5f4f849481a77803ee32d4ff,4,,,,,,map,,,,,,,,,,,2,2,0,6,6,14,1,,,,,,,,,,,,,,,,,,,,,,,,,,,,,,,,,,,,,,,,,,,,,,,,,,,,,,,,,,,,,,,,,,,,,,
,,?,0.000805,0,,,,,,stimuli/images/PICTURE_453.png,FAMILY,5f3bccb10da2a70993ec38f2,08/05/1994,2020-09-02_12h40.31.345,proactive3.2,2020.1.2,Win32,60,5f47c0b9b035471e11593a5c,5f4f849481a77803ee32d4ff,4,,,,,,scissors,,,,,,,,,,,5,2,0,7,7,48,1,,,,,,,,,,,,,,,,,,,,,,,,,,,,,,,,,,,,,,,,,,,,,,,,,,,,,,,,,,,,,,,,,,,,,,
,,?,0.000815,0,,,,,,stimuli/images/PICTURE_123.png,SALE,5f3bccb10da2a70993ec38f2,08/05/1994,2020-09-02_12h40.31.345,proactive3.2,2020.1.2,Win32,60,5f47c0b9b035471e11593a5c,5f4f849481a77803ee32d4ff,4,,,,,,dart,,,,,,,,,,,1,2,0,8,8,8,1,,,,,,,,,,,,,,,,,,,,,,,,,,,,,,,,,,,,,,,,,,,,,,,,,,,,,,,,,,,,,,,,,,,,,,
,,SPEECH,1.92423,1,,,,,,stimuli/images/PICTURE_314.png,SPEECH,5f3bccb10da2a70993ec38f2,08/05/1994,2020-09-02_12h40.31.345,proactive3.2,2020.1.2,Win32,60,5f47c0b9b035471e11593a5c,5f4f849481a77803ee32d4ff,4,,,,,,perfume,,,,,,,,,,,4,2,0,9,9,35,1,,,,,,,,,,,,,,,,,,,,,,,,,,,,,,,,,,,,,,,,,,,,,,,,,,,,,,,,,,,,,,,,,,,,,,
,,?,0.003555,0,,,,,,stimuli/images/PICTURE_297.png,BODY,5f3bccb10da2a70993ec38f2,08/05/1994,2020-09-02_12h40.31.345,proactive3.2,2020.1.2,Win32,60,5f47c0b9b035471e11593a5c,5f4f849481a77803ee32d4ff,4,,,,,,aeroplane,,,,,,,,,,,6,2,0,10,10,51,1,,,,,,,,,,,,,,,,,,,,,,,,,,,,,,,,,,,,,,,,,,,,,,,,,,,,,,,,,,,,,,,,,,,,,,
,,?,0.002405,0,,,,,,stimuli/images/PICTURE_285.png,PRINCE,5f3bccb10da2a70993ec38f2,08/05/1994,2020-09-02_12h40.31.345,proactive3.2,2020.1.2,Win32,60,5f47c0b9b035471e11593a5c,5f4f849481a77803ee32d4ff,4,,,,,,carrot,,,,,,,,,,,3,2,0,11,11,20,1,,,,,,,,,,,,,,,,,,,,,,,,,,,,,,,,,,,,,,,,,,,,,,,,,,,,,,,,,,,,,,,,,,,,,,
,,?,0.00329,0,,,,,,stimuli/images/PICTURE_57.png,NATION,5f3bccb10da2a70993ec38f2,08/05/1994,2020-09-02_12h40.31.345,proactive3.2,2020.1.2,Win32,60,5f47c0b9b035471e11593a5c,5f4f849481a77803ee32d4ff,4,,,,,,stamp,,,,,,,,,,,3,2,0,12,12,21,1,,,,,,,,,,,,,,,,,,,,,,,,,,,,,,,,,,,,,,,,,,,,,,,,,,,,,,,,,,,,,,,,,,,,,,
,,?,0.002305,0,,,,,,stimuli/images/PICTURE_32.png,LETTER,5f3bccb10da2a70993ec38f2,08/05/1994,2020-09-02_12h40.31.345,proactive3.2,2020.1.2,Win32,60,5f47c0b9b035471e11593a5c,5f4f849481a77803ee32d4ff,4,,,,,,crown,,,,,,,,,,,6,2,0,13,13,56,1,,,,,,,,,,,,,,,,,,,,,,,,,,,,,,,,,,,,,,,,,,,,,,,,,,,,,,,,,,,,,,,,,,,,,,
,,?,0.002235,0,,,,,,stimuli/images/PICTURE_509.png,MILLER,5f3bccb10da2a70993ec38f2,08/05/1994,2020-09-02_12h40.31.345,proactive3.2,2020.1.2,Win32,60,5f47c0b9b035471e11593a5c,5f4f849481a77803ee32d4ff,4,,,,,,telephone,,,,,,,,,,,5,2,0,14,14,49,1,,,,,,,,,,,,,,,,,,,,,,,,,,,,,,,,,,,,,,,,,,,,,,,,,,,,,,,,,,,,,,,,,,,,,,
,,?,0.004955,0,,,,,,stimuli/images/PICTURE_405.png,JUNGLE,5f3bccb10da2a70993ec38f2,08/05/1994,2020-09-02_12h40.31.345,proactive3.2,2020.1.2,Win32,60,5f47c0b9b035471e11593a5c,5f4f849481a77803ee32d4ff,4,,,,,,anchor,,,,,,,,,,,2,2,0,15,15,13,1,,,,,,,,,,,,,,,,,,,,,,,,,,,,,,,,,,,,,,,,,,,,,,,,,,,,,,,,,,,,,,,,,,,,,,
,,?,0.00338,0,,,,,,stimuli/images/PICTURE_452.png,COPS,5f3bccb10da2a70993ec38f2,08/05/1994,2020-09-02_12h40.31.345,proactive3.2,2020.1.2,Win32,60,5f47c0b9b035471e11593a5c,5f4f849481a77803ee32d4ff,4,,,,,,watch,,,,,,,,,,,1,2,0,16,16,0,1,,,,,,,,,,,,,,,,,,,,,,,,,,,,,,,,,,,,,,,,,,,,,,,,,,,,,,,,,,,,,,,,,,,,,,
,,?,0.00119,0,,,,,,stimuli/images/PICTURE_470.png,BEAUTY,5f3bccb10da2a70993ec38f2,08/05/1994,2020-09-02_12h40.31.345,proactive3.2,2020.1.2,Win32,60,5f47c0b9b035471e11593a5c,5f4f849481a77803ee32d4ff,4,,,,,,motorbike,,,,,,,,,,,3,2,0,17,17,26,1,,,,,,,,,,,,,,,,,,,,,,,,,,,,,,,,,,,,,,,,,,,,,,,,,,,,,,,,,,,,,,,,,,,,,,
,,?,0.0011,0,,,,,,stimuli/images/PICTURE_2.png,YARD,5f3bccb10da2a70993ec38f2,08/05/1994,2020-09-02_12h40.31.345,proactive3.2,2020.1.2,Win32,60,5f47c0b9b035471e11593a5c,5f4f849481a77803ee32d4ff,4,,,,,,tyre,,,,,,,,,,,6,2,0,18,18,55,1,,,,,,,,,,,,,,,,,,,,,,,,,,,,,,,,,,,,,,,,,,,,,,,,,,,,,,,,,,,,,,,,,,,,,,
,,?,0.00105,0,,,,,,stimuli/images/PICTURE_68.png,KIND,5f3bccb10da2a70993ec38f2,08/05/1994,2020-09-02_12h40.31.345,proactive3.2,2020.1.2,Win32,60,5f47c0b9b035471e11593a5c,5f4f849481a77803ee32d4ff,4,,,,,,candle,,,,,,,,,,,3,2,0,19,19,23,1,,,,,,,,,,,,,,,,,,,,,,,,,,,,,,,,,,,,,,,,,,,,,,,,,,,,,,,,,,,,,,,,,,,,,,
,,?,0.001125,0,,,,,,stimuli/images/PICTURE_405.png,HOUSE,5f3bccb10da2a70993ec38f2,08/05/1994,2020-09-02_12h40.31.345,proactive3.2,2020.1.2,Win32,60,5f47c0b9b035471e11593a5c,5f4f849481a77803ee32d4ff,4,,,,,,anchor,,,,,,,,,,,1,2,0,20,20,2,1,,,,,,,,,,,,,,,,,,,,,,,,,,,,,,,,,,,,,,,,,,,,,,,,,,,,,,,,,,,,,,,,,,,,,,
,,?,0.00103,0,,,,,,stimuli/images/PICTURE_688.png,CLOCK,5f3bccb10da2a70993ec38f2,08/05/1994,2020-09-02_12h40.31.345,proactive3.2,2020.1.2,Win32,60,5f47c0b9b035471e11593a5c,5f4f849481a77803ee32d4ff,4,,,,,,runner,,,,,,,,,,,5,2,0,21,21,42,1,,,,,,,,,,,,,,,,,,,,,,,,,,,,,,,,,,,,,,,,,,,,,,,,,,,,,,,,,,,,,,,,,,,,,,
,,?,0.00136,0,,,,,,stimuli/images/PICTURE_215.png,LEADER,5f3bccb10da2a70993ec38f2,08/05/1994,2020-09-02_12h40.31.345,proactive3.2,2020.1.2,Win32,60,5f47c0b9b035471e11593a5c,5f4f849481a77803ee32d4ff,4,,,,,,boot,,,,,,,,,,,5,2,0,22,22,43,1,,,,,,,,,,,,,,,,,,,,,,,,,,,,,,,,,,,,,,,,,,,,,,,,,,,,,,,,,,,,,,,,,,,,,,
,,?,0.001405,0,,,,,,stimuli/images/PICTURE_208.png,SPIRIT,5f3bccb10da2a70993ec38f2,08/05/1994,2020-09-02_12h40.31.345,proactive3.2,2020.1.2,Win32,60,5f47c0b9b035471e11593a5c,5f4f849481a77803ee32d4ff,4,,,,,,microphone,,,,,,,,,,,3,2,0,23,23,28,1,,,,,,,,,,,,,,,,,,,,,,,,,,,,,,,,,,,,,,,,,,,,,,,,,,,,,,,,,,,,,,,,,,,,,,
,,?,0.00243,0,,,,,,stimuli/images/PICTURE_348.png,TOILET,5f3bccb10da2a70993ec38f2,08/05/1994,2020-09-02_12h40.31.345,proactive3.2,2020.1.2,Win32,60,5f47c0b9b035471e11593a5c,5f4f849481a77803ee32d4ff,4,,,,,,pepper,,,,,,,,,,,1,2,0,24,24,4,1,,,,,,,,,,,,,,,,,,,,,,,,,,,,,,,,,,,,,,,,,,,,,,,,,,,,,,,,,,,,,,,,,,,,,,
,,?,0.001055,0,,,,,,stimuli/images/PICTURE_296.png,CLOCK,5f3bccb10da2a70993ec38f2,08/05/1994,2020-09-02_12h40.31.345,proactive3.2,2020.1.2,Win32,60,5f47c0b9b035471e11593a5c,5f4f849481a77803ee32d4ff,4,,,,,,bolt,,,,,,,,,,,2,2,0,25,25,18,1,,,,,,,,,,,,,,,,,,,,,,,,,,,,,,,,,,,,,,,,,,,,,,,,,,,,,,,,,,,,,,,,,,,,,,
,,?,0.00145,0,,,,,,stimuli/images/PICTURE_2.png,JUNGLE,5f3bccb10da2a70993ec38f2,08/05/1994,2020-09-02_12h40.31.345,proactive3.2,2020.1.2,Win32,60,5f47c0b9b035471e11593a5c,5f4f849481a77803ee32d4ff,4,,,,,,tyre,,,,,,,,,,,1,2,0,26,26,1,1,,,,,,,,,,,,,,,,,,,,,,,,,,,,,,,,,,,,,,,,,,,,,,,,,,,,,,,,,,,,,,,,,,,,,,
,,?,0.000705,0,,,,,,stimuli/images/PICTURE_509.png,BATH,5f3bccb10da2a70993ec38f2,08/05/1994,2020-09-02_12h40.31.345,proactive3.2,2020.1.2,Win32,60,5f47c0b9b035471e11593a5c,5f4f849481a77803ee32d4ff,4,,,,,,telephone,,,,,,,,,,,2,2,0,27,27,15,1,,,,,,,,,,,,,,,,,,,,,,,,,,,,,,,,,,,,,,,,,,,,,,,,,,,,,,,,,,,,,,,,,,,,,,
,,?,0.00062,0,,,,,,stimuli/images/PICTURE_215.png,FOOD,5f3bccb10da2a70993ec38f2,08/05/1994,2020-09-02_12h40.31.345,proactive3.2,2020.1.2,Win32,60,5f47c0b9b035471e11593a5c,5f4f849481a77803ee32d4ff,4,,,,,,boot,,,,,,,,,,,1,2,0,28,28,5,1,,,,,,,,,,,,,,,,,,,,,,,,,,,,,,,,,,,,,,,,,,,,,,,,,,,,,,,,,,,,,,,,,,,,,,
,,LIENT,15.002935,0,,,,,,stimuli/images/PICTURE_95.png,NIGHT,5f3bccb10da2a70993ec38f2,08/05/1994,2020-09-02_12h40.31.345,proactive3.2,2020.1.2,Win32,60,5f47c0b9b035471e11593a5c,5f4f849481a77803ee32d4ff,4,,,,,,suitcase,,,,,,,,,,,4,2,0,29,29,37,1,,,,,,,,,,,,,,,,,,,,,,,,,,,,,,,,,,,,,,,,,,,,,,,,,,,,,,,,,,,,,,,,,,,,,,
,,?,0.001945,0,,,,,,stimuli/images/PICTURE_160.png,HOTEL,5f3bccb10da2a70993ec38f2,08/05/1994,2020-09-02_12h40.31.345,proactive3.2,2020.1.2,Win32,60,5f47c0b9b035471e11593a5c,5f4f849481a77803ee32d4ff,4,,,,,,wheelbarrow,,,,,,,,,,,2,2,0,30,30,16,1,,,,,,,,,,,,,,,,,,,,,,,,,,,,,,,,,,,,,,,,,,,,,,,,,,,,,,,,,,,,,,,,,,,,,,
,,?,0.00504,0,,,,,,stimuli/images/PICTURE_311.png,TOILET,5f3bccb10da2a70993ec38f2,08/05/1994,2020-09-02_12h40.31.345,proactive3.2,2020.1.2,Win32,60,5f47c0b9b035471e11593a5c,5f4f849481a77803ee32d4ff,4,,,,,,razor,,,,,,,,,,,6,2,0,31,31,54,1,,,,,,,,,,,,,,,,,,,,,,,,,,,,,,,,,,,,,,,,,,,,,,,,,,,,,,,,,,,,,,,,,,,,,,
,,CLIENT,6.974375,0,,,,,,stimuli/images/PICTURE_491.png,SERIES,5f3bccb10da2a70993ec38f2,08/05/1994,2020-09-02_12h40.31.345,proactive3.2,2020.1.2,Win32,60,5f47c0b9b035471e11593a5c,5f4f849481a77803ee32d4ff,4,,,,,,rug,,,,,,,,,,,4,2,0,32,32,39,1,,,,,,,,,,,,,,,,,,,,,,,,,,,,,,,,,,,,,,,,,,,,,,,,,,,,,,,,,,,,,,,,,,,,,,
,,?,0.002345,0,,,,,,stimuli/images/PICTURE_215.png,BOYS,5f3bccb10da2a70993ec38f2,08/05/1994,2020-09-02_12h40.31.345,proactive3.2,2020.1.2,Win32,60,5f47c0b9b035471e11593a5c,5f4f849481a77803ee32d4ff,4,,,,,,boot,,,,,,,,,,,3,2,0,33,33,24,1,,,,,,,,,,,,,,,,,,,,,,,,,,,,,,,,,,,,,,,,,,,,,,,,,,,,,,,,,,,,,,,,,,,,,,
,,?,0.00204,0,,,,,,stimuli/images/PICTURE_654.png,YEAR,5f3bccb10da2a70993ec38f2,08/05/1994,2020-09-02_12h40.31.345,proactive3.2,2020.1.2,Win32,60,5f47c0b9b035471e11593a5c,5f4f849481a77803ee32d4ff,4,,,,,,pencil,,,,,,,,,,,5,2,0,34,34,41,1,,,,,,,,,,,,,,,,,,,,,,,,,,,,,,,,,,,,,,,,,,,,,,,,,,,,,,,,,,,,,,,,,,,,,,
,,?,0.00213,0,,,,,,stimuli/images/PICTURE_692.png,DUDE,5f3bccb10da2a70993ec38f2,08/05/1994,2020-09-02_12h40.31.345,proactive3.2,2020.1.2,Win32,60,5f47c0b9b035471e11593a5c,5f4f849481a77803ee32d4ff,4,,,,,,cherry,,,,,,,,,,,5,2,0,35,35,47,1,,,,,,,,,,,,,,,,,,,,,,,,,,,,,,,,,,,,,,,,,,,,,,,,,,,,,,,,,,,,,,,,,,,,,,
,,?,0.002075,0,,,,,,stimuli/images/PICTURE_487.png,ROOF,5f3bccb10da2a70993ec38f2,08/05/1994,2020-09-02_12h40.31.345,proactive3.2,2020.1.2,Win32,60,5f47c0b9b035471e11593a5c,5f4f849481a77803ee32d4ff,4,,,,,,basket,,,,,,,,,,,6,2,0,36,36,50,1,,,,,,,,,,,,,,,,,,,,,,,,,,,,,,,,,,,,,,,,,,,,,,,,,,,,,,,,,,,,,,,,,,,,,,
,,?,0.00196,0,,,,,,stimuli/images/PICTURE_33.png,COPS,5f3bccb10da2a70993ec38f2,08/05/1994,2020-09-02_12h40.31.345,proactive3.2,2020.1.2,Win32,60,5f47c0b9b035471e11593a5c,5f4f849481a77803ee32d4ff,4,,,,,,frame,,,,,,,,,,,3,2,0,37,37,29,1,,,,,,,,,,,,,,,,,,,,,,,,,,,,,,,,,,,,,,,,,,,,,,,,,,,,,,,,,,,,,,,,,,,,,,
,,?,0.002305,0,,,,,,stimuli/images/PICTURE_509.png,SHOTS,5f3bccb10da2a70993ec38f2,08/05/1994,2020-09-02_12h40.31.345,proactive3.2,2020.1.2,Win32,60,5f47c0b9b035471e11593a5c,5f4f849481a77803ee32d4ff,4,,,,,,telephone,,,,,,,,,,,1,2,0,38,38,7,1,,,,,,,,,,,,,,,,,,,,,,,,,,,,,,,,,,,,,,,,,,,,,,,,,,,,,,,,,,,,,,,,,,,,,,
,,POLICY,2.229395,1,,,,,,stimuli/images/PICTURE_487.png,POLICY,5f3bccb10da2a70993ec38f2,08/05/1994,2020-09-02_12h40.31.345,proactive3.2,2020.1.2,Win32,60,5f47c0b9b035471e11593a5c,5f4f849481a77803ee32d4ff,4,,,,,,basket,,,,,,,,,,,4,2,0,39,39,34,1,,,,,,,,,,,,,,,,,,,,,,,,,,,,,,,,,,,,,,,,,,,,,,,,,,,,,,,,,,,,,,,,,,,,,,
,,?,0.001765,0,,,,,,stimuli/images/PICTURE_177.png,HOUSE,5f3bccb10da2a70993ec38f2,08/05/1994,2020-09-02_12h40.31.345,proactive3.2,2020.1.2,Win32,60,5f47c0b9b035471e11593a5c,5f4f849481a77803ee32d4ff,4,,,,,,mushroom,,,,,,,,,,,3,2,0,40,40,25,1,,,,,,,,,,,,,,,,,,,,,,,,,,,,,,,,,,,,,,,,,,,,,,,,,,,,,,,,,,,,,,,,,,,,,,
,,GIRL,1.779885,1,,,,,,stimuli/images/PICTURE_93.png,GIRL,5f3bccb10da2a70993ec38f2,08/05/1994,2020-09-02_12h40.31.345,proactive3.2,2020.1.2,Win32,60,5f47c0b9b035471e11593a5c,5f4f849481a77803ee32d4ff,4,,,,,,skateboard,,,,,,,,,,,4,2,0,41,41,31,1,,,,,,,,,,,,,,,,,,,,,,,,,,,,,,,,,,,,,,,,,,,,,,,,,,,,,,,,,,,,,,,,,,,,,,
,,?,0.002455,0,,,,,,stimuli/images/PICTURE_677.png,FAMILY,5f3bccb10da2a70993ec38f2,08/05/1994,2020-09-02_12h40.31.345,proactive3.2,2020.1.2,Win32,60,5f47c0b9b035471e11593a5c,5f4f849481a77803ee32d4ff,4,,,,,,map,,,,,,,,,,,6,2,0,42,42,53,1,,,,,,,,,,,,,,,,,,,,,,,,,,,,,,,,,,,,,,,,,,,,,,,,,,,,,,,,,,,,,,,,,,,,,,
,,?,0.001385,0,,,,,,stimuli/images/PICTURE_708.png,VALLEY,5f3bccb10da2a70993ec38f2,08/05/1994,2020-09-02_12h40.31.345,proactive3.2,2020.1.2,Win32,60,5f47c0b9b035471e11593a5c,5f4f849481a77803ee32d4ff,4,,,,,,monkey,,,,,,,,,,,5,2,0,43,43,45,1,,,,,,,,,,,,,,,,,,,,,,,,,,,,,,,,,,,,,,,,,,,,,,,,,,,,,,,,,,,,,,,,,,,,,,
,,HOUSE,1.67475,1,,,,,,stimuli/images/PICTURE_504.png,HOUSE,5f3bccb10da2a70993ec38f2,08/05/1994,2020-09-02_12h40.31.345,proactive3.2,2020.1.2,Win32,60,5f47c0b9b035471e11593a5c,5f4f849481a77803ee32d4ff,4,,,,,,wheel,,,,,,,,,,,4,2,0,44,44,36,1,,,,,,,,,,,,,,,,,,,,,,,,,,,,,,,,,,,,,,,,,,,,,,,,,,,,,,,,,,,,,,,,,,,,,,
,,?,0.002565,0,,,,,,stimuli/images/PICTURE_311.png,FLESH,5f3bccb10da2a70993ec38f2,08/05/1994,2020-09-02_12h40.31.345,proactive3.2,2020.1.2,Win32,60,5f47c0b9b035471e11593a5c,5f4f849481a77803ee32d4ff,4,,,,,,razor,,,,,,,,,,,1,2,0,45,45,3,1,,,,,,,,,,,,,,,,,,,,,,,,,,,,,,,,,,,,,,,,,,,,,,,,,,,,,,,,,,,,,,,,,,,,,,
,,?,0.00112,0,,,,,,stimuli/images/PICTURE_654.png,COPS,5f3bccb10da2a70993ec38f2,08/05/1994,2020-09-02_12h40.31.345,proactive3.2,2020.1.2,Win32,60,5f47c0b9b035471e11593a5c,5f4f849481a77803ee32d4ff,4,,,,,,pencil,,,,,,,,,,,2,2,0,46,46,10,1,,,,,,,,,,,,,,,,,,,,,,,,,,,,,,,,,,,,,,,,,,,,,,,,,,,,,,,,,,,,,,,,,,,,,,
,,?,0.001,0,,,,,,stimuli/images/PICTURE_57.png,CANDY,5f3bccb10da2a70993ec38f2,08/05/1994,2020-09-02_12h40.31.345,proactive3.2,2020.1.2,Win32,60,5f47c0b9b035471e11593a5c,5f4f849481a77803ee32d4ff,4,,,,,,stamp,,,,,,,,,,,6,2,0,47,47,52,1,,,,,,,,,,,,,,,,,,,,,,,,,,,,,,,,,,,,,,,,,,,,,,,,,,,,,,,,,,,,,,,,,,,,,,
,,?,0.001025,0,,,,,,stimuli/images/PICTURE_356.png,CANDY,5f3bccb10da2a70993ec38f2,08/05/1994,2020-09-02_12h40.31.345,proactive3.2,2020.1.2,Win32,60,5f47c0b9b035471e11593a5c,5f4f849481a77803ee32d4ff,4,,,,,,pawn,,,,,,,,,,,5,2,0,48,48,46,1,,,,,,,,,,,,,,,,,,,,,,,,,,,,,,,,,,,,,,,,,,,,,,,,,,,,,,,,,,,,,,,,,,,,,,
,,CLIENT,2.13866,1,,,,,,stimuli/images/PICTURE_141.png,CLIENT,5f3bccb10da2a70993ec38f2,08/05/1994,2020-09-02_12h40.31.345,proactive3.2,2020.1.2,Win32,60,5f47c0b9b035471e11593a5c,5f4f849481a77803ee32d4ff,4,,,,,,sunflower,,,,,,,,,,,4,2,0,49,49,30,1,,,,,,,,,,,,,,,,,,,,,,,,,,,,,,,,,,,,,,,,,,,,,,,,,,,,,,,,,,,,,,,,,,,,,,
,,?,0.00262,0,,,,,,stimuli/images/PICTURE_57.png,CASINO,5f3bccb10da2a70993ec38f2,08/05/1994,2020-09-02_12h40.31.345,proactive3.2,2020.1.2,Win32,60,5f47c0b9b035471e11593a5c,5f4f849481a77803ee32d4ff,4,,,,,,stamp,,,,,,,,,,,2,2,0,50,50,12,1,,,,,,,,,,,,,,,,,,,,,,,,,,,,,,,,,,,,,,,,,,,,,,,,,,,,,,,,,,,,,,,,,,,,,,
,,?,0.001355,0,,,,,,stimuli/images/PICTURE_255.png,PENNY,5f3bccb10da2a70993ec38f2,08/05/1994,2020-09-02_12h40.31.345,proactive3.2,2020.1.2,Win32,60,5f47c0b9b035471e11593a5c,5f4f849481a77803ee32d4ff,4,,,,,,shovel,,,,,,,,,,,2,2,0,51,51,19,1,,,,,,,,,,,,,,,,,,,,,,,,,,,,,,,,,,,,,,,,,,,,,,,,,,,,,,,,,,,,,,,,,,,,,,
,,?,0.001895,0,,,,,,stimuli/images/PICTURE_327.png,LEADER,5f3bccb10da2a70993ec38f2,08/05/1994,2020-09-02_12h40.31.345,proactive3.2,2020.1.2,Win32,60,5f47c0b9b035471e11593a5c,5f4f849481a77803ee32d4ff,4,,,,,,helmet,,,,,,,,,,,2,2,0,52,52,17,1,,,,,,,,,,,,,,,,,,,,,,,,,,,,,,,,,,,,,,,,,,,,,,,,,,,,,,,,,,,,,,,,,,,,,,
,,?,0.0012,0,,,,,,stimuli/images/PICTURE_470.png,MOMENT,5f3bccb10da2a70993ec38f2,08/05/1994,2020-09-02_12h40.31.345,proactive3.2,2020.1.2,Win32,60,5f47c0b9b035471e11593a5c,5f4f849481a77803ee32d4ff,4,,,,,,motorbike,,,,,,,,,,,5,2,0,53,53,40,1,,,,,,,,,,,,,,,,,,,,,,,,,,,,,,,,,,,,,,,,,,,,,,,,,,,,,,,,,,,,,,,,,,,,,,
,,?,0.001755,0,,,,,,stimuli/images/PICTURE_564.png,PLENTY,5f3bccb10da2a70993ec38f2,08/05/1994,2020-09-02_12h40.31.345,proactive3.2,2020.1.2,Win32,60,5f47c0b9b035471e11593a5c,5f4f849481a77803ee32d4ff,4,,,,,,spoon,,,,,,,,,,,2,2,0,54,54,11,1,,,,,,,,,,,,,,,,,,,,,,,,,,,,,,,,,,,,,,,,,,,,,,,,,,,,,,,,,,,,,,,,,,,,,,
,,?,0.001165,0,,,,,,stimuli/images/PICTURE_405.png,JUNGLE,5f3bccb10da2a70993ec38f2,08/05/1994,2020-09-02_12h40.31.345,proactive3.2,2020.1.2,Win32,60,5f47c0b9b035471e11593a5c,5f4f849481a77803ee32d4ff,4,,,,,,anchor,,,,,,,,,,,6,2,0,55,55,58,1,,,,,,,,,,,,,,,,,,,,,,,,,,,,,,,,,,,,,,,,,,,,,,,,,,,,,,,,,,,,,,,,,,,,,,
,,?,0.001475,0,,,,,,stimuli/images/PICTURE_655.png,SALE,5f3bccb10da2a70993ec38f2,08/05/1994,2020-09-02_12h40.31.345,proactive3.2,2020.1.2,Win32,60,5f47c0b9b035471e11593a5c,5f4f849481a77803ee32d4ff,4,,,,,,megaphone,,,,,,,,,,,6,2,0,56,56,57,1,,,,,,,,,,,,,,,,,,,,,,,,,,,,,,,,,,,,,,,,,,,,,,,,,,,,,,,,,,,,,,,,,,,,,,
,,?,0.00114,0,,,,,,stimuli/images/PICTURE_18.png,RIVER,5f3bccb10da2a70993ec38f2,08/05/1994,2020-09-02_12h40.31.345,proactive3.2,2020.1.2,Win32,60,5f47c0b9b035471e11593a5c,5f4f849481a77803ee32d4ff,4,,,,,,planet,,,,,,,,,,,3,2,0,57,57,22,1,,,,,,,,,,,,,,,,,,,,,,,,,,,,,,,,,,,,,,,,,,,,,,,,,,,,,,,,,,,,,,,,,,,,,,
,,?,0.001145,0,,,,,,stimuli/images/PICTURE_750.png,POLICY,5f3bccb10da2a70993ec38f2,08/05/1994,2020-09-02_12h40.31.345,proactive3.2,2020.1.2,Win32,60,5f47c0b9b035471e11593a5c,5f4f849481a77803ee32d4ff,4,,,,,,kettle,,,,,,,,,,,5,2,0,58,58,44,1,,,,,,,,,,,,,,,,,,,,,,,,,,,,,,,,,,,,,,,,,,,,,,,,,,,,,,,,,,,,,,,,,,,,,,
,,AREA,1.73412,1,,,,,,stimuli/images/PICTURE_2.png,AREA,5f3bccb10da2a70993ec38f2,08/05/1994,2020-09-02_12h40.31.345,proactive3.2,2020.1.2,Win32,60,5f47c0b9b035471e11593a5c,5f4f849481a77803ee32d4ff,4,,,,,,tyre,,,,,,,,,,,4,2,0,59,59,32,1,,,,,,,,,,,,,,,,,,,,,,,,,,,,,,,,,,,,,,,,,,,,,,,,,,,,,,,,,,,,,,,,,,,,,,
,,,,,,,,,,,,5f3bccb10da2a70993ec38f2,08/05/1994,2020-09-02_12h40.31.345,proactive3.2,2020.1.2,Win32,60,5f47c0b9b035471e11593a5c,5f4f849481a77803ee32d4ff,4,,,,,,,,,,,,,,,,,,,,,,,,0,0,0,2,1,stimuli/learn-block3.csv,,,,,,,,,,,,,,,,,,,,,,,,,,,,,,,,,,,,,,,,,,,,,,,,,,,,,,,,,,,,,,,,
,,,,,,,,,,stimuli/images/PICTURE_297.png,RIVER,5f3bccb10da2a70993ec38f2,08/05/1994,2020-09-02_12h40.31.345,proactive3.2,2020.1.2,Win32,60,5f47c0b9b035471e11593a5c,5f4f849481a77803ee32d4ff,4,,,,,,aeroplane,,,,,,0,0,0,39,1,4,1,,,,,,,,,,,,,,,,,,,,,,,,,,,,,,,,,,,,,,,,,,,,,,,,,,,,,,,,,,,,,,,,,,,,,,,,,,,
,,,,,,,,,,stimuli/images/PICTURE_32.png,PILLS,5f3bccb10da2a70993ec38f2,08/05/1994,2020-09-02_12h40.31.345,proactive3.2,2020.1.2,Win32,60,5f47c0b9b035471e11593a5c,5f4f849481a77803ee32d4ff,4,,,,,,crown,,,,,,0,1,1,18,1,2,1,,,,,,,,,,,,,,,,,,,,,,,,,,,,,,,,,,,,,,,,,,,,,,,,,,,,,,,,,,,,,,,,,,,,,,,,,,,
,,,,,,,,,,stimuli/images/PICTURE_32.png,KIND,5f3bccb10da2a70993ec38f2,08/05/1994,2020-09-02_12h40.31.345,proactive3.2,2020.1.2,Win32,60,5f47c0b9b035471e11593a5c,5f4f849481a77803ee32d4ff,4,,,,,,crown,,,,,,0,2,2,35,1,4,1,,,,,,,,,,,,,,,,,,,,,,,,,,,,,,,,,,,,,,,,,,,,,,,,,,,,,,,,,,,,,,,,,,,,,,,,,,,
,,,,,,,,,,stimuli/images/PICTURE_564.png,BATH,5f3bccb10da2a70993ec38f2,08/05/1994,2020-09-02_12h40.31.345,proactive3.2,2020.1.2,Win32,60,5f47c0b9b035471e11593a5c,5f4f849481a77803ee32d4ff,4,,,,,,spoon,,,,,,0,3,3,26,1,3,1,,,,,,,,,,,,,,,,,,,,,,,,,,,,,,,,,,,,,,,,,,,,,,,,,,,,,,,,,,,,,,,,,,,,,,,,,,,
,,,,,,,,,,stimuli/images/PICTURE_504.png,YEAR,5f3bccb10da2a70993ec38f2,08/05/1994,2020-09-02_12h40.31.345,proactive3.2,2020.1.2,Win32,60,5f47c0b9b035471e11593a5c,5f4f849481a77803ee32d4ff,4,,,,,,wheel,,,,,,0,4,4,13,1,2,1,,,,,,,,,,,,,,,,,,,,,,,,,,,,,,,,,,,,,,,,,,,,,,,,,,,,,,,,,,,,,,,,,,,,,,,,,,,
,,,,,,,,,,stimuli/images/PICTURE_467.png,POLICY,5f3bccb10da2a70993ec38f2,08/05/1994,2020-09-02_12h40.31.345,proactive3.2,2020.1.2,Win32,60,5f47c0b9b035471e11593a5c,5f4f849481a77803ee32d4ff,4,,,,,,peg,,,,,,0,5,5,53,1,6,1,,,,,,,,,,,,,,,,,,,,,,,,,,,,,,,,,,,,,,,,,,,,,,,,,,,,,,,,,,,,,,,,,,,,,,,,,,,
,,,,,,,,,,stimuli/images/PICTURE_208.png,SYSTEM,5f3bccb10da2a70993ec38f2,08/05/1994,2020-09-02_12h40.31.345,proactive3.2,2020.1.2,Win32,60,5f47c0b9b035471e11593a5c,5f4f849481a77803ee32d4ff,4,,,,,,microphone,,,,,,0,6,6,32,1,4,1,,,,,,,,,,,,,,,,,,,,,,,,,,,,,,,,,,,,,,,,,,,,,,,,,,,,,,,,,,,,,,,,,,,,,,,,,,,
,,,,,,,,,,stimuli/images/PICTURE_85.png,TOILET,5f3bccb10da2a70993ec38f2,08/05/1994,2020-09-02_12h40.31.345,proactive3.2,2020.1.2,Win32,60,5f47c0b9b035471e11593a5c,5f4f849481a77803ee32d4ff,4,,,,,,diamond,,,,,,0,7,7,48,1,5,1,,,,,,,,,,,,,,,,,,,,,,,,,,,,,,,,,,,,,,,,,,,,,,,,,,,,,,,,,,,,,,,,,,,,,,,,,,,
,,,,,,,,,,stimuli/images/PICTURE_147.png,WOMEN,5f3bccb10da2a70993ec38f2,08/05/1994,2020-09-02_12h40.31.345,proactive3.2,2020.1.2,Win32,60,5f47c0b9b035471e11593a5c,5f4f849481a77803ee32d4ff,4,,,,,,hanger,,,,,,0,8,8,7,1,1,1,,,,,,,,,,,,,,,,,,,,,,,,,,,,,,,,,,,,,,,,,,,,,,,,,,,,,,,,,,,,,,,,,,,,,,,,,,,
,,,,,,,,,,stimuli/images/PICTURE_339.png,CLIENT,5f3bccb10da2a70993ec38f2,08/05/1994,2020-09-02_12h40.31.345,proactive3.2,2020.1.2,Win32,60,5f47c0b9b035471e11593a5c,5f4f849481a77803ee32d4ff,4,,,,,,backpack,,,,,,0,9,9,11,1,2,1,,,,,,,,,,,,,,,,,,,,,,,,,,,,,,,,,,,,,,,,,,,,,,,,,,,,,,,,,,,,,,,,,,,,,,,,,,,
,,,,,,,,,,stimuli/images/PICTURE_383.png,WRITER,5f3bccb10da2a70993ec38f2,08/05/1994,2020-09-02_12h40.31.345,proactive3.2,2020.1.2,Win32,60,5f47c0b9b035471e11593a5c,5f4f849481a77803ee32d4ff,4,,,,,,coin,,,,,,0,10,10,28,1,3,1,,,,,,,,,,,,,,,,,,,,,,,,,,,,,,,,,,,,,,,,,,,,,,,,,,,,,,,,,,,,,,,,,,,,,,,,,,,
,,,,,,,,,,stimuli/images/PICTURE_675.png,SALE,5f3bccb10da2a70993ec38f2,08/05/1994,2020-09-02_12h40.31.345,proactive3.2,2020.1.2,Win32,60,5f47c0b9b035471e11593a5c,5f4f849481a77803ee32d4ff,4,,,,,,windmill,,,,,,0,11,11,47,1,5,1,,,,,,,,,,,,,,,,,,,,,,,,,,,,,,,,,,,,,,,,,,,,,,,,,,,,,,,,,,,,,,,,,,,,,,,,,,,
,,,,,,,,,,stimuli/images/PICTURE_750.png,HOTEL,5f3bccb10da2a70993ec38f2,08/05/1994,2020-09-02_12h40.31.345,proactive3.2,2020.1.2,Win32,60,5f47c0b9b035471e11593a5c,5f4f849481a77803ee32d4ff,4,,,,,,kettle,,,,,,0,12,12,27,1,3,1,,,,,,,,,,,,,,,,,,,,,,,,,,,,,,,,,,,,,,,,,,,,,,,,,,,,,,,,,,,,,,,,,,,,,,,,,,,
,,,,,,,,,,stimuli/images/PICTURE_340.png,VALLEY,5f3bccb10da2a70993ec38f2,08/05/1994,2020-09-02_12h40.31.345,proactive3.2,2020.1.2,Win32,60,5f47c0b9b035471e11593a5c,5f4f849481a77803ee32d4ff,4,,,,,,mirror,,,,,,0,13,13,54,1,6,1,,,,,,,,,,,,,,,,,,,,,,,,,,,,,,,,,,,,,,,,,,,,,,,,,,,,,,,,,,,,,,,,,,,,,,,,,,,
,,,,,,,,,,stimuli/images/PICTURE_654.png,MONTH,5f3bccb10da2a70993ec38f2,08/05/1994,2020-09-02_12h40.31.345,proactive3.2,2020.1.2,Win32,60,5f47c0b9b035471e11593a5c,5f4f849481a77803ee32d4ff,4,,,,,,pencil,,,,,,0,14,14,29,1,3,1,,,,,,,,,,,,,,,,,,,,,,,,,,,,,,,,,,,,,,,,,,,,,,,,,,,,,,,,,,,,,,,,,,,,,,,,,,,
,,,,,,,,,,stimuli/images/PICTURE_42.png,BOYS,5f3bccb10da2a70993ec38f2,08/05/1994,2020-09-02_12h40.31.345,proactive3.2,2020.1.2,Win32,60,5f47c0b9b035471e11593a5c,5f4f849481a77803ee32d4ff,4,,,,,,pear,,,,,,0,15,15,55,1,6,1,,,,,,,,,,,,,,,,,,,,,,,,,,,,,,,,,,,,,,,,,,,,,,,,,,,,,,,,,,,,,,,,,,,,,,,,,,,
,,,,,,,,,,stimuli/images/PICTURE_95.png,HONEY,5f3bccb10da2a70993ec38f2,08/05/1994,2020-09-02_12h40.31.345,proactive3.2,2020.1.2,Win32,60,5f47c0b9b035471e11593a5c,5f4f849481a77803ee32d4ff,4,,,,,,suitcase,,,,,,0,16,16,44,1,5,1,,,,,,,,,,,,,,,,,,,,,,,,,,,,,,,,,,,,,,,,,,,,,,,,,,,,,,,,,,,,,,,,,,,,,,,,,,,
,,,,,,,,,,stimuli/images/PICTURE_504.png,COPS,5f3bccb10da2a70993ec38f2,08/05/1994,2020-09-02_12h40.31.345,proactive3.2,2020.1.2,Win32,60,5f47c0b9b035471e11593a5c,5f4f849481a77803ee32d4ff,4,,,,,,wheel,,,,,,0,17,17,52,1,6,1,,,,,,,,,,,,,,,,,,,,,,,,,,,,,,,,,,,,,,,,,,,,,,,,,,,,,,,,,,,,,,,,,,,,,,,,,,,
,,,,,,,,,,stimuli/images/PICTURE_677.png,APPLE,5f3bccb10da2a70993ec38f2,08/05/1994,2020-09-02_12h40.31.345,proactive3.2,2020.1.2,Win32,60,5f47c0b9b035471e11593a5c,5f4f849481a77803ee32d4ff,4,,,,,,map,,,,,,0,18,18,43,1,5,1,,,,,,,,,,,,,,,,,,,,,,,,,,,,,,,,,,,,,,,,,,,,,,,,,,,,,,,,,,,,,,,,,,,,,,,,,,,
,,,,,,,,,,stimuli/images/PICTURE_285.png,LIFE,5f3bccb10da2a70993ec38f2,08/05/1994,2020-09-02_12h40.31.345,proactive3.2,2020.1.2,Win32,60,5f47c0b9b035471e11593a5c,5f4f849481a77803ee32d4ff,4,,,,,,carrot,,,,,,0,19,19,33,1,4,1,,,,,,,,,,,,,,,,,,,,,,,,,,,,,,,,,,,,,,,,,,,,,,,,,,,,,,,,,,,,,,,,,,,,,,,,,,,
,,,,,,,,,,stimuli/images/PICTURE_405.png,YEAR,5f3bccb10da2a70993ec38f2,08/05/1994,2020-09-02_12h40.31.345,proactive3.2,2020.1.2,Win32,60,5f47c0b9b035471e11593a5c,5f4f849481a77803ee32d4ff,4,,,,,,anchor,,,,,,0,20,20,34,1,4,1,,,,,,,,,,,,,,,,,,,,,,,,,,,,,,,,,,,,,,,,,,,,,,,,,,,,,,,,,,,,,,,,,,,,,,,,,,,
,,,,,,,,,,stimuli/images/PICTURE_504.png,ARTIST,5f3bccb10da2a70993ec38f2,08/05/1994,2020-09-02_12h40.31.345,proactive3.2,2020.1.2,Win32,60,5f47c0b9b035471e11593a5c,5f4f849481a77803ee32d4ff,4,,,,,,wheel,,,,,,0,21,21,49,1,5,1,,,,,,,,,,,,,,,,,,,,,,,,,,,,,,,,,,,,,,,,,,,,,,,,,,,,,,,,,,,,,,,,,,,,,,,,,,,
,,,,,,,,,,stimuli/images/PICTURE_383.png,SERIES,5f3bccb10da2a70993ec38f2,08/05/1994,2020-09-02_12h40.31.345,proactive3.2,2020.1.2,Win32,60,5f47c0b9b035471e11593a5c,5f4f849481a77803ee32d4ff,4,,,,,,coin,,,,,,0,22,22,46,1,5,1,,,,,,,,,,,,,,,,,,,,,,,,,,,,,,,,,,,,,,,,,,,,,,,,,,,,,,,,,,,,,,,,,,,,,,,,,,,
,,,,,,,,,,stimuli/images/PICTURE_2.png,FLIGHT,5f3bccb10da2a70993ec38f2,08/05/1994,2020-09-02_12h40.31.345,proactive3.2,2020.1.2,Win32,60,5f47c0b9b035471e11593a5c,5f4f849481a77803ee32d4ff,4,,,,,,tyre,,,,,,0,23,23,15,1,2,1,,,,,,,,,,,,,,,,,,,,,,,,,,,,,,,,,,,,,,,,,,,,,,,,,,,,,,,,,,,,,,,,,,,,,,,,,,,
,,,,,,,,,,stimuli/images/PICTURE_340.png,LETTER,5f3bccb10da2a70993ec38f2,08/05/1994,2020-09-02_12h40.31.345,proactive3.2,2020.1.2,Win32,60,5f47c0b9b035471e11593a5c,5f4f849481a77803ee32d4ff,4,,,,,,mirror,,,,,,0,24,24,24,1,3,1,,,,,,,,,,,,,,,,,,,,,,,,,,,,,,,,,,,,,,,,,,,,,,,,,,,,,,,,,,,,,,,,,,,,,,,,,,,
,,,,,,,,,,stimuli/images/PICTURE_449.png,DUDE,5f3bccb10da2a70993ec38f2,08/05/1994,2020-09-02_12h40.31.345,proactive3.2,2020.1.2,Win32,60,5f47c0b9b035471e11593a5c,5f4f849481a77803ee32d4ff,4,,,,,,bench,,,,,,0,25,25,17,1,2,1,,,,,,,,,,,,,,,,,,,,,,,,,,,,,,,,,,,,,,,,,,,,,,,,,,,,,,,,,,,,,,,,,,,,,,,,,,,
,,,,,,,,,,stimuli/images/PICTURE_85.png,NATION,5f3bccb10da2a70993ec38f2,08/05/1994,2020-09-02_12h40.31.345,proactive3.2,2020.1.2,Win32,60,5f47c0b9b035471e11593a5c,5f4f849481a77803ee32d4ff,4,,,,,,diamond,,,,,,0,26,26,5,1,1,1,,,,,,,,,,,,,,,,,,,,,,,,,,,,,,,,,,,,,,,,,,,,,,,,,,,,,,,,,,,,,,,,,,,,,,,,,,,
,,,,,,,,,,stimuli/images/PICTURE_233.png,LOTS,5f3bccb10da2a70993ec38f2,08/05/1994,2020-09-02_12h40.31.345,proactive3.2,2020.1.2,Win32,60,5f47c0b9b035471e11593a5c,5f4f849481a77803ee32d4ff,4,,,,,,salt,,,,,,0,27,27,42,1,5,1,,,,,,,,,,,,,,,,,,,,,,,,,,,,,,,,,,,,,,,,,,,,,,,,,,,,,,,,,,,,,,,,,,,,,,,,,,,
,,,,,,,,,,stimuli/images/PICTURE_33.png,FRIEND,5f3bccb10da2a70993ec38f2,08/05/1994,2020-09-02_12h40.31.345,proactive3.2,2020.1.2,Win32,60,5f47c0b9b035471e11593a5c,5f4f849481a77803ee32d4ff,4,,,,,,frame,,,,,,0,28,28,8,1,1,1,,,,,,,,,,,,,,,,,,,,,,,,,,,,,,,,,,,,,,,,,,,,,,,,,,,,,,,,,,,,,,,,,,,,,,,,,,,
,,,,,,,,,,stimuli/images/PICTURE_491.png,RIVER,5f3bccb10da2a70993ec38f2,08/05/1994,2020-09-02_12h40.31.345,proactive3.2,2020.1.2,Win32,60,5f47c0b9b035471e11593a5c,5f4f849481a77803ee32d4ff,4,,,,,,rug,,,,,,0,29,29,6,1,1,1,,,,,,,,,,,,,,,,,,,,,,,,,,,,,,,,,,,,,,,,,,,,,,,,,,,,,,,,,,,,,,,,,,,,,,,,,,,
,,,,,,,,,,stimuli/images/PICTURE_308.png,FAMILY,5f3bccb10da2a70993ec38f2,08/05/1994,2020-09-02_12h40.31.345,proactive3.2,2020.1.2,Win32,60,5f47c0b9b035471e11593a5c,5f4f849481a77803ee32d4ff,4,,,,,,dice,,,,,,0,30,30,36,1,4,1,,,,,,,,,,,,,,,,,,,,,,,,,,,,,,,,,,,,,,,,,,,,,,,,,,,,,,,,,,,,,,,,,,,,,,,,,,,
,,,,,,,,,,stimuli/images/PICTURE_667.png,RIVER,5f3bccb10da2a70993ec38f2,08/05/1994,2020-09-02_12h40.31.345,proactive3.2,2020.1.2,Win32,60,5f47c0b9b035471e11593a5c,5f4f849481a77803ee32d4ff,4,,,,,,daisy,,,,,,0,31,31,10,1,2,1,,,,,,,,,,,,,,,,,,,,,,,,,,,,,,,,,,,,,,,,,,,,,,,,,,,,,,,,,,,,,,,,,,,,,,,,,,,
,,,,,,,,,,stimuli/images/PICTURE_380.png,HONEY,5f3bccb10da2a70993ec38f2,08/05/1994,2020-09-02_12h40.31.345,proactive3.2,2020.1.2,Win32,60,5f47c0b9b035471e11593a5c,5f4f849481a77803ee32d4ff,4,,,,,,gorilla,,,,,,0,32,32,19,1,2,1,,,,,,,,,,,,,,,,,,,,,,,,,,,,,,,,,,,,,,,,,,,,,,,,,,,,,,,,,,,,,,,,,,,,,,,,,,,
,,,,,,,,,,stimuli/images/PICTURE_296.png,LIFE,5f3bccb10da2a70993ec38f2,08/05/1994,2020-09-02_12h40.31.345,proactive3.2,2020.1.2,Win32,60,5f47c0b9b035471e11593a5c,5f4f849481a77803ee32d4ff,4,,,,,,bolt,,,,,,0,33,33,57,1,6,1,,,,,,,,,,,,,,,,,,,,,,,,,,,,,,,,,,,,,,,,,,,,,,,,,,,,,,,,,,,,,,,,,,,,,,,,,,,
,,,,,,,,,,stimuli/images/PICTURE_68.png,MILE,5f3bccb10da2a70993ec38f2,08/05/1994,2020-09-02_12h40.31.345,proactive3.2,2020.1.2,Win32,60,5f47c0b9b035471e11593a5c,5f4f849481a77803ee32d4ff,4,,,,,,candle,,,,,,0,34,34,51,1,6,1,,,,,,,,,,,,,,,,,,,,,,,,,,,,,,,,,,,,,,,,,,,,,,,,,,,,,,,,,,,,,,,,,,,,,,,,,,,
,,,,,,,,,,stimuli/images/PICTURE_708.png,RECORD,5f3bccb10da2a70993ec38f2,08/05/1994,2020-09-02_12h40.31.345,proactive3.2,2020.1.2,Win32,60,5f47c0b9b035471e11593a5c,5f4f849481a77803ee32d4ff,4,,,,,,monkey,,,,,,0,35,35,58,1,6,1,,,,,,,,,,,,,,,,,,,,,,,,,,,,,,,,,,,,,,,,,,,,,,,,,,,,,,,,,,,,,,,,,,,,,,,,,,,
,,,,,,,,,,stimuli/images/PICTURE_403.png,RIVER,5f3bccb10da2a70993ec38f2,08/05/1994,2020-09-02_12h40.31.345,proactive3.2,2020.1.2,Win32,60,5f47c0b9b035471e11593a5c,5f4f849481a77803ee32d4ff,4,,,,,,cathedral,,,,,,0,36,36,40,1,5,1,,,,,,,,,,,,,,,,,,,,,,,,,,,,,,,,,,,,,,,,,,,,,,,,,,,,,,,,,,,,,,,,,,,,,,,,,,,
,,,,,,,,,,stimuli/images/PICTURE_177.png,WRITER,5f3bccb10da2a70993ec38f2,08/05/1994,2020-09-02_12h40.31.345,proactive3.2,2020.1.2,Win32,60,5f47c0b9b035471e11593a5c,5f4f849481a77803ee32d4ff,4,,,,,,mushroom,,,,,,0,37,37,41,1,5,1,,,,,,,,,,,,,,,,,,,,,,,,,,,,,,,,,,,,,,,,,,,,,,,,,,,,,,,,,,,,,,,,,,,,,,,,,,,
,,,,,,,,,,stimuli/images/PICTURE_327.png,CASINO,5f3bccb10da2a70993ec38f2,08/05/1994,2020-09-02_12h40.31.345,proactive3.2,2020.1.2,Win32,60,5f47c0b9b035471e11593a5c,5f4f849481a77803ee32d4ff,4,,,,,,helmet,,,,,,0,38,38,20,1,3,1,,,,,,,,,,,,,,,,,,,,,,,,,,,,,,,,,,,,,,,,,,,,,,,,,,,,,,,,,,,,,,,,,,,,,,,,,,,
,,,,,,,,,,stimuli/images/PICTURE_405.png,PLENTY,5f3bccb10da2a70993ec38f2,08/05/1994,2020-09-02_12h40.31.345,proactive3.2,2020.1.2,Win32,60,5f47c0b9b035471e11593a5c,5f4f849481a77803ee32d4ff,4,,,,,,anchor,,,,,,0,39,39,23,1,3,1,,,,,,,,,,,,,,,,,,,,,,,,,,,,,,,,,,,,,,,,,,,,,,,,,,,,,,,,,,,,,,,,,,,,,,,,,,,
,,,,,,,,,,stimuli/images/PICTURE_203.png,NIGHT,5f3bccb10da2a70993ec38f2,08/05/1994,2020-09-02_12h40.31.345,proactive3.2,2020.1.2,Win32,60,5f47c0b9b035471e11593a5c,5f4f849481a77803ee32d4ff,4,,,,,,cap,,,,,,0,40,40,2,1,1,1,,,,,,,,,,,,,,,,,,,,,,,,,,,,,,,,,,,,,,,,,,,,,,,,,,,,,,,,,,,,,,,,,,,,,,,,,,,
,,,,,,,,,,stimuli/images/PICTURE_403.png,WRITER,5f3bccb10da2a70993ec38f2,08/05/1994,2020-09-02_12h40.31.345,proactive3.2,2020.1.2,Win32,60,5f47c0b9b035471e11593a5c,5f4f849481a77803ee32d4ff,4,,,,,,cathedral,,,,,,0,41,41,31,1,4,1,,,,,,,,,,,,,,,,,,,,,,,,,,,,,,,,,,,,,,,,,,,,,,,,,,,,,,,,,,,,,,,,,,,,,,,,,,,
,,,,,,,,,,stimuli/images/PICTURE_685.png,PENNY,5f3bccb10da2a70993ec38f2,08/05/1994,2020-09-02_12h40.31.345,proactive3.2,2020.1.2,Win32,60,5f47c0b9b035471e11593a5c,5f4f849481a77803ee32d4ff,4,,,,,,goose,,,,,,0,42,42,4,1,1,1,,,,,,,,,,,,,,,,,,,,,,,,,,,,,,,,,,,,,,,,,,,,,,,,,,,,,,,,,,,,,,,,,,,,,,,,,,,
,,,,,,,,,,stimuli/images/PICTURE_327.png,SERIES,5f3bccb10da2a70993ec38f2,08/05/1994,2020-09-02_12h40.31.345,proactive3.2,2020.1.2,Win32,60,5f47c0b9b035471e11593a5c,5f4f849481a77803ee32d4ff,4,,,,,,helmet,,,,,,0,43,43,3,1,1,1,,,,,,,,,,,,,,,,,,,,,,,,,,,,,,,,,,,,,,,,,,,,,,,,,,,,,,,,,,,,,,,,,,,,,,,,,,,
,,,,,,,,,,stimuli/images/PICTURE_296.png,LOTS,5f3bccb10da2a70993ec38f2,08/05/1994,2020-09-02_12h40.31.345,proactive3.2,2020.1.2,Win32,60,5f47c0b9b035471e11593a5c,5f4f849481a77803ee32d4ff,4,,,,,,bolt,,,,,,0,44,44,9,1,1,1,,,,,,,,,,,,,,,,,,,,,,,,,,,,,,,,,,,,,,,,,,,,,,,,,,,,,,,,,,,,,,,,,,,,,,,,,,,
,,,,,,,,,,stimuli/images/PICTURE_744.png,WEAPON,5f3bccb10da2a70993ec38f2,08/05/1994,2020-09-02_12h40.31.345,proactive3.2,2020.1.2,Win32,60,5f47c0b9b035471e11593a5c,5f4f849481a77803ee32d4ff,4,,,,,,ring,,,,,,0,45,45,50,1,6,1,,,,,,,,,,,,,,,,,,,,,,,,,,,,,,,,,,,,,,,,,,,,,,,,,,,,,,,,,,,,,,,,,,,,,,,,,,,
,,,,,,,,,,stimuli/images/PICTURE_380.png,CANDY,5f3bccb10da2a70993ec38f2,08/05/1994,2020-09-02_12h40.31.345,proactive3.2,2020.1.2,Win32,60,5f47c0b9b035471e11593a5c,5f4f849481a77803ee32d4ff,4,,,,,,gorilla,,,,,,0,46,46,0,1,1,1,,,,,,,,,,,,,,,,,,,,,,,,,,,,,,,,,,,,,,,,,,,,,,,,,,,,,,,,,,,,,,,,,,,,,,,,,,,
,,,,,,,,,,stimuli/images/PICTURE_108.png,POLICY,5f3bccb10da2a70993ec38f2,08/05/1994,2020-09-02_12h40.31.345,proactive3.2,2020.1.2,Win32,60,5f47c0b9b035471e11593a5c,5f4f849481a77803ee32d4ff,4,,,,,,calendar,,,,,,0,47,47,22,1,3,1,,,,,,,,,,,,,,,,,,,,,,,,,,,,,,,,,,,,,,,,,,,,,,,,,,,,,,,,,,,,,,,,,,,,,,,,,,,
,,,,,,,,,,stimuli/images/PICTURE_469.png,AGENT,5f3bccb10da2a70993ec38f2,08/05/1994,2020-09-02_12h40.31.345,proactive3.2,2020.1.2,Win32,60,5f47c0b9b035471e11593a5c,5f4f849481a77803ee32d4ff,4,,,,,,stool,,,,,,0,48,48,16,1,2,1,,,,,,,,,,,,,,,,,,,,,,,,,,,,,,,,,,,,,,,,,,,,,,,,,,,,,,,,,,,,,,,,,,,,,,,,,,,
,,,,,,,,,,stimuli/images/PICTURE_95.png,BOYS,5f3bccb10da2a70993ec38f2,08/05/1994,2020-09-02_12h40.31.345,proactive3.2,2020.1.2,Win32,60,5f47c0b9b035471e11593a5c,5f4f849481a77803ee32d4ff,4,,,,,,suitcase,,,,,,0,49,49,1,1,1,1,,,,,,,,,,,,,,,,,,,,,,,,,,,,,,,,,,,,,,,,,,,,,,,,,,,,,,,,,,,,,,,,,,,,,,,,,,,
,,,,,,,,,,stimuli/images/PICTURE_203.png,GODS,5f3bccb10da2a70993ec38f2,08/05/1994,2020-09-02_12h40.31.345,proactive3.2,2020.1.2,Win32,60,5f47c0b9b035471e11593a5c,5f4f849481a77803ee32d4ff,4,,,,,,cap,,,,,,0,50,50,30,1,4,1,,,,,,,,,,,,,,,,,,,,,,,,,,,,,,,,,,,,,,,,,,,,,,,,,,,,,,,,,,,,,,,,,,,,,,,,,,,
,,,,,,,,,,stimuli/images/PICTURE_403.png,TOILET,5f3bccb10da2a70993ec38f2,08/05/1994,2020-09-02_12h40.31.345,proactive3.2,2020.1.2,Win32,60,5f47c0b9b035471e11593a5c,5f4f849481a77803ee32d4ff,4,,,,,,cathedral,,,,,,0,51,51,25,1,3,1,,,,,,,,,,,,,,,,,,,,,,,,,,,,,,,,,,,,,,,,,,,,,,,,,,,,,,,,,,,,,,,,,,,,,,,,,,,
,,,,,,,,,,stimuli/images/PICTURE_68.png,ROOF,5f3bccb10da2a70993ec38f2,08/05/1994,2020-09-02_12h40.31.345,proactive3.2,2020.1.2,Win32,60,5f47c0b9b035471e11593a5c,5f4f849481a77803ee32d4ff,4,,,,,,candle,,,,,,0,52,52,38,1,4,1,,,,,,,,,,,,,,,,,,,,,,,,,,,,,,,,,,,,,,,,,,,,,,,,,,,,,,,,,,,,,,,,,,,,,,,,,,,
,,,,,,,,,,stimuli/images/PICTURE_487.png,GIRL,5f3bccb10da2a70993ec38f2,08/05/1994,2020-09-02_12h40.31.345,proactive3.2,2020.1.2,Win32,60,5f47c0b9b035471e11593a5c,5f4f849481a77803ee32d4ff,4,,,,,,basket,,,,,,0,53,53,45,1,5,1,,,,,,,,,,,,,,,,,,,,,,,,,,,,,,,,,,,,,,,,,,,,,,,,,,,,,,,,,,,,,,,,,,,,,,,,,,,
,,,,,,,,,,stimuli/images/PICTURE_655.png,TOILET,5f3bccb10da2a70993ec38f2,08/05/1994,2020-09-02_12h40.31.345,proactive3.2,2020.1.2,Win32,60,5f47c0b9b035471e11593a5c,5f4f849481a77803ee32d4ff,4,,,,,,megaphone,,,,,,0,54,54,12,1,2,1,,,,,,,,,,,,,,,,,,,,,,,,,,,,,,,,,,,,,,,,,,,,,,,,,,,,,,,,,,,,,,,,,,,,,,,,,,,
,,,,,,,,,,stimuli/images/PICTURE_95.png,MILLER,5f3bccb10da2a70993ec38f2,08/05/1994,2020-09-02_12h40.31.345,proactive3.2,2020.1.2,Win32,60,5f47c0b9b035471e11593a5c,5f4f849481a77803ee32d4ff,4,,,,,,suitcase,,,,,,0,55,55,56,1,6,1,,,,,,,,,,,,,,,,,,,,,,,,,,,,,,,,,,,,,,,,,,,,,,,,,,,,,,,,,,,,,,,,,,,,,,,,,,,
,,,,,,,,,,stimuli/images/PICTURE_147.png,YEAR,5f3bccb10da2a70993ec38f2,08/05/1994,2020-09-02_12h40.31.345,proactive3.2,2020.1.2,Win32,60,5f47c0b9b035471e11593a5c,5f4f849481a77803ee32d4ff,4,,,,,,hanger,,,,,,0,56,56,21,1,3,1,,,,,,,,,,,,,,,,,,,,,,,,,,,,,,,,,,,,,,,,,,,,,,,,,,,,,,,,,,,,,,,,,,,,,,,,,,,
,,,,,,,,,,stimuli/images/PICTURE_108.png,FLIGHT,5f3bccb10da2a70993ec38f2,08/05/1994,2020-09-02_12h40.31.345,proactive3.2,2020.1.2,Win32,60,5f47c0b9b035471e11593a5c,5f4f849481a77803ee32d4ff,4,,,,,,calendar,,,,,,0,57,57,59,1,6,1,,,,,,,,,,,,,,,,,,,,,,,,,,,,,,,,,,,,,,,,,,,,,,,,,,,,,,,,,,,,,,,,,,,,,,,,,,,
,,,,,,,,,,stimuli/images/PICTURE_491.png,GLASS,5f3bccb10da2a70993ec38f2,08/05/1994,2020-09-02_12h40.31.345,proactive3.2,2020.1.2,Win32,60,5f47c0b9b035471e11593a5c,5f4f849481a77803ee32d4ff,4,,,,,,rug,,,,,,0,58,58,14,1,2,1,,,,,,,,,,,,,,,,,,,,,,,,,,,,,,,,,,,,,,,,,,,,,,,,,,,,,,,,,,,,,,,,,,,,,,,,,,,
,,?,0.001455,0,,,,,,stimuli/images/PICTURE_42.png,BOYS,5f3bccb10da2a70993ec38f2,08/05/1994,2020-09-02_12h40.31.345,proactive3.2,2020.1.2,Win32,60,5f47c0b9b035471e11593a5c,5f4f849481a77803ee32d4ff,4,,,,,,pear,,,,,,,,,,,6,1,0,0,0,55,1,,,,,,,,,,,,,,,,,,,,,,,,,,,,,,,,,,,,,,,,,,,,,,,,,,,,,,,,,,,,,,,,,,,,,,
,,?,0.00112,0,,,,,,stimuli/images/PICTURE_233.png,LOTS,5f3bccb10da2a70993ec38f2,08/05/1994,2020-09-02_12h40.31.345,proactive3.2,2020.1.2,Win32,60,5f47c0b9b035471e11593a5c,5f4f849481a77803ee32d4ff,4,,,,,,salt,,,,,,,,,,,5,1,0,1,1,42,1,,,,,,,,,,,,,,,,,,,,,,,,,,,,,,,,,,,,,,,,,,,,,,,,,,,,,,,,,,,,,,,,,,,,,,
,,?,0.001195,0,,,,,,stimuli/images/PICTURE_667.png,RIVER,5f3bccb10da2a70993ec38f2,08/05/1994,2020-09-02_12h40.31.345,proactive3.2,2020.1.2,Win32,60,5f47c0b9b035471e11593a5c,5f4f849481a77803ee32d4ff,4,,,,,,daisy,,,,,,,,,,,2,1,0,2,2,10,1,,,,,,,,,,,,,,,,,,,,,,,,,,,,,,,,,,,,,,,,,,,,,,,,,,,,,,,,,,,,,,,,,,,,,,
,,?,0.001015,0,,,,,,stimuli/images/PICTURE_339.png,CLIENT,5f3bccb10da2a70993ec38f2,08/05/1994,2020-09-02_12h40.31.345,proactive3.2,2020.1.2,Win32,60,5f47c0b9b035471e11593a5c,5f4f849481a77803ee32d4ff,4,,,,,,backpack,,,,,,,,,,,2,1,0,3,3,11,1,,,,,,,,,,,,,,,,,,,,,,,,,,,,,,,,,,,,,,,,,,,,,,,,,,,,,,,,,,,,,,,,,,,,,,
,,ROOF,4.083895,1,,,,,,stimuli/images/PICTURE_68.png,ROOF,5f3bccb10da2a70993ec38f2,08/05/1994,2020-09-02_12h40.31.345,proactive3.2,2020.1.2,Win32,60,5f47c0b9b035471e11593a5c,5f4f849481a77803ee32d4ff,4,,,,,,candle,,,,,,,,,,,4,1,0,4,4,38,1,,,,,,,,,,,,,,,,,,,,,,,,,,,,,,,,,,,,,,,,,,,,,,,,,,,,,,,,,,,,,,,,,,,,,,
,,?,0.00197,0,,,,,,stimuli/images/PICTURE_655.png,TOILET,5f3bccb10da2a70993ec38f2,08/05/1994,2020-09-02_12h40.31.345,proactive3.2,2020.1.2,Win32,60,5f47c0b9b035471e11593a5c,5f4f849481a77803ee32d4ff,4,,,,,,megaphone,,,,,,,,,,,2,1,0,5,5,12,1,,,,,,,,,,,,,,,,,,,,,,,,,,,,,,,,,,,,,,,,,,,,,,,,,,,,,,,,,,,,,,,,,,,,,,
,,?,0.00108,0,,,,,,stimuli/images/PICTURE_469.png,AGENT,5f3bccb10da2a70993ec38f2,08/05/1994,2020-09-02_12h40.31.345,proactive3.2,2020.1.2,Win32,60,5f47c0b9b035471e11593a5c,5f4f849481a77803ee32d4ff,4,,,,,,stool,,,,,,,,,,,2,1,0,6,6,16,1,,,,,,,,,,,,,,,,,,,,,,,,,,,,,,,,,,,,,,,,,,,,,,,,,,,,,,,,,,,,,,,,,,,,,,
,,?,0.00096,0,,,,,,stimuli/images/PICTURE_327.png,SERIES,5f3bccb10da2a70993ec38f2,08/05/1994,2020-09-02_12h40.31.345,proactive3.2,2020.1.2,Win32,60,5f47c0b9b035471e11593a5c,5f4f849481a77803ee32d4ff,4,,,,,,helmet,,,,,,,,,,,1,1,0,7,7,3,1,,,,,,,,,,,,,,,,,,,,,,,,,,,,,,,,,,,,,,,,,,,,,,,,,,,,,,,,,,,,,,,,,,,,,,
,,?,0.001965,0,,,,,,stimuli/images/PICTURE_449.png,DUDE,5f3bccb10da2a70993ec38f2,08/05/1994,2020-09-02_12h40.31.345,proactive3.2,2020.1.2,Win32,60,5f47c0b9b035471e11593a5c,5f4f849481a77803ee32d4ff,4,,,,,,bench,,,,,,,,,,,2,1,0,8,8,17,1,,,,,,,,,,,,,,,,,,,,,,,,,,,,,,,,,,,,,,,,,,,,,,,,,,,,,,,,,,,,,,,,,,,,,,
,,?,0.000985,0,,,,,,stimuli/images/PICTURE_744.png,WEAPON,5f3bccb10da2a70993ec38f2,08/05/1994,2020-09-02_12h40.31.345,proactive3.2,2020.1.2,Win32,60,5f47c0b9b035471e11593a5c,5f4f849481a77803ee32d4ff,4,,,,,,ring,,,,,,,,,,,6,1,0,9,9,50,1,,,,,,,,,,,,,,,,,,,,,,,,,,,,,,,,,,,,,,,,,,,,,,,,,,,,,,,,,,,,,,,,,,,,,,
,,?,0.000945,0,,,,,,stimuli/images/PICTURE_2.png,FLIGHT,5f3bccb10da2a70993ec38f2,08/05/1994,2020-09-02_12h40.31.345,proactive3.2,2020.1.2,Win32,60,5f47c0b9b035471e11593a5c,5f4f849481a77803ee32d4ff,4,,,,,,tyre,,,,,,,,,,,2,1,0,10,10,15,1,,,,,,,,,,,,,,,,,,,,,,,,,,,,,,,,,,,,,,,,,,,,,,,,,,,,,,,,,,,,,,,,,,,,,,
,,?,0.00095,0,,,,,,stimuli/images/PICTURE_85.png,NATION,5f3bccb10da2a70993ec38f2,08/05/1994,2020-09-02_12h40.31.345,proactive3.2,2020.1.2,Win32,60,5f47c0b9b035471e11593a5c,5f4f849481a77803ee32d4ff,4,,,,,,diamond,,,,,,,,,,,1,1,0,11,11,5,1,,,,,,,,,,,,,,,,,,,,,,,,,,,,,,,,,,,,,,,,,,,,,,,,,,,,,,,,,,,,,,,,,,,,,,
,,FAMILY,2.14677,1,,,,,,stimuli/images/PICTURE_308.png,FAMILY,5f3bccb10da2a70993ec38f2,08/05/1994,2020-09-02_12h40.31.345,proactive3.2,2020.1.2,Win32,60,5f47c0b9b035471e11593a5c,5f4f849481a77803ee32d4ff,4,,,,,,dice,,,,,,,,,,,4,1,0,12,12,36,1,,,,,,,,,,,,,,,,,,,,,,,,,,,,,,,,,,,,,,,,,,,,,,,,,,,,,,,,,,,,,,,,,,,,,,
,,?,0.00251,0,,,,,,stimuli/images/PICTURE_677.png,APPLE,5f3bccb10da2a70993ec38f2,08/05/1994,2020-09-02_12h40.31.345,proactive3.2,2020.1.2,Win32,60,5f47c0b9b035471e11593a5c,5f4f849481a77803ee32d4ff,4,,,,,,map,,,,,,,,,,,5,1,0,13,13,43,1,,,,,,,,,,,,,,,,,,,,,,,,,,,,,,,,,,,,,,,,,,,,,,,,,,,,,,,,,,,,,,,,,,,,,,
,,?,0.00131,0,,,,,,stimuli/images/PICTURE_504.png,COPS,5f3bccb10da2a70993ec38f2,08/05/1994,2020-09-02_12h40.31.345,proactive3.2,2020.1.2,Win32,60,5f47c0b9b035471e11593a5c,5f4f849481a77803ee32d4ff,4,,,,,,wheel,,,,,,,,,,,6,1,0,14,14,52,1,,,,,,,,,,,,,,,,,,,,,,,,,,,,,,,,,,,,,,,,,,,,,,,,,,,,,,,,,,,,,,,,,,,,,,
,,?,0.001275,0,,,,,,stimuli/images/PICTURE_675.png,SALE,5f3bccb10da2a70993ec38f2,08/05/1994,2020-09-02_12h40.31.345,proactive3.2,2020.1.2,Win32,60,5f47c0b9b035471e11593a5c,5f4f849481a77803ee32d4ff,4,,,,,,windmill,,,,,,,,,,,5,1,0,15,15,47,1,,,,,,,,,,,,,,,,,,,,,,,,,,,,,,,,,,,,,,,,,,,,,,,,,,,,,,,,,,,,,,,,,,,,,,
,,?,0.00122,0,,,,,,stimuli/images/PICTURE_147.png,YEAR,5f3bccb10da2a70993ec38f2,08/05/1994,2020-09-02_12h40.31.345,proactive3.2,2020.1.2,Win32,60,5f47c0b9b035471e11593a5c,5f4f849481a77803ee32d4ff,4,,,,,,hanger,,,,,,,,,,,3,1,0,16,16,21,1,,,,,,,,,,,,,,,,,,,,,,,,,,,,,,,,,,,,,,,,,,,,,,,,,,,,,,,,,,,,,,,,,,,,,,
,,?,0.001465,0,,,,,,stimuli/images/PICTURE_403.png,RIVER,5f3bccb10da2a70993ec38f2,08/05/1994,2020-09-02_12h40.31.345,proactive3.2,2020.1.2,Win32,60,5f47c0b9b035471e11593a5c,5f4f849481a77803ee32d4ff,4,,,,,,cathedral,,,,,,,,,,,5,1,0,17,17,40,1,,,,,,,,,,,,,,,,,,,,,,,,,,,,,,,,,,,,,,,,,,,,,,,,,,,,,,,,,,,,,,,,,,,,,,
,,?,0.001385,0,,,,,,stimuli/images/PICTURE_33.png,FRIEND,5f3bccb10da2a70993ec38f2,08/05/1994,2020-09-02_12h40.31.345,proactive3.2,2020.1.2,Win32,60,5f47c0b9b035471e11593a5c,5f4f849481a77803ee32d4ff,4,,,,,,frame,,,,,,,,,,,1,1,0,18,18,8,1,,,,,,,,,,,,,,,,,,,,,,,,,,,,,,,,,,,,,,,,,,,,,,,,,,,,,,,,,,,,,,,,,,,,,,
,,?,0.00106,0,,,,,,stimuli/images/PICTURE_708.png,RECORD,5f3bccb10da2a70993ec38f2,08/05/1994,2020-09-02_12h40.31.345,proactive3.2,2020.1.2,Win32,60,5f47c0b9b035471e11593a5c,5f4f849481a77803ee32d4ff,4,,,,,,monkey,,,,,,,,,,,6,1,0,19,19,58,1,,,,,,,,,,,,,,,,,,,,,,,,,,,,,,,,,,,,,,,,,,,,,,,,,,,,,,,,,,,,,,,,,,,,,,
,,?,0.00114,0,,,,,,stimuli/images/PICTURE_487.png,GIRL,5f3bccb10da2a70993ec38f2,08/05/1994,2020-09-02_12h40.31.345,proactive3.2,2020.1.2,Win32,60,5f47c0b9b035471e11593a5c,5f4f849481a77803ee32d4ff,4,,,,,,basket,,,,,,,,,,,5,1,0,20,20,45,1,,,,,,,,,,,,,,,,,,,,,,,,,,,,,,,,,,,,,,,,,,,,,,,,,,,,,,,,,,,,,,,,,,,,,,
,,?,0.001025,0,,,,,,stimuli/images/PICTURE_85.png,TOILET,5f3bccb10da2a70993ec38f2,08/05/1994,2020-09-02_12h40.31.345,proactive3.2,2020.1.2,Win32,60,5f47c0b9b035471e11593a5c,5f4f849481a77803ee32d4ff,4,,,,,,diamond,,,,,,,,,,,5,1,0,21,21,48,1,,,,,,,,,,,,,,,,,,,,,,,,,,,,,,,,,,,,,,,,,,,,,,,,,,,,,,,,,,,,,,,,,,,,,,
,,?,0.001105,0,,,,,,stimuli/images/PICTURE_108.png,FLIGHT,5f3bccb10da2a70993ec38f2,08/05/1994,2020-09-02_12h40.31.345,proactive3.2,2020.1.2,Win32,60,5f47c0b9b035471e11593a5c,5f4f849481a77803ee32d4ff,4,,,,,,calendar,,,,,,,,,,,6,1,0,22,22,59,1,,,,,,,,,,,,,,,,,,,,,,,,,,,,,,,,,,,,,,,,,,,,,,,,,,,,,,,,,,,,,,,,,,,,,,
,,YEAR,2.28705,1,,,,,,stimuli/images/PICTURE_405.png,YEAR,5f3bccb10da2a70993ec38f2,08/05/1994,2020-09-02_12h40.31.345,proactive3.2,2020.1.2,Win32,60,5f47c0b9b035471e11593a5c,5f4f849481a77803ee32d4ff,4,,,,,,anchor,,,,,,,,,,,4,1,0,23,23,34,1,,,,,,,,,,,,,,,,,,,,,,,,,,,,,,,,,,,,,,,,,,,,,,,,,,,,,,,,,,,,,,,,,,,,,,
,,?,0.003875,0,,,,,,stimuli/images/PICTURE_564.png,BATH,5f3bccb10da2a70993ec38f2,08/05/1994,2020-09-02_12h40.31.345,proactive3.2,2020.1.2,Win32,60,5f47c0b9b035471e11593a5c,5f4f849481a77803ee32d4ff,4,,,,,,spoon,,,,,,,,,,,3,1,0,24,24,26,1,,,,,,,,,,,,,,,,,,,,,,,,,,,,,,,,,,,,,,,,,,,,,,,,,,,,,,,,,,,,,,,,,,,,,,
,,LIFE,1.73693,1,,,,,,stimuli/images/PICTURE_285.png,LIFE,5f3bccb10da2a70993ec38f2,08/05/1994,2020-09-02_12h40.31.345,proactive3.2,2020.1.2,Win32,60,5f47c0b9b035471e11593a5c,5f4f849481a77803ee32d4ff,4,,,,,,carrot,,,,,,,,,,,4,1,0,25,25,33,1,,,,,,,,,,,,,,,,,,,,,,,,,,,,,,,,,,,,,,,,,,,,,,,,,,,,,,,,,,,,,,,,,,,,,,
,,?,0.003245,0,,,,,,stimuli/images/PICTURE_504.png,ARTIST,5f3bccb10da2a70993ec38f2,08/05/1994,2020-09-02_12h40.31.345,proactive3.2,2020.1.2,Win32,60,5f47c0b9b035471e11593a5c,5f4f849481a77803ee32d4ff,4,,,,,,wheel,,,,,,,,,,,5,1,0,26,26,49,1,,,,,,,,,,,,,,,,,,,,,,,,,,,,,,,,,,,,,,,,,,,,,,,,,,,,,,,,,,,,,,,,,,,,,,
,,WRITER,2.12586,1,,,,,,stimuli/images/PICTURE_403.png,WRITER,5f3bccb10da2a70993ec38f2,08/05/1994,2020-09-02_12h40.31.345,proactive3.2,2020.1.2,Win32,60,5f47c0b9b035471e11593a5c,5f4f849481a77803ee32d4ff,4,,,,,,cathedral,,,,,,,,,,,4,1,0,27,27,31,1,,,,,,,,,,,,,,,,,,,,,,,,,,,,,,,,,,,,,,,,,,,,,,,,,,,,,,,,,,,,,,,,,,,,,,
,,?,0.002215,0,,,,,,stimuli/images/PICTURE_403.png,TOILET,5f3bccb10da2a70993ec38f2,08/05/1994,2020-09-02_12h40.31.345,proactive3.2,2020.1.2,Win32,60,5f47c0b9b035471e11593a5c,5f4f849481a77803ee32d4ff,4,,,,,,cathedral,,,,,,,,,,,3,1,0,28,28,25,1,,,,,,,,,,,,,,,,,,,,,,,,,,,,,,,,,,,,,,,,,,,,,,,,,,,,,,,,,,,,,,,,,,,,,,
,,?,0.00121,0,,,,,,stimuli/images/PICTURE_177.png,WRITER,5f3bccb10da2a70993ec38f2,08/05/1994,2020-09-02_12h40.31.345,proactive3.2,2020.1.2,Win32,60,5f47c0b9b035471e11593a5c,5f4f849481a77803ee32d4ff,4,,,,,,mushroom,,,,,,,,,,,5,1,0,29,29,41,1,,,,,,,,,,,,,,,,,,,,,,,,,,,,,,,,,,,,,,,,,,,,,,,,,,,,,,,,,,,,,,,,,,,,,,
,,?,0.00103,0,,,,,,stimuli/images/PICTURE_654.png,MONTH,5f3bccb10da2a70993ec38f2,08/05/1994,2020-09-02_12h40.31.345,proactive3.2,2020.1.2,Win32,60,5f47c0b9b035471e11593a5c,5f4f849481a77803ee32d4ff,4,,,,,,pencil,,,,,,,,,,,3,1,0,30,30,29,1,,,,,,,,,,,,,,,,,,,,,,,,,,,,,,,,,,,,,,,,,,,,,,,,,,,,,,,,,,,,,,,,,,,,,,
,,?,0.00101,0,,,,,,stimuli/images/PICTURE_340.png,VALLEY,5f3bccb10da2a70993ec38f2,08/05/1994,2020-09-02_12h40.31.345,proactive3.2,2020.1.2,Win32,60,5f47c0b9b035471e11593a5c,5f4f849481a77803ee32d4ff,4,,,,,,mirror,,,,,,,,,,,6,1,0,31,31,54,1,,,,,,,,,,,,,,,,,,,,,,,,,,,,,,,,,,,,,,,,,,,,,,,,,,,,,,,,,,,,,,,,,,,,,,
,,?,0.001095,0,,,,,,stimuli/images/PICTURE_340.png,LETTER,5f3bccb10da2a70993ec38f2,08/05/1994,2020-09-02_12h40.31.345,proactive3.2,2020.1.2,Win32,60,5f47c0b9b035471e11593a5c,5f4f849481a77803ee32d4ff,4,,,,,,mirror,,,,,,,,,,,3,1,0,32,32,24,1,,,,,,,,,,,,,,,,,,,,,,,,,,,,,,,,,,,,,,,,,,,,,,,,,,,,,,,,,,,,,,,,,,,,,,
,,?,0.002145,0,,,,,,stimuli/images/PICTURE_405.png,PLENTY,5f3bccb10da2a70993ec38f2,08/05/1994,2020-09-02_12h40.31.345,proactive3.2,2020.1.2,Win32,60,5f47c0b9b035471e11593a5c,5f4f849481a77803ee32d4ff,4,,,,,,anchor,,,,,,,,,,,3,1,0,33,33,23,1,,,,,,,,,,,,,,,,,,,,,,,,,,,,,,,,,,,,,,,,,,,,,,,,,,,,,,,,,,,,,,,,,,,,,,
,,?,0.001295,0,,,,,,stimuli/images/PICTURE_685.png,PENNY,5f3bccb10da2a70993ec38f2,08/05/1994,2020-09-02_12h40.31.345,proactive3.2,2020.1.2,Win32,60,5f47c0b9b035471e11593a5c,5f4f849481a77803ee32d4ff,4,,,,,,goose,,,,,,,,,,,1,1,0,34,34,4,1,,,,,,,,,,,,,,,,,,,,,,,,,,,,,,,,,,,,,,,,,,,,,,,,,,,,,,,,,,,,,,,,,,,,,,
,,RIVER,2.625315,1,,,,,,stimuli/images/PICTURE_297.png,RIVER,5f3bccb10da2a70993ec38f2,08/05/1994,2020-09-02_12h40.31.345,proactive3.2,2020.1.2,Win32,60,5f47c0b9b035471e11593a5c,5f4f849481a77803ee32d4ff,4,,,,,,aeroplane,,,,,,,,,,,4,1,0,35,35,39,1,,,,,,,,,,,,,,,,,,,,,,,,,,,,,,,,,,,,,,,,,,,,,,,,,,,,,,,,,,,,,,,,,,,,,,
,,?,0.00122,0,,,,,,stimuli/images/PICTURE_68.png,MILE,5f3bccb10da2a70993ec38f2,08/05/1994,2020-09-02_12h40.31.345,proactive3.2,2020.1.2,Win32,60,5f47c0b9b035471e11593a5c,5f4f849481a77803ee32d4ff,4,,,,,,candle,,,,,,,,,,,6,1,0,36,36,51,1,,,,,,,,,,,,,,,,,,,,,,,,,,,,,,,,,,,,,,,,,,,,,,,,,,,,,,,,,,,,,,,,,,,,,,
,,?,0.00084,0,,,,,,stimuli/images/PICTURE_750.png,HOTEL,5f3bccb10da2a70993ec38f2,08/05/1994,2020-09-02_12h40.31.345,proactive3.2,2020.1.2,Win32,60,5f47c0b9b035471e11593a5c,5f4f849481a77803ee32d4ff,4,,,,,,kettle,,,,,,,,,,,3,1,0,37,37,27,1,,,,,,,,,,,,,,,,,,,,,,,,,,,,,,,,,,,,,,,,,,,,,,,,,,,,,,,,,,,,,,,,,,,,,,
,,?,0.00069,0,,,,,,stimuli/images/PICTURE_108.png,POLICY,5f3bccb10da2a70993ec38f2,08/05/1994,2020-09-02_12h40.31.345,proactive3.2,2020.1.2,Win32,60,5f47c0b9b035471e11593a5c,5f4f849481a77803ee32d4ff,4,,,,,,calendar,,,,,,,,,,,3,1,0,38,38,22,1,,,,,,,,,,,,,,,,,,,,,,,,,,,,,,,,,,,,,,,,,,,,,,,,,,,,,,,,,,,,,,,,,,,,,,
,,?,0.000675,0,,,,,,stimuli/images/PICTURE_95.png,BOYS,5f3bccb10da2a70993ec38f2,08/05/1994,2020-09-02_12h40.31.345,proactive3.2,2020.1.2,Win32,60,5f47c0b9b035471e11593a5c,5f4f849481a77803ee32d4ff,4,,,,,,suitcase,,,,,,,,,,,1,1,0,39,39,1,1,,,,,,,,,,,,,,,,,,,,,,,,,,,,,,,,,,,,,,,,,,,,,,,,,,,,,,,,,,,,,,,,,,,,,,
,,GODS,1.75972,1,,,,,,stimuli/images/PICTURE_203.png,GODS,5f3bccb10da2a70993ec38f2,08/05/1994,2020-09-02_12h40.31.345,proactive3.2,2020.1.2,Win32,60,5f47c0b9b035471e11593a5c,5f4f849481a77803ee32d4ff,4,,,,,,cap,,,,,,,,,,,4,1,0,40,40,30,1,,,,,,,,,,,,,,,,,,,,,,,,,,,,,,,,,,,,,,,,,,,,,,,,,,,,,,,,,,,,,,,,,,,,,,
,,?,0.00188,0,,,,,,stimuli/images/PICTURE_504.png,YEAR,5f3bccb10da2a70993ec38f2,08/05/1994,2020-09-02_12h40.31.345,proactive3.2,2020.1.2,Win32,60,5f47c0b9b035471e11593a5c,5f4f849481a77803ee32d4ff,4,,,,,,wheel,,,,,,,,,,,2,1,0,41,41,13,1,,,,,,,,,,,,,,,,,,,,,,,,,,,,,,,,,,,,,,,,,,,,,,,,,,,,,,,,,,,,,,,,,,,,,,
,,?,0.00101,0,,,,,,stimuli/images/PICTURE_467.png,POLICY,5f3bccb10da2a70993ec38f2,08/05/1994,2020-09-02_12h40.31.345,proactive3.2,2020.1.2,Win32,60,5f47c0b9b035471e11593a5c,5f4f849481a77803ee32d4ff,4,,,,,,peg,,,,,,,,,,,6,1,0,42,42,53,1,,,,,,,,,,,,,,,,,,,,,,,,,,,,,,,,,,,,,,,,,,,,,,,,,,,,,,,,,,,,,,,,,,,,,,
,,SYSTEM,2.27762,1,,,,,,stimuli/images/PICTURE_208.png,SYSTEM,5f3bccb10da2a70993ec38f2,08/05/1994,2020-09-02_12h40.31.345,proactive3.2,2020.1.2,Win32,60,5f47c0b9b035471e11593a5c,5f4f849481a77803ee32d4ff,4,,,,,,microphone,,,,,,,,,,,4,1,0,43,43,32,1,,,,,,,,,,,,,,,,,,,,,,,,,,,,,,,,,,,,,,,,,,,,,,,,,,,,,,,,,,,,,,,,,,,,,,
,,?,0.002815,0,,,,,,stimuli/images/PICTURE_203.png,NIGHT,5f3bccb10da2a70993ec38f2,08/05/1994,2020-09-02_12h40.31.345,proactive3.2,2020.1.2,Win32,60,5f47c0b9b035471e11593a5c,5f4f849481a77803ee32d4ff,4,,,,,,cap,,,,,,,,,,,1,1,0,44,44,2,1,,,,,,,,,,,,,,,,,,,,,,,,,,,,,,,,,,,,,,,,,,,,,,,,,,,,,,,,,,,,,,,,,,,,,,
,,?,0.001975,0,,,,,,stimuli/images/PICTURE_383.png,SERIES,5f3bccb10da2a70993ec38f2,08/05/1994,2020-09-02_12h40.31.345,proactive3.2,2020.1.2,Win32,60,5f47c0b9b035471e11593a5c,5f4f849481a77803ee32d4ff,4,,,,,,coin,,,,,,,,,,,5,1,0,45,45,46,1,,,,,,,,,,,,,,,,,,,,,,,,,,,,,,,,,,,,,,,,,,,,,,,,,,,,,,,,,,,,,,,,,,,,,,
,,?,0.00135,0,,,,,,stimuli/images/PICTURE_491.png,RIVER,5f3bccb10da2a70993ec38f2,08/05/1994,2020-09-02_12h40.31.345,proactive3.2,2020.1.2,Win32,60,5f47c0b9b035471e11593a5c,5f4f849481a77803ee32d4ff,4,,,,,,rug,,,,,,,,,,,1,1,0,46,46,6,1,,,,,,,,,,,,,,,,,,,,,,,,,,,,,,,,,,,,,,,,,,,,,,,,,,,,,,,,,,,,,,,,,,,,,,
,,?,0.00206,0,,,,,,stimuli/images/PICTURE_296.png,LOTS,5f3bccb10da2a70993ec38f2,08/05/1994,2020-09-02_12h40.31.345,proactive3.2,2020.1.2,Win32,60,5f47c0b9b035471e11593a5c,5f4f849481a77803ee32d4ff,4,,,,,,bolt,,,,,,,,,,,1,1,0,47,47,9,1,,,,,,,,,,,,,,,,,,,,,,,,,,,,,,,,,,,,,,,,,,,,,,,,,,,,,,,,,,,,,,,,,,,,,,
,,?,0.00165,0,,,,,,stimuli/images/PICTURE_491.png,GLASS,5f3bccb10da2a70993ec38f2,08/05/1994,2020-09-02_12h40.31.345,proactive3.2,2020.1.2,Win32,60,5f47c0b9b035471e11593a5c,5f4f849481a77803ee32d4ff,4,,,,,,rug,,,,,,,,,,,2,1,0,48,48,14,1,,,,,,,,,,,,,,,,,,,,,,,,,,,,,,,,,,,,,,,,,,,,,,,,,,,,,,,,,,,,,,,,,,,,,,
,,?,0.00164,0,,,,,,stimuli/images/PICTURE_380.png,CANDY,5f3bccb10da2a70993ec38f2,08/05/1994,2020-09-02_12h40.31.345,proactive3.2,2020.1.2,Win32,60,5f47c0b9b035471e11593a5c,5f4f849481a77803ee32d4ff,4,,,,,,gorilla,,,,,,,,,,,1,1,0,49,49,0,1,,,,,,,,,,,,,,,,,,,,,,,,,,,,,,,,,,,,,,,,,,,,,,,,,,,,,,,,,,,,,,,,,,,,,,
,,?,0.00169,0,,,,,,stimuli/images/PICTURE_32.png,PILLS,5f3bccb10da2a70993ec38f2,08/05/1994,2020-09-02_12h40.31.345,proactive3.2,2020.1.2,Win32,60,5f47c0b9b035471e11593a5c,5f4f849481a77803ee32d4ff,4,,,,,,crown,,,,,,,,,,,2,1,0,50,50,18,1,,,,,,,,,,,,,,,,,,,,,,,,,,,,,,,,,,,,,,,,,,,,,,,,,,,,,,,,,,,,,,,,,,,,,,
,,?,0.002535,0,,,,,,stimuli/images/PICTURE_95.png,MILLER,5f3bccb10da2a70993ec38f2,08/05/1994,2020-09-02_12h40.31.345,proactive3.2,2020.1.2,Win32,60,5f47c0b9b035471e11593a5c,5f4f849481a77803ee32d4ff,4,,,,,,suitcase,,,,,,,,,,,6,1,0,51,51,56,1,,,,,,,,,,,,,,,,,,,,,,,,,,,,,,,,,,,,,,,,,,,,,,,,,,,,,,,,,,,,,,,,,,,,,,
,,?,0.00141,0,,,,,,stimuli/images/PICTURE_296.png,LIFE,5f3bccb10da2a70993ec38f2,08/05/1994,2020-09-02_12h40.31.345,proactive3.2,2020.1.2,Win32,60,5f47c0b9b035471e11593a5c,5f4f849481a77803ee32d4ff,4,,,,,,bolt,,,,,,,,,,,6,1,0,52,52,57,1,,,,,,,,,,,,,,,,,,,,,,,,,,,,,,,,,,,,,,,,,,,,,,,,,,,,,,,,,,,,,,,,,,,,,,
,,?,0.00088,0,,,,,,stimuli/images/PICTURE_380.png,HONEY,5f3bccb10da2a70993ec38f2,08/05/1994,2020-09-02_12h40.31.345,proactive3.2,2020.1.2,Win32,60,5f47c0b9b035471e11593a5c,5f4f849481a77803ee32d4ff,4,,,,,,gorilla,,,,,,,,,,,2,1,0,53,53,19,1,,,,,,,,,,,,,,,,,,,,,,,,,,,,,,,,,,,,,,,,,,,,,,,,,,,,,,,,,,,,,,,,,,,,,,
,,?,0.00085,0,,,,,,stimuli/images/PICTURE_95.png,HONEY,5f3bccb10da2a70993ec38f2,08/05/1994,2020-09-02_12h40.31.345,proactive3.2,2020.1.2,Win32,60,5f47c0b9b035471e11593a5c,5f4f849481a77803ee32d4ff,4,,,,,,suitcase,,,,,,,,,,,5,1,0,54,54,44,1,,,,,,,,,,,,,,,,,,,,,,,,,,,,,,,,,,,,,,,,,,,,,,,,,,,,,,,,,,,,,,,,,,,,,,
,,?,0.00084,0,,,,,,stimuli/images/PICTURE_383.png,WRITER,5f3bccb10da2a70993ec38f2,08/05/1994,2020-09-02_12h40.31.345,proactive3.2,2020.1.2,Win32,60,5f47c0b9b035471e11593a5c,5f4f849481a77803ee32d4ff,4,,,,,,coin,,,,,,,,,,,3,1,0,55,55,28,1,,,,,,,,,,,,,,,,,,,,,,,,,,,,,,,,,,,,,,,,,,,,,,,,,,,,,,,,,,,,,,,,,,,,,,
,,?,0.00094,0,,,,,,stimuli/images/PICTURE_147.png,WOMEN,5f3bccb10da2a70993ec38f2,08/05/1994,2020-09-02_12h40.31.345,proactive3.2,2020.1.2,Win32,60,5f47c0b9b035471e11593a5c,5f4f849481a77803ee32d4ff,4,,,,,,hanger,,,,,,,,,,,1,1,0,56,56,7,1,,,,,,,,,,,,,,,,,,,,,,,,,,,,,,,,,,,,,,,,,,,,,,,,,,,,,,,,,,,,,,,,,,,,,,
,,KIND,1.651795,1,,,,,,stimuli/images/PICTURE_32.png,KIND,5f3bccb10da2a70993ec38f2,08/05/1994,2020-09-02_12h40.31.345,proactive3.2,2020.1.2,Win32,60,5f47c0b9b035471e11593a5c,5f4f849481a77803ee32d4ff,4,,,,,,crown,,,,,,,,,,,4,1,0,57,57,35,1,,,,,,,,,,,,,,,,,,,,,,,,,,,,,,,,,,,,,,,,,,,,,,,,,,,,,,,,,,,,,,,,,,,,,,
,,?,0.0037,0,,,,,,stimuli/images/PICTURE_327.png,CASINO,5f3bccb10da2a70993ec38f2,08/05/1994,2020-09-02_12h40.31.345,proactive3.2,2020.1.2,Win32,60,5f47c0b9b035471e11593a5c,5f4f849481a77803ee32d4ff,4,,,,,,helmet,,,,,,,,,,,3,1,0,58,58,20,1,,,,,,,,,,,,,,,,,,,,,,,,,,,,,,,,,,,,,,,,,,,,,,,,,,,,,,,,,,,,,,,,,,,,,,
,,MOMENT,1.941425,1,,,,,,stimuli/images/PICTURE_57.png,MOMENT,5f3bccb10da2a70993ec38f2,08/05/1994,2020-09-02_12h40.31.345,proactive3.2,2020.1.2,Win32,60,5f47c0b9b035471e11593a5c,5f4f849481a77803ee32d4ff,4,,,,,,stamp,,,,,,,,,,,4,1,0,59,59,37,1,,,,,,,,,,,,,,,,,,,,,,,,,,,,,,,,,,,,,,,,,,,,,,,,,,,,,,,,,,,,,,,,,,,,,,
,,,,,,,,,,,,5f3bccb10da2a70993ec38f2,08/05/1994,2020-09-02_12h40.31.345,proactive3.2,2020.1.2,Win32,60,5f47c0b9b035471e11593a5c,5f4f849481a77803ee32d4ff,4,,,,,,,,,,,,,,,,,,,,,,,,0,1,1,1,1,stimuli/learn-block2.csv,,,,,,,,,,,,,,,,,,,,,,,,,,,,,,,,,,,,,,,,,,,,,,,,,,,,,,,,,,,,,,,,
,,,,,,,,,,stimuli/images/PICTURE_470.png,CASINO,5f3bccb10da2a70993ec38f2,08/05/1994,2020-09-02_12h40.31.345,proactive3.2,2020.1.2,Win32,60,5f47c0b9b035471e11593a5c,5f4f849481a77803ee32d4ff,4,,,,,,motorbike,,,,,,0,0,0,36,1,4,0,,,,,,,,,,,,,,,,,,,,,,,,,,,,,,,,,,,,,,,,,,,,,,,,,,,,,,,,,,,,,,,,,,,,,,,,,,,
,,,,,,,,,,stimuli/images/PICTURE_509.png,PHOTO,5f3bccb10da2a70993ec38f2,08/05/1994,2020-09-02_12h40.31.345,proactive3.2,2020.1.2,Win32,60,5f47c0b9b035471e11593a5c,5f4f849481a77803ee32d4ff,4,,,,,,telephone,,,,,,0,1,1,21,1,3,0,,,,,,,,,,,,,,,,,,,,,,,,,,,,,,,,,,,,,,,,,,,,,,,,,,,,,,,,,,,,,,,,,,,,,,,,,,,
,,,,,,,,,,stimuli/images/PICTURE_32.png,JUNGLE,5f3bccb10da2a70993ec38f2,08/05/1994,2020-09-02_12h40.31.345,proactive3.2,2020.1.2,Win32,60,5f47c0b9b035471e11593a5c,5f4f849481a77803ee32d4ff,4,,,,,,crown,,,,,,0,2,2,45,1,5,0,,,,,,,,,,,,,,,,,,,,,,,,,,,,,,,,,,,,,,,,,,,,,,,,,,,,,,,,,,,,,,,,,,,,,,,,,,,
,,,,,,,,,,stimuli/images/PICTURE_147.png,MOMENT,5f3bccb10da2a70993ec38f2,08/05/1994,2020-09-02_12h40.31.345,proactive3.2,2020.1.2,Win32,60,5f47c0b9b035471e11593a5c,5f4f849481a77803ee32d4ff,4,,,,,,hanger,,,,,,0,3,3,51,1,6,0,,,,,,,,,,,,,,,,,,,,,,,,,,,,,,,,,,,,,,,,,,,,,,,,,,,,,,,,,,,,,,,,,,,,,,,,,,,
,,,,,,,,,,stimuli/images/PICTURE_491.png,WRITER,5f3bccb10da2a70993ec38f2,08/05/1994,2020-09-02_12h40.31.345,proactive3.2,2020.1.2,Win32,60,5f47c0b9b035471e11593a5c,5f4f849481a77803ee32d4ff,4,,,,,,rug,,,,,,0,4,4,57,1,6,0,,,,,,,,,,,,,,,,,,,,,,,,,,,,,,,,,,,,,,,,,,,,,,,,,,,,,,,,,,,,,,,,,,,,,,,,,,,
,,,,,,,,,,stimuli/images/PICTURE_311.png,FRIEND,5f3bccb10da2a70993ec38f2,08/05/1994,2020-09-02_12h40.31.345,proactive3.2,2020.1.2,Win32,60,5f47c0b9b035471e11593a5c,5f4f849481a77803ee32d4ff,4,,,,,,razor,,,,,,0,5,5,34,1,4,0,,,,,,,,,,,,,,,,,,,,,,,,,,,,,,,,,,,,,,,,,,,,,,,,,,,,,,,,,,,,,,,,,,,,,,,,,,,
,,,,,,,,,,stimuli/images/PICTURE_85.png,THING,5f3bccb10da2a70993ec38f2,08/05/1994,2020-09-02_12h40.31.345,proactive3.2,2020.1.2,Win32,60,5f47c0b9b035471e11593a5c,5f4f849481a77803ee32d4ff,4,,,,,,diamond,,,,,,0,6,6,15,1,2,0,,,,,,,,,,,,,,,,,,,,,,,,,,,,,,,,,,,,,,,,,,,,,,,,,,,,,,,,,,,,,,,,,,,,,,,,,,,
,,,,,,,,,,stimuli/images/PICTURE_327.png,BEAUTY,5f3bccb10da2a70993ec38f2,08/05/1994,2020-09-02_12h40.31.345,proactive3.2,2020.1.2,Win32,60,5f47c0b9b035471e11593a5c,5f4f849481a77803ee32d4ff,4,,,,,,helmet,,,,,,0,7,7,48,1,5,0,,,,,,,,,,,,,,,,,,,,,,,,,,,,,,,,,,,,,,,,,,,,,,,,,,,,,,,,,,,,,,,,,,,,,,,,,,,
,,,,,,,,,,stimuli/images/PICTURE_348.png,SPEECH,5f3bccb10da2a70993ec38f2,08/05/1994,2020-09-02_12h40.31.345,proactive3.2,2020.1.2,Win32,60,5f47c0b9b035471e11593a5c,5f4f849481a77803ee32d4ff,4,,,,,,pepper,,,,,,0,8,8,20,1,3,0,,,,,,,,,,,,,,,,,,,,,,,,,,,,,,,,,,,,,,,,,,,,,,,,,,,,,,,,,,,,,,,,,,,,,,,,,,,
,,,,,,,,,,stimuli/images/PICTURE_675.png,WEAPON,5f3bccb10da2a70993ec38f2,08/05/1994,2020-09-02_12h40.31.345,proactive3.2,2020.1.2,Win32,60,5f47c0b9b035471e11593a5c,5f4f849481a77803ee32d4ff,4,,,,,,windmill,,,,,,0,9,9,32,1,4,0,,,,,,,,,,,,,,,,,,,,,,,,,,,,,,,,,,,,,,,,,,,,,,,,,,,,,,,,,,,,,,,,,,,,,,,,,,,
,,,,,,,,,,stimuli/images/PICTURE_160.png,LEADER,5f3bccb10da2a70993ec38f2,08/05/1994,2020-09-02_12h40.31.345,proactive3.2,2020.1.2,Win32,60,5f47c0b9b035471e11593a5c,5f4f849481a77803ee32d4ff,4,,,,,,wheelbarrow,,,,,,0,10,10,3,1,1,0,,,,,,,,,,,,,,,,,,,,,,,,,,,,,,,,,,,,,,,,,,,,,,,,,,,,,,,,,,,,,,,,,,,,,,,,,,,
,,,,,,,,,,stimuli/images/PICTURE_744.png,SAKE,5f3bccb10da2a70993ec38f2,08/05/1994,2020-09-02_12h40.31.345,proactive3.2,2020.1.2,Win32,60,5f47c0b9b035471e11593a5c,5f4f849481a77803ee32d4ff,4,,,,,,ring,,,,,,0,11,11,17,1,2,0,,,,,,,,,,,,,,,,,,,,,,,,,,,,,,,,,,,,,,,,,,,,,,,,,,,,,,,,,,,,,,,,,,,,,,,,,,,
,,,,,,,,,,stimuli/images/PICTURE_467.png,DEMON,5f3bccb10da2a70993ec38f2,08/05/1994,2020-09-02_12h40.31.345,proactive3.2,2020.1.2,Win32,60,5f47c0b9b035471e11593a5c,5f4f849481a77803ee32d4ff,4,,,,,,peg,,,,,,0,12,12,23,1,3,0,,,,,,,,,,,,,,,,,,,,,,,,,,,,,,,,,,,,,,,,,,,,,,,,,,,,,,,,,,,,,,,,,,,,,,,,,,,
,,,,,,,,,,stimuli/images/PICTURE_308.png,KIND,5f3bccb10da2a70993ec38f2,08/05/1994,2020-09-02_12h40.31.345,proactive3.2,2020.1.2,Win32,60,5f47c0b9b035471e11593a5c,5f4f849481a77803ee32d4ff,4,,,,,,dice,,,,,,0,13,13,54,1,6,0,,,,,,,,,,,,,,,,,,,,,,,,,,,,,,,,,,,,,,,,,,,,,,,,,,,,,,,,,,,,,,,,,,,,,,,,,,,
,,,,,,,,,,stimuli/images/PICTURE_314.png,GODS,5f3bccb10da2a70993ec38f2,08/05/1994,2020-09-02_12h40.31.345,proactive3.2,2020.1.2,Win32,60,5f47c0b9b035471e11593a5c,5f4f849481a77803ee32d4ff,4,,,,,,perfume,,,,,,0,14,14,11,1,2,0,,,,,,,,,,,,,,,,,,,,,,,,,,,,,,,,,,,,,,,,,,,,,,,,,,,,,,,,,,,,,,,,,,,,,,,,,,,
,,,,,,,,,,stimuli/images/PICTURE_314.png,SAKE,5f3bccb10da2a70993ec38f2,08/05/1994,2020-09-02_12h40.31.345,proactive3.2,2020.1.2,Win32,60,5f47c0b9b035471e11593a5c,5f4f849481a77803ee32d4ff,4,,,,,,perfume,,,,,,0,15,15,7,1,1,0,,,,,,,,,,,,,,,,,,,,,,,,,,,,,,,,,,,,,,,,,,,,,,,,,,,,,,,,,,,,,,,,,,,,,,,,,,,
,,,,,,,,,,stimuli/images/PICTURE_380.png,DEATH,5f3bccb10da2a70993ec38f2,08/05/1994,2020-09-02_12h40.31.345,proactive3.2,2020.1.2,Win32,60,5f47c0b9b035471e11593a5c,5f4f849481a77803ee32d4ff,4,,,,,,gorilla,,,,,,0,16,16,49,1,5,0,,,,,,,,,,,,,,,,,,,,,,,,,,,,,,,,,,,,,,,,,,,,,,,,,,,,,,,,,,,,,,,,,,,,,,,,,,,
,,,,,,,,,,stimuli/images/PICTURE_667.png,BATH,5f3bccb10da2a70993ec38f2,08/05/1994,2020-09-02_12h40.31.345,proactive3.2,2020.1.2,Win32,60,5f47c0b9b035471e11593a5c,5f4f849481a77803ee32d4ff,4,,,,,,daisy,,,,,,0,17,17,4,1,1,0,,,,,,,,,,,,,,,,,,,,,,,,,,,,,,,,,,,,,,,,,,,,,,,,,,,,,,,,,,,,,,,,,,,,,,,,,,,
,,,,,,,,,,stimuli/images/PICTURE_692.png,MONTH,5f3bccb10da2a70993ec38f2,08/05/1994,2020-09-02_12h40.31.345,proactive3.2,2020.1.2,Win32,60,5f47c0b9b035471e11593a5c,5f4f849481a77803ee32d4ff,4,,,,,,cherry,,,,,,0,18,18,16,1,2,0,,,,,,,,,,,,,,,,,,,,,,,,,,,,,,,,,,,,,,,,,,,,,,,,,,,,,,,,,,,,,,,,,,,,,,,,,,,
,,,,,,,,,,stimuli/images/PICTURE_285.png,ADVICE,5f3bccb10da2a70993ec38f2,08/05/1994,2020-09-02_12h40.31.345,proactive3.2,2020.1.2,Win32,60,5f47c0b9b035471e11593a5c,5f4f849481a77803ee32d4ff,4,,,,,,carrot,,,,,,0,19,19,12,1,2,0,,,,,,,,,,,,,,,,,,,,,,,,,,,,,,,,,,,,,,,,,,,,,,,,,,,,,,,,,,,,,,,,,,,,,,,,,,,
,,,,,,,,,,stimuli/images/PICTURE_123.png,ADVICE,5f3bccb10da2a70993ec38f2,08/05/1994,2020-09-02_12h40.31.345,proactive3.2,2020.1.2,Win32,60,5f47c0b9b035471e11593a5c,5f4f849481a77803ee32d4ff,4,,,,,,dart,,,,,,0,20,20,50,1,6,0,,,,,,,,,,,,,,,,,,,,,,,,,,,,,,,,,,,,,,,,,,,,,,,,,,,,,,,,,,,,,,,,,,,,,,,,,,,
,,,,,,,,,,stimuli/images/PICTURE_160.png,FEET,5f3bccb10da2a70993ec38f2,08/05/1994,2020-09-02_12h40.31.345,proactive3.2,2020.1.2,Win32,60,5f47c0b9b035471e11593a5c,5f4f849481a77803ee32d4ff,4,,,,,,wheelbarrow,,,,,,0,21,21,58,1,6,0,,,,,,,,,,,,,,,,,,,,,,,,,,,,,,,,,,,,,,,,,,,,,,,,,,,,,,,,,,,,,,,,,,,,,,,,,,,
,,,,,,,,,,stimuli/images/PICTURE_123.png,ADVICE,5f3bccb10da2a70993ec38f2,08/05/1994,2020-09-02_12h40.31.345,proactive3.2,2020.1.2,Win32,60,5f47c0b9b035471e11593a5c,5f4f849481a77803ee32d4ff,4,,,,,,dart,,,,,,0,22,22,40,1,5,0,,,,,,,,,,,,,,,,,,,,,,,,,,,,,,,,,,,,,,,,,,,,,,,,,,,,,,,,,,,,,,,,,,,,,,,,,,,
,,,,,,,,,,stimuli/images/PICTURE_469.png,LETTER,5f3bccb10da2a70993ec38f2,08/05/1994,2020-09-02_12h40.31.345,proactive3.2,2020.1.2,Win32,60,5f47c0b9b035471e11593a5c,5f4f849481a77803ee32d4ff,4,,,,,,stool,,,,,,0,23,23,42,1,5,0,,,,,,,,,,,,,,,,,,,,,,,,,,,,,,,,,,,,,,,,,,,,,,,,,,,,,,,,,,,,,,,,,,,,,,,,,,,
,,,,,,,,,,stimuli/images/PICTURE_654.png,VALLEY,5f3bccb10da2a70993ec38f2,08/05/1994,2020-09-02_12h40.31.345,proactive3.2,2020.1.2,Win32,60,5f47c0b9b035471e11593a5c,5f4f849481a77803ee32d4ff,4,,,,,,pencil,,,,,,0,24,24,1,1,1,0,,,,,,,,,,,,,,,,,,,,,,,,,,,,,,,,,,,,,,,,,,,,,,,,,,,,,,,,,,,,,,,,,,,,,,,,,,,
,,,,,,,,,,stimuli/images/PICTURE_311.png,BEAUTY,5f3bccb10da2a70993ec38f2,08/05/1994,2020-09-02_12h40.31.345,proactive3.2,2020.1.2,Win32,60,5f47c0b9b035471e11593a5c,5f4f849481a77803ee32d4ff,4,,,,,,razor,,,,,,0,25,25,13,1,2,0,,,,,,,,,,,,,,,,,,,,,,,,,,,,,,,,,,,,,,,,,,,,,,,,,,,,,,,,,,,,,,,,,,,,,,,,,,,
,,,,,,,,,,stimuli/images/PICTURE_255.png,AREA,5f3bccb10da2a70993ec38f2,08/05/1994,2020-09-02_12h40.31.345,proactive3.2,2020.1.2,Win32,60,5f47c0b9b035471e11593a5c,5f4f849481a77803ee32d4ff,4,,,,,,shovel,,,,,,0,26,26,22,1,3,0,,,,,,,,,,,,,,,,,,,,,,,,,,,,,,,,,,,,,,,,,,,,,,,,,,,,,,,,,,,,,,,,,,,,,,,,,,,
,,,,,,,,,,stimuli/images/PICTURE_302.png,FAMILY,5f3bccb10da2a70993ec38f2,08/05/1994,2020-09-02_12h40.31.345,proactive3.2,2020.1.2,Win32,60,5f47c0b9b035471e11593a5c,5f4f849481a77803ee32d4ff,4,,,,,,taxi,,,,,,0,27,27,18,1,2,0,,,,,,,,,,,,,,,,,,,,,,,,,,,,,,,,,,,,,,,,,,,,,,,,,,,,,,,,,,,,,,,,,,,,,,,,,,,
,,,,,,,,,,stimuli/images/PICTURE_469.png,ARTIST,5f3bccb10da2a70993ec38f2,08/05/1994,2020-09-02_12h40.31.345,proactive3.2,2020.1.2,Win32,60,5f47c0b9b035471e11593a5c,5f4f849481a77803ee32d4ff,4,,,,,,stool,,,,,,0,28,28,6,1,1,0,,,,,,,,,,,,,,,,,,,,,,,,,,,,,,,,,,,,,,,,,,,,,,,,,,,,,,,,,,,,,,,,,,,,,,,,,,,
,,,,,,,,,,stimuli/images/PICTURE_339.png,PLENTY,5f3bccb10da2a70993ec38f2,08/05/1994,2020-09-02_12h40.31.345,proactive3.2,2020.1.2,Win32,60,5f47c0b9b035471e11593a5c,5f4f849481a77803ee32d4ff,4,,,,,,backpack,,,,,,0,29,29,0,1,1,0,,,,,,,,,,,,,,,,,,,,,,,,,,,,,,,,,,,,,,,,,,,,,,,,,,,,,,,,,,,,,,,,,,,,,,,,,,,
,,,,,,,,,,stimuli/images/PICTURE_208.png,THING,5f3bccb10da2a70993ec38f2,08/05/1994,2020-09-02_12h40.31.345,proactive3.2,2020.1.2,Win32,60,5f47c0b9b035471e11593a5c,5f4f849481a77803ee32d4ff,4,,,,,,microphone,,,,,,0,30,30,47,1,5,0,,,,,,,,,,,,,,,,,,,,,,,,,,,,,,,,,,,,,,,,,,,,,,,,,,,,,,,,,,,,,,,,,,,,,,,,,,,
,,,,,,,,,,stimuli/images/PICTURE_449.png,THING,5f3bccb10da2a70993ec38f2,08/05/1994,2020-09-02_12h40.31.345,proactive3.2,2020.1.2,Win32,60,5f47c0b9b035471e11593a5c,5f4f849481a77803ee32d4ff,4,,,,,,bench,,,,,,0,31,31,59,1,6,0,,,,,,,,,,,,,,,,,,,,,,,,,,,,,,,,,,,,,,,,,,,,,,,,,,,,,,,,,,,,,,,,,,,,,,,,,,,
,,,,,,,,,,stimuli/images/PICTURE_68.png,MILE,5f3bccb10da2a70993ec38f2,08/05/1994,2020-09-02_12h40.31.345,proactive3.2,2020.1.2,Win32,60,5f47c0b9b035471e11593a5c,5f4f849481a77803ee32d4ff,4,,,,,,candle,,,,,,0,32,32,44,1,5,0,,,,,,,,,,,,,,,,,,,,,,,,,,,,,,,,,,,,,,,,,,,,,,,,,,,,,,,,,,,,,,,,,,,,,,,,,,,
,,,,,,,,,,stimuli/images/PICTURE_504.png,BODY,5f3bccb10da2a70993ec38f2,08/05/1994,2020-09-02_12h40.31.345,proactive3.2,2020.1.2,Win32,60,5f47c0b9b035471e11593a5c,5f4f849481a77803ee32d4ff,4,,,,,,wheel,,,,,,0,33,33,8,1,1,0,,,,,,,,,,,,,,,,,,,,,,,,,,,,,,,,,,,,,,,,,,,,,,,,,,,,,,,,,,,,,,,,,,,,,,,,,,,
,,,,,,,,,,stimuli/images/PICTURE_708.png,YARD,5f3bccb10da2a70993ec38f2,08/05/1994,2020-09-02_12h40.31.345,proactive3.2,2020.1.2,Win32,60,5f47c0b9b035471e11593a5c,5f4f849481a77803ee32d4ff,4,,,,,,monkey,,,,,,0,34,34,29,1,3,0,,,,,,,,,,,,,,,,,,,,,,,,,,,,,,,,,,,,,,,,,,,,,,,,,,,,,,,,,,,,,,,,,,,,,,,,,,,
,,,,,,,,,,stimuli/images/PICTURE_208.png,MONTH,5f3bccb10da2a70993ec38f2,08/05/1994,2020-09-02_12h40.31.345,proactive3.2,2020.1.2,Win32,60,5f47c0b9b035471e11593a5c,5f4f849481a77803ee32d4ff,4,,,,,,microphone,,,,,,0,35,35,53,1,6,0,,,,,,,,,,,,,,,,,,,,,,,,,,,,,,,,,,,,,,,,,,,,,,,,,,,,,,,,,,,,,,,,,,,,,,,,,,,
,,,,,,,,,,stimuli/images/PICTURE_677.png,MILE,5f3bccb10da2a70993ec38f2,08/05/1994,2020-09-02_12h40.31.345,proactive3.2,2020.1.2,Win32,60,5f47c0b9b035471e11593a5c,5f4f849481a77803ee32d4ff,4,,,,,,map,,,,,,0,36,36,30,1,4,0,,,,,,,,,,,,,,,,,,,,,,,,,,,,,,,,,,,,,,,,,,,,,,,,,,,,,,,,,,,,,,,,,,,,,,,,,,,
,,,,,,,,,,stimuli/images/PICTURE_208.png,LOTS,5f3bccb10da2a70993ec38f2,08/05/1994,2020-09-02_12h40.31.345,proactive3.2,2020.1.2,Win32,60,5f47c0b9b035471e11593a5c,5f4f849481a77803ee32d4ff,4,,,,,,microphone,,,,,,0,37,37,10,1,2,0,,,,,,,,,,,,,,,,,,,,,,,,,,,,,,,,,,,,,,,,,,,,,,,,,,,,,,,,,,,,,,,,,,,,,,,,,,,
,,,,,,,,,,stimuli/images/PICTURE_487.png,FLIGHT,5f3bccb10da2a70993ec38f2,08/05/1994,2020-09-02_12h40.31.345,proactive3.2,2020.1.2,Win32,60,5f47c0b9b035471e11593a5c,5f4f849481a77803ee32d4ff,4,,,,,,basket,,,,,,0,38,38,9,1,1,0,,,,,,,,,,,,,,,,,,,,,,,,,,,,,,,,,,,,,,,,,,,,,,,,,,,,,,,,,,,,,,,,,,,,,,,,,,,
,,,,,,,,,,stimuli/images/PICTURE_708.png,CLIENT,5f3bccb10da2a70993ec38f2,08/05/1994,2020-09-02_12h40.31.345,proactive3.2,2020.1.2,Win32,60,5f47c0b9b035471e11593a5c,5f4f849481a77803ee32d4ff,4,,,,,,monkey,,,,,,0,39,39,5,1,1,0,,,,,,,,,,,,,,,,,,,,,,,,,,,,,,,,,,,,,,,,,,,,,,,,,,,,,,,,,,,,,,,,,,,,,,,,,,,
,,,,,,,,,,stimuli/images/PICTURE_356.png,DANGER,5f3bccb10da2a70993ec38f2,08/05/1994,2020-09-02_12h40.31.345,proactive3.2,2020.1.2,Win32,60,5f47c0b9b035471e11593a5c,5f4f849481a77803ee32d4ff,4,,,,,,pawn,,,,,,0,40,40,55,1,6,0,,,,,,,,,,,,,,,,,,,,,,,,,,,,,,,,,,,,,,,,,,,,,,,,,,,,,,,,,,,,,,,,,,,,,,,,,,,
,,,,,,,,,,stimuli/images/PICTURE_744.png,SYSTEM,5f3bccb10da2a70993ec38f2,08/05/1994,2020-09-02_12h40.31.345,proactive3.2,2020.1.2,Win32,60,5f47c0b9b035471e11593a5c,5f4f849481a77803ee32d4ff,4,,,,,,ring,,,,,,0,41,41,43,1,5,0,,,,,,,,,,,,,,,,,,,,,,,,,,,,,,,,,,,,,,,,,,,,,,,,,,,,,,,,,,,,,,,,,,,,,,,,,,,
,,,,,,,,,,stimuli/images/PICTURE_248.png,DOZEN,5f3bccb10da2a70993ec38f2,08/05/1994,2020-09-02_12h40.31.345,proactive3.2,2020.1.2,Win32,60,5f47c0b9b035471e11593a5c,5f4f849481a77803ee32d4ff,4,,,,,,cart,,,,,,0,42,42,39,1,4,0,,,,,,,,,,,,,,,,,,,,,,,,,,,,,,,,,,,,,,,,,,,,,,,,,,,,,,,,,,,,,,,,,,,,,,,,,,,
,,,,,,,,,,stimuli/images/PICTURE_667.png,PLENTY,5f3bccb10da2a70993ec38f2,08/05/1994,2020-09-02_12h40.31.345,proactive3.2,2020.1.2,Win32,60,5f47c0b9b035471e11593a5c,5f4f849481a77803ee32d4ff,4,,,,,,daisy,,,,,,0,43,43,41,1,5,0,,,,,,,,,,,,,,,,,,,,,,,,,,,,,,,,,,,,,,,,,,,,,,,,,,,,,,,,,,,,,,,,,,,,,,,,,,,
,,,,,,,,,,stimuli/images/PICTURE_233.png,WOMEN,5f3bccb10da2a70993ec38f2,08/05/1994,2020-09-02_12h40.31.345,proactive3.2,2020.1.2,Win32,60,5f47c0b9b035471e11593a5c,5f4f849481a77803ee32d4ff,4,,,,,,salt,,,,,,0,44,44,38,1,4,0,,,,,,,,,,,,,,,,,,,,,,,,,,,,,,,,,,,,,,,,,,,,,,,,,,,,,,,,,,,,,,,,,,,,,,,,,,,
,,,,,,,,,,stimuli/images/PICTURE_215.png,PLENTY,5f3bccb10da2a70993ec38f2,08/05/1994,2020-09-02_12h40.31.345,proactive3.2,2020.1.2,Win32,60,5f47c0b9b035471e11593a5c,5f4f849481a77803ee32d4ff,4,,,,,,boot,,,,,,0,45,45,37,1,4,0,,,,,,,,,,,,,,,,,,,,,,,,,,,,,,,,,,,,,,,,,,,,,,,,,,,,,,,,,,,,,,,,,,,,,,,,,,,
,,,,,,,,,,stimuli/images/PICTURE_491.png,ROOF,5f3bccb10da2a70993ec38f2,08/05/1994,2020-09-02_12h40.31.345,proactive3.2,2020.1.2,Win32,60,5f47c0b9b035471e11593a5c,5f4f849481a77803ee32d4ff,4,,,,,,rug,,,,,,0,46,46,24,1,3,0,,,,,,,,,,,,,,,,,,,,,,,,,,,,,,,,,,,,,,,,,,,,,,,,,,,,,,,,,,,,,,,,,,,,,,,,,,,
,,,,,,,,,,stimuli/images/PICTURE_688.png,WOMEN,5f3bccb10da2a70993ec38f2,08/05/1994,2020-09-02_12h40.31.345,proactive3.2,2020.1.2,Win32,60,5f47c0b9b035471e11593a5c,5f4f849481a77803ee32d4ff,4,,,,,,runner,,,,,,0,47,47,14,1,2,0,,,,,,,,,,,,,,,,,,,,,,,,,,,,,,,,,,,,,,,,,,,,,,,,,,,,,,,,,,,,,,,,,,,,,,,,,,,
,,,,,,,,,,stimuli/images/PICTURE_380.png,PHOTO,5f3bccb10da2a70993ec38f2,08/05/1994,2020-09-02_12h40.31.345,proactive3.2,2020.1.2,Win32,60,5f47c0b9b035471e11593a5c,5f4f849481a77803ee32d4ff,4,,,,,,gorilla,,,,,,0,48,48,52,1,6,0,,,,,,,,,,,,,,,,,,,,,,,,,,,,,,,,,,,,,,,,,,,,,,,,,,,,,,,,,,,,,,,,,,,,,,,,,,,
,,,,,,,,,,stimuli/images/PICTURE_708.png,PENNY,5f3bccb10da2a70993ec38f2,08/05/1994,2020-09-02_12h40.31.345,proactive3.2,2020.1.2,Win32,60,5f47c0b9b035471e11593a5c,5f4f849481a77803ee32d4ff,4,,,,,,monkey,,,,,,0,49,49,31,1,4,0,,,,,,,,,,,,,,,,,,,,,,,,,,,,,,,,,,,,,,,,,,,,,,,,,,,,,,,,,,,,,,,,,,,,,,,,,,,
,,,,,,,,,,stimuli/images/PICTURE_233.png,IDEAS,5f3bccb10da2a70993ec38f2,08/05/1994,2020-09-02_12h40.31.345,proactive3.2,2020.1.2,Win32,60,5f47c0b9b035471e11593a5c,5f4f849481a77803ee32d4ff,4,,,,,,salt,,,,,,0,50,50,28,1,3,0,,,,,,,,,,,,,,,,,,,,,,,,,,,,,,,,,,,,,,,,,,,,,,,,,,,,,,,,,,,,,,,,,,,,,,,,,,,
,,,,,,,,,,stimuli/images/PICTURE_453.png,PLENTY,5f3bccb10da2a70993ec38f2,08/05/1994,2020-09-02_12h40.31.345,proactive3.2,2020.1.2,Win32,60,5f47c0b9b035471e11593a5c,5f4f849481a77803ee32d4ff,4,,,,,,scissors,,,,,,0,51,51,56,1,6,0,,,,,,,,,,,,,,,,,,,,,,,,,,,,,,,,,,,,,,,,,,,,,,,,,,,,,,,,,,,,,,,,,,,,,,,,,,,
,,,,,,,,,,stimuli/images/PICTURE_688.png,CASINO,5f3bccb10da2a70993ec38f2,08/05/1994,2020-09-02_12h40.31.345,proactive3.2,2020.1.2,Win32,60,5f47c0b9b035471e11593a5c,5f4f849481a77803ee32d4ff,4,,,,,,runner,,,,,,0,52,52,2,1,1,0,,,,,,,,,,,,,,,,,,,,,,,,,,,,,,,,,,,,,,,,,,,,,,,,,,,,,,,,,,,,,,,,,,,,,,,,,,,
,,,,,,,,,,stimuli/images/PICTURE_151.png,GIRL,5f3bccb10da2a70993ec38f2,08/05/1994,2020-09-02_12h40.31.345,proactive3.2,2020.1.2,Win32,60,5f47c0b9b035471e11593a5c,5f4f849481a77803ee32d4ff,4,,,,,,tray,,,,,,0,53,53,19,1,2,0,,,,,,,,,,,,,,,,,,,,,,,,,,,,,,,,,,,,,,,,,,,,,,,,,,,,,,,,,,,,,,,,,,,,,,,,,,,
,,,,,,,,,,stimuli/images/PICTURE_453.png,DUDE,5f3bccb10da2a70993ec38f2,08/05/1994,2020-09-02_12h40.31.345,proactive3.2,2020.1.2,Win32,60,5f47c0b9b035471e11593a5c,5f4f849481a77803ee32d4ff,4,,,,,,scissors,,,,,,0,54,54,27,1,3,0,,,,,,,,,,,,,,,,,,,,,,,,,,,,,,,,,,,,,,,,,,,,,,,,,,,,,,,,,,,,,,,,,,,,,,,,,,,
,,,,,,,,,,stimuli/images/PICTURE_308.png,ESTATE,5f3bccb10da2a70993ec38f2,08/05/1994,2020-09-02_12h40.31.345,proactive3.2,2020.1.2,Win32,60,5f47c0b9b035471e11593a5c,5f4f849481a77803ee32d4ff,4,,,,,,dice,,,,,,0,55,55,46,1,5,0,,,,,,,,,,,,,,,,,,,,,,,,,,,,,,,,,,,,,,,,,,,,,,,,,,,,,,,,,,,,,,,,,,,,,,,,,,,
,,,,,,,,,,stimuli/images/PICTURE_95.png,STYLE,5f3bccb10da2a70993ec38f2,08/05/1994,2020-09-02_12h40.31.345,proactive3.2,2020.1.2,Win32,60,5f47c0b9b035471e11593a5c,5f4f849481a77803ee32d4ff,4,,,,,,suitcase,,,,,,0,56,56,25,1,3,0,,,,,,,,,,,,,,,,,,,,,,,,,,,,,,,,,,,,,,,,,,,,,,,,,,,,,,,,,,,,,,,,,,,,,,,,,,,
,,,,,,,,,,stimuli/images/PICTURE_203.png,ARTIST,5f3bccb10da2a70993ec38f2,08/05/1994,2020-09-02_12h40.31.345,proactive3.2,2020.1.2,Win32,60,5f47c0b9b035471e11593a5c,5f4f849481a77803ee32d4ff,4,,,,,,cap,,,,,,0,57,57,26,1,3,0,,,,,,,,,,,,,,,,,,,,,,,,,,,,,,,,,,,,,,,,,,,,,,,,,,,,,,,,,,,,,,,,,,,,,,,,,,,
,,,,,,,,,,stimuli/images/PICTURE_177.png,CARS,5f3bccb10da2a70993ec38f2,08/05/1994,2020-09-02_12h40.31.345,proactive3.2,2020.1.2,Win32,60,5f47c0b9b035471e11593a5c,5f4f849481a77803ee32d4ff,4,,,,,,mushroom,,,,,,0,58,58,35,1,4,0,,,,,,,,,,,,,,,,,,,,,,,,,,,,,,,,,,,,,,,,,,,,,,,,,,,,,,,,,,,,,,,,,,,,,,,,,,,
,,?,0.001405,0,,,,,,stimuli/images/PICTURE_151.png,GIRL,5f3bccb10da2a70993ec38f2,08/05/1994,2020-09-02_12h40.31.345,proactive3.2,2020.1.2,Win32,60,5f47c0b9b035471e11593a5c,5f4f849481a77803ee32d4ff,4,,,,,,tray,,,,,,,,,,,2,0,0,0,0,19,1,,,,,,,,,,,,,,,,,,,,,,,,,,,,,,,,,,,,,,,,,,,,,,,,,,,,,,,,,,,,,,,,,,,,,,
,,?,0.00097,0,,,,,,stimuli/images/PICTURE_692.png,MONTH,5f3bccb10da2a70993ec38f2,08/05/1994,2020-09-02_12h40.31.345,proactive3.2,2020.1.2,Win32,60,5f47c0b9b035471e11593a5c,5f4f849481a77803ee32d4ff,4,,,,,,cherry,,,,,,,,,,,2,0,0,1,1,16,1,,,,,,,,,,,,,,,,,,,,,,,,,,,,,,,,,,,,,,,,,,,,,,,,,,,,,,,,,,,,,,,,,,,,,,
,,?,0.00095,0,,,,,,stimuli/images/PICTURE_708.png,YARD,5f3bccb10da2a70993ec38f2,08/05/1994,2020-09-02_12h40.31.345,proactive3.2,2020.1.2,Win32,60,5f47c0b9b035471e11593a5c,5f4f849481a77803ee32d4ff,4,,,,,,monkey,,,,,,,,,,,3,0,0,2,2,29,1,,,,,,,,,,,,,,,,,,,,,,,,,,,,,,,,,,,,,,,,,,,,,,,,,,,,,,,,,,,,,,,,,,,,,,
,,?,0.001635,0,,,,,,stimuli/images/PICTURE_203.png,ARTIST,5f3bccb10da2a70993ec38f2,08/05/1994,2020-09-02_12h40.31.345,proactive3.2,2020.1.2,Win32,60,5f47c0b9b035471e11593a5c,5f4f849481a77803ee32d4ff,4,,,,,,cap,,,,,,,,,,,3,0,0,3,3,26,1,,,,,,,,,,,,,,,,,,,,,,,,,,,,,,,,,,,,,,,,,,,,,,,,,,,,,,,,,,,,,,,,,,,,,,
,,?,0.001035,0,,,,,,stimuli/images/PICTURE_708.png,CLIENT,5f3bccb10da2a70993ec38f2,08/05/1994,2020-09-02_12h40.31.345,proactive3.2,2020.1.2,Win32,60,5f47c0b9b035471e11593a5c,5f4f849481a77803ee32d4ff,4,,,,,,monkey,,,,,,,,,,,1,0,0,4,4,5,1,,,,,,,,,,,,,,,,,,,,,,,,,,,,,,,,,,,,,,,,,,,,,,,,,,,,,,,,,,,,,,,,,,,,,,
,,?,0.00095,0,,,,,,stimuli/images/PICTURE_308.png,ESTATE,5f3bccb10da2a70993ec38f2,08/05/1994,2020-09-02_12h40.31.345,proactive3.2,2020.1.2,Win32,60,5f47c0b9b035471e11593a5c,5f4f849481a77803ee32d4ff,4,,,,,,dice,,,,,,,,,,,5,0,0,5,5,46,1,,,,,,,,,,,,,,,,,,,,,,,,,,,,,,,,,,,,,,,,,,,,,,,,,,,,,,,,,,,,,,,,,,,,,,
,,?,0.0011,0,,,,,,stimuli/images/PICTURE_380.png,DEATH,5f3bccb10da2a70993ec38f2,08/05/1994,2020-09-02_12h40.31.345,proactive3.2,2020.1.2,Win32,60,5f47c0b9b035471e11593a5c,5f4f849481a77803ee32d4ff,4,,,,,,gorilla,,,,,,,,,,,5,0,0,6,6,49,1,,,,,,,,,,,,,,,,,,,,,,,,,,,,,,,,,,,,,,,,,,,,,,,,,,,,,,,,,,,,,,,,,,,,,,
,,?,0.00063,0,,,,,,stimuli/images/PICTURE_285.png,ADVICE,5f3bccb10da2a70993ec38f2,08/05/1994,2020-09-02_12h40.31.345,proactive3.2,2020.1.2,Win32,60,5f47c0b9b035471e11593a5c,5f4f849481a77803ee32d4ff,4,,,,,,carrot,,,,,,,,,,,2,0,0,7,7,12,1,,,,,,,,,,,,,,,,,,,,,,,,,,,,,,,,,,,,,,,,,,,,,,,,,,,,,,,,,,,,,,,,,,,,,,
,,PLENTY,2.588345,1,,,,,,stimuli/images/PICTURE_215.png,PLENTY,5f3bccb10da2a70993ec38f2,08/05/1994,2020-09-02_12h40.31.345,proactive3.2,2020.1.2,Win32,60,5f47c0b9b035471e11593a5c,5f4f849481a77803ee32d4ff,4,,,,,,boot,,,,,,,,,,,4,0,0,8,8,37,1,,,,,,,,,,,,,,,,,,,,,,,,,,,,,,,,,,,,,,,,,,,,,,,,,,,,,,,,,,,,,,,,,,,,,,
,,?,0.00364,0,,,,,,stimuli/images/PICTURE_302.png,FAMILY,5f3bccb10da2a70993ec38f2,08/05/1994,2020-09-02_12h40.31.345,proactive3.2,2020.1.2,Win32,60,5f47c0b9b035471e11593a5c,5f4f849481a77803ee32d4ff,4,,,,,,taxi,,,,,,,,,,,2,0,0,9,9,18,1,,,,,,,,,,,,,,,,,,,,,,,,,,,,,,,,,,,,,,,,,,,,,,,,,,,,,,,,,,,,,,,,,,,,,,
,,?,0.00244,0,,,,,,stimuli/images/PICTURE_147.png,MOMENT,5f3bccb10da2a70993ec38f2,08/05/1994,2020-09-02_12h40.31.345,proactive3.2,2020.1.2,Win32,60,5f47c0b9b035471e11593a5c,5f4f849481a77803ee32d4ff,4,,,,,,hanger,,,,,,,,,,,6,0,0,10,10,51,1,,,,,,,,,,,,,,,,,,,,,,,,,,,,,,,,,,,,,,,,,,,,,,,,,,,,,,,,,,,,,,,,,,,,,,
,,?,0.002845,0,,,,,,stimuli/images/PICTURE_32.png,JUNGLE,5f3bccb10da2a70993ec38f2,08/05/1994,2020-09-02_12h40.31.345,proactive3.2,2020.1.2,Win32,60,5f47c0b9b035471e11593a5c,5f4f849481a77803ee32d4ff,4,,,,,,crown,,,,,,,,,,,5,0,0,11,11,45,1,,,,,,,,,,,,,,,,,,,,,,,,,,,,,,,,,,,,,,,,,,,,,,,,,,,,,,,,,,,,,,,,,,,,,,
,,?,0.00121,0,,,,,,stimuli/images/PICTURE_208.png,LOTS,5f3bccb10da2a70993ec38f2,08/05/1994,2020-09-02_12h40.31.345,proactive3.2,2020.1.2,Win32,60,5f47c0b9b035471e11593a5c,5f4f849481a77803ee32d4ff,4,,,,,,microphone,,,,,,,,,,,2,0,0,12,12,10,1,,,,,,,,,,,,,,,,,,,,,,,,,,,,,,,,,,,,,,,,,,,,,,,,,,,,,,,,,,,,,,,,,,,,,,
,,?,0.00124,0,,,,,,stimuli/images/PICTURE_453.png,PLENTY,5f3bccb10da2a70993ec38f2,08/05/1994,2020-09-02_12h40.31.345,proactive3.2,2020.1.2,Win32,60,5f47c0b9b035471e11593a5c,5f4f849481a77803ee32d4ff,4,,,,,,scissors,,,,,,,,,,,6,0,0,13,13,56,1,,,,,,,,,,,,,,,,,,,,,,,,,,,,,,,,,,,,,,,,,,,,,,,,,,,,,,,,,,,,,,,,,,,,,,
