consent_key.keys,consent_key.rt,recalled,recalled_rt,recall_acc,example_recall.thisRepN,example_recall.thisTrialN,example_recall.thisN,example_recall.thisIndex,example_recall.ran,file,word,participant,please enter your date of birth (dd/mm/yyyy),date,expName,psychopyVersion,OS,frameRate,STUDY_ID,SESSION_ID,list,prac_learn_study_loop.thisRepN,prac_learn_study_loop.thisTrialN,prac_learn_study_loop.thisN,prac_learn_study_loop.thisIndex,prac_learn_study_loop.ran,image,prac_learn_test_loop.thisRepN,prac_learn_test_loop.thisTrialN,prac_learn_test_loop.thisN,prac_learn_test_loop.thisIndex,prac_learn_test_loop.ran,learn_study_loop.thisRepN,learn_study_loop.thisTrialN,learn_study_loop.thisN,learn_study_loop.thisIndex,learn_study_loop.ran,list_no,block_no,learn_test_loop.thisRepN,learn_test_loop.thisTrialN,learn_test_loop.thisN,learn_test_loop.thisIndex,learn_test_loop.ran,learn_blocks.thisRepN,learn_blocks.thisTrialN,learn_blocks.thisN,learn_blocks.thisIndex,learn_blocks.ran,block_csv,key_resp_13.keys,key_resp_13.rt,learn_blocks_loop.thisRepN,learn_blocks_loop.thisTrialN,learn_blocks_loop.thisN,learn_blocks_loop.thisIndex,learn_blocks_loop.ran,final_learn_test.thisRepN,final_learn_test.thisTrialN,final_learn_test.thisN,final_learn_test.thisIndex,final_learn_test.ran,prac_wm_test_loop.thisRepN,prac_wm_test_loop.thisTrialN,prac_wm_test_loop.thisN,prac_wm_test_loop.thisIndex,prac_wm_test_loop.ran,wm_recalled1,wm_recall_rt1,wm_probed1,wm_recall_acc1,wm_recalled2,wm_recall_rt2,wm_probed2,wm_recall_acc2,wm_recalled3,wm_recall_rt3,wm_probed3,wm_recall_acc3,wm_recalled4,wm_recall_rt4,wm_probed4,wm_recall_acc4,prac_wm_trial_loop.thisRepN,prac_wm_trial_loop.thisTrialN,prac_wm_trial_loop.thisN,prac_wm_trial_loop.thisIndex,prac_wm_trial_loop.ran,word1,image1,file1,item_type1,word2,image2,file2,item_type2,word4,image4,file4,item_type4,word3,image3,file3,item_type3,wm_test_loop.thisRepN,wm_test_loop.thisTrialN,wm_test_loop.thisN,wm_test_loop.thisIndex,wm_test_loop.ran,wm_trial_loop.thisRepN,wm_trial_loop.thisTrialN,wm_trial_loop.thisN,wm_trial_loop.thisIndex,wm_trial_loop.ran
y,24.027,TOUGH,3.599,1,0,0,0,0,1,stimuli/images/PICTURE_747.png,TOUGH,5f3f28926fa4352174cb8da4,06/28/2002,2020-08-27_09h31.12.683,proactive3.2,2020.1.2,Win32,60,5f47c0b9b035471e11593a5c,5f47df92da9c1421ad526c38,6,,,,,,,,,,,,,,,,,,,,,,,,,,,,,,,,,,,,,,,,,,,,,,,,,,,,,,,,,,,,,,,,,,,,,,,,,,,,,,,,,,,,,,,,,,,,,
,,,,,,,,,,stimuli/images/PICTURE_697.png,KILLER,5f3f28926fa4352174cb8da4,06/28/2002,2020-08-27_09h31.12.683,proactive3.2,2020.1.2,Win32,60,5f47c0b9b035471e11593a5c,5f47df92da9c1421ad526c38,6,0,0,0,4,1,peach,,,,,,,,,,,,,,,,,,,,,,,,,,,,,,,,,,,,,,,,,,,,,,,,,,,,,,,,,,,,,,,,,,,,,,,,,,,,,,,,,,,,,,,
,,,,,,,,,,stimuli/images/PICTURE_269.png,GENIUS,5f3f28926fa4352174cb8da4,06/28/2002,2020-08-27_09h31.12.683,proactive3.2,2020.1.2,Win32,60,5f47c0b9b035471e11593a5c,5f47df92da9c1421ad526c38,6,0,1,1,0,1,chameleon,,,,,,,,,,,,,,,,,,,,,,,,,,,,,,,,,,,,,,,,,,,,,,,,,,,,,,,,,,,,,,,,,,,,,,,,,,,,,,,,,,,,,,,
,,,,,,,,,,stimuli/images/PICTURE_378.png,LOSS,5f3f28926fa4352174cb8da4,06/28/2002,2020-08-27_09h31.12.683,proactive3.2,2020.1.2,Win32,60,5f47c0b9b035471e11593a5c,5f47df92da9c1421ad526c38,6,0,2,2,2,1,lobster,,,,,,,,,,,,,,,,,,,,,,,,,,,,,,,,,,,,,,,,,,,,,,,,,,,,,,,,,,,,,,,,,,,,,,,,,,,,,,,,,,,,,,,
,,,,,,,,,,stimuli/images/PICTURE_658.png,DEVIL,5f3f28926fa4352174cb8da4,06/28/2002,2020-08-27_09h31.12.683,proactive3.2,2020.1.2,Win32,60,5f47c0b9b035471e11593a5c,5f47df92da9c1421ad526c38,6,0,3,3,3,1,crow,,,,,,,,,,,,,,,,,,,,,,,,,,,,,,,,,,,,,,,,,,,,,,,,,,,,,,,,,,,,,,,,,,,,,,,,,,,,,,,,,,,,,,,
,,GENIUS,5.623,1,,,,,,stimuli/images/PICTURE_269.png,GENIUS,5f3f28926fa4352174cb8da4,06/28/2002,2020-08-27_09h31.12.683,proactive3.2,2020.1.2,Win32,60,5f47c0b9b035471e11593a5c,5f47df92da9c1421ad526c38,6,,,,,,chameleon,0,0,0,0,1,,,,,,,,,,,,,,,,,,,,,,,,,,,,,,,,,,,,,,,,,,,,,,,,,,,,,,,,,,,,,,,,,,,,,,,,,,,,,,,,,,
,,CELL,2.021,1,,,,,,stimuli/images/PICTURE_727.png,CELL,5f3f28926fa4352174cb8da4,06/28/2002,2020-08-27_09h31.12.683,proactive3.2,2020.1.2,Win32,60,5f47c0b9b035471e11593a5c,5f47df92da9c1421ad526c38,6,,,,,,hose,0,1,1,1,1,,,,,,,,,,,,,,,,,,,,,,,,,,,,,,,,,,,,,,,,,,,,,,,,,,,,,,,,,,,,,,,,,,,,,,,,,,,,,,,,,,
,,DEVIL,1.769,1,,,,,,stimuli/images/PICTURE_658.png,DEVIL,5f3f28926fa4352174cb8da4,06/28/2002,2020-08-27_09h31.12.683,proactive3.2,2020.1.2,Win32,60,5f47c0b9b035471e11593a5c,5f47df92da9c1421ad526c38,6,,,,,,crow,0,2,2,3,1,,,,,,,,,,,,,,,,,,,,,,,,,,,,,,,,,,,,,,,,,,,,,,,,,,,,,,,,,,,,,,,,,,,,,,,,,,,,,,,,,,
,,LOSS,1.769,1,,,,,,stimuli/images/PICTURE_378.png,LOSS,5f3f28926fa4352174cb8da4,06/28/2002,2020-08-27_09h31.12.683,proactive3.2,2020.1.2,Win32,60,5f47c0b9b035471e11593a5c,5f47df92da9c1421ad526c38,6,,,,,,lobster,0,3,3,2,1,,,,,,,,,,,,,,,,,,,,,,,,,,,,,,,,,,,,,,,,,,,,,,,,,,,,,,,,,,,,,,,,,,,,,,,,,,,,,,,,,,
,,KILLER,1.652,1,,,,,,stimuli/images/PICTURE_697.png,KILLER,5f3f28926fa4352174cb8da4,06/28/2002,2020-08-27_09h31.12.683,proactive3.2,2020.1.2,Win32,60,5f47c0b9b035471e11593a5c,5f47df92da9c1421ad526c38,6,,,,,,peach,0,4,4,4,1,,,,,,,,,,,,,,,,,,,,,,,,,,,,,,,,,,,,,,,,,,,,,,,,,,,,,,,,,,,,,,,,,,,,,,,,,,,,,,,,,,
,,,,,,,,,,stimuli/images/PICTURE_108.png,POLICY,5f3f28926fa4352174cb8da4,06/28/2002,2020-08-27_09h31.12.683,proactive3.2,2020.1.2,Win32,60,5f47c0b9b035471e11593a5c,5f47df92da9c1421ad526c38,6,,,,,,calendar,,,,,,0,0,0,22,1,3,1,,,,,,,,,,,,,,,,,,,,,,,,,,,,,,,,,,,,,,,,,,,,,,,,,,,,,,,,,,,,,,,,,,,,,,,,,,,
,,,,,,,,,,stimuli/images/PICTURE_95.png,BOYS,5f3f28926fa4352174cb8da4,06/28/2002,2020-08-27_09h31.12.683,proactive3.2,2020.1.2,Win32,60,5f47c0b9b035471e11593a5c,5f47df92da9c1421ad526c38,6,,,,,,suitcase,,,,,,0,1,1,1,1,1,1,,,,,,,,,,,,,,,,,,,,,,,,,,,,,,,,,,,,,,,,,,,,,,,,,,,,,,,,,,,,,,,,,,,,,,,,,,,
,,,,,,,,,,stimuli/images/PICTURE_296.png,LIFE,5f3f28926fa4352174cb8da4,06/28/2002,2020-08-27_09h31.12.683,proactive3.2,2020.1.2,Win32,60,5f47c0b9b035471e11593a5c,5f47df92da9c1421ad526c38,6,,,,,,bolt,,,,,,0,2,2,57,1,6,1,,,,,,,,,,,,,,,,,,,,,,,,,,,,,,,,,,,,,,,,,,,,,,,,,,,,,,,,,,,,,,,,,,,,,,,,,,,
,,,,,,,,,,stimuli/images/PICTURE_32.png,PILLS,5f3f28926fa4352174cb8da4,06/28/2002,2020-08-27_09h31.12.683,proactive3.2,2020.1.2,Win32,60,5f47c0b9b035471e11593a5c,5f47df92da9c1421ad526c38,6,,,,,,crown,,,,,,0,3,3,18,1,2,1,,,,,,,,,,,,,,,,,,,,,,,,,,,,,,,,,,,,,,,,,,,,,,,,,,,,,,,,,,,,,,,,,,,,,,,,,,,
,,,,,,,,,,stimuli/images/PICTURE_147.png,WOMEN,5f3f28926fa4352174cb8da4,06/28/2002,2020-08-27_09h31.12.683,proactive3.2,2020.1.2,Win32,60,5f47c0b9b035471e11593a5c,5f47df92da9c1421ad526c38,6,,,,,,hanger,,,,,,0,4,4,7,1,1,1,,,,,,,,,,,,,,,,,,,,,,,,,,,,,,,,,,,,,,,,,,,,,,,,,,,,,,,,,,,,,,,,,,,,,,,,,,,
,,,,,,,,,,stimuli/images/PICTURE_403.png,RIVER,5f3f28926fa4352174cb8da4,06/28/2002,2020-08-27_09h31.12.683,proactive3.2,2020.1.2,Win32,60,5f47c0b9b035471e11593a5c,5f47df92da9c1421ad526c38,6,,,,,,cathedral,,,,,,0,5,5,40,1,5,1,,,,,,,,,,,,,,,,,,,,,,,,,,,,,,,,,,,,,,,,,,,,,,,,,,,,,,,,,,,,,,,,,,,,,,,,,,,
,,,,,,,,,,stimuli/images/PICTURE_380.png,HONEY,5f3f28926fa4352174cb8da4,06/28/2002,2020-08-27_09h31.12.683,proactive3.2,2020.1.2,Win32,60,5f47c0b9b035471e11593a5c,5f47df92da9c1421ad526c38,6,,,,,,gorilla,,,,,,0,6,6,19,1,2,1,,,,,,,,,,,,,,,,,,,,,,,,,,,,,,,,,,,,,,,,,,,,,,,,,,,,,,,,,,,,,,,,,,,,,,,,,,,
,,,,,,,,,,stimuli/images/PICTURE_403.png,TOILET,5f3f28926fa4352174cb8da4,06/28/2002,2020-08-27_09h31.12.683,proactive3.2,2020.1.2,Win32,60,5f47c0b9b035471e11593a5c,5f47df92da9c1421ad526c38,6,,,,,,cathedral,,,,,,0,7,7,25,1,3,1,,,,,,,,,,,,,,,,,,,,,,,,,,,,,,,,,,,,,,,,,,,,,,,,,,,,,,,,,,,,,,,,,,,,,,,,,,,
,,,,,,,,,,stimuli/images/PICTURE_2.png,FLIGHT,5f3f28926fa4352174cb8da4,06/28/2002,2020-08-27_09h31.12.683,proactive3.2,2020.1.2,Win32,60,5f47c0b9b035471e11593a5c,5f47df92da9c1421ad526c38,6,,,,,,tyre,,,,,,0,8,8,15,1,2,1,,,,,,,,,,,,,,,,,,,,,,,,,,,,,,,,,,,,,,,,,,,,,,,,,,,,,,,,,,,,,,,,,,,,,,,,,,,
,,,,,,,,,,stimuli/images/PICTURE_208.png,SYSTEM,5f3f28926fa4352174cb8da4,06/28/2002,2020-08-27_09h31.12.683,proactive3.2,2020.1.2,Win32,60,5f47c0b9b035471e11593a5c,5f47df92da9c1421ad526c38,6,,,,,,microphone,,,,,,0,9,9,32,1,4,1,,,,,,,,,,,,,,,,,,,,,,,,,,,,,,,,,,,,,,,,,,,,,,,,,,,,,,,,,,,,,,,,,,,,,,,,,,,
,,,,,,,,,,stimuli/images/PICTURE_504.png,ARTIST,5f3f28926fa4352174cb8da4,06/28/2002,2020-08-27_09h31.12.683,proactive3.2,2020.1.2,Win32,60,5f47c0b9b035471e11593a5c,5f47df92da9c1421ad526c38,6,,,,,,wheel,,,,,,0,10,10,49,1,5,1,,,,,,,,,,,,,,,,,,,,,,,,,,,,,,,,,,,,,,,,,,,,,,,,,,,,,,,,,,,,,,,,,,,,,,,,,,,
,,,,,,,,,,stimuli/images/PICTURE_285.png,LIFE,5f3f28926fa4352174cb8da4,06/28/2002,2020-08-27_09h31.12.683,proactive3.2,2020.1.2,Win32,60,5f47c0b9b035471e11593a5c,5f47df92da9c1421ad526c38,6,,,,,,carrot,,,,,,0,11,11,33,1,4,1,,,,,,,,,,,,,,,,,,,,,,,,,,,,,,,,,,,,,,,,,,,,,,,,,,,,,,,,,,,,,,,,,,,,,,,,,,,
,,,,,,,,,,stimuli/images/PICTURE_95.png,MILLER,5f3f28926fa4352174cb8da4,06/28/2002,2020-08-27_09h31.12.683,proactive3.2,2020.1.2,Win32,60,5f47c0b9b035471e11593a5c,5f47df92da9c1421ad526c38,6,,,,,,suitcase,,,,,,0,12,12,56,1,6,1,,,,,,,,,,,,,,,,,,,,,,,,,,,,,,,,,,,,,,,,,,,,,,,,,,,,,,,,,,,,,,,,,,,,,,,,,,,
,,,,,,,,,,stimuli/images/PICTURE_308.png,FAMILY,5f3f28926fa4352174cb8da4,06/28/2002,2020-08-27_09h31.12.683,proactive3.2,2020.1.2,Win32,60,5f47c0b9b035471e11593a5c,5f47df92da9c1421ad526c38,6,,,,,,dice,,,,,,0,13,13,36,1,4,1,,,,,,,,,,,,,,,,,,,,,,,,,,,,,,,,,,,,,,,,,,,,,,,,,,,,,,,,,,,,,,,,,,,,,,,,,,,
,,,,,,,,,,stimuli/images/PICTURE_57.png,MOMENT,5f3f28926fa4352174cb8da4,06/28/2002,2020-08-27_09h31.12.683,proactive3.2,2020.1.2,Win32,60,5f47c0b9b035471e11593a5c,5f47df92da9c1421ad526c38,6,,,,,,stamp,,,,,,0,14,14,37,1,4,1,,,,,,,,,,,,,,,,,,,,,,,,,,,,,,,,,,,,,,,,,,,,,,,,,,,,,,,,,,,,,,,,,,,,,,,,,,,
,,,,,,,,,,stimuli/images/PICTURE_296.png,LOTS,5f3f28926fa4352174cb8da4,06/28/2002,2020-08-27_09h31.12.683,proactive3.2,2020.1.2,Win32,60,5f47c0b9b035471e11593a5c,5f47df92da9c1421ad526c38,6,,,,,,bolt,,,,,,0,15,15,9,1,1,1,,,,,,,,,,,,,,,,,,,,,,,,,,,,,,,,,,,,,,,,,,,,,,,,,,,,,,,,,,,,,,,,,,,,,,,,,,,
,,,,,,,,,,stimuli/images/PICTURE_504.png,COPS,5f3f28926fa4352174cb8da4,06/28/2002,2020-08-27_09h31.12.683,proactive3.2,2020.1.2,Win32,60,5f47c0b9b035471e11593a5c,5f47df92da9c1421ad526c38,6,,,,,,wheel,,,,,,0,16,16,52,1,6,1,,,,,,,,,,,,,,,,,,,,,,,,,,,,,,,,,,,,,,,,,,,,,,,,,,,,,,,,,,,,,,,,,,,,,,,,,,,
,,,,,,,,,,stimuli/images/PICTURE_85.png,TOILET,5f3f28926fa4352174cb8da4,06/28/2002,2020-08-27_09h31.12.683,proactive3.2,2020.1.2,Win32,60,5f47c0b9b035471e11593a5c,5f47df92da9c1421ad526c38,6,,,,,,diamond,,,,,,0,17,17,48,1,5,1,,,,,,,,,,,,,,,,,,,,,,,,,,,,,,,,,,,,,,,,,,,,,,,,,,,,,,,,,,,,,,,,,,,,,,,,,,,
,,,,,,,,,,stimuli/images/PICTURE_487.png,GIRL,5f3f28926fa4352174cb8da4,06/28/2002,2020-08-27_09h31.12.683,proactive3.2,2020.1.2,Win32,60,5f47c0b9b035471e11593a5c,5f47df92da9c1421ad526c38,6,,,,,,basket,,,,,,0,18,18,45,1,5,1,,,,,,,,,,,,,,,,,,,,,,,,,,,,,,,,,,,,,,,,,,,,,,,,,,,,,,,,,,,,,,,,,,,,,,,,,,,
,,,,,,,,,,stimuli/images/PICTURE_177.png,WRITER,5f3f28926fa4352174cb8da4,06/28/2002,2020-08-27_09h31.12.683,proactive3.2,2020.1.2,Win32,60,5f47c0b9b035471e11593a5c,5f47df92da9c1421ad526c38,6,,,,,,mushroom,,,,,,0,19,19,41,1,5,1,,,,,,,,,,,,,,,,,,,,,,,,,,,,,,,,,,,,,,,,,,,,,,,,,,,,,,,,,,,,,,,,,,,,,,,,,,,
,,,,,,,,,,stimuli/images/PICTURE_32.png,KIND,5f3f28926fa4352174cb8da4,06/28/2002,2020-08-27_09h31.12.683,proactive3.2,2020.1.2,Win32,60,5f47c0b9b035471e11593a5c,5f47df92da9c1421ad526c38,6,,,,,,crown,,,,,,0,20,20,35,1,4,1,,,,,,,,,,,,,,,,,,,,,,,,,,,,,,,,,,,,,,,,,,,,,,,,,,,,,,,,,,,,,,,,,,,,,,,,,,,
,,,,,,,,,,stimuli/images/PICTURE_405.png,PLENTY,5f3f28926fa4352174cb8da4,06/28/2002,2020-08-27_09h31.12.683,proactive3.2,2020.1.2,Win32,60,5f47c0b9b035471e11593a5c,5f47df92da9c1421ad526c38,6,,,,,,anchor,,,,,,0,21,21,23,1,3,1,,,,,,,,,,,,,,,,,,,,,,,,,,,,,,,,,,,,,,,,,,,,,,,,,,,,,,,,,,,,,,,,,,,,,,,,,,,
,,,,,,,,,,stimuli/images/PICTURE_233.png,LOTS,5f3f28926fa4352174cb8da4,06/28/2002,2020-08-27_09h31.12.683,proactive3.2,2020.1.2,Win32,60,5f47c0b9b035471e11593a5c,5f47df92da9c1421ad526c38,6,,,,,,salt,,,,,,0,22,22,42,1,5,1,,,,,,,,,,,,,,,,,,,,,,,,,,,,,,,,,,,,,,,,,,,,,,,,,,,,,,,,,,,,,,,,,,,,,,,,,,,
,,,,,,,,,,stimuli/images/PICTURE_383.png,WRITER,5f3f28926fa4352174cb8da4,06/28/2002,2020-08-27_09h31.12.683,proactive3.2,2020.1.2,Win32,60,5f47c0b9b035471e11593a5c,5f47df92da9c1421ad526c38,6,,,,,,coin,,,,,,0,23,23,28,1,3,1,,,,,,,,,,,,,,,,,,,,,,,,,,,,,,,,,,,,,,,,,,,,,,,,,,,,,,,,,,,,,,,,,,,,,,,,,,,
,,,,,,,,,,stimuli/images/PICTURE_340.png,VALLEY,5f3f28926fa4352174cb8da4,06/28/2002,2020-08-27_09h31.12.683,proactive3.2,2020.1.2,Win32,60,5f47c0b9b035471e11593a5c,5f47df92da9c1421ad526c38,6,,,,,,mirror,,,,,,0,24,24,54,1,6,1,,,,,,,,,,,,,,,,,,,,,,,,,,,,,,,,,,,,,,,,,,,,,,,,,,,,,,,,,,,,,,,,,,,,,,,,,,,
,,,,,,,,,,stimuli/images/PICTURE_675.png,SALE,5f3f28926fa4352174cb8da4,06/28/2002,2020-08-27_09h31.12.683,proactive3.2,2020.1.2,Win32,60,5f47c0b9b035471e11593a5c,5f47df92da9c1421ad526c38,6,,,,,,windmill,,,,,,0,25,25,47,1,5,1,,,,,,,,,,,,,,,,,,,,,,,,,,,,,,,,,,,,,,,,,,,,,,,,,,,,,,,,,,,,,,,,,,,,,,,,,,,
,,,,,,,,,,stimuli/images/PICTURE_654.png,MONTH,5f3f28926fa4352174cb8da4,06/28/2002,2020-08-27_09h31.12.683,proactive3.2,2020.1.2,Win32,60,5f47c0b9b035471e11593a5c,5f47df92da9c1421ad526c38,6,,,,,,pencil,,,,,,0,26,26,29,1,3,1,,,,,,,,,,,,,,,,,,,,,,,,,,,,,,,,,,,,,,,,,,,,,,,,,,,,,,,,,,,,,,,,,,,,,,,,,,,
,,,,,,,,,,stimuli/images/PICTURE_504.png,YEAR,5f3f28926fa4352174cb8da4,06/28/2002,2020-08-27_09h31.12.683,proactive3.2,2020.1.2,Win32,60,5f47c0b9b035471e11593a5c,5f47df92da9c1421ad526c38,6,,,,,,wheel,,,,,,0,27,27,13,1,2,1,,,,,,,,,,,,,,,,,,,,,,,,,,,,,,,,,,,,,,,,,,,,,,,,,,,,,,,,,,,,,,,,,,,,,,,,,,,
,,,,,,,,,,stimuli/images/PICTURE_467.png,POLICY,5f3f28926fa4352174cb8da4,06/28/2002,2020-08-27_09h31.12.683,proactive3.2,2020.1.2,Win32,60,5f47c0b9b035471e11593a5c,5f47df92da9c1421ad526c38,6,,,,,,peg,,,,,,0,28,28,53,1,6,1,,,,,,,,,,,,,,,,,,,,,,,,,,,,,,,,,,,,,,,,,,,,,,,,,,,,,,,,,,,,,,,,,,,,,,,,,,,
,,,,,,,,,,stimuli/images/PICTURE_744.png,WEAPON,5f3f28926fa4352174cb8da4,06/28/2002,2020-08-27_09h31.12.683,proactive3.2,2020.1.2,Win32,60,5f47c0b9b035471e11593a5c,5f47df92da9c1421ad526c38,6,,,,,,ring,,,,,,0,29,29,50,1,6,1,,,,,,,,,,,,,,,,,,,,,,,,,,,,,,,,,,,,,,,,,,,,,,,,,,,,,,,,,,,,,,,,,,,,,,,,,,,
,,,,,,,,,,stimuli/images/PICTURE_95.png,HONEY,5f3f28926fa4352174cb8da4,06/28/2002,2020-08-27_09h31.12.683,proactive3.2,2020.1.2,Win32,60,5f47c0b9b035471e11593a5c,5f47df92da9c1421ad526c38,6,,,,,,suitcase,,,,,,0,30,30,44,1,5,1,,,,,,,,,,,,,,,,,,,,,,,,,,,,,,,,,,,,,,,,,,,,,,,,,,,,,,,,,,,,,,,,,,,,,,,,,,,
,,,,,,,,,,stimuli/images/PICTURE_405.png,YEAR,5f3f28926fa4352174cb8da4,06/28/2002,2020-08-27_09h31.12.683,proactive3.2,2020.1.2,Win32,60,5f47c0b9b035471e11593a5c,5f47df92da9c1421ad526c38,6,,,,,,anchor,,,,,,0,31,31,34,1,4,1,,,,,,,,,,,,,,,,,,,,,,,,,,,,,,,,,,,,,,,,,,,,,,,,,,,,,,,,,,,,,,,,,,,,,,,,,,,
,,,,,,,,,,stimuli/images/PICTURE_327.png,CASINO,5f3f28926fa4352174cb8da4,06/28/2002,2020-08-27_09h31.12.683,proactive3.2,2020.1.2,Win32,60,5f47c0b9b035471e11593a5c,5f47df92da9c1421ad526c38,6,,,,,,helmet,,,,,,0,32,32,20,1,3,1,,,,,,,,,,,,,,,,,,,,,,,,,,,,,,,,,,,,,,,,,,,,,,,,,,,,,,,,,,,,,,,,,,,,,,,,,,,
,,,,,,,,,,stimuli/images/PICTURE_708.png,RECORD,5f3f28926fa4352174cb8da4,06/28/2002,2020-08-27_09h31.12.683,proactive3.2,2020.1.2,Win32,60,5f47c0b9b035471e11593a5c,5f47df92da9c1421ad526c38,6,,,,,,monkey,,,,,,0,33,33,58,1,6,1,,,,,,,,,,,,,,,,,,,,,,,,,,,,,,,,,,,,,,,,,,,,,,,,,,,,,,,,,,,,,,,,,,,,,,,,,,,
,,,,,,,,,,stimuli/images/PICTURE_564.png,BATH,5f3f28926fa4352174cb8da4,06/28/2002,2020-08-27_09h31.12.683,proactive3.2,2020.1.2,Win32,60,5f47c0b9b035471e11593a5c,5f47df92da9c1421ad526c38,6,,,,,,spoon,,,,,,0,34,34,26,1,3,1,,,,,,,,,,,,,,,,,,,,,,,,,,,,,,,,,,,,,,,,,,,,,,,,,,,,,,,,,,,,,,,,,,,,,,,,,,,
,,,,,,,,,,stimuli/images/PICTURE_297.png,RIVER,5f3f28926fa4352174cb8da4,06/28/2002,2020-08-27_09h31.12.683,proactive3.2,2020.1.2,Win32,60,5f47c0b9b035471e11593a5c,5f47df92da9c1421ad526c38,6,,,,,,aeroplane,,,,,,0,35,35,39,1,4,1,,,,,,,,,,,,,,,,,,,,,,,,,,,,,,,,,,,,,,,,,,,,,,,,,,,,,,,,,,,,,,,,,,,,,,,,,,,
,,,,,,,,,,stimuli/images/PICTURE_33.png,FRIEND,5f3f28926fa4352174cb8da4,06/28/2002,2020-08-27_09h31.12.683,proactive3.2,2020.1.2,Win32,60,5f47c0b9b035471e11593a5c,5f47df92da9c1421ad526c38,6,,,,,,frame,,,,,,0,36,36,8,1,1,1,,,,,,,,,,,,,,,,,,,,,,,,,,,,,,,,,,,,,,,,,,,,,,,,,,,,,,,,,,,,,,,,,,,,,,,,,,,
,,,,,,,,,,stimuli/images/PICTURE_403.png,WRITER,5f3f28926fa4352174cb8da4,06/28/2002,2020-08-27_09h31.12.683,proactive3.2,2020.1.2,Win32,60,5f47c0b9b035471e11593a5c,5f47df92da9c1421ad526c38,6,,,,,,cathedral,,,,,,0,37,37,31,1,4,1,,,,,,,,,,,,,,,,,,,,,,,,,,,,,,,,,,,,,,,,,,,,,,,,,,,,,,,,,,,,,,,,,,,,,,,,,,,
,,,,,,,,,,stimuli/images/PICTURE_383.png,SERIES,5f3f28926fa4352174cb8da4,06/28/2002,2020-08-27_09h31.12.683,proactive3.2,2020.1.2,Win32,60,5f47c0b9b035471e11593a5c,5f47df92da9c1421ad526c38,6,,,,,,coin,,,,,,0,38,38,46,1,5,1,,,,,,,,,,,,,,,,,,,,,,,,,,,,,,,,,,,,,,,,,,,,,,,,,,,,,,,,,,,,,,,,,,,,,,,,,,,
,,,,,,,,,,stimuli/images/PICTURE_147.png,YEAR,5f3f28926fa4352174cb8da4,06/28/2002,2020-08-27_09h31.12.683,proactive3.2,2020.1.2,Win32,60,5f47c0b9b035471e11593a5c,5f47df92da9c1421ad526c38,6,,,,,,hanger,,,,,,0,39,39,21,1,3,1,,,,,,,,,,,,,,,,,,,,,,,,,,,,,,,,,,,,,,,,,,,,,,,,,,,,,,,,,,,,,,,,,,,,,,,,,,,
,,,,,,,,,,stimuli/images/PICTURE_449.png,DUDE,5f3f28926fa4352174cb8da4,06/28/2002,2020-08-27_09h31.12.683,proactive3.2,2020.1.2,Win32,60,5f47c0b9b035471e11593a5c,5f47df92da9c1421ad526c38,6,,,,,,bench,,,,,,0,40,40,17,1,2,1,,,,,,,,,,,,,,,,,,,,,,,,,,,,,,,,,,,,,,,,,,,,,,,,,,,,,,,,,,,,,,,,,,,,,,,,,,,
,,,,,,,,,,stimuli/images/PICTURE_327.png,SERIES,5f3f28926fa4352174cb8da4,06/28/2002,2020-08-27_09h31.12.683,proactive3.2,2020.1.2,Win32,60,5f47c0b9b035471e11593a5c,5f47df92da9c1421ad526c38,6,,,,,,helmet,,,,,,0,41,41,3,1,1,1,,,,,,,,,,,,,,,,,,,,,,,,,,,,,,,,,,,,,,,,,,,,,,,,,,,,,,,,,,,,,,,,,,,,,,,,,,,
,,,,,,,,,,stimuli/images/PICTURE_655.png,TOILET,5f3f28926fa4352174cb8da4,06/28/2002,2020-08-27_09h31.12.683,proactive3.2,2020.1.2,Win32,60,5f47c0b9b035471e11593a5c,5f47df92da9c1421ad526c38,6,,,,,,megaphone,,,,,,0,42,42,12,1,2,1,,,,,,,,,,,,,,,,,,,,,,,,,,,,,,,,,,,,,,,,,,,,,,,,,,,,,,,,,,,,,,,,,,,,,,,,,,,
,,,,,,,,,,stimuli/images/PICTURE_68.png,ROOF,5f3f28926fa4352174cb8da4,06/28/2002,2020-08-27_09h31.12.683,proactive3.2,2020.1.2,Win32,60,5f47c0b9b035471e11593a5c,5f47df92da9c1421ad526c38,6,,,,,,candle,,,,,,0,43,43,38,1,4,1,,,,,,,,,,,,,,,,,,,,,,,,,,,,,,,,,,,,,,,,,,,,,,,,,,,,,,,,,,,,,,,,,,,,,,,,,,,
,,,,,,,,,,stimuli/images/PICTURE_685.png,PENNY,5f3f28926fa4352174cb8da4,06/28/2002,2020-08-27_09h31.12.683,proactive3.2,2020.1.2,Win32,60,5f47c0b9b035471e11593a5c,5f47df92da9c1421ad526c38,6,,,,,,goose,,,,,,0,44,44,4,1,1,1,,,,,,,,,,,,,,,,,,,,,,,,,,,,,,,,,,,,,,,,,,,,,,,,,,,,,,,,,,,,,,,,,,,,,,,,,,,
,,,,,,,,,,stimuli/images/PICTURE_677.png,APPLE,5f3f28926fa4352174cb8da4,06/28/2002,2020-08-27_09h31.12.683,proactive3.2,2020.1.2,Win32,60,5f47c0b9b035471e11593a5c,5f47df92da9c1421ad526c38,6,,,,,,map,,,,,,0,45,45,43,1,5,1,,,,,,,,,,,,,,,,,,,,,,,,,,,,,,,,,,,,,,,,,,,,,,,,,,,,,,,,,,,,,,,,,,,,,,,,,,,
,,,,,,,,,,stimuli/images/PICTURE_491.png,GLASS,5f3f28926fa4352174cb8da4,06/28/2002,2020-08-27_09h31.12.683,proactive3.2,2020.1.2,Win32,60,5f47c0b9b035471e11593a5c,5f47df92da9c1421ad526c38,6,,,,,,rug,,,,,,0,46,46,14,1,2,1,,,,,,,,,,,,,,,,,,,,,,,,,,,,,,,,,,,,,,,,,,,,,,,,,,,,,,,,,,,,,,,,,,,,,,,,,,,
,,,,,,,,,,stimuli/images/PICTURE_380.png,CANDY,5f3f28926fa4352174cb8da4,06/28/2002,2020-08-27_09h31.12.683,proactive3.2,2020.1.2,Win32,60,5f47c0b9b035471e11593a5c,5f47df92da9c1421ad526c38,6,,,,,,gorilla,,,,,,0,47,47,0,1,1,1,,,,,,,,,,,,,,,,,,,,,,,,,,,,,,,,,,,,,,,,,,,,,,,,,,,,,,,,,,,,,,,,,,,,,,,,,,,
,,,,,,,,,,stimuli/images/PICTURE_42.png,BOYS,5f3f28926fa4352174cb8da4,06/28/2002,2020-08-27_09h31.12.683,proactive3.2,2020.1.2,Win32,60,5f47c0b9b035471e11593a5c,5f47df92da9c1421ad526c38,6,,,,,,pear,,,,,,0,48,48,55,1,6,1,,,,,,,,,,,,,,,,,,,,,,,,,,,,,,,,,,,,,,,,,,,,,,,,,,,,,,,,,,,,,,,,,,,,,,,,,,,
,,,,,,,,,,stimuli/images/PICTURE_68.png,MILE,5f3f28926fa4352174cb8da4,06/28/2002,2020-08-27_09h31.12.683,proactive3.2,2020.1.2,Win32,60,5f47c0b9b035471e11593a5c,5f47df92da9c1421ad526c38,6,,,,,,candle,,,,,,0,49,49,51,1,6,1,,,,,,,,,,,,,,,,,,,,,,,,,,,,,,,,,,,,,,,,,,,,,,,,,,,,,,,,,,,,,,,,,,,,,,,,,,,
,,,,,,,,,,stimuli/images/PICTURE_339.png,CLIENT,5f3f28926fa4352174cb8da4,06/28/2002,2020-08-27_09h31.12.683,proactive3.2,2020.1.2,Win32,60,5f47c0b9b035471e11593a5c,5f47df92da9c1421ad526c38,6,,,,,,backpack,,,,,,0,50,50,11,1,2,1,,,,,,,,,,,,,,,,,,,,,,,,,,,,,,,,,,,,,,,,,,,,,,,,,,,,,,,,,,,,,,,,,,,,,,,,,,,
,,,,,,,,,,stimuli/images/PICTURE_85.png,NATION,5f3f28926fa4352174cb8da4,06/28/2002,2020-08-27_09h31.12.683,proactive3.2,2020.1.2,Win32,60,5f47c0b9b035471e11593a5c,5f47df92da9c1421ad526c38,6,,,,,,diamond,,,,,,0,51,51,5,1,1,1,,,,,,,,,,,,,,,,,,,,,,,,,,,,,,,,,,,,,,,,,,,,,,,,,,,,,,,,,,,,,,,,,,,,,,,,,,,
,,,,,,,,,,stimuli/images/PICTURE_667.png,RIVER,5f3f28926fa4352174cb8da4,06/28/2002,2020-08-27_09h31.12.683,proactive3.2,2020.1.2,Win32,60,5f47c0b9b035471e11593a5c,5f47df92da9c1421ad526c38,6,,,,,,daisy,,,,,,0,52,52,10,1,2,1,,,,,,,,,,,,,,,,,,,,,,,,,,,,,,,,,,,,,,,,,,,,,,,,,,,,,,,,,,,,,,,,,,,,,,,,,,,
,,,,,,,,,,stimuli/images/PICTURE_750.png,HOTEL,5f3f28926fa4352174cb8da4,06/28/2002,2020-08-27_09h31.12.683,proactive3.2,2020.1.2,Win32,60,5f47c0b9b035471e11593a5c,5f47df92da9c1421ad526c38,6,,,,,,kettle,,,,,,0,53,53,27,1,3,1,,,,,,,,,,,,,,,,,,,,,,,,,,,,,,,,,,,,,,,,,,,,,,,,,,,,,,,,,,,,,,,,,,,,,,,,,,,
,,,,,,,,,,stimuli/images/PICTURE_203.png,NIGHT,5f3f28926fa4352174cb8da4,06/28/2002,2020-08-27_09h31.12.683,proactive3.2,2020.1.2,Win32,60,5f47c0b9b035471e11593a5c,5f47df92da9c1421ad526c38,6,,,,,,cap,,,,,,0,54,54,2,1,1,1,,,,,,,,,,,,,,,,,,,,,,,,,,,,,,,,,,,,,,,,,,,,,,,,,,,,,,,,,,,,,,,,,,,,,,,,,,,
,,,,,,,,,,stimuli/images/PICTURE_491.png,RIVER,5f3f28926fa4352174cb8da4,06/28/2002,2020-08-27_09h31.12.683,proactive3.2,2020.1.2,Win32,60,5f47c0b9b035471e11593a5c,5f47df92da9c1421ad526c38,6,,,,,,rug,,,,,,0,55,55,6,1,1,1,,,,,,,,,,,,,,,,,,,,,,,,,,,,,,,,,,,,,,,,,,,,,,,,,,,,,,,,,,,,,,,,,,,,,,,,,,,
,,,,,,,,,,stimuli/images/PICTURE_469.png,AGENT,5f3f28926fa4352174cb8da4,06/28/2002,2020-08-27_09h31.12.683,proactive3.2,2020.1.2,Win32,60,5f47c0b9b035471e11593a5c,5f47df92da9c1421ad526c38,6,,,,,,stool,,,,,,0,56,56,16,1,2,1,,,,,,,,,,,,,,,,,,,,,,,,,,,,,,,,,,,,,,,,,,,,,,,,,,,,,,,,,,,,,,,,,,,,,,,,,,,
,,,,,,,,,,stimuli/images/PICTURE_340.png,LETTER,5f3f28926fa4352174cb8da4,06/28/2002,2020-08-27_09h31.12.683,proactive3.2,2020.1.2,Win32,60,5f47c0b9b035471e11593a5c,5f47df92da9c1421ad526c38,6,,,,,,mirror,,,,,,0,57,57,24,1,3,1,,,,,,,,,,,,,,,,,,,,,,,,,,,,,,,,,,,,,,,,,,,,,,,,,,,,,,,,,,,,,,,,,,,,,,,,,,,
,,,,,,,,,,stimuli/images/PICTURE_108.png,FLIGHT,5f3f28926fa4352174cb8da4,06/28/2002,2020-08-27_09h31.12.683,proactive3.2,2020.1.2,Win32,60,5f47c0b9b035471e11593a5c,5f47df92da9c1421ad526c38,6,,,,,,calendar,,,,,,0,58,58,59,1,6,1,,,,,,,,,,,,,,,,,,,,,,,,,,,,,,,,,,,,,,,,,,,,,,,,,,,,,,,,,,,,,,,,,,,,,,,,,,,
,,?,0.001,0,,,,,,stimuli/images/PICTURE_491.png,GLASS,5f3f28926fa4352174cb8da4,06/28/2002,2020-08-27_09h31.12.683,proactive3.2,2020.1.2,Win32,60,5f47c0b9b035471e11593a5c,5f47df92da9c1421ad526c38,6,,,,,,rug,,,,,,,,,,,2,1,0,0,0,14,1,,,,,,,,,,,,,,,,,,,,,,,,,,,,,,,,,,,,,,,,,,,,,,,,,,,,,,,,,,,,,,,,,,,,,,
,,?,0.001,0,,,,,,stimuli/images/PICTURE_403.png,WRITER,5f3f28926fa4352174cb8da4,06/28/2002,2020-08-27_09h31.12.683,proactive3.2,2020.1.2,Win32,60,5f47c0b9b035471e11593a5c,5f47df92da9c1421ad526c38,6,,,,,,cathedral,,,,,,,,,,,4,1,0,1,1,31,1,,,,,,,,,,,,,,,,,,,,,,,,,,,,,,,,,,,,,,,,,,,,,,,,,,,,,,,,,,,,,,,,,,,,,,
,,?,0.001,0,,,,,,stimuli/images/PICTURE_487.png,GIRL,5f3f28926fa4352174cb8da4,06/28/2002,2020-08-27_09h31.12.683,proactive3.2,2020.1.2,Win32,60,5f47c0b9b035471e11593a5c,5f47df92da9c1421ad526c38,6,,,,,,basket,,,,,,,,,,,5,1,0,2,2,45,1,,,,,,,,,,,,,,,,,,,,,,,,,,,,,,,,,,,,,,,,,,,,,,,,,,,,,,,,,,,,,,,,,,,,,,
,,?,0.002,0,,,,,,stimuli/images/PICTURE_380.png,CANDY,5f3f28926fa4352174cb8da4,06/28/2002,2020-08-27_09h31.12.683,proactive3.2,2020.1.2,Win32,60,5f47c0b9b035471e11593a5c,5f47df92da9c1421ad526c38,6,,,,,,gorilla,,,,,,,,,,,1,1,0,3,3,0,1,,,,,,,,,,,,,,,,,,,,,,,,,,,,,,,,,,,,,,,,,,,,,,,,,,,,,,,,,,,,,,,,,,,,,,
,,?,0.001,0,,,,,,stimuli/images/PICTURE_403.png,RIVER,5f3f28926fa4352174cb8da4,06/28/2002,2020-08-27_09h31.12.683,proactive3.2,2020.1.2,Win32,60,5f47c0b9b035471e11593a5c,5f47df92da9c1421ad526c38,6,,,,,,cathedral,,,,,,,,,,,5,1,0,4,4,40,1,,,,,,,,,,,,,,,,,,,,,,,,,,,,,,,,,,,,,,,,,,,,,,,,,,,,,,,,,,,,,,,,,,,,,,
,,?,0.001,0,,,,,,stimuli/images/PICTURE_147.png,YEAR,5f3f28926fa4352174cb8da4,06/28/2002,2020-08-27_09h31.12.683,proactive3.2,2020.1.2,Win32,60,5f47c0b9b035471e11593a5c,5f47df92da9c1421ad526c38,6,,,,,,hanger,,,,,,,,,,,3,1,0,5,5,21,1,,,,,,,,,,,,,,,,,,,,,,,,,,,,,,,,,,,,,,,,,,,,,,,,,,,,,,,,,,,,,,,,,,,,,,
,,?,0.001,0,,,,,,stimuli/images/PICTURE_177.png,WRITER,5f3f28926fa4352174cb8da4,06/28/2002,2020-08-27_09h31.12.683,proactive3.2,2020.1.2,Win32,60,5f47c0b9b035471e11593a5c,5f47df92da9c1421ad526c38,6,,,,,,mushroom,,,,,,,,,,,5,1,0,6,6,41,1,,,,,,,,,,,,,,,,,,,,,,,,,,,,,,,,,,,,,,,,,,,,,,,,,,,,,,,,,,,,,,,,,,,,,,
,,?,0.002,0,,,,,,stimuli/images/PICTURE_405.png,YEAR,5f3f28926fa4352174cb8da4,06/28/2002,2020-08-27_09h31.12.683,proactive3.2,2020.1.2,Win32,60,5f47c0b9b035471e11593a5c,5f47df92da9c1421ad526c38,6,,,,,,anchor,,,,,,,,,,,4,1,0,7,7,34,1,,,,,,,,,,,,,,,,,,,,,,,,,,,,,,,,,,,,,,,,,,,,,,,,,,,,,,,,,,,,,,,,,,,,,,
,,?,0,0,,,,,,stimuli/images/PICTURE_449.png,DUDE,5f3f28926fa4352174cb8da4,06/28/2002,2020-08-27_09h31.12.683,proactive3.2,2020.1.2,Win32,60,5f47c0b9b035471e11593a5c,5f47df92da9c1421ad526c38,6,,,,,,bench,,,,,,,,,,,2,1,0,8,8,17,1,,,,,,,,,,,,,,,,,,,,,,,,,,,,,,,,,,,,,,,,,,,,,,,,,,,,,,,,,,,,,,,,,,,,,,
,,?,0.002,0,,,,,,stimuli/images/PICTURE_339.png,CLIENT,5f3f28926fa4352174cb8da4,06/28/2002,2020-08-27_09h31.12.683,proactive3.2,2020.1.2,Win32,60,5f47c0b9b035471e11593a5c,5f47df92da9c1421ad526c38,6,,,,,,backpack,,,,,,,,,,,2,1,0,9,9,11,1,,,,,,,,,,,,,,,,,,,,,,,,,,,,,,,,,,,,,,,,,,,,,,,,,,,,,,,,,,,,,,,,,,,,,,
,,?,0.002,0,,,,,,stimuli/images/PICTURE_380.png,HONEY,5f3f28926fa4352174cb8da4,06/28/2002,2020-08-27_09h31.12.683,proactive3.2,2020.1.2,Win32,60,5f47c0b9b035471e11593a5c,5f47df92da9c1421ad526c38,6,,,,,,gorilla,,,,,,,,,,,2,1,0,10,10,19,1,,,,,,,,,,,,,,,,,,,,,,,,,,,,,,,,,,,,,,,,,,,,,,,,,,,,,,,,,,,,,,,,,,,,,,
,,BOYS,4.773,1,,,,,,stimuli/images/PICTURE_42.png,BOYS,5f3f28926fa4352174cb8da4,06/28/2002,2020-08-27_09h31.12.683,proactive3.2,2020.1.2,Win32,60,5f47c0b9b035471e11593a5c,5f47df92da9c1421ad526c38,6,,,,,,pear,,,,,,,,,,,6,1,0,11,11,55,1,,,,,,,,,,,,,,,,,,,,,,,,,,,,,,,,,,,,,,,,,,,,,,,,,,,,,,,,,,,,,,,,,,,,,,
,,?,0.002,0,,,,,,stimuli/images/PICTURE_383.png,WRITER,5f3f28926fa4352174cb8da4,06/28/2002,2020-08-27_09h31.12.683,proactive3.2,2020.1.2,Win32,60,5f47c0b9b035471e11593a5c,5f47df92da9c1421ad526c38,6,,,,,,coin,,,,,,,,,,,3,1,0,12,12,28,1,,,,,,,,,,,,,,,,,,,,,,,,,,,,,,,,,,,,,,,,,,,,,,,,,,,,,,,,,,,,,,,,,,,,,,
,,?,0.001,0,,,,,,stimuli/images/PICTURE_203.png,GODS,5f3f28926fa4352174cb8da4,06/28/2002,2020-08-27_09h31.12.683,proactive3.2,2020.1.2,Win32,60,5f47c0b9b035471e11593a5c,5f47df92da9c1421ad526c38,6,,,,,,cap,,,,,,,,,,,4,1,0,13,13,30,1,,,,,,,,,,,,,,,,,,,,,,,,,,,,,,,,,,,,,,,,,,,,,,,,,,,,,,,,,,,,,,,,,,,,,,
,,?,0.002,0,,,,,,stimuli/images/PICTURE_654.png,MONTH,5f3f28926fa4352174cb8da4,06/28/2002,2020-08-27_09h31.12.683,proactive3.2,2020.1.2,Win32,60,5f47c0b9b035471e11593a5c,5f47df92da9c1421ad526c38,6,,,,,,pencil,,,,,,,,,,,3,1,0,14,14,29,1,,,,,,,,,,,,,,,,,,,,,,,,,,,,,,,,,,,,,,,,,,,,,,,,,,,,,,,,,,,,,,,,,,,,,,
,,?,0.002,0,,,,,,stimuli/images/PICTURE_297.png,RIVER,5f3f28926fa4352174cb8da4,06/28/2002,2020-08-27_09h31.12.683,proactive3.2,2020.1.2,Win32,60,5f47c0b9b035471e11593a5c,5f47df92da9c1421ad526c38,6,,,,,,aeroplane,,,,,,,,,,,4,1,0,15,15,39,1,,,,,,,,,,,,,,,,,,,,,,,,,,,,,,,,,,,,,,,,,,,,,,,,,,,,,,,,,,,,,,,,,,,,,,
,,CAPTAIN,10.17,0,,,,,,stimuli/images/PICTURE_504.png,COPS,5f3f28926fa4352174cb8da4,06/28/2002,2020-08-27_09h31.12.683,proactive3.2,2020.1.2,Win32,60,5f47c0b9b035471e11593a5c,5f47df92da9c1421ad526c38,6,,,,,,wheel,,,,,,,,,,,6,1,0,16,16,52,1,,,,,,,,,,,,,,,,,,,,,,,,,,,,,,,,,,,,,,,,,,,,,,,,,,,,,,,,,,,,,,,,,,,,,,
,,?,0.002,0,,,,,,stimuli/images/PICTURE_95.png,BOYS,5f3f28926fa4352174cb8da4,06/28/2002,2020-08-27_09h31.12.683,proactive3.2,2020.1.2,Win32,60,5f47c0b9b035471e11593a5c,5f47df92da9c1421ad526c38,6,,,,,,suitcase,,,,,,,,,,,1,1,0,17,17,1,1,,,,,,,,,,,,,,,,,,,,,,,,,,,,,,,,,,,,,,,,,,,,,,,,,,,,,,,,,,,,,,,,,,,,,,
,,?,0.001,0,,,,,,stimuli/images/PICTURE_667.png,RIVER,5f3f28926fa4352174cb8da4,06/28/2002,2020-08-27_09h31.12.683,proactive3.2,2020.1.2,Win32,60,5f47c0b9b035471e11593a5c,5f47df92da9c1421ad526c38,6,,,,,,daisy,,,,,,,,,,,2,1,0,18,18,10,1,,,,,,,,,,,,,,,,,,,,,,,,,,,,,,,,,,,,,,,,,,,,,,,,,,,,,,,,,,,,,,,,,,,,,,
,,?,0.002,0,,,,,,stimuli/images/PICTURE_491.png,RIVER,5f3f28926fa4352174cb8da4,06/28/2002,2020-08-27_09h31.12.683,proactive3.2,2020.1.2,Win32,60,5f47c0b9b035471e11593a5c,5f47df92da9c1421ad526c38,6,,,,,,rug,,,,,,,,,,,1,1,0,19,19,6,1,,,,,,,,,,,,,,,,,,,,,,,,,,,,,,,,,,,,,,,,,,,,,,,,,,,,,,,,,,,,,,,,,,,,,,
,,?,0.002,0,,,,,,stimuli/images/PICTURE_233.png,LOTS,5f3f28926fa4352174cb8da4,06/28/2002,2020-08-27_09h31.12.683,proactive3.2,2020.1.2,Win32,60,5f47c0b9b035471e11593a5c,5f47df92da9c1421ad526c38,6,,,,,,salt,,,,,,,,,,,5,1,0,20,20,42,1,,,,,,,,,,,,,,,,,,,,,,,,,,,,,,,,,,,,,,,,,,,,,,,,,,,,,,,,,,,,,,,,,,,,,,
,,?,0.002,0,,,,,,stimuli/images/PICTURE_327.png,CASINO,5f3f28926fa4352174cb8da4,06/28/2002,2020-08-27_09h31.12.683,proactive3.2,2020.1.2,Win32,60,5f47c0b9b035471e11593a5c,5f47df92da9c1421ad526c38,6,,,,,,helmet,,,,,,,,,,,3,1,0,21,21,20,1,,,,,,,,,,,,,,,,,,,,,,,,,,,,,,,,,,,,,,,,,,,,,,,,,,,,,,,,,,,,,,,,,,,,,,
,,KILLER,4.706,0,,,,,,stimuli/images/PICTURE_68.png,MILE,5f3f28926fa4352174cb8da4,06/28/2002,2020-08-27_09h31.12.683,proactive3.2,2020.1.2,Win32,60,5f47c0b9b035471e11593a5c,5f47df92da9c1421ad526c38,6,,,,,,candle,,,,,,,,,,,6,1,0,22,22,51,1,,,,,,,,,,,,,,,,,,,,,,,,,,,,,,,,,,,,,,,,,,,,,,,,,,,,,,,,,,,,,,,,,,,,,,
,,?,0.002,0,,,,,,stimuli/images/PICTURE_403.png,TOILET,5f3f28926fa4352174cb8da4,06/28/2002,2020-08-27_09h31.12.683,proactive3.2,2020.1.2,Win32,60,5f47c0b9b035471e11593a5c,5f47df92da9c1421ad526c38,6,,,,,,cathedral,,,,,,,,,,,3,1,0,23,23,25,1,,,,,,,,,,,,,,,,,,,,,,,,,,,,,,,,,,,,,,,,,,,,,,,,,,,,,,,,,,,,,,,,,,,,,,
,,?,0.001,0,,,,,,stimuli/images/PICTURE_32.png,KIND,5f3f28926fa4352174cb8da4,06/28/2002,2020-08-27_09h31.12.683,proactive3.2,2020.1.2,Win32,60,5f47c0b9b035471e11593a5c,5f47df92da9c1421ad526c38,6,,,,,,crown,,,,,,,,,,,4,1,0,24,24,35,1,,,,,,,,,,,,,,,,,,,,,,,,,,,,,,,,,,,,,,,,,,,,,,,,,,,,,,,,,,,,,,,,,,,,,,
,,?,0.002,0,,,,,,stimuli/images/PICTURE_469.png,AGENT,5f3f28926fa4352174cb8da4,06/28/2002,2020-08-27_09h31.12.683,proactive3.2,2020.1.2,Win32,60,5f47c0b9b035471e11593a5c,5f47df92da9c1421ad526c38,6,,,,,,stool,,,,,,,,,,,2,1,0,25,25,16,1,,,,,,,,,,,,,,,,,,,,,,,,,,,,,,,,,,,,,,,,,,,,,,,,,,,,,,,,,,,,,,,,,,,,,,
,,?,0.001,0,,,,,,stimuli/images/PICTURE_2.png,FLIGHT,5f3f28926fa4352174cb8da4,06/28/2002,2020-08-27_09h31.12.683,proactive3.2,2020.1.2,Win32,60,5f47c0b9b035471e11593a5c,5f47df92da9c1421ad526c38,6,,,,,,tyre,,,,,,,,,,,2,1,0,26,26,15,1,,,,,,,,,,,,,,,,,,,,,,,,,,,,,,,,,,,,,,,,,,,,,,,,,,,,,,,,,,,,,,,,,,,,,,
,,?,0.001,0,,,,,,stimuli/images/PICTURE_285.png,LIFE,5f3f28926fa4352174cb8da4,06/28/2002,2020-08-27_09h31.12.683,proactive3.2,2020.1.2,Win32,60,5f47c0b9b035471e11593a5c,5f47df92da9c1421ad526c38,6,,,,,,carrot,,,,,,,,,,,4,1,0,27,27,33,1,,,,,,,,,,,,,,,,,,,,,,,,,,,,,,,,,,,,,,,,,,,,,,,,,,,,,,,,,,,,,,,,,,,,,,
,,?,0.001,0,,,,,,stimuli/images/PICTURE_383.png,SERIES,5f3f28926fa4352174cb8da4,06/28/2002,2020-08-27_09h31.12.683,proactive3.2,2020.1.2,Win32,60,5f47c0b9b035471e11593a5c,5f47df92da9c1421ad526c38,6,,,,,,coin,,,,,,,,,,,5,1,0,28,28,46,1,,,,,,,,,,,,,,,,,,,,,,,,,,,,,,,,,,,,,,,,,,,,,,,,,,,,,,,,,,,,,,,,,,,,,,
,,?,0.002,0,,,,,,stimuli/images/PICTURE_95.png,HONEY,5f3f28926fa4352174cb8da4,06/28/2002,2020-08-27_09h31.12.683,proactive3.2,2020.1.2,Win32,60,5f47c0b9b035471e11593a5c,5f47df92da9c1421ad526c38,6,,,,,,suitcase,,,,,,,,,,,5,1,0,29,29,44,1,,,,,,,,,,,,,,,,,,,,,,,,,,,,,,,,,,,,,,,,,,,,,,,,,,,,,,,,,,,,,,,,,,,,,,
,,?,0.001,0,,,,,,stimuli/images/PICTURE_208.png,SYSTEM,5f3f28926fa4352174cb8da4,06/28/2002,2020-08-27_09h31.12.683,proactive3.2,2020.1.2,Win32,60,5f47c0b9b035471e11593a5c,5f47df92da9c1421ad526c38,6,,,,,,microphone,,,,,,,,,,,4,1,0,30,30,32,1,,,,,,,,,,,,,,,,,,,,,,,,,,,,,,,,,,,,,,,,,,,,,,,,,,,,,,,,,,,,,,,,,,,,,,
,,?,0.002,0,,,,,,stimuli/images/PICTURE_147.png,WOMEN,5f3f28926fa4352174cb8da4,06/28/2002,2020-08-27_09h31.12.683,proactive3.2,2020.1.2,Win32,60,5f47c0b9b035471e11593a5c,5f47df92da9c1421ad526c38,6,,,,,,hanger,,,,,,,,,,,1,1,0,31,31,7,1,,,,,,,,,,,,,,,,,,,,,,,,,,,,,,,,,,,,,,,,,,,,,,,,,,,,,,,,,,,,,,,,,,,,,,
,,?,0.002,0,,,,,,stimuli/images/PICTURE_85.png,TOILET,5f3f28926fa4352174cb8da4,06/28/2002,2020-08-27_09h31.12.683,proactive3.2,2020.1.2,Win32,60,5f47c0b9b035471e11593a5c,5f47df92da9c1421ad526c38,6,,,,,,diamond,,,,,,,,,,,5,1,0,32,32,48,1,,,,,,,,,,,,,,,,,,,,,,,,,,,,,,,,,,,,,,,,,,,,,,,,,,,,,,,,,,,,,,,,,,,,,,
,,?,0.001,0,,,,,,stimuli/images/PICTURE_504.png,YEAR,5f3f28926fa4352174cb8da4,06/28/2002,2020-08-27_09h31.12.683,proactive3.2,2020.1.2,Win32,60,5f47c0b9b035471e11593a5c,5f47df92da9c1421ad526c38,6,,,,,,wheel,,,,,,,,,,,2,1,0,33,33,13,1,,,,,,,,,,,,,,,,,,,,,,,,,,,,,,,,,,,,,,,,,,,,,,,,,,,,,,,,,,,,,,,,,,,,,,
,,?,0.001,0,,,,,,stimuli/images/PICTURE_677.png,APPLE,5f3f28926fa4352174cb8da4,06/28/2002,2020-08-27_09h31.12.683,proactive3.2,2020.1.2,Win32,60,5f47c0b9b035471e11593a5c,5f47df92da9c1421ad526c38,6,,,,,,map,,,,,,,,,,,5,1,0,34,34,43,1,,,,,,,,,,,,,,,,,,,,,,,,,,,,,,,,,,,,,,,,,,,,,,,,,,,,,,,,,,,,,,,,,,,,,,
,,ADVOCATE,3.458,0,,,,,,stimuli/images/PICTURE_708.png,RECORD,5f3f28926fa4352174cb8da4,06/28/2002,2020-08-27_09h31.12.683,proactive3.2,2020.1.2,Win32,60,5f47c0b9b035471e11593a5c,5f47df92da9c1421ad526c38,6,,,,,,monkey,,,,,,,,,,,6,1,0,35,35,58,1,,,,,,,,,,,,,,,,,,,,,,,,,,,,,,,,,,,,,,,,,,,,,,,,,,,,,,,,,,,,,,,,,,,,,,
,,LIFE,1.519,1,,,,,,stimuli/images/PICTURE_296.png,LIFE,5f3f28926fa4352174cb8da4,06/28/2002,2020-08-27_09h31.12.683,proactive3.2,2020.1.2,Win32,60,5f47c0b9b035471e11593a5c,5f47df92da9c1421ad526c38,6,,,,,,bolt,,,,,,,,,,,6,1,0,36,36,57,1,,,,,,,,,,,,,,,,,,,,,,,,,,,,,,,,,,,,,,,,,,,,,,,,,,,,,,,,,,,,,,,,,,,,,,
,,?,0.002,0,,,,,,stimuli/images/PICTURE_308.png,FAMILY,5f3f28926fa4352174cb8da4,06/28/2002,2020-08-27_09h31.12.683,proactive3.2,2020.1.2,Win32,60,5f47c0b9b035471e11593a5c,5f47df92da9c1421ad526c38,6,,,,,,dice,,,,,,,,,,,4,1,0,37,37,36,1,,,,,,,,,,,,,,,,,,,,,,,,,,,,,,,,,,,,,,,,,,,,,,,,,,,,,,,,,,,,,,,,,,,,,,
,,?,0,0,,,,,,stimuli/images/PICTURE_405.png,PLENTY,5f3f28926fa4352174cb8da4,06/28/2002,2020-08-27_09h31.12.683,proactive3.2,2020.1.2,Win32,60,5f47c0b9b035471e11593a5c,5f47df92da9c1421ad526c38,6,,,,,,anchor,,,,,,,,,,,3,1,0,38,38,23,1,,,,,,,,,,,,,,,,,,,,,,,,,,,,,,,,,,,,,,,,,,,,,,,,,,,,,,,,,,,,,,,,,,,,,,
,,?,0.001,0,,,,,,stimuli/images/PICTURE_675.png,SALE,5f3f28926fa4352174cb8da4,06/28/2002,2020-08-27_09h31.12.683,proactive3.2,2020.1.2,Win32,60,5f47c0b9b035471e11593a5c,5f47df92da9c1421ad526c38,6,,,,,,windmill,,,,,,,,,,,5,1,0,39,39,47,1,,,,,,,,,,,,,,,,,,,,,,,,,,,,,,,,,,,,,,,,,,,,,,,,,,,,,,,,,,,,,,,,,,,,,,
,,?,0.002,0,,,,,,stimuli/images/PICTURE_85.png,NATION,5f3f28926fa4352174cb8da4,06/28/2002,2020-08-27_09h31.12.683,proactive3.2,2020.1.2,Win32,60,5f47c0b9b035471e11593a5c,5f47df92da9c1421ad526c38,6,,,,,,diamond,,,,,,,,,,,1,1,0,40,40,5,1,,,,,,,,,,,,,,,,,,,,,,,,,,,,,,,,,,,,,,,,,,,,,,,,,,,,,,,,,,,,,,,,,,,,,,
,,?,0.001,0,,,,,,stimuli/images/PICTURE_327.png,SERIES,5f3f28926fa4352174cb8da4,06/28/2002,2020-08-27_09h31.12.683,proactive3.2,2020.1.2,Win32,60,5f47c0b9b035471e11593a5c,5f47df92da9c1421ad526c38,6,,,,,,helmet,,,,,,,,,,,1,1,0,41,41,3,1,,,,,,,,,,,,,,,,,,,,,,,,,,,,,,,,,,,,,,,,,,,,,,,,,,,,,,,,,,,,,,,,,,,,,,
,,VALLEY,2.655,1,,,,,,stimuli/images/PICTURE_340.png,VALLEY,5f3f28926fa4352174cb8da4,06/28/2002,2020-08-27_09h31.12.683,proactive3.2,2020.1.2,Win32,60,5f47c0b9b035471e11593a5c,5f47df92da9c1421ad526c38,6,,,,,,mirror,,,,,,,,,,,6,1,0,42,42,54,1,,,,,,,,,,,,,,,,,,,,,,,,,,,,,,,,,,,,,,,,,,,,,,,,,,,,,,,,,,,,,,,,,,,,,,
,,FLIGHT,1.62,1,,,,,,stimuli/images/PICTURE_108.png,FLIGHT,5f3f28926fa4352174cb8da4,06/28/2002,2020-08-27_09h31.12.683,proactive3.2,2020.1.2,Win32,60,5f47c0b9b035471e11593a5c,5f47df92da9c1421ad526c38,6,,,,,,calendar,,,,,,,,,,,6,1,0,43,43,59,1,,,,,,,,,,,,,,,,,,,,,,,,,,,,,,,,,,,,,,,,,,,,,,,,,,,,,,,,,,,,,,,,,,,,,,
,,?,0.001,0,,,,,,stimuli/images/PICTURE_203.png,NIGHT,5f3f28926fa4352174cb8da4,06/28/2002,2020-08-27_09h31.12.683,proactive3.2,2020.1.2,Win32,60,5f47c0b9b035471e11593a5c,5f47df92da9c1421ad526c38,6,,,,,,cap,,,,,,,,,,,1,1,0,44,44,2,1,,,,,,,,,,,,,,,,,,,,,,,,,,,,,,,,,,,,,,,,,,,,,,,,,,,,,,,,,,,,,,,,,,,,,,
,,?,0.002,0,,,,,,stimuli/images/PICTURE_685.png,PENNY,5f3f28926fa4352174cb8da4,06/28/2002,2020-08-27_09h31.12.683,proactive3.2,2020.1.2,Win32,60,5f47c0b9b035471e11593a5c,5f47df92da9c1421ad526c38,6,,,,,,goose,,,,,,,,,,,1,1,0,45,45,4,1,,,,,,,,,,,,,,,,,,,,,,,,,,,,,,,,,,,,,,,,,,,,,,,,,,,,,,,,,,,,,,,,,,,,,,
,,?,0.001,0,,,,,,stimuli/images/PICTURE_750.png,HOTEL,5f3f28926fa4352174cb8da4,06/28/2002,2020-08-27_09h31.12.683,proactive3.2,2020.1.2,Win32,60,5f47c0b9b035471e11593a5c,5f47df92da9c1421ad526c38,6,,,,,,kettle,,,,,,,,,,,3,1,0,46,46,27,1,,,,,,,,,,,,,,,,,,,,,,,,,,,,,,,,,,,,,,,,,,,,,,,,,,,,,,,,,,,,,,,,,,,,,,
,,MILLER,1.758,1,,,,,,stimuli/images/PICTURE_95.png,MILLER,5f3f28926fa4352174cb8da4,06/28/2002,2020-08-27_09h31.12.683,proactive3.2,2020.1.2,Win32,60,5f47c0b9b035471e11593a5c,5f47df92da9c1421ad526c38,6,,,,,,suitcase,,,,,,,,,,,6,1,0,47,47,56,1,,,,,,,,,,,,,,,,,,,,,,,,,,,,,,,,,,,,,,,,,,,,,,,,,,,,,,,,,,,,,,,,,,,,,,
,,?,0.002,0,,,,,,stimuli/images/PICTURE_340.png,LETTER,5f3f28926fa4352174cb8da4,06/28/2002,2020-08-27_09h31.12.683,proactive3.2,2020.1.2,Win32,60,5f47c0b9b035471e11593a5c,5f47df92da9c1421ad526c38,6,,,,,,mirror,,,,,,,,,,,3,1,0,48,48,24,1,,,,,,,,,,,,,,,,,,,,,,,,,,,,,,,,,,,,,,,,,,,,,,,,,,,,,,,,,,,,,,,,,,,,,,
,,?,0.001,0,,,,,,stimuli/images/PICTURE_655.png,TOILET,5f3f28926fa4352174cb8da4,06/28/2002,2020-08-27_09h31.12.683,proactive3.2,2020.1.2,Win32,60,5f47c0b9b035471e11593a5c,5f47df92da9c1421ad526c38,6,,,,,,megaphone,,,,,,,,,,,2,1,0,49,49,12,1,,,,,,,,,,,,,,,,,,,,,,,,,,,,,,,,,,,,,,,,,,,,,,,,,,,,,,,,,,,,,,,,,,,,,,
,,?,0.001,0,,,,,,stimuli/images/PICTURE_33.png,FRIEND,5f3f28926fa4352174cb8da4,06/28/2002,2020-08-27_09h31.12.683,proactive3.2,2020.1.2,Win32,60,5f47c0b9b035471e11593a5c,5f47df92da9c1421ad526c38,6,,,,,,frame,,,,,,,,,,,1,1,0,50,50,8,1,,,,,,,,,,,,,,,,,,,,,,,,,,,,,,,,,,,,,,,,,,,,,,,,,,,,,,,,,,,,,,,,,,,,,,
,,WEAPON,2.042,1,,,,,,stimuli/images/PICTURE_744.png,WEAPON,5f3f28926fa4352174cb8da4,06/28/2002,2020-08-27_09h31.12.683,proactive3.2,2020.1.2,Win32,60,5f47c0b9b035471e11593a5c,5f47df92da9c1421ad526c38,6,,,,,,ring,,,,,,,,,,,6,1,0,51,51,50,1,,,,,,,,,,,,,,,,,,,,,,,,,,,,,,,,,,,,,,,,,,,,,,,,,,,,,,,,,,,,,,,,,,,,,,
,,?,0.001,0,,,,,,stimuli/images/PICTURE_57.png,MOMENT,5f3f28926fa4352174cb8da4,06/28/2002,2020-08-27_09h31.12.683,proactive3.2,2020.1.2,Win32,60,5f47c0b9b035471e11593a5c,5f47df92da9c1421ad526c38,6,,,,,,stamp,,,,,,,,,,,4,1,0,52,52,37,1,,,,,,,,,,,,,,,,,,,,,,,,,,,,,,,,,,,,,,,,,,,,,,,,,,,,,,,,,,,,,,,,,,,,,,
,,POLICY,2.083,1,,,,,,stimuli/images/PICTURE_467.png,POLICY,5f3f28926fa4352174cb8da4,06/28/2002,2020-08-27_09h31.12.683,proactive3.2,2020.1.2,Win32,60,5f47c0b9b035471e11593a5c,5f47df92da9c1421ad526c38,6,,,,,,peg,,,,,,,,,,,6,1,0,53,53,53,1,,,,,,,,,,,,,,,,,,,,,,,,,,,,,,,,,,,,,,,,,,,,,,,,,,,,,,,,,,,,,,,,,,,,,,
,,?,0.003,0,,,,,,stimuli/images/PICTURE_504.png,ARTIST,5f3f28926fa4352174cb8da4,06/28/2002,2020-08-27_09h31.12.683,proactive3.2,2020.1.2,Win32,60,5f47c0b9b035471e11593a5c,5f47df92da9c1421ad526c38,6,,,,,,wheel,,,,,,,,,,,5,1,0,54,54,49,1,,,,,,,,,,,,,,,,,,,,,,,,,,,,,,,,,,,,,,,,,,,,,,,,,,,,,,,,,,,,,,,,,,,,,,
,,?,0.002,0,,,,,,stimuli/images/PICTURE_32.png,PILLS,5f3f28926fa4352174cb8da4,06/28/2002,2020-08-27_09h31.12.683,proactive3.2,2020.1.2,Win32,60,5f47c0b9b035471e11593a5c,5f47df92da9c1421ad526c38,6,,,,,,crown,,,,,,,,,,,2,1,0,55,55,18,1,,,,,,,,,,,,,,,,,,,,,,,,,,,,,,,,,,,,,,,,,,,,,,,,,,,,,,,,,,,,,,,,,,,,,,
,,?,0.002,0,,,,,,stimuli/images/PICTURE_296.png,LOTS,5f3f28926fa4352174cb8da4,06/28/2002,2020-08-27_09h31.12.683,proactive3.2,2020.1.2,Win32,60,5f47c0b9b035471e11593a5c,5f47df92da9c1421ad526c38,6,,,,,,bolt,,,,,,,,,,,1,1,0,56,56,9,1,,,,,,,,,,,,,,,,,,,,,,,,,,,,,,,,,,,,,,,,,,,,,,,,,,,,,,,,,,,,,,,,,,,,,,
,,?,0.001,0,,,,,,stimuli/images/PICTURE_108.png,POLICY,5f3f28926fa4352174cb8da4,06/28/2002,2020-08-27_09h31.12.683,proactive3.2,2020.1.2,Win32,60,5f47c0b9b035471e11593a5c,5f47df92da9c1421ad526c38,6,,,,,,calendar,,,,,,,,,,,3,1,0,57,57,22,1,,,,,,,,,,,,,,,,,,,,,,,,,,,,,,,,,,,,,,,,,,,,,,,,,,,,,,,,,,,,,,,,,,,,,,
,,?,0.001,0,,,,,,stimuli/images/PICTURE_68.png,ROOF,5f3f28926fa4352174cb8da4,06/28/2002,2020-08-27_09h31.12.683,proactive3.2,2020.1.2,Win32,60,5f47c0b9b035471e11593a5c,5f47df92da9c1421ad526c38,6,,,,,,candle,,,,,,,,,,,4,1,0,58,58,38,1,,,,,,,,,,,,,,,,,,,,,,,,,,,,,,,,,,,,,,,,,,,,,,,,,,,,,,,,,,,,,,,,,,,,,,
,,?,0.002,0,,,,,,stimuli/images/PICTURE_564.png,BATH,5f3f28926fa4352174cb8da4,06/28/2002,2020-08-27_09h31.12.683,proactive3.2,2020.1.2,Win32,60,5f47c0b9b035471e11593a5c,5f47df92da9c1421ad526c38,6,,,,,,spoon,,,,,,,,,,,3,1,0,59,59,26,1,,,,,,,,,,,,,,,,,,,,,,,,,,,,,,,,,,,,,,,,,,,,,,,,,,,,,,,,,,,,,,,,,,,,,,
,,,,,,,,,,,,5f3f28926fa4352174cb8da4,06/28/2002,2020-08-27_09h31.12.683,proactive3.2,2020.1.2,Win32,60,5f47c0b9b035471e11593a5c,5f47df92da9c1421ad526c38,6,,,,,,,,,,,,,,,,,,,,,,,,0,0,0,1,1,stimuli/learn-block2.csv,,,,,,,,,,,,,,,,,,,,,,,,,,,,,,,,,,,,,,,,,,,,,,,,,,,,,,,,,,,,,,,,
,,,,,,,,,,stimuli/images/PICTURE_405.png,HOUSE,5f3f28926fa4352174cb8da4,06/28/2002,2020-08-27_09h31.12.683,proactive3.2,2020.1.2,Win32,60,5f47c0b9b035471e11593a5c,5f47df92da9c1421ad526c38,6,,,,,,anchor,,,,,,0,0,0,2,1,1,2,,,,,,,,,,,,,,,,,,,,,,,,,,,,,,,,,,,,,,,,,,,,,,,,,,,,,,,,,,,,,,,,,,,,,,,,,,,
,,,,,,,,,,stimuli/images/PICTURE_356.png,CANDY,5f3f28926fa4352174cb8da4,06/28/2002,2020-08-27_09h31.12.683,proactive3.2,2020.1.2,Win32,60,5f47c0b9b035471e11593a5c,5f47df92da9c1421ad526c38,6,,,,,,pawn,,,,,,0,1,1,46,1,5,2,,,,,,,,,,,,,,,,,,,,,,,,,,,,,,,,,,,,,,,,,,,,,,,,,,,,,,,,,,,,,,,,,,,,,,,,,,,
,,,,,,,,,,stimuli/images/PICTURE_32.png,LETTER,5f3f28926fa4352174cb8da4,06/28/2002,2020-08-27_09h31.12.683,proactive3.2,2020.1.2,Win32,60,5f47c0b9b035471e11593a5c,5f47df92da9c1421ad526c38,6,,,,,,crown,,,,,,0,2,2,56,1,6,2,,,,,,,,,,,,,,,,,,,,,,,,,,,,,,,,,,,,,,,,,,,,,,,,,,,,,,,,,,,,,,,,,,,,,,,,,,,
,,,,,,,,,,stimuli/images/PICTURE_285.png,WRITER,5f3f28926fa4352174cb8da4,06/28/2002,2020-08-27_09h31.12.683,proactive3.2,2020.1.2,Win32,60,5f47c0b9b035471e11593a5c,5f47df92da9c1421ad526c38,6,,,,,,carrot,,,,,,0,3,3,6,1,1,2,,,,,,,,,,,,,,,,,,,,,,,,,,,,,,,,,,,,,,,,,,,,,,,,,,,,,,,,,,,,,,,,,,,,,,,,,,,
,,,,,,,,,,stimuli/images/PICTURE_692.png,DUDE,5f3f28926fa4352174cb8da4,06/28/2002,2020-08-27_09h31.12.683,proactive3.2,2020.1.2,Win32,60,5f47c0b9b035471e11593a5c,5f47df92da9c1421ad526c38,6,,,,,,cherry,,,,,,0,4,4,47,1,5,2,,,,,,,,,,,,,,,,,,,,,,,,,,,,,,,,,,,,,,,,,,,,,,,,,,,,,,,,,,,,,,,,,,,,,,,,,,,
,,,,,,,,,,stimuli/images/PICTURE_147.png,LEADER,5f3f28926fa4352174cb8da4,06/28/2002,2020-08-27_09h31.12.683,proactive3.2,2020.1.2,Win32,60,5f47c0b9b035471e11593a5c,5f47df92da9c1421ad526c38,6,,,,,,hanger,,,,,,0,5,5,33,1,4,2,,,,,,,,,,,,,,,,,,,,,,,,,,,,,,,,,,,,,,,,,,,,,,,,,,,,,,,,,,,,,,,,,,,,,,,,,,,
,,,,,,,,,,stimuli/images/PICTURE_123.png,SALE,5f3f28926fa4352174cb8da4,06/28/2002,2020-08-27_09h31.12.683,proactive3.2,2020.1.2,Win32,60,5f47c0b9b035471e11593a5c,5f47df92da9c1421ad526c38,6,,,,,,dart,,,,,,0,6,6,8,1,1,2,,,,,,,,,,,,,,,,,,,,,,,,,,,,,,,,,,,,,,,,,,,,,,,,,,,,,,,,,,,,,,,,,,,,,,,,,,,
,,,,,,,,,,stimuli/images/PICTURE_327.png,LEADER,5f3f28926fa4352174cb8da4,06/28/2002,2020-08-27_09h31.12.683,proactive3.2,2020.1.2,Win32,60,5f47c0b9b035471e11593a5c,5f47df92da9c1421ad526c38,6,,,,,,helmet,,,,,,0,7,7,17,1,2,2,,,,,,,,,,,,,,,,,,,,,,,,,,,,,,,,,,,,,,,,,,,,,,,,,,,,,,,,,,,,,,,,,,,,,,,,,,,
,,,,,,,,,,stimuli/images/PICTURE_708.png,VALLEY,5f3f28926fa4352174cb8da4,06/28/2002,2020-08-27_09h31.12.683,proactive3.2,2020.1.2,Win32,60,5f47c0b9b035471e11593a5c,5f47df92da9c1421ad526c38,6,,,,,,monkey,,,,,,0,8,8,45,1,5,2,,,,,,,,,,,,,,,,,,,,,,,,,,,,,,,,,,,,,,,,,,,,,,,,,,,,,,,,,,,,,,,,,,,,,,,,,,,
,,,,,,,,,,stimuli/images/PICTURE_93.png,GIRL,5f3f28926fa4352174cb8da4,06/28/2002,2020-08-27_09h31.12.683,proactive3.2,2020.1.2,Win32,60,5f47c0b9b035471e11593a5c,5f47df92da9c1421ad526c38,6,,,,,,skateboard,,,,,,0,9,9,31,1,4,2,,,,,,,,,,,,,,,,,,,,,,,,,,,,,,,,,,,,,,,,,,,,,,,,,,,,,,,,,,,,,,,,,,,,,,,,,,,
,,,,,,,,,,stimuli/images/PICTURE_509.png,MILLER,5f3f28926fa4352174cb8da4,06/28/2002,2020-08-27_09h31.12.683,proactive3.2,2020.1.2,Win32,60,5f47c0b9b035471e11593a5c,5f47df92da9c1421ad526c38,6,,,,,,telephone,,,,,,0,10,10,49,1,5,2,,,,,,,,,,,,,,,,,,,,,,,,,,,,,,,,,,,,,,,,,,,,,,,,,,,,,,,,,,,,,,,,,,,,,,,,,,,
,,,,,,,,,,stimuli/images/PICTURE_487.png,ROOF,5f3f28926fa4352174cb8da4,06/28/2002,2020-08-27_09h31.12.683,proactive3.2,2020.1.2,Win32,60,5f47c0b9b035471e11593a5c,5f47df92da9c1421ad526c38,6,,,,,,basket,,,,,,0,11,11,50,1,6,2,,,,,,,,,,,,,,,,,,,,,,,,,,,,,,,,,,,,,,,,,,,,,,,,,,,,,,,,,,,,,,,,,,,,,,,,,,,
,,,,,,,,,,stimuli/images/PICTURE_95.png,NIGHT,5f3f28926fa4352174cb8da4,06/28/2002,2020-08-27_09h31.12.683,proactive3.2,2020.1.2,Win32,60,5f47c0b9b035471e11593a5c,5f47df92da9c1421ad526c38,6,,,,,,suitcase,,,,,,0,12,12,37,1,4,2,,,,,,,,,,,,,,,,,,,,,,,,,,,,,,,,,,,,,,,,,,,,,,,,,,,,,,,,,,,,,,,,,,,,,,,,,,,
,,,,,,,,,,stimuli/images/PICTURE_314.png,SPEECH,5f3f28926fa4352174cb8da4,06/28/2002,2020-08-27_09h31.12.683,proactive3.2,2020.1.2,Win32,60,5f47c0b9b035471e11593a5c,5f47df92da9c1421ad526c38,6,,,,,,perfume,,,,,,0,13,13,35,1,4,2,,,,,,,,,,,,,,,,,,,,,,,,,,,,,,,,,,,,,,,,,,,,,,,,,,,,,,,,,,,,,,,,,,,,,,,,,,,
,,,,,,,,,,stimuli/images/PICTURE_677.png,PHOTO,5f3f28926fa4352174cb8da4,06/28/2002,2020-08-27_09h31.12.683,proactive3.2,2020.1.2,Win32,60,5f47c0b9b035471e11593a5c,5f47df92da9c1421ad526c38,6,,,,,,map,,,,,,0,14,14,14,1,2,2,,,,,,,,,,,,,,,,,,,,,,,,,,,,,,,,,,,,,,,,,,,,,,,,,,,,,,,,,,,,,,,,,,,,,,,,,,,
,,,,,,,,,,stimuli/images/PICTURE_177.png,HOUSE,5f3f28926fa4352174cb8da4,06/28/2002,2020-08-27_09h31.12.683,proactive3.2,2020.1.2,Win32,60,5f47c0b9b035471e11593a5c,5f47df92da9c1421ad526c38,6,,,,,,mushroom,,,,,,0,15,15,25,1,3,2,,,,,,,,,,,,,,,,,,,,,,,,,,,,,,,,,,,,,,,,,,,,,,,,,,,,,,,,,,,,,,,,,,,,,,,,,,,
,,,,,,,,,,stimuli/images/PICTURE_297.png,BODY,5f3f28926fa4352174cb8da4,06/28/2002,2020-08-27_09h31.12.683,proactive3.2,2020.1.2,Win32,60,5f47c0b9b035471e11593a5c,5f47df92da9c1421ad526c38,6,,,,,,aeroplane,,,,,,0,16,16,51,1,6,2,,,,,,,,,,,,,,,,,,,,,,,,,,,,,,,,,,,,,,,,,,,,,,,,,,,,,,,,,,,,,,,,,,,,,,,,,,,
,,,,,,,,,,stimuli/images/PICTURE_667.png,GLASS,5f3f28926fa4352174cb8da4,06/28/2002,2020-08-27_09h31.12.683,proactive3.2,2020.1.2,Win32,60,5f47c0b9b035471e11593a5c,5f47df92da9c1421ad526c38,6,,,,,,daisy,,,,,,0,17,17,27,1,3,2,,,,,,,,,,,,,,,,,,,,,,,,,,,,,,,,,,,,,,,,,,,,,,,,,,,,,,,,,,,,,,,,,,,,,,,,,,,
,,,,,,,,,,stimuli/images/PICTURE_311.png,FLESH,5f3f28926fa4352174cb8da4,06/28/2002,2020-08-27_09h31.12.683,proactive3.2,2020.1.2,Win32,60,5f47c0b9b035471e11593a5c,5f47df92da9c1421ad526c38,6,,,,,,razor,,,,,,0,18,18,3,1,1,2,,,,,,,,,,,,,,,,,,,,,,,,,,,,,,,,,,,,,,,,,,,,,,,,,,,,,,,,,,,,,,,,,,,,,,,,,,,
,,,,,,,,,,stimuli/images/PICTURE_509.png,APPLE,5f3f28926fa4352174cb8da4,06/28/2002,2020-08-27_09h31.12.683,proactive3.2,2020.1.2,Win32,60,5f47c0b9b035471e11593a5c,5f47df92da9c1421ad526c38,6,,,,,,telephone,,,,,,0,19,19,38,1,4,2,,,,,,,,,,,,,,,,,,,,,,,,,,,,,,,,,,,,,,,,,,,,,,,,,,,,,,,,,,,,,,,,,,,,,,,,,,,
,,,,,,,,,,stimuli/images/PICTURE_509.png,SHOTS,5f3f28926fa4352174cb8da4,06/28/2002,2020-08-27_09h31.12.683,proactive3.2,2020.1.2,Win32,60,5f47c0b9b035471e11593a5c,5f47df92da9c1421ad526c38,6,,,,,,telephone,,,,,,0,20,20,7,1,1,2,,,,,,,,,,,,,,,,,,,,,,,,,,,,,,,,,,,,,,,,,,,,,,,,,,,,,,,,,,,,,,,,,,,,,,,,,,,
,,,,,,,,,,stimuli/images/PICTURE_453.png,FAMILY,5f3f28926fa4352174cb8da4,06/28/2002,2020-08-27_09h31.12.683,proactive3.2,2020.1.2,Win32,60,5f47c0b9b035471e11593a5c,5f47df92da9c1421ad526c38,6,,,,,,scissors,,,,,,0,21,21,48,1,5,2,,,,,,,,,,,,,,,,,,,,,,,,,,,,,,,,,,,,,,,,,,,,,,,,,,,,,,,,,,,,,,,,,,,,,,,,,,,
,,,,,,,,,,stimuli/images/PICTURE_57.png,CANDY,5f3f28926fa4352174cb8da4,06/28/2002,2020-08-27_09h31.12.683,proactive3.2,2020.1.2,Win32,60,5f47c0b9b035471e11593a5c,5f47df92da9c1421ad526c38,6,,,,,,stamp,,,,,,0,22,22,52,1,6,2,,,,,,,,,,,,,,,,,,,,,,,,,,,,,,,,,,,,,,,,,,,,,,,,,,,,,,,,,,,,,,,,,,,,,,,,,,,
,,,,,,,,,,stimuli/images/PICTURE_285.png,PRINCE,5f3f28926fa4352174cb8da4,06/28/2002,2020-08-27_09h31.12.683,proactive3.2,2020.1.2,Win32,60,5f47c0b9b035471e11593a5c,5f47df92da9c1421ad526c38,6,,,,,,carrot,,,,,,0,23,23,20,1,3,2,,,,,,,,,,,,,,,,,,,,,,,,,,,,,,,,,,,,,,,,,,,,,,,,,,,,,,,,,,,,,,,,,,,,,,,,,,,
,,,,,,,,,,stimuli/images/PICTURE_33.png,COPS,5f3f28926fa4352174cb8da4,06/28/2002,2020-08-27_09h31.12.683,proactive3.2,2020.1.2,Win32,60,5f47c0b9b035471e11593a5c,5f47df92da9c1421ad526c38,6,,,,,,frame,,,,,,0,24,24,29,1,3,2,,,,,,,,,,,,,,,,,,,,,,,,,,,,,,,,,,,,,,,,,,,,,,,,,,,,,,,,,,,,,,,,,,,,,,,,,,,
,,,,,,,,,,stimuli/images/PICTURE_688.png,CLOCK,5f3f28926fa4352174cb8da4,06/28/2002,2020-08-27_09h31.12.683,proactive3.2,2020.1.2,Win32,60,5f47c0b9b035471e11593a5c,5f47df92da9c1421ad526c38,6,,,,,,runner,,,,,,0,25,25,42,1,5,2,,,,,,,,,,,,,,,,,,,,,,,,,,,,,,,,,,,,,,,,,,,,,,,,,,,,,,,,,,,,,,,,,,,,,,,,,,,
,,,,,,,,,,stimuli/images/PICTURE_255.png,PENNY,5f3f28926fa4352174cb8da4,06/28/2002,2020-08-27_09h31.12.683,proactive3.2,2020.1.2,Win32,60,5f47c0b9b035471e11593a5c,5f47df92da9c1421ad526c38,6,,,,,,shovel,,,,,,0,26,26,19,1,2,2,,,,,,,,,,,,,,,,,,,,,,,,,,,,,,,,,,,,,,,,,,,,,,,,,,,,,,,,,,,,,,,,,,,,,,,,,,,
,,,,,,,,,,stimuli/images/PICTURE_215.png,LEADER,5f3f28926fa4352174cb8da4,06/28/2002,2020-08-27_09h31.12.683,proactive3.2,2020.1.2,Win32,60,5f47c0b9b035471e11593a5c,5f47df92da9c1421ad526c38,6,,,,,,boot,,,,,,0,27,27,43,1,5,2,,,,,,,,,,,,,,,,,,,,,,,,,,,,,,,,,,,,,,,,,,,,,,,,,,,,,,,,,,,,,,,,,,,,,,,,,,,
,,,,,,,,,,stimuli/images/PICTURE_470.png,MOMENT,5f3f28926fa4352174cb8da4,06/28/2002,2020-08-27_09h31.12.683,proactive3.2,2020.1.2,Win32,60,5f47c0b9b035471e11593a5c,5f47df92da9c1421ad526c38,6,,,,,,motorbike,,,,,,0,28,28,40,1,5,2,,,,,,,,,,,,,,,,,,,,,,,,,,,,,,,,,,,,,,,,,,,,,,,,,,,,,,,,,,,,,,,,,,,,,,,,,,,
,,,,,,,,,,stimuli/images/PICTURE_509.png,BATH,5f3f28926fa4352174cb8da4,06/28/2002,2020-08-27_09h31.12.683,proactive3.2,2020.1.2,Win32,60,5f47c0b9b035471e11593a5c,5f47df92da9c1421ad526c38,6,,,,,,telephone,,,,,,0,29,29,15,1,2,2,,,,,,,,,,,,,,,,,,,,,,,,,,,,,,,,,,,,,,,,,,,,,,,,,,,,,,,,,,,,,,,,,,,,,,,,,,,
,,,,,,,,,,stimuli/images/PICTURE_141.png,CLIENT,5f3f28926fa4352174cb8da4,06/28/2002,2020-08-27_09h31.12.683,proactive3.2,2020.1.2,Win32,60,5f47c0b9b035471e11593a5c,5f47df92da9c1421ad526c38,6,,,,,,sunflower,,,,,,0,30,30,30,1,4,2,,,,,,,,,,,,,,,,,,,,,,,,,,,,,,,,,,,,,,,,,,,,,,,,,,,,,,,,,,,,,,,,,,,,,,,,,,,
,,,,,,,,,,stimuli/images/PICTURE_491.png,SERIES,5f3f28926fa4352174cb8da4,06/28/2002,2020-08-27_09h31.12.683,proactive3.2,2020.1.2,Win32,60,5f47c0b9b035471e11593a5c,5f47df92da9c1421ad526c38,6,,,,,,rug,,,,,,0,31,31,39,1,4,2,,,,,,,,,,,,,,,,,,,,,,,,,,,,,,,,,,,,,,,,,,,,,,,,,,,,,,,,,,,,,,,,,,,,,,,,,,,
,,,,,,,,,,stimuli/images/PICTURE_215.png,BOYS,5f3f28926fa4352174cb8da4,06/28/2002,2020-08-27_09h31.12.683,proactive3.2,2020.1.2,Win32,60,5f47c0b9b035471e11593a5c,5f47df92da9c1421ad526c38,6,,,,,,boot,,,,,,0,32,32,24,1,3,2,,,,,,,,,,,,,,,,,,,,,,,,,,,,,,,,,,,,,,,,,,,,,,,,,,,,,,,,,,,,,,,,,,,,,,,,,,,
,,,,,,,,,,stimuli/images/PICTURE_348.png,TOILET,5f3f28926fa4352174cb8da4,06/28/2002,2020-08-27_09h31.12.683,proactive3.2,2020.1.2,Win32,60,5f47c0b9b035471e11593a5c,5f47df92da9c1421ad526c38,6,,,,,,pepper,,,,,,0,33,33,4,1,1,2,,,,,,,,,,,,,,,,,,,,,,,,,,,,,,,,,,,,,,,,,,,,,,,,,,,,,,,,,,,,,,,,,,,,,,,,,,,
,,,,,,,,,,stimuli/images/PICTURE_403.png,FAMILY,5f3f28926fa4352174cb8da4,06/28/2002,2020-08-27_09h31.12.683,proactive3.2,2020.1.2,Win32,60,5f47c0b9b035471e11593a5c,5f47df92da9c1421ad526c38,6,,,,,,cathedral,,,,,,0,34,34,9,1,1,2,,,,,,,,,,,,,,,,,,,,,,,,,,,,,,,,,,,,,,,,,,,,,,,,,,,,,,,,,,,,,,,,,,,,,,,,,,,
,,,,,,,,,,stimuli/images/PICTURE_2.png,YARD,5f3f28926fa4352174cb8da4,06/28/2002,2020-08-27_09h31.12.683,proactive3.2,2020.1.2,Win32,60,5f47c0b9b035471e11593a5c,5f47df92da9c1421ad526c38,6,,,,,,tyre,,,,,,0,35,35,55,1,6,2,,,,,,,,,,,,,,,,,,,,,,,,,,,,,,,,,,,,,,,,,,,,,,,,,,,,,,,,,,,,,,,,,,,,,,,,,,,
,,,,,,,,,,stimuli/images/PICTURE_57.png,CASINO,5f3f28926fa4352174cb8da4,06/28/2002,2020-08-27_09h31.12.683,proactive3.2,2020.1.2,Win32,60,5f47c0b9b035471e11593a5c,5f47df92da9c1421ad526c38,6,,,,,,stamp,,,,,,0,36,36,12,1,2,2,,,,,,,,,,,,,,,,,,,,,,,,,,,,,,,,,,,,,,,,,,,,,,,,,,,,,,,,,,,,,,,,,,,,,,,,,,,
,,,,,,,,,,stimuli/images/PICTURE_655.png,SALE,5f3f28926fa4352174cb8da4,06/28/2002,2020-08-27_09h31.12.683,proactive3.2,2020.1.2,Win32,60,5f47c0b9b035471e11593a5c,5f47df92da9c1421ad526c38,6,,,,,,megaphone,,,,,,0,37,37,57,1,6,2,,,,,,,,,,,,,,,,,,,,,,,,,,,,,,,,,,,,,,,,,,,,,,,,,,,,,,,,,,,,,,,,,,,,,,,,,,,
,,,,,,,,,,stimuli/images/PICTURE_564.png,PLENTY,5f3f28926fa4352174cb8da4,06/28/2002,2020-08-27_09h31.12.683,proactive3.2,2020.1.2,Win32,60,5f47c0b9b035471e11593a5c,5f47df92da9c1421ad526c38,6,,,,,,spoon,,,,,,0,38,38,11,1,2,2,,,,,,,,,,,,,,,,,,,,,,,,,,,,,,,,,,,,,,,,,,,,,,,,,,,,,,,,,,,,,,,,,,,,,,,,,,,
,,,,,,,,,,stimuli/images/PICTURE_452.png,COPS,5f3f28926fa4352174cb8da4,06/28/2002,2020-08-27_09h31.12.683,proactive3.2,2020.1.2,Win32,60,5f47c0b9b035471e11593a5c,5f47df92da9c1421ad526c38,6,,,,,,watch,,,,,,0,39,39,0,1,1,2,,,,,,,,,,,,,,,,,,,,,,,,,,,,,,,,,,,,,,,,,,,,,,,,,,,,,,,,,,,,,,,,,,,,,,,,,,,
,,,,,,,,,,stimuli/images/PICTURE_677.png,FAMILY,5f3f28926fa4352174cb8da4,06/28/2002,2020-08-27_09h31.12.683,proactive3.2,2020.1.2,Win32,60,5f47c0b9b035471e11593a5c,5f47df92da9c1421ad526c38,6,,,,,,map,,,,,,0,40,40,53,1,6,2,,,,,,,,,,,,,,,,,,,,,,,,,,,,,,,,,,,,,,,,,,,,,,,,,,,,,,,,,,,,,,,,,,,,,,,,,,,
,,,,,,,,,,stimuli/images/PICTURE_2.png,AREA,5f3f28926fa4352174cb8da4,06/28/2002,2020-08-27_09h31.12.683,proactive3.2,2020.1.2,Win32,60,5f47c0b9b035471e11593a5c,5f47df92da9c1421ad526c38,6,,,,,,tyre,,,,,,0,41,41,32,1,4,2,,,,,,,,,,,,,,,,,,,,,,,,,,,,,,,,,,,,,,,,,,,,,,,,,,,,,,,,,,,,,,,,,,,,,,,,,,,
,,,,,,,,,,stimuli/images/PICTURE_405.png,JUNGLE,5f3f28926fa4352174cb8da4,06/28/2002,2020-08-27_09h31.12.683,proactive3.2,2020.1.2,Win32,60,5f47c0b9b035471e11593a5c,5f47df92da9c1421ad526c38,6,,,,,,anchor,,,,,,0,42,42,13,1,2,2,,,,,,,,,,,,,,,,,,,,,,,,,,,,,,,,,,,,,,,,,,,,,,,,,,,,,,,,,,,,,,,,,,,,,,,,,,,
,,,,,,,,,,stimuli/images/PICTURE_311.png,TOILET,5f3f28926fa4352174cb8da4,06/28/2002,2020-08-27_09h31.12.683,proactive3.2,2020.1.2,Win32,60,5f47c0b9b035471e11593a5c,5f47df92da9c1421ad526c38,6,,,,,,razor,,,,,,0,43,43,54,1,6,2,,,,,,,,,,,,,,,,,,,,,,,,,,,,,,,,,,,,,,,,,,,,,,,,,,,,,,,,,,,,,,,,,,,,,,,,,,,
,,,,,,,,,,stimuli/images/PICTURE_208.png,SPIRIT,5f3f28926fa4352174cb8da4,06/28/2002,2020-08-27_09h31.12.683,proactive3.2,2020.1.2,Win32,60,5f47c0b9b035471e11593a5c,5f47df92da9c1421ad526c38,6,,,,,,microphone,,,,,,0,44,44,28,1,3,2,,,,,,,,,,,,,,,,,,,,,,,,,,,,,,,,,,,,,,,,,,,,,,,,,,,,,,,,,,,,,,,,,,,,,,,,,,,
,,,,,,,,,,stimuli/images/PICTURE_57.png,NATION,5f3f28926fa4352174cb8da4,06/28/2002,2020-08-27_09h31.12.683,proactive3.2,2020.1.2,Win32,60,5f47c0b9b035471e11593a5c,5f47df92da9c1421ad526c38,6,,,,,,stamp,,,,,,0,45,45,21,1,3,2,,,,,,,,,,,,,,,,,,,,,,,,,,,,,,,,,,,,,,,,,,,,,,,,,,,,,,,,,,,,,,,,,,,,,,,,,,,
,,,,,,,,,,stimuli/images/PICTURE_654.png,YEAR,5f3f28926fa4352174cb8da4,06/28/2002,2020-08-27_09h31.12.683,proactive3.2,2020.1.2,Win32,60,5f47c0b9b035471e11593a5c,5f47df92da9c1421ad526c38,6,,,,,,pencil,,,,,,0,46,46,41,1,5,2,,,,,,,,,,,,,,,,,,,,,,,,,,,,,,,,,,,,,,,,,,,,,,,,,,,,,,,,,,,,,,,,,,,,,,,,,,,
,,,,,,,,,,stimuli/images/PICTURE_68.png,KIND,5f3f28926fa4352174cb8da4,06/28/2002,2020-08-27_09h31.12.683,proactive3.2,2020.1.2,Win32,60,5f47c0b9b035471e11593a5c,5f47df92da9c1421ad526c38,6,,,,,,candle,,,,,,0,47,47,23,1,3,2,,,,,,,,,,,,,,,,,,,,,,,,,,,,,,,,,,,,,,,,,,,,,,,,,,,,,,,,,,,,,,,,,,,,,,,,,,,
,,,,,,,,,,stimuli/images/PICTURE_487.png,POLICY,5f3f28926fa4352174cb8da4,06/28/2002,2020-08-27_09h31.12.683,proactive3.2,2020.1.2,Win32,60,5f47c0b9b035471e11593a5c,5f47df92da9c1421ad526c38,6,,,,,,basket,,,,,,0,48,48,34,1,4,2,,,,,,,,,,,,,,,,,,,,,,,,,,,,,,,,,,,,,,,,,,,,,,,,,,,,,,,,,,,,,,,,,,,,,,,,,,,
,,,,,,,,,,stimuli/images/PICTURE_470.png,BEAUTY,5f3f28926fa4352174cb8da4,06/28/2002,2020-08-27_09h31.12.683,proactive3.2,2020.1.2,Win32,60,5f47c0b9b035471e11593a5c,5f47df92da9c1421ad526c38,6,,,,,,motorbike,,,,,,0,49,49,26,1,3,2,,,,,,,,,,,,,,,,,,,,,,,,,,,,,,,,,,,,,,,,,,,,,,,,,,,,,,,,,,,,,,,,,,,,,,,,,,,
,,,,,,,,,,stimuli/images/PICTURE_296.png,CLOCK,5f3f28926fa4352174cb8da4,06/28/2002,2020-08-27_09h31.12.683,proactive3.2,2020.1.2,Win32,60,5f47c0b9b035471e11593a5c,5f47df92da9c1421ad526c38,6,,,,,,bolt,,,,,,0,50,50,18,1,2,2,,,,,,,,,,,,,,,,,,,,,,,,,,,,,,,,,,,,,,,,,,,,,,,,,,,,,,,,,,,,,,,,,,,,,,,,,,,
,,,,,,,,,,stimuli/images/PICTURE_504.png,HOUSE,5f3f28926fa4352174cb8da4,06/28/2002,2020-08-27_09h31.12.683,proactive3.2,2020.1.2,Win32,60,5f47c0b9b035471e11593a5c,5f47df92da9c1421ad526c38,6,,,,,,wheel,,,,,,0,51,51,36,1,4,2,,,,,,,,,,,,,,,,,,,,,,,,,,,,,,,,,,,,,,,,,,,,,,,,,,,,,,,,,,,,,,,,,,,,,,,,,,,
,,,,,,,,,,stimuli/images/PICTURE_654.png,COPS,5f3f28926fa4352174cb8da4,06/28/2002,2020-08-27_09h31.12.683,proactive3.2,2020.1.2,Win32,60,5f47c0b9b035471e11593a5c,5f47df92da9c1421ad526c38,6,,,,,,pencil,,,,,,0,52,52,10,1,2,2,,,,,,,,,,,,,,,,,,,,,,,,,,,,,,,,,,,,,,,,,,,,,,,,,,,,,,,,,,,,,,,,,,,,,,,,,,,
,,,,,,,,,,stimuli/images/PICTURE_215.png,FOOD,5f3f28926fa4352174cb8da4,06/28/2002,2020-08-27_09h31.12.683,proactive3.2,2020.1.2,Win32,60,5f47c0b9b035471e11593a5c,5f47df92da9c1421ad526c38,6,,,,,,boot,,,,,,0,53,53,5,1,1,2,,,,,,,,,,,,,,,,,,,,,,,,,,,,,,,,,,,,,,,,,,,,,,,,,,,,,,,,,,,,,,,,,,,,,,,,,,,
,,,,,,,,,,stimuli/images/PICTURE_405.png,JUNGLE,5f3f28926fa4352174cb8da4,06/28/2002,2020-08-27_09h31.12.683,proactive3.2,2020.1.2,Win32,60,5f47c0b9b035471e11593a5c,5f47df92da9c1421ad526c38,6,,,,,,anchor,,,,,,0,54,54,58,1,6,2,,,,,,,,,,,,,,,,,,,,,,,,,,,,,,,,,,,,,,,,,,,,,,,,,,,,,,,,,,,,,,,,,,,,,,,,,,,
,,,,,,,,,,stimuli/images/PICTURE_750.png,POLICY,5f3f28926fa4352174cb8da4,06/28/2002,2020-08-27_09h31.12.683,proactive3.2,2020.1.2,Win32,60,5f47c0b9b035471e11593a5c,5f47df92da9c1421ad526c38,6,,,,,,kettle,,,,,,0,55,55,44,1,5,2,,,,,,,,,,,,,,,,,,,,,,,,,,,,,,,,,,,,,,,,,,,,,,,,,,,,,,,,,,,,,,,,,,,,,,,,,,,
,,,,,,,,,,stimuli/images/PICTURE_160.png,HOTEL,5f3f28926fa4352174cb8da4,06/28/2002,2020-08-27_09h31.12.683,proactive3.2,2020.1.2,Win32,60,5f47c0b9b035471e11593a5c,5f47df92da9c1421ad526c38,6,,,,,,wheelbarrow,,,,,,0,56,56,16,1,2,2,,,,,,,,,,,,,,,,,,,,,,,,,,,,,,,,,,,,,,,,,,,,,,,,,,,,,,,,,,,,,,,,,,,,,,,,,,,
,,,,,,,,,,stimuli/images/PICTURE_348.png,DUDE,5f3f28926fa4352174cb8da4,06/28/2002,2020-08-27_09h31.12.683,proactive3.2,2020.1.2,Win32,60,5f47c0b9b035471e11593a5c,5f47df92da9c1421ad526c38,6,,,,,,pepper,,,,,,0,57,57,59,1,6,2,,,,,,,,,,,,,,,,,,,,,,,,,,,,,,,,,,,,,,,,,,,,,,,,,,,,,,,,,,,,,,,,,,,,,,,,,,,
,,,,,,,,,,stimuli/images/PICTURE_2.png,JUNGLE,5f3f28926fa4352174cb8da4,06/28/2002,2020-08-27_09h31.12.683,proactive3.2,2020.1.2,Win32,60,5f47c0b9b035471e11593a5c,5f47df92da9c1421ad526c38,6,,,,,,tyre,,,,,,0,58,58,1,1,1,2,,,,,,,,,,,,,,,,,,,,,,,,,,,,,,,,,,,,,,,,,,,,,,,,,,,,,,,,,,,,,,,,,,,,,,,,,,,
,,?,0.001,0,,,,,,stimuli/images/PICTURE_296.png,CLOCK,5f3f28926fa4352174cb8da4,06/28/2002,2020-08-27_09h31.12.683,proactive3.2,2020.1.2,Win32,60,5f47c0b9b035471e11593a5c,5f47df92da9c1421ad526c38,6,,,,,,bolt,,,,,,,,,,,2,2,0,0,0,18,1,,,,,,,,,,,,,,,,,,,,,,,,,,,,,,,,,,,,,,,,,,,,,,,,,,,,,,,,,,,,,,,,,,,,,,
,,?,0,0,,,,,,stimuli/images/PICTURE_487.png,POLICY,5f3f28926fa4352174cb8da4,06/28/2002,2020-08-27_09h31.12.683,proactive3.2,2020.1.2,Win32,60,5f47c0b9b035471e11593a5c,5f47df92da9c1421ad526c38,6,,,,,,basket,,,,,,,,,,,4,2,0,1,1,34,1,,,,,,,,,,,,,,,,,,,,,,,,,,,,,,,,,,,,,,,,,,,,,,,,,,,,,,,,,,,,,,,,,,,,,,
,,?,0.001,0,,,,,,stimuli/images/PICTURE_750.png,POLICY,5f3f28926fa4352174cb8da4,06/28/2002,2020-08-27_09h31.12.683,proactive3.2,2020.1.2,Win32,60,5f47c0b9b035471e11593a5c,5f47df92da9c1421ad526c38,6,,,,,,kettle,,,,,,,,,,,5,2,0,2,2,44,1,,,,,,,,,,,,,,,,,,,,,,,,,,,,,,,,,,,,,,,,,,,,,,,,,,,,,,,,,,,,,,,,,,,,,,
,,?,0.001,0,,,,,,stimuli/images/PICTURE_285.png,WRITER,5f3f28926fa4352174cb8da4,06/28/2002,2020-08-27_09h31.12.683,proactive3.2,2020.1.2,Win32,60,5f47c0b9b035471e11593a5c,5f47df92da9c1421ad526c38,6,,,,,,carrot,,,,,,,,,,,1,2,0,3,3,6,1,,,,,,,,,,,,,,,,,,,,,,,,,,,,,,,,,,,,,,,,,,,,,,,,,,,,,,,,,,,,,,,,,,,,,,
,,?,0.001,0,,,,,,stimuli/images/PICTURE_708.png,VALLEY,5f3f28926fa4352174cb8da4,06/28/2002,2020-08-27_09h31.12.683,proactive3.2,2020.1.2,Win32,60,5f47c0b9b035471e11593a5c,5f47df92da9c1421ad526c38,6,,,,,,monkey,,,,,,,,,,,5,2,0,4,4,45,1,,,,,,,,,,,,,,,,,,,,,,,,,,,,,,,,,,,,,,,,,,,,,,,,,,,,,,,,,,,,,,,,,,,,,,
,,?,0.002,0,,,,,,stimuli/images/PICTURE_405.png,JUNGLE,5f3f28926fa4352174cb8da4,06/28/2002,2020-08-27_09h31.12.683,proactive3.2,2020.1.2,Win32,60,5f47c0b9b035471e11593a5c,5f47df92da9c1421ad526c38,6,,,,,,anchor,,,,,,,,,,,2,2,0,5,5,13,1,,,,,,,,,,,,,,,,,,,,,,,,,,,,,,,,,,,,,,,,,,,,,,,,,,,,,,,,,,,,,,,,,,,,,,
,,?,0.001,0,,,,,,stimuli/images/PICTURE_18.png,RIVER,5f3f28926fa4352174cb8da4,06/28/2002,2020-08-27_09h31.12.683,proactive3.2,2020.1.2,Win32,60,5f47c0b9b035471e11593a5c,5f47df92da9c1421ad526c38,6,,,,,,planet,,,,,,,,,,,3,2,0,6,6,22,1,,,,,,,,,,,,,,,,,,,,,,,,,,,,,,,,,,,,,,,,,,,,,,,,,,,,,,,,,,,,,,,,,,,,,,
,,FAMILY,1.987,1,,,,,,stimuli/images/PICTURE_677.png,FAMILY,5f3f28926fa4352174cb8da4,06/28/2002,2020-08-27_09h31.12.683,proactive3.2,2020.1.2,Win32,60,5f47c0b9b035471e11593a5c,5f47df92da9c1421ad526c38,6,,,,,,map,,,,,,,,,,,6,2,0,7,7,53,1,,,,,,,,,,,,,,,,,,,,,,,,,,,,,,,,,,,,,,,,,,,,,,,,,,,,,,,,,,,,,,,,,,,,,,
,,?,0.002,0,,,,,,stimuli/images/PICTURE_33.png,COPS,5f3f28926fa4352174cb8da4,06/28/2002,2020-08-27_09h31.12.683,proactive3.2,2020.1.2,Win32,60,5f47c0b9b035471e11593a5c,5f47df92da9c1421ad526c38,6,,,,,,frame,,,,,,,,,,,3,2,0,8,8,29,1,,,,,,,,,,,,,,,,,,,,,,,,,,,,,,,,,,,,,,,,,,,,,,,,,,,,,,,,,,,,,,,,,,,,,,
,,?,0.001,0,,,,,,stimuli/images/PICTURE_2.png,AREA,5f3f28926fa4352174cb8da4,06/28/2002,2020-08-27_09h31.12.683,proactive3.2,2020.1.2,Win32,60,5f47c0b9b035471e11593a5c,5f47df92da9c1421ad526c38,6,,,,,,tyre,,,,,,,,,,,4,2,0,9,9,32,1,,,,,,,,,,,,,,,,,,,,,,,,,,,,,,,,,,,,,,,,,,,,,,,,,,,,,,,,,,,,,,,,,,,,,,
,,?,0.002,0,,,,,,stimuli/images/PICTURE_688.png,CLOCK,5f3f28926fa4352174cb8da4,06/28/2002,2020-08-27_09h31.12.683,proactive3.2,2020.1.2,Win32,60,5f47c0b9b035471e11593a5c,5f47df92da9c1421ad526c38,6,,,,,,runner,,,,,,,,,,,5,2,0,10,10,42,1,,,,,,,,,,,,,,,,,,,,,,,,,,,,,,,,,,,,,,,,,,,,,,,,,,,,,,,,,,,,,,,,,,,,,,
,,?,0.001,0,,,,,,stimuli/images/PICTURE_405.png,HOUSE,5f3f28926fa4352174cb8da4,06/28/2002,2020-08-27_09h31.12.683,proactive3.2,2020.1.2,Win32,60,5f47c0b9b035471e11593a5c,5f47df92da9c1421ad526c38,6,,,,,,anchor,,,,,,,,,,,1,2,0,11,11,2,1,,,,,,,,,,,,,,,,,,,,,,,,,,,,,,,,,,,,,,,,,,,,,,,,,,,,,,,,,,,,,,,,,,,,,,
,,?,0.002,0,,,,,,stimuli/images/PICTURE_57.png,CASINO,5f3f28926fa4352174cb8da4,06/28/2002,2020-08-27_09h31.12.683,proactive3.2,2020.1.2,Win32,60,5f47c0b9b035471e11593a5c,5f47df92da9c1421ad526c38,6,,,,,,stamp,,,,,,,,,,,2,2,0,12,12,12,1,,,,,,,,,,,,,,,,,,,,,,,,,,,,,,,,,,,,,,,,,,,,,,,,,,,,,,,,,,,,,,,,,,,,,,
,,?,0.001,0,,,,,,stimuli/images/PICTURE_93.png,GIRL,5f3f28926fa4352174cb8da4,06/28/2002,2020-08-27_09h31.12.683,proactive3.2,2020.1.2,Win32,60,5f47c0b9b035471e11593a5c,5f47df92da9c1421ad526c38,6,,,,,,skateboard,,,,,,,,,,,4,2,0,13,13,31,1,,,,,,,,,,,,,,,,,,,,,,,,,,,,,,,,,,,,,,,,,,,,,,,,,,,,,,,,,,,,,,,,,,,,,,
,,?,0.002,0,,,,,,stimuli/images/PICTURE_123.png,SALE,5f3f28926fa4352174cb8da4,06/28/2002,2020-08-27_09h31.12.683,proactive3.2,2020.1.2,Win32,60,5f47c0b9b035471e11593a5c,5f47df92da9c1421ad526c38,6,,,,,,dart,,,,,,,,,,,1,2,0,14,14,8,1,,,,,,,,,,,,,,,,,,,,,,,,,,,,,,,,,,,,,,,,,,,,,,,,,,,,,,,,,,,,,,,,,,,,,,
,,?,0.001,0,,,,,,stimuli/images/PICTURE_356.png,CANDY,5f3f28926fa4352174cb8da4,06/28/2002,2020-08-27_09h31.12.683,proactive3.2,2020.1.2,Win32,60,5f47c0b9b035471e11593a5c,5f47df92da9c1421ad526c38,6,,,,,,pawn,,,,,,,,,,,5,2,0,15,15,46,1,,,,,,,,,,,,,,,,,,,,,,,,,,,,,,,,,,,,,,,,,,,,,,,,,,,,,,,,,,,,,,,,,,,,,,
,,?,0.004,0,,,,,,stimuli/images/PICTURE_504.png,HOUSE,5f3f28926fa4352174cb8da4,06/28/2002,2020-08-27_09h31.12.683,proactive3.2,2020.1.2,Win32,60,5f47c0b9b035471e11593a5c,5f47df92da9c1421ad526c38,6,,,,,,wheel,,,,,,,,,,,4,2,0,16,16,36,1,,,,,,,,,,,,,,,,,,,,,,,,,,,,,,,,,,,,,,,,,,,,,,,,,,,,,,,,,,,,,,,,,,,,,,
,,?,0.001,0,,,,,,stimuli/images/PICTURE_160.png,HOTEL,5f3f28926fa4352174cb8da4,06/28/2002,2020-08-27_09h31.12.683,proactive3.2,2020.1.2,Win32,60,5f47c0b9b035471e11593a5c,5f47df92da9c1421ad526c38,6,,,,,,wheelbarrow,,,,,,,,,,,2,2,0,17,17,16,1,,,,,,,,,,,,,,,,,,,,,,,,,,,,,,,,,,,,,,,,,,,,,,,,,,,,,,,,,,,,,,,,,,,,,,
,,LOYAL,3.631,0,,,,,,stimuli/images/PICTURE_32.png,LETTER,5f3f28926fa4352174cb8da4,06/28/2002,2020-08-27_09h31.12.683,proactive3.2,2020.1.2,Win32,60,5f47c0b9b035471e11593a5c,5f47df92da9c1421ad526c38,6,,,,,,crown,,,,,,,,,,,6,2,0,18,18,56,1,,,,,,,,,,,,,,,,,,,,,,,,,,,,,,,,,,,,,,,,,,,,,,,,,,,,,,,,,,,,,,,,,,,,,,
,,?,0.002,0,,,,,,stimuli/images/PICTURE_95.png,NIGHT,5f3f28926fa4352174cb8da4,06/28/2002,2020-08-27_09h31.12.683,proactive3.2,2020.1.2,Win32,60,5f47c0b9b035471e11593a5c,5f47df92da9c1421ad526c38,6,,,,,,suitcase,,,,,,,,,,,4,2,0,19,19,37,1,,,,,,,,,,,,,,,,,,,,,,,,,,,,,,,,,,,,,,,,,,,,,,,,,,,,,,,,,,,,,,,,,,,,,,
,,?,0.002,0,,,,,,stimuli/images/PICTURE_314.png,SPEECH,5f3f28926fa4352174cb8da4,06/28/2002,2020-08-27_09h31.12.683,proactive3.2,2020.1.2,Win32,60,5f47c0b9b035471e11593a5c,5f47df92da9c1421ad526c38,6,,,,,,perfume,,,,,,,,,,,4,2,0,20,20,35,1,,,,,,,,,,,,,,,,,,,,,,,,,,,,,,,,,,,,,,,,,,,,,,,,,,,,,,,,,,,,,,,,,,,,,,
,,?,0.001,0,,,,,,stimuli/images/PICTURE_57.png,NATION,5f3f28926fa4352174cb8da4,06/28/2002,2020-08-27_09h31.12.683,proactive3.2,2020.1.2,Win32,60,5f47c0b9b035471e11593a5c,5f47df92da9c1421ad526c38,6,,,,,,stamp,,,,,,,,,,,3,2,0,21,21,21,1,,,,,,,,,,,,,,,,,,,,,,,,,,,,,,,,,,,,,,,,,,,,,,,,,,,,,,,,,,,,,,,,,,,,,,
,,?,0.001,0,,,,,,stimuli/images/PICTURE_208.png,SPIRIT,5f3f28926fa4352174cb8da4,06/28/2002,2020-08-27_09h31.12.683,proactive3.2,2020.1.2,Win32,60,5f47c0b9b035471e11593a5c,5f47df92da9c1421ad526c38,6,,,,,,microphone,,,,,,,,,,,3,2,0,22,22,28,1,,,,,,,,,,,,,,,,,,,,,,,,,,,,,,,,,,,,,,,,,,,,,,,,,,,,,,,,,,,,,,,,,,,,,,
,,?,0.001,0,,,,,,stimuli/images/PICTURE_509.png,SHOTS,5f3f28926fa4352174cb8da4,06/28/2002,2020-08-27_09h31.12.683,proactive3.2,2020.1.2,Win32,60,5f47c0b9b035471e11593a5c,5f47df92da9c1421ad526c38,6,,,,,,telephone,,,,,,,,,,,1,2,0,23,23,7,1,,,,,,,,,,,,,,,,,,,,,,,,,,,,,,,,,,,,,,,,,,,,,,,,,,,,,,,,,,,,,,,,,,,,,,
,,?,0.002,0,,,,,,stimuli/images/PICTURE_141.png,CLIENT,5f3f28926fa4352174cb8da4,06/28/2002,2020-08-27_09h31.12.683,proactive3.2,2020.1.2,Win32,60,5f47c0b9b035471e11593a5c,5f47df92da9c1421ad526c38,6,,,,,,sunflower,,,,,,,,,,,4,2,0,24,24,30,1,,,,,,,,,,,,,,,,,,,,,,,,,,,,,,,,,,,,,,,,,,,,,,,,,,,,,,,,,,,,,,,,,,,,,,
,,?,0.001,0,,,,,,stimuli/images/PICTURE_177.png,HOUSE,5f3f28926fa4352174cb8da4,06/28/2002,2020-08-27_09h31.12.683,proactive3.2,2020.1.2,Win32,60,5f47c0b9b035471e11593a5c,5f47df92da9c1421ad526c38,6,,,,,,mushroom,,,,,,,,,,,3,2,0,25,25,25,1,,,,,,,,,,,,,,,,,,,,,,,,,,,,,,,,,,,,,,,,,,,,,,,,,,,,,,,,,,,,,,,,,,,,,,
,,?,0.002,0,,,,,,stimuli/images/PICTURE_215.png,BOYS,5f3f28926fa4352174cb8da4,06/28/2002,2020-08-27_09h31.12.683,proactive3.2,2020.1.2,Win32,60,5f47c0b9b035471e11593a5c,5f47df92da9c1421ad526c38,6,,,,,,boot,,,,,,,,,,,3,2,0,26,26,24,1,,,,,,,,,,,,,,,,,,,,,,,,,,,,,,,,,,,,,,,,,,,,,,,,,,,,,,,,,,,,,,,,,,,,,,
,,?,0.001,0,,,,,,stimuli/images/PICTURE_509.png,BATH,5f3f28926fa4352174cb8da4,06/28/2002,2020-08-27_09h31.12.683,proactive3.2,2020.1.2,Win32,60,5f47c0b9b035471e11593a5c,5f47df92da9c1421ad526c38,6,,,,,,telephone,,,,,,,,,,,2,2,0,27,27,15,1,,,,,,,,,,,,,,,,,,,,,,,,,,,,,,,,,,,,,,,,,,,,,,,,,,,,,,,,,,,,,,,,,,,,,,
,,?,0.002,0,,,,,,stimuli/images/PICTURE_327.png,LEADER,5f3f28926fa4352174cb8da4,06/28/2002,2020-08-27_09h31.12.683,proactive3.2,2020.1.2,Win32,60,5f47c0b9b035471e11593a5c,5f47df92da9c1421ad526c38,6,,,,,,helmet,,,,,,,,,,,2,2,0,28,28,17,1,,,,,,,,,,,,,,,,,,,,,,,,,,,,,,,,,,,,,,,,,,,,,,,,,,,,,,,,,,,,,,,,,,,,,,
,,?,0.001,0,,,,,,stimuli/images/PICTURE_654.png,COPS,5f3f28926fa4352174cb8da4,06/28/2002,2020-08-27_09h31.12.683,proactive3.2,2020.1.2,Win32,60,5f47c0b9b035471e11593a5c,5f47df92da9c1421ad526c38,6,,,,,,pencil,,,,,,,,,,,2,2,0,29,29,10,1,,,,,,,,,,,,,,,,,,,,,,,,,,,,,,,,,,,,,,,,,,,,,,,,,,,,,,,,,,,,,,,,,,,,,,
,,?,0.002,0,,,,,,stimuli/images/PICTURE_564.png,PLENTY,5f3f28926fa4352174cb8da4,06/28/2002,2020-08-27_09h31.12.683,proactive3.2,2020.1.2,Win32,60,5f47c0b9b035471e11593a5c,5f47df92da9c1421ad526c38,6,,,,,,spoon,,,,,,,,,,,2,2,0,30,30,11,1,,,,,,,,,,,,,,,,,,,,,,,,,,,,,,,,,,,,,,,,,,,,,,,,,,,,,,,,,,,,,,,,,,,,,,
,,?,0.001,0,,,,,,stimuli/images/PICTURE_215.png,FOOD,5f3f28926fa4352174cb8da4,06/28/2002,2020-08-27_09h31.12.683,proactive3.2,2020.1.2,Win32,60,5f47c0b9b035471e11593a5c,5f47df92da9c1421ad526c38,6,,,,,,boot,,,,,,,,,,,1,2,0,31,31,5,1,,,,,,,,,,,,,,,,,,,,,,,,,,,,,,,,,,,,,,,,,,,,,,,,,,,,,,,,,,,,,,,,,,,,,,
,,?,0.002,0,,,,,,stimuli/images/PICTURE_68.png,KIND,5f3f28926fa4352174cb8da4,06/28/2002,2020-08-27_09h31.12.683,proactive3.2,2020.1.2,Win32,60,5f47c0b9b035471e11593a5c,5f47df92da9c1421ad526c38,6,,,,,,candle,,,,,,,,,,,3,2,0,32,32,23,1,,,,,,,,,,,,,,,,,,,,,,,,,,,,,,,,,,,,,,,,,,,,,,,,,,,,,,,,,,,,,,,,,,,,,,
,,?,0.003,0,,,,,,stimuli/images/PICTURE_452.png,COPS,5f3f28926fa4352174cb8da4,06/28/2002,2020-08-27_09h31.12.683,proactive3.2,2020.1.2,Win32,60,5f47c0b9b035471e11593a5c,5f47df92da9c1421ad526c38,6,,,,,,watch,,,,,,,,,,,1,2,0,33,33,0,1,,,,,,,,,,,,,,,,,,,,,,,,,,,,,,,,,,,,,,,,,,,,,,,,,,,,,,,,,,,,,,,,,,,,,,
,,LIFE,7.194,0,,,,,,stimuli/images/PICTURE_297.png,BODY,5f3f28926fa4352174cb8da4,06/28/2002,2020-08-27_09h31.12.683,proactive3.2,2020.1.2,Win32,60,5f47c0b9b035471e11593a5c,5f47df92da9c1421ad526c38,6,,,,,,aeroplane,,,,,,,,,,,6,2,0,34,34,51,1,,,,,,,,,,,,,,,,,,,,,,,,,,,,,,,,,,,,,,,,,,,,,,,,,,,,,,,,,,,,,,,,,,,,,,
,,SALE,2.504,1,,,,,,stimuli/images/PICTURE_655.png,SALE,5f3f28926fa4352174cb8da4,06/28/2002,2020-08-27_09h31.12.683,proactive3.2,2020.1.2,Win32,60,5f47c0b9b035471e11593a5c,5f47df92da9c1421ad526c38,6,,,,,,megaphone,,,,,,,,,,,6,2,0,35,35,57,1,,,,,,,,,,,,,,,,,,,,,,,,,,,,,,,,,,,,,,,,,,,,,,,,,,,,,,,,,,,,,,,,,,,,,,
,,?,0.002,0,,,,,,stimuli/images/PICTURE_453.png,FAMILY,5f3f28926fa4352174cb8da4,06/28/2002,2020-08-27_09h31.12.683,proactive3.2,2020.1.2,Win32,60,5f47c0b9b035471e11593a5c,5f47df92da9c1421ad526c38,6,,,,,,scissors,,,,,,,,,,,5,2,0,36,36,48,1,,,,,,,,,,,,,,,,,,,,,,,,,,,,,,,,,,,,,,,,,,,,,,,,,,,,,,,,,,,,,,,,,,,,,,
,,?,0.007,0,,,,,,stimuli/images/PICTURE_491.png,SERIES,5f3f28926fa4352174cb8da4,06/28/2002,2020-08-27_09h31.12.683,proactive3.2,2020.1.2,Win32,60,5f47c0b9b035471e11593a5c,5f47df92da9c1421ad526c38,6,,,,,,rug,,,,,,,,,,,4,2,0,37,37,39,1,,,,,,,,,,,,,,,,,,,,,,,,,,,,,,,,,,,,,,,,,,,,,,,,,,,,,,,,,,,,,,,,,,,,,,
,,?,0.001,0,,,,,,stimuli/images/PICTURE_255.png,PENNY,5f3f28926fa4352174cb8da4,06/28/2002,2020-08-27_09h31.12.683,proactive3.2,2020.1.2,Win32,60,5f47c0b9b035471e11593a5c,5f47df92da9c1421ad526c38,6,,,,,,shovel,,,,,,,,,,,2,2,0,38,38,19,1,,,,,,,,,,,,,,,,,,,,,,,,,,,,,,,,,,,,,,,,,,,,,,,,,,,,,,,,,,,,,,,,,,,,,,
,,?,0.002,0,,,,,,stimuli/images/PICTURE_147.png,LEADER,5f3f28926fa4352174cb8da4,06/28/2002,2020-08-27_09h31.12.683,proactive3.2,2020.1.2,Win32,60,5f47c0b9b035471e11593a5c,5f47df92da9c1421ad526c38,6,,,,,,hanger,,,,,,,,,,,4,2,0,39,39,33,1,,,,,,,,,,,,,,,,,,,,,,,,,,,,,,,,,,,,,,,,,,,,,,,,,,,,,,,,,,,,,,,,,,,,,,
,,?,0.002,0,,,,,,stimuli/images/PICTURE_403.png,FAMILY,5f3f28926fa4352174cb8da4,06/28/2002,2020-08-27_09h31.12.683,proactive3.2,2020.1.2,Win32,60,5f47c0b9b035471e11593a5c,5f47df92da9c1421ad526c38,6,,,,,,cathedral,,,,,,,,,,,1,2,0,40,40,9,1,,,,,,,,,,,,,,,,,,,,,,,,,,,,,,,,,,,,,,,,,,,,,,,,,,,,,,,,,,,,,,,,,,,,,,
,,?,0.002,0,,,,,,stimuli/images/PICTURE_509.png,MILLER,5f3f28926fa4352174cb8da4,06/28/2002,2020-08-27_09h31.12.683,proactive3.2,2020.1.2,Win32,60,5f47c0b9b035471e11593a5c,5f47df92da9c1421ad526c38,6,,,,,,telephone,,,,,,,,,,,5,2,0,41,41,49,1,,,,,,,,,,,,,,,,,,,,,,,,,,,,,,,,,,,,,,,,,,,,,,,,,,,,,,,,,,,,,,,,,,,,,,
,,?,0.002,0,,,,,,stimuli/images/PICTURE_348.png,TOILET,5f3f28926fa4352174cb8da4,06/28/2002,2020-08-27_09h31.12.683,proactive3.2,2020.1.2,Win32,60,5f47c0b9b035471e11593a5c,5f47df92da9c1421ad526c38,6,,,,,,pepper,,,,,,,,,,,1,2,0,42,42,4,1,,,,,,,,,,,,,,,,,,,,,,,,,,,,,,,,,,,,,,,,,,,,,,,,,,,,,,,,,,,,,,,,,,,,,,
,,?,0.001,0,,,,,,stimuli/images/PICTURE_692.png,DUDE,5f3f28926fa4352174cb8da4,06/28/2002,2020-08-27_09h31.12.683,proactive3.2,2020.1.2,Win32,60,5f47c0b9b035471e11593a5c,5f47df92da9c1421ad526c38,6,,,,,,cherry,,,,,,,,,,,5,2,0,43,43,47,1,,,,,,,,,,,,,,,,,,,,,,,,,,,,,,,,,,,,,,,,,,,,,,,,,,,,,,,,,,,,,,,,,,,,,,
,,JUNGLE,1.782,1,,,,,,stimuli/images/PICTURE_405.png,JUNGLE,5f3f28926fa4352174cb8da4,06/28/2002,2020-08-27_09h31.12.683,proactive3.2,2020.1.2,Win32,60,5f47c0b9b035471e11593a5c,5f47df92da9c1421ad526c38,6,,,,,,anchor,,,,,,,,,,,6,2,0,44,44,58,1,,,,,,,,,,,,,,,,,,,,,,,,,,,,,,,,,,,,,,,,,,,,,,,,,,,,,,,,,,,,,,,,,,,,,,
,,?,0.002,0,,,,,,stimuli/images/PICTURE_215.png,LEADER,5f3f28926fa4352174cb8da4,06/28/2002,2020-08-27_09h31.12.683,proactive3.2,2020.1.2,Win32,60,5f47c0b9b035471e11593a5c,5f47df92da9c1421ad526c38,6,,,,,,boot,,,,,,,,,,,5,2,0,45,45,43,1,,,,,,,,,,,,,,,,,,,,,,,,,,,,,,,,,,,,,,,,,,,,,,,,,,,,,,,,,,,,,,,,,,,,,,
,,?,0.002,0,,,,,,stimuli/images/PICTURE_677.png,PHOTO,5f3f28926fa4352174cb8da4,06/28/2002,2020-08-27_09h31.12.683,proactive3.2,2020.1.2,Win32,60,5f47c0b9b035471e11593a5c,5f47df92da9c1421ad526c38,6,,,,,,map,,,,,,,,,,,2,2,0,46,46,14,1,,,,,,,,,,,,,,,,,,,,,,,,,,,,,,,,,,,,,,,,,,,,,,,,,,,,,,,,,,,,,,,,,,,,,,
,,?,0.001,0,,,,,,stimuli/images/PICTURE_470.png,MOMENT,5f3f28926fa4352174cb8da4,06/28/2002,2020-08-27_09h31.12.683,proactive3.2,2020.1.2,Win32,60,5f47c0b9b035471e11593a5c,5f47df92da9c1421ad526c38,6,,,,,,motorbike,,,,,,,,,,,5,2,0,47,47,40,1,,,,,,,,,,,,,,,,,,,,,,,,,,,,,,,,,,,,,,,,,,,,,,,,,,,,,,,,,,,,,,,,,,,,,,
,,?,0.001,0,,,,,,stimuli/images/PICTURE_2.png,JUNGLE,5f3f28926fa4352174cb8da4,06/28/2002,2020-08-27_09h31.12.683,proactive3.2,2020.1.2,Win32,60,5f47c0b9b035471e11593a5c,5f47df92da9c1421ad526c38,6,,,,,,tyre,,,,,,,,,,,1,2,0,48,48,1,1,,,,,,,,,,,,,,,,,,,,,,,,,,,,,,,,,,,,,,,,,,,,,,,,,,,,,,,,,,,,,,,,,,,,,,
,,TOILET,1.773,1,,,,,,stimuli/images/PICTURE_311.png,TOILET,5f3f28926fa4352174cb8da4,06/28/2002,2020-08-27_09h31.12.683,proactive3.2,2020.1.2,Win32,60,5f47c0b9b035471e11593a5c,5f47df92da9c1421ad526c38,6,,,,,,razor,,,,,,,,,,,6,2,0,49,49,54,1,,,,,,,,,,,,,,,,,,,,,,,,,,,,,,,,,,,,,,,,,,,,,,,,,,,,,,,,,,,,,,,,,,,,,,
,,YARD,10.703,1,,,,,,stimuli/images/PICTURE_2.png,YARD,5f3f28926fa4352174cb8da4,06/28/2002,2020-08-27_09h31.12.683,proactive3.2,2020.1.2,Win32,60,5f47c0b9b035471e11593a5c,5f47df92da9c1421ad526c38,6,,,,,,tyre,,,,,,,,,,,6,2,0,50,50,55,1,,,,,,,,,,,,,,,,,,,,,,,,,,,,,,,,,,,,,,,,,,,,,,,,,,,,,,,,,,,,,,,,,,,,,,
,,?,0,0,,,,,,stimuli/images/PICTURE_470.png,BEAUTY,5f3f28926fa4352174cb8da4,06/28/2002,2020-08-27_09h31.12.683,proactive3.2,2020.1.2,Win32,60,5f47c0b9b035471e11593a5c,5f47df92da9c1421ad526c38,6,,,,,,motorbike,,,,,,,,,,,3,2,0,51,51,26,1,,,,,,,,,,,,,,,,,,,,,,,,,,,,,,,,,,,,,,,,,,,,,,,,,,,,,,,,,,,,,,,,,,,,,,
,,?,0.001,0,,,,,,stimuli/images/PICTURE_654.png,YEAR,5f3f28926fa4352174cb8da4,06/28/2002,2020-08-27_09h31.12.683,proactive3.2,2020.1.2,Win32,60,5f47c0b9b035471e11593a5c,5f47df92da9c1421ad526c38,6,,,,,,pencil,,,,,,,,,,,5,2,0,52,52,41,1,,,,,,,,,,,,,,,,,,,,,,,,,,,,,,,,,,,,,,,,,,,,,,,,,,,,,,,,,,,,,,,,,,,,,,
,,?,0.001,0,,,,,,stimuli/images/PICTURE_311.png,FLESH,5f3f28926fa4352174cb8da4,06/28/2002,2020-08-27_09h31.12.683,proactive3.2,2020.1.2,Win32,60,5f47c0b9b035471e11593a5c,5f47df92da9c1421ad526c38,6,,,,,,razor,,,,,,,,,,,1,2,0,53,53,3,1,,,,,,,,,,,,,,,,,,,,,,,,,,,,,,,,,,,,,,,,,,,,,,,,,,,,,,,,,,,,,,,,,,,,,,
,,LIFE,4.764,0,,,,,,stimuli/images/PICTURE_487.png,ROOF,5f3f28926fa4352174cb8da4,06/28/2002,2020-08-27_09h31.12.683,proactive3.2,2020.1.2,Win32,60,5f47c0b9b035471e11593a5c,5f47df92da9c1421ad526c38,6,,,,,,basket,,,,,,,,,,,6,2,0,54,54,50,1,,,,,,,,,,,,,,,,,,,,,,,,,,,,,,,,,,,,,,,,,,,,,,,,,,,,,,,,,,,,,,,,,,,,,,
,,?,0.002,0,,,,,,stimuli/images/PICTURE_667.png,GLASS,5f3f28926fa4352174cb8da4,06/28/2002,2020-08-27_09h31.12.683,proactive3.2,2020.1.2,Win32,60,5f47c0b9b035471e11593a5c,5f47df92da9c1421ad526c38,6,,,,,,daisy,,,,,,,,,,,3,2,0,55,55,27,1,,,,,,,,,,,,,,,,,,,,,,,,,,,,,,,,,,,,,,,,,,,,,,,,,,,,,,,,,,,,,,,,,,,,,,
,,LIE,4.254,0,,,,,,stimuli/images/PICTURE_57.png,CANDY,5f3f28926fa4352174cb8da4,06/28/2002,2020-08-27_09h31.12.683,proactive3.2,2020.1.2,Win32,60,5f47c0b9b035471e11593a5c,5f47df92da9c1421ad526c38,6,,,,,,stamp,,,,,,,,,,,6,2,0,56,56,52,1,,,,,,,,,,,,,,,,,,,,,,,,,,,,,,,,,,,,,,,,,,,,,,,,,,,,,,,,,,,,,,,,,,,,,,
,,?,0.003,0,,,,,,stimuli/images/PICTURE_509.png,APPLE,5f3f28926fa4352174cb8da4,06/28/2002,2020-08-27_09h31.12.683,proactive3.2,2020.1.2,Win32,60,5f47c0b9b035471e11593a5c,5f47df92da9c1421ad526c38,6,,,,,,telephone,,,,,,,,,,,4,2,0,57,57,38,1,,,,,,,,,,,,,,,,,,,,,,,,,,,,,,,,,,,,,,,,,,,,,,,,,,,,,,,,,,,,,,,,,,,,,,
,,?,0.002,0,,,,,,stimuli/images/PICTURE_285.png,PRINCE,5f3f28926fa4352174cb8da4,06/28/2002,2020-08-27_09h31.12.683,proactive3.2,2020.1.2,Win32,60,5f47c0b9b035471e11593a5c,5f47df92da9c1421ad526c38,6,,,,,,carrot,,,,,,,,,,,3,2,0,58,58,20,1,,,,,,,,,,,,,,,,,,,,,,,,,,,,,,,,,,,,,,,,,,,,,,,,,,,,,,,,,,,,,,,,,,,,,,
,,DUDE,1.745,1,,,,,,stimuli/images/PICTURE_348.png,DUDE,5f3f28926fa4352174cb8da4,06/28/2002,2020-08-27_09h31.12.683,proactive3.2,2020.1.2,Win32,60,5f47c0b9b035471e11593a5c,5f47df92da9c1421ad526c38,6,,,,,,pepper,,,,,,,,,,,6,2,0,59,59,59,1,,,,,,,,,,,,,,,,,,,,,,,,,,,,,,,,,,,,,,,,,,,,,,,,,,,,,,,,,,,,,,,,,,,,,,
,,,,,,,,,,,,5f3f28926fa4352174cb8da4,06/28/2002,2020-08-27_09h31.12.683,proactive3.2,2020.1.2,Win32,60,5f47c0b9b035471e11593a5c,5f47df92da9c1421ad526c38,6,,,,,,,,,,,,,,,,,,,,,,,,0,1,1,2,1,stimuli/learn-block3.csv,,,,,,,,,,,,,,,,,,,,,,,,,,,,,,,,,,,,,,,,,,,,,,,,,,,,,,,,,,,,,,,,
,,,,,,,,,,stimuli/images/PICTURE_380.png,PHOTO,5f3f28926fa4352174cb8da4,06/28/2002,2020-08-27_09h31.12.683,proactive3.2,2020.1.2,Win32,60,5f47c0b9b035471e11593a5c,5f47df92da9c1421ad526c38,6,,,,,,gorilla,,,,,,0,0,0,52,1,6,0,,,,,,,,,,,,,,,,,,,,,,,,,,,,,,,,,,,,,,,,,,,,,,,,,,,,,,,,,,,,,,,,,,,,,,,,,,,
,,,,,,,,,,stimuli/images/PICTURE_203.png,ARTIST,5f3f28926fa4352174cb8da4,06/28/2002,2020-08-27_09h31.12.683,proactive3.2,2020.1.2,Win32,60,5f47c0b9b035471e11593a5c,5f47df92da9c1421ad526c38,6,,,,,,cap,,,,,,0,1,1,26,1,3,0,,,,,,,,,,,,,,,,,,,,,,,,,,,,,,,,,,,,,,,,,,,,,,,,,,,,,,,,,,,,,,,,,,,,,,,,,,,
,,,,,,,,,,stimuli/images/PICTURE_467.png,DEMON,5f3f28926fa4352174cb8da4,06/28/2002,2020-08-27_09h31.12.683,proactive3.2,2020.1.2,Win32,60,5f47c0b9b035471e11593a5c,5f47df92da9c1421ad526c38,6,,,,,,peg,,,,,,0,2,2,23,1,3,0,,,,,,,,,,,,,,,,,,,,,,,,,,,,,,,,,,,,,,,,,,,,,,,,,,,,,,,,,,,,,,,,,,,,,,,,,,,
,,,,,,,,,,stimuli/images/PICTURE_302.png,FAMILY,5f3f28926fa4352174cb8da4,06/28/2002,2020-08-27_09h31.12.683,proactive3.2,2020.1.2,Win32,60,5f47c0b9b035471e11593a5c,5f47df92da9c1421ad526c38,6,,,,,,taxi,,,,,,0,3,3,18,1,2,0,,,,,,,,,,,,,,,,,,,,,,,,,,,,,,,,,,,,,,,,,,,,,,,,,,,,,,,,,,,,,,,,,,,,,,,,,,,
,,,,,,,,,,stimuli/images/PICTURE_308.png,ESTATE,5f3f28926fa4352174cb8da4,06/28/2002,2020-08-27_09h31.12.683,proactive3.2,2020.1.2,Win32,60,5f47c0b9b035471e11593a5c,5f47df92da9c1421ad526c38,6,,,,,,dice,,,,,,0,4,4,46,1,5,0,,,,,,,,,,,,,,,,,,,,,,,,,,,,,,,,,,,,,,,,,,,,,,,,,,,,,,,,,,,,,,,,,,,,,,,,,,,
,,,,,,,,,,stimuli/images/PICTURE_348.png,SPEECH,5f3f28926fa4352174cb8da4,06/28/2002,2020-08-27_09h31.12.683,proactive3.2,2020.1.2,Win32,60,5f47c0b9b035471e11593a5c,5f47df92da9c1421ad526c38,6,,,,,,pepper,,,,,,0,5,5,20,1,3,0,,,,,,,,,,,,,,,,,,,,,,,,,,,,,,,,,,,,,,,,,,,,,,,,,,,,,,,,,,,,,,,,,,,,,,,,,,,
,,,,,,,,,,stimuli/images/PICTURE_744.png,SAKE,5f3f28926fa4352174cb8da4,06/28/2002,2020-08-27_09h31.12.683,proactive3.2,2020.1.2,Win32,60,5f47c0b9b035471e11593a5c,5f47df92da9c1421ad526c38,6,,,,,,ring,,,,,,0,6,6,17,1,2,0,,,,,,,,,,,,,,,,,,,,,,,,,,,,,,,,,,,,,,,,,,,,,,,,,,,,,,,,,,,,,,,,,,,,,,,,,,,
,,,,,,,,,,stimuli/images/PICTURE_677.png,MILE,5f3f28926fa4352174cb8da4,06/28/2002,2020-08-27_09h31.12.683,proactive3.2,2020.1.2,Win32,60,5f47c0b9b035471e11593a5c,5f47df92da9c1421ad526c38,6,,,,,,map,,,,,,0,7,7,30,1,4,0,,,,,,,,,,,,,,,,,,,,,,,,,,,,,,,,,,,,,,,,,,,,,,,,,,,,,,,,,,,,,,,,,,,,,,,,,,,
,,,,,,,,,,stimuli/images/PICTURE_327.png,BEAUTY,5f3f28926fa4352174cb8da4,06/28/2002,2020-08-27_09h31.12.683,proactive3.2,2020.1.2,Win32,60,5f47c0b9b035471e11593a5c,5f47df92da9c1421ad526c38,6,,,,,,helmet,,,,,,0,8,8,48,1,5,0,,,,,,,,,,,,,,,,,,,,,,,,,,,,,,,,,,,,,,,,,,,,,,,,,,,,,,,,,,,,,,,,,,,,,,,,,,,
,,,,,,,,,,stimuli/images/PICTURE_68.png,MILE,5f3f28926fa4352174cb8da4,06/28/2002,2020-08-27_09h31.12.683,proactive3.2,2020.1.2,Win32,60,5f47c0b9b035471e11593a5c,5f47df92da9c1421ad526c38,6,,,,,,candle,,,,,,0,9,9,44,1,5,0,,,,,,,,,,,,,,,,,,,,,,,,,,,,,,,,,,,,,,,,,,,,,,,,,,,,,,,,,,,,,,,,,,,,,,,,,,,
,,,,,,,,,,stimuli/images/PICTURE_491.png,ROOF,5f3f28926fa4352174cb8da4,06/28/2002,2020-08-27_09h31.12.683,proactive3.2,2020.1.2,Win32,60,5f47c0b9b035471e11593a5c,5f47df92da9c1421ad526c38,6,,,,,,rug,,,,,,0,10,10,24,1,3,0,,,,,,,,,,,,,,,,,,,,,,,,,,,,,,,,,,,,,,,,,,,,,,,,,,,,,,,,,,,,,,,,,,,,,,,,,,,
,,,,,,,,,,stimuli/images/PICTURE_453.png,DUDE,5f3f28926fa4352174cb8da4,06/28/2002,2020-08-27_09h31.12.683,proactive3.2,2020.1.2,Win32,60,5f47c0b9b035471e11593a5c,5f47df92da9c1421ad526c38,6,,,,,,scissors,,,,,,0,11,11,27,1,3,0,,,,,,,,,,,,,,,,,,,,,,,,,,,,,,,,,,,,,,,,,,,,,,,,,,,,,,,,,,,,,,,,,,,,,,,,,,,
,,,,,,,,,,stimuli/images/PICTURE_248.png,DOZEN,5f3f28926fa4352174cb8da4,06/28/2002,2020-08-27_09h31.12.683,proactive3.2,2020.1.2,Win32,60,5f47c0b9b035471e11593a5c,5f47df92da9c1421ad526c38,6,,,,,,cart,,,,,,0,12,12,39,1,4,0,,,,,,,,,,,,,,,,,,,,,,,,,,,,,,,,,,,,,,,,,,,,,,,,,,,,,,,,,,,,,,,,,,,,,,,,,,,
,,,,,,,,,,stimuli/images/PICTURE_85.png,THING,5f3f28926fa4352174cb8da4,06/28/2002,2020-08-27_09h31.12.683,proactive3.2,2020.1.2,Win32,60,5f47c0b9b035471e11593a5c,5f47df92da9c1421ad526c38,6,,,,,,diamond,,,,,,0,13,13,15,1,2,0,,,,,,,,,,,,,,,,,,,,,,,,,,,,,,,,,,,,,,,,,,,,,,,,,,,,,,,,,,,,,,,,,,,,,,,,,,,
,,,,,,,,,,stimuli/images/PICTURE_208.png,MONTH,5f3f28926fa4352174cb8da4,06/28/2002,2020-08-27_09h31.12.683,proactive3.2,2020.1.2,Win32,60,5f47c0b9b035471e11593a5c,5f47df92da9c1421ad526c38,6,,,,,,microphone,,,,,,0,14,14,53,1,6,0,,,,,,,,,,,,,,,,,,,,,,,,,,,,,,,,,,,,,,,,,,,,,,,,,,,,,,,,,,,,,,,,,,,,,,,,,,,
,,,,,,,,,,stimuli/images/PICTURE_667.png,BATH,5f3f28926fa4352174cb8da4,06/28/2002,2020-08-27_09h31.12.683,proactive3.2,2020.1.2,Win32,60,5f47c0b9b035471e11593a5c,5f47df92da9c1421ad526c38,6,,,,,,daisy,,,,,,0,15,15,4,1,1,0,,,,,,,,,,,,,,,,,,,,,,,,,,,,,,,,,,,,,,,,,,,,,,,,,,,,,,,,,,,,,,,,,,,,,,,,,,,
,,,,,,,,,,stimuli/images/PICTURE_675.png,WEAPON,5f3f28926fa4352174cb8da4,06/28/2002,2020-08-27_09h31.12.683,proactive3.2,2020.1.2,Win32,60,5f47c0b9b035471e11593a5c,5f47df92da9c1421ad526c38,6,,,,,,windmill,,,,,,0,16,16,32,1,4,0,,,,,,,,,,,,,,,,,,,,,,,,,,,,,,,,,,,,,,,,,,,,,,,,,,,,,,,,,,,,,,,,,,,,,,,,,,,
,,,,,,,,,,stimuli/images/PICTURE_688.png,WOMEN,5f3f28926fa4352174cb8da4,06/28/2002,2020-08-27_09h31.12.683,proactive3.2,2020.1.2,Win32,60,5f47c0b9b035471e11593a5c,5f47df92da9c1421ad526c38,6,,,,,,runner,,,,,,0,17,17,14,1,2,0,,,,,,,,,,,,,,,,,,,,,,,,,,,,,,,,,,,,,,,,,,,,,,,,,,,,,,,,,,,,,,,,,,,,,,,,,,,
,,,,,,,,,,stimuli/images/PICTURE_208.png,LOTS,5f3f28926fa4352174cb8da4,06/28/2002,2020-08-27_09h31.12.683,proactive3.2,2020.1.2,Win32,60,5f47c0b9b035471e11593a5c,5f47df92da9c1421ad526c38,6,,,,,,microphone,,,,,,0,18,18,10,1,2,0,,,,,,,,,,,,,,,,,,,,,,,,,,,,,,,,,,,,,,,,,,,,,,,,,,,,,,,,,,,,,,,,,,,,,,,,,,,
,,,,,,,,,,stimuli/images/PICTURE_708.png,CLIENT,5f3f28926fa4352174cb8da4,06/28/2002,2020-08-27_09h31.12.683,proactive3.2,2020.1.2,Win32,60,5f47c0b9b035471e11593a5c,5f47df92da9c1421ad526c38,6,,,,,,monkey,,,,,,0,19,19,5,1,1,0,,,,,,,,,,,,,,,,,,,,,,,,,,,,,,,,,,,,,,,,,,,,,,,,,,,,,,,,,,,,,,,,,,,,,,,,,,,
,,,,,,,,,,stimuli/images/PICTURE_160.png,LEADER,5f3f28926fa4352174cb8da4,06/28/2002,2020-08-27_09h31.12.683,proactive3.2,2020.1.2,Win32,60,5f47c0b9b035471e11593a5c,5f47df92da9c1421ad526c38,6,,,,,,wheelbarrow,,,,,,0,20,20,3,1,1,0,,,,,,,,,,,,,,,,,,,,,,,,,,,,,,,,,,,,,,,,,,,,,,,,,,,,,,,,,,,,,,,,,,,,,,,,,,,
,,,,,,,,,,stimuli/images/PICTURE_151.png,GIRL,5f3f28926fa4352174cb8da4,06/28/2002,2020-08-27_09h31.12.683,proactive3.2,2020.1.2,Win32,60,5f47c0b9b035471e11593a5c,5f47df92da9c1421ad526c38,6,,,,,,tray,,,,,,0,21,21,19,1,2,0,,,,,,,,,,,,,,,,,,,,,,,,,,,,,,,,,,,,,,,,,,,,,,,,,,,,,,,,,,,,,,,,,,,,,,,,,,,
,,,,,,,,,,stimuli/images/PICTURE_233.png,WOMEN,5f3f28926fa4352174cb8da4,06/28/2002,2020-08-27_09h31.12.683,proactive3.2,2020.1.2,Win32,60,5f47c0b9b035471e11593a5c,5f47df92da9c1421ad526c38,6,,,,,,salt,,,,,,0,22,22,38,1,4,0,,,,,,,,,,,,,,,,,,,,,,,,,,,,,,,,,,,,,,,,,,,,,,,,,,,,,,,,,,,,,,,,,,,,,,,,,,,
,,,,,,,,,,stimuli/images/PICTURE_667.png,PLENTY,5f3f28926fa4352174cb8da4,06/28/2002,2020-08-27_09h31.12.683,proactive3.2,2020.1.2,Win32,60,5f47c0b9b035471e11593a5c,5f47df92da9c1421ad526c38,6,,,,,,daisy,,,,,,0,23,23,41,1,5,0,,,,,,,,,,,,,,,,,,,,,,,,,,,,,,,,,,,,,,,,,,,,,,,,,,,,,,,,,,,,,,,,,,,,,,,,,,,
,,,,,,,,,,stimuli/images/PICTURE_339.png,PLENTY,5f3f28926fa4352174cb8da4,06/28/2002,2020-08-27_09h31.12.683,proactive3.2,2020.1.2,Win32,60,5f47c0b9b035471e11593a5c,5f47df92da9c1421ad526c38,6,,,,,,backpack,,,,,,0,24,24,0,1,1,0,,,,,,,,,,,,,,,,,,,,,,,,,,,,,,,,,,,,,,,,,,,,,,,,,,,,,,,,,,,,,,,,,,,,,,,,,,,
,,,,,,,,,,stimuli/images/PICTURE_160.png,FEET,5f3f28926fa4352174cb8da4,06/28/2002,2020-08-27_09h31.12.683,proactive3.2,2020.1.2,Win32,60,5f47c0b9b035471e11593a5c,5f47df92da9c1421ad526c38,6,,,,,,wheelbarrow,,,,,,0,25,25,58,1,6,0,,,,,,,,,,,,,,,,,,,,,,,,,,,,,,,,,,,,,,,,,,,,,,,,,,,,,,,,,,,,,,,,,,,,,,,,,,,
,,,,,,,,,,stimuli/images/PICTURE_314.png,GODS,5f3f28926fa4352174cb8da4,06/28/2002,2020-08-27_09h31.12.683,proactive3.2,2020.1.2,Win32,60,5f47c0b9b035471e11593a5c,5f47df92da9c1421ad526c38,6,,,,,,perfume,,,,,,0,26,26,11,1,2,0,,,,,,,,,,,,,,,,,,,,,,,,,,,,,,,,,,,,,,,,,,,,,,,,,,,,,,,,,,,,,,,,,,,,,,,,,,,
,,,,,,,,,,stimuli/images/PICTURE_308.png,KIND,5f3f28926fa4352174cb8da4,06/28/2002,2020-08-27_09h31.12.683,proactive3.2,2020.1.2,Win32,60,5f47c0b9b035471e11593a5c,5f47df92da9c1421ad526c38,6,,,,,,dice,,,,,,0,27,27,54,1,6,0,,,,,,,,,,,,,,,,,,,,,,,,,,,,,,,,,,,,,,,,,,,,,,,,,,,,,,,,,,,,,,,,,,,,,,,,,,,
,,,,,,,,,,stimuli/images/PICTURE_215.png,PLENTY,5f3f28926fa4352174cb8da4,06/28/2002,2020-08-27_09h31.12.683,proactive3.2,2020.1.2,Win32,60,5f47c0b9b035471e11593a5c,5f47df92da9c1421ad526c38,6,,,,,,boot,,,,,,0,28,28,37,1,4,0,,,,,,,,,,,,,,,,,,,,,,,,,,,,,,,,,,,,,,,,,,,,,,,,,,,,,,,,,,,,,,,,,,,,,,,,,,,
,,,,,,,,,,stimuli/images/PICTURE_453.png,PLENTY,5f3f28926fa4352174cb8da4,06/28/2002,2020-08-27_09h31.12.683,proactive3.2,2020.1.2,Win32,60,5f47c0b9b035471e11593a5c,5f47df92da9c1421ad526c38,6,,,,,,scissors,,,,,,0,29,29,56,1,6,0,,,,,,,,,,,,,,,,,,,,,,,,,,,,,,,,,,,,,,,,,,,,,,,,,,,,,,,,,,,,,,,,,,,,,,,,,,,
,,,,,,,,,,stimuli/images/PICTURE_233.png,IDEAS,5f3f28926fa4352174cb8da4,06/28/2002,2020-08-27_09h31.12.683,proactive3.2,2020.1.2,Win32,60,5f47c0b9b035471e11593a5c,5f47df92da9c1421ad526c38,6,,,,,,salt,,,,,,0,30,30,28,1,3,0,,,,,,,,,,,,,,,,,,,,,,,,,,,,,,,,,,,,,,,,,,,,,,,,,,,,,,,,,,,,,,,,,,,,,,,,,,,
,,,,,,,,,,stimuli/images/PICTURE_449.png,THING,5f3f28926fa4352174cb8da4,06/28/2002,2020-08-27_09h31.12.683,proactive3.2,2020.1.2,Win32,60,5f47c0b9b035471e11593a5c,5f47df92da9c1421ad526c38,6,,,,,,bench,,,,,,0,31,31,59,1,6,0,,,,,,,,,,,,,,,,,,,,,,,,,,,,,,,,,,,,,,,,,,,,,,,,,,,,,,,,,,,,,,,,,,,,,,,,,,,
,,,,,,,,,,stimuli/images/PICTURE_208.png,THING,5f3f28926fa4352174cb8da4,06/28/2002,2020-08-27_09h31.12.683,proactive3.2,2020.1.2,Win32,60,5f47c0b9b035471e11593a5c,5f47df92da9c1421ad526c38,6,,,,,,microphone,,,,,,0,32,32,47,1,5,0,,,,,,,,,,,,,,,,,,,,,,,,,,,,,,,,,,,,,,,,,,,,,,,,,,,,,,,,,,,,,,,,,,,,,,,,,,,
,,,,,,,,,,stimuli/images/PICTURE_654.png,VALLEY,5f3f28926fa4352174cb8da4,06/28/2002,2020-08-27_09h31.12.683,proactive3.2,2020.1.2,Win32,60,5f47c0b9b035471e11593a5c,5f47df92da9c1421ad526c38,6,,,,,,pencil,,,,,,0,33,33,1,1,1,0,,,,,,,,,,,,,,,,,,,,,,,,,,,,,,,,,,,,,,,,,,,,,,,,,,,,,,,,,,,,,,,,,,,,,,,,,,,
,,,,,,,,,,stimuli/images/PICTURE_469.png,LETTER,5f3f28926fa4352174cb8da4,06/28/2002,2020-08-27_09h31.12.683,proactive3.2,2020.1.2,Win32,60,5f47c0b9b035471e11593a5c,5f47df92da9c1421ad526c38,6,,,,,,stool,,,,,,0,34,34,42,1,5,0,,,,,,,,,,,,,,,,,,,,,,,,,,,,,,,,,,,,,,,,,,,,,,,,,,,,,,,,,,,,,,,,,,,,,,,,,,,
,,,,,,,,,,stimuli/images/PICTURE_708.png,PENNY,5f3f28926fa4352174cb8da4,06/28/2002,2020-08-27_09h31.12.683,proactive3.2,2020.1.2,Win32,60,5f47c0b9b035471e11593a5c,5f47df92da9c1421ad526c38,6,,,,,,monkey,,,,,,0,35,35,31,1,4,0,,,,,,,,,,,,,,,,,,,,,,,,,,,,,,,,,,,,,,,,,,,,,,,,,,,,,,,,,,,,,,,,,,,,,,,,,,,
,,,,,,,,,,stimuli/images/PICTURE_469.png,ARTIST,5f3f28926fa4352174cb8da4,06/28/2002,2020-08-27_09h31.12.683,proactive3.2,2020.1.2,Win32,60,5f47c0b9b035471e11593a5c,5f47df92da9c1421ad526c38,6,,,,,,stool,,,,,,0,36,36,6,1,1,0,,,,,,,,,,,,,,,,,,,,,,,,,,,,,,,,,,,,,,,,,,,,,,,,,,,,,,,,,,,,,,,,,,,,,,,,,,,
,,,,,,,,,,stimuli/images/PICTURE_123.png,ADVICE,5f3f28926fa4352174cb8da4,06/28/2002,2020-08-27_09h31.12.683,proactive3.2,2020.1.2,Win32,60,5f47c0b9b035471e11593a5c,5f47df92da9c1421ad526c38,6,,,,,,dart,,,,,,0,37,37,50,1,6,0,,,,,,,,,,,,,,,,,,,,,,,,,,,,,,,,,,,,,,,,,,,,,,,,,,,,,,,,,,,,,,,,,,,,,,,,,,,
,,,,,,,,,,stimuli/images/PICTURE_285.png,ADVICE,5f3f28926fa4352174cb8da4,06/28/2002,2020-08-27_09h31.12.683,proactive3.2,2020.1.2,Win32,60,5f47c0b9b035471e11593a5c,5f47df92da9c1421ad526c38,6,,,,,,carrot,,,,,,0,38,38,12,1,2,0,,,,,,,,,,,,,,,,,,,,,,,,,,,,,,,,,,,,,,,,,,,,,,,,,,,,,,,,,,,,,,,,,,,,,,,,,,,
,,,,,,,,,,stimuli/images/PICTURE_314.png,SAKE,5f3f28926fa4352174cb8da4,06/28/2002,2020-08-27_09h31.12.683,proactive3.2,2020.1.2,Win32,60,5f47c0b9b035471e11593a5c,5f47df92da9c1421ad526c38,6,,,,,,perfume,,,,,,0,39,39,7,1,1,0,,,,,,,,,,,,,,,,,,,,,,,,,,,,,,,,,,,,,,,,,,,,,,,,,,,,,,,,,,,,,,,,,,,,,,,,,,,
,,,,,,,,,,stimuli/images/PICTURE_380.png,DEATH,5f3f28926fa4352174cb8da4,06/28/2002,2020-08-27_09h31.12.683,proactive3.2,2020.1.2,Win32,60,5f47c0b9b035471e11593a5c,5f47df92da9c1421ad526c38,6,,,,,,gorilla,,,,,,0,40,40,49,1,5,0,,,,,,,,,,,,,,,,,,,,,,,,,,,,,,,,,,,,,,,,,,,,,,,,,,,,,,,,,,,,,,,,,,,,,,,,,,,
,,,,,,,,,,stimuli/images/PICTURE_356.png,DANGER,5f3f28926fa4352174cb8da4,06/28/2002,2020-08-27_09h31.12.683,proactive3.2,2020.1.2,Win32,60,5f47c0b9b035471e11593a5c,5f47df92da9c1421ad526c38,6,,,,,,pawn,,,,,,0,41,41,55,1,6,0,,,,,,,,,,,,,,,,,,,,,,,,,,,,,,,,,,,,,,,,,,,,,,,,,,,,,,,,,,,,,,,,,,,,,,,,,,,
,,,,,,,,,,stimuli/images/PICTURE_692.png,MONTH,5f3f28926fa4352174cb8da4,06/28/2002,2020-08-27_09h31.12.683,proactive3.2,2020.1.2,Win32,60,5f47c0b9b035471e11593a5c,5f47df92da9c1421ad526c38,6,,,,,,cherry,,,,,,0,42,42,16,1,2,0,,,,,,,,,,,,,,,,,,,,,,,,,,,,,,,,,,,,,,,,,,,,,,,,,,,,,,,,,,,,,,,,,,,,,,,,,,,
,,,,,,,,,,stimuli/images/PICTURE_487.png,FLIGHT,5f3f28926fa4352174cb8da4,06/28/2002,2020-08-27_09h31.12.683,proactive3.2,2020.1.2,Win32,60,5f47c0b9b035471e11593a5c,5f47df92da9c1421ad526c38,6,,,,,,basket,,,,,,0,43,43,9,1,1,0,,,,,,,,,,,,,,,,,,,,,,,,,,,,,,,,,,,,,,,,,,,,,,,,,,,,,,,,,,,,,,,,,,,,,,,,,,,
,,,,,,,,,,stimuli/images/PICTURE_32.png,JUNGLE,5f3f28926fa4352174cb8da4,06/28/2002,2020-08-27_09h31.12.683,proactive3.2,2020.1.2,Win32,60,5f47c0b9b035471e11593a5c,5f47df92da9c1421ad526c38,6,,,,,,crown,,,,,,0,44,44,45,1,5,0,,,,,,,,,,,,,,,,,,,,,,,,,,,,,,,,,,,,,,,,,,,,,,,,,,,,,,,,,,,,,,,,,,,,,,,,,,,
,,,,,,,,,,stimuli/images/PICTURE_177.png,CARS,5f3f28926fa4352174cb8da4,06/28/2002,2020-08-27_09h31.12.683,proactive3.2,2020.1.2,Win32,60,5f47c0b9b035471e11593a5c,5f47df92da9c1421ad526c38,6,,,,,,mushroom,,,,,,0,45,45,35,1,4,0,,,,,,,,,,,,,,,,,,,,,,,,,,,,,,,,,,,,,,,,,,,,,,,,,,,,,,,,,,,,,,,,,,,,,,,,,,,
,,,,,,,,,,stimuli/images/PICTURE_95.png,STYLE,5f3f28926fa4352174cb8da4,06/28/2002,2020-08-27_09h31.12.683,proactive3.2,2020.1.2,Win32,60,5f47c0b9b035471e11593a5c,5f47df92da9c1421ad526c38,6,,,,,,suitcase,,,,,,0,46,46,25,1,3,0,,,,,,,,,,,,,,,,,,,,,,,,,,,,,,,,,,,,,,,,,,,,,,,,,,,,,,,,,,,,,,,,,,,,,,,,,,,
,,,,,,,,,,stimuli/images/PICTURE_688.png,CASINO,5f3f28926fa4352174cb8da4,06/28/2002,2020-08-27_09h31.12.683,proactive3.2,2020.1.2,Win32,60,5f47c0b9b035471e11593a5c,5f47df92da9c1421ad526c38,6,,,,,,runner,,,,,,0,47,47,2,1,1,0,,,,,,,,,,,,,,,,,,,,,,,,,,,,,,,,,,,,,,,,,,,,,,,,,,,,,,,,,,,,,,,,,,,,,,,,,,,
,,,,,,,,,,stimuli/images/PICTURE_491.png,WRITER,5f3f28926fa4352174cb8da4,06/28/2002,2020-08-27_09h31.12.683,proactive3.2,2020.1.2,Win32,60,5f47c0b9b035471e11593a5c,5f47df92da9c1421ad526c38,6,,,,,,rug,,,,,,0,48,48,57,1,6,0,,,,,,,,,,,,,,,,,,,,,,,,,,,,,,,,,,,,,,,,,,,,,,,,,,,,,,,,,,,,,,,,,,,,,,,,,,,
,,,,,,,,,,stimuli/images/PICTURE_470.png,CASINO,5f3f28926fa4352174cb8da4,06/28/2002,2020-08-27_09h31.12.683,proactive3.2,2020.1.2,Win32,60,5f47c0b9b035471e11593a5c,5f47df92da9c1421ad526c38,6,,,,,,motorbike,,,,,,0,49,49,36,1,4,0,,,,,,,,,,,,,,,,,,,,,,,,,,,,,,,,,,,,,,,,,,,,,,,,,,,,,,,,,,,,,,,,,,,,,,,,,,,
,,,,,,,,,,stimuli/images/PICTURE_509.png,PHOTO,5f3f28926fa4352174cb8da4,06/28/2002,2020-08-27_09h31.12.683,proactive3.2,2020.1.2,Win32,60,5f47c0b9b035471e11593a5c,5f47df92da9c1421ad526c38,6,,,,,,telephone,,,,,,0,50,50,21,1,3,0,,,,,,,,,,,,,,,,,,,,,,,,,,,,,,,,,,,,,,,,,,,,,,,,,,,,,,,,,,,,,,,,,,,,,,,,,,,
,,,,,,,,,,stimuli/images/PICTURE_708.png,YARD,5f3f28926fa4352174cb8da4,06/28/2002,2020-08-27_09h31.12.683,proactive3.2,2020.1.2,Win32,60,5f47c0b9b035471e11593a5c,5f47df92da9c1421ad526c38,6,,,,,,monkey,,,,,,0,51,51,29,1,3,0,,,,,,,,,,,,,,,,,,,,,,,,,,,,,,,,,,,,,,,,,,,,,,,,,,,,,,,,,,,,,,,,,,,,,,,,,,,
,,,,,,,,,,stimuli/images/PICTURE_488.png,STYLE,5f3f28926fa4352174cb8da4,06/28/2002,2020-08-27_09h31.12.683,proactive3.2,2020.1.2,Win32,60,5f47c0b9b035471e11593a5c,5f47df92da9c1421ad526c38,6,,,,,,sun,,,,,,0,52,52,33,1,4,0,,,,,,,,,,,,,,,,,,,,,,,,,,,,,,,,,,,,,,,,,,,,,,,,,,,,,,,,,,,,,,,,,,,,,,,,,,,
,,,,,,,,,,stimuli/images/PICTURE_504.png,BODY,5f3f28926fa4352174cb8da4,06/28/2002,2020-08-27_09h31.12.683,proactive3.2,2020.1.2,Win32,60,5f47c0b9b035471e11593a5c,5f47df92da9c1421ad526c38,6,,,,,,wheel,,,,,,0,53,53,8,1,1,0,,,,,,,,,,,,,,,,,,,,,,,,,,,,,,,,,,,,,,,,,,,,,,,,,,,,,,,,,,,,,,,,,,,,,,,,,,,
,,,,,,,,,,stimuli/images/PICTURE_255.png,AREA,5f3f28926fa4352174cb8da4,06/28/2002,2020-08-27_09h31.12.683,proactive3.2,2020.1.2,Win32,60,5f47c0b9b035471e11593a5c,5f47df92da9c1421ad526c38,6,,,,,,shovel,,,,,,0,54,54,22,1,3,0,,,,,,,,,,,,,,,,,,,,,,,,,,,,,,,,,,,,,,,,,,,,,,,,,,,,,,,,,,,,,,,,,,,,,,,,,,,
,,,,,,,,,,stimuli/images/PICTURE_123.png,ADVICE,5f3f28926fa4352174cb8da4,06/28/2002,2020-08-27_09h31.12.683,proactive3.2,2020.1.2,Win32,60,5f47c0b9b035471e11593a5c,5f47df92da9c1421ad526c38,6,,,,,,dart,,,,,,0,55,55,40,1,5,0,,,,,,,,,,,,,,,,,,,,,,,,,,,,,,,,,,,,,,,,,,,,,,,,,,,,,,,,,,,,,,,,,,,,,,,,,,,
,,,,,,,,,,stimuli/images/PICTURE_311.png,FRIEND,5f3f28926fa4352174cb8da4,06/28/2002,2020-08-27_09h31.12.683,proactive3.2,2020.1.2,Win32,60,5f47c0b9b035471e11593a5c,5f47df92da9c1421ad526c38,6,,,,,,razor,,,,,,0,56,56,34,1,4,0,,,,,,,,,,,,,,,,,,,,,,,,,,,,,,,,,,,,,,,,,,,,,,,,,,,,,,,,,,,,,,,,,,,,,,,,,,,
,,,,,,,,,,stimuli/images/PICTURE_311.png,BEAUTY,5f3f28926fa4352174cb8da4,06/28/2002,2020-08-27_09h31.12.683,proactive3.2,2020.1.2,Win32,60,5f47c0b9b035471e11593a5c,5f47df92da9c1421ad526c38,6,,,,,,razor,,,,,,0,57,57,13,1,2,0,,,,,,,,,,,,,,,,,,,,,,,,,,,,,,,,,,,,,,,,,,,,,,,,,,,,,,,,,,,,,,,,,,,,,,,,,,,
,,,,,,,,,,stimuli/images/PICTURE_744.png,SYSTEM,5f3f28926fa4352174cb8da4,06/28/2002,2020-08-27_09h31.12.683,proactive3.2,2020.1.2,Win32,60,5f47c0b9b035471e11593a5c,5f47df92da9c1421ad526c38,6,,,,,,ring,,,,,,0,58,58,43,1,5,0,,,,,,,,,,,,,,,,,,,,,,,,,,,,,,,,,,,,,,,,,,,,,,,,,,,,,,,,,,,,,,,,,,,,,,,,,,,
,,?,0.002,0,,,,,,stimuli/images/PICTURE_488.png,STYLE,5f3f28926fa4352174cb8da4,06/28/2002,2020-08-27_09h31.12.683,proactive3.2,2020.1.2,Win32,60,5f47c0b9b035471e11593a5c,5f47df92da9c1421ad526c38,6,,,,,,sun,,,,,,,,,,,4,0,0,0,0,33,1,,,,,,,,,,,,,,,,,,,,,,,,,,,,,,,,,,,,,,,,,,,,,,,,,,,,,,,,,,,,,,,,,,,,,,
,,?,0.003,0,,,,,,stimuli/images/PICTURE_470.png,CASINO,5f3f28926fa4352174cb8da4,06/28/2002,2020-08-27_09h31.12.683,proactive3.2,2020.1.2,Win32,60,5f47c0b9b035471e11593a5c,5f47df92da9c1421ad526c38,6,,,,,,motorbike,,,,,,,,,,,4,0,0,1,1,36,1,,,,,,,,,,,,,,,,,,,,,,,,,,,,,,,,,,,,,,,,,,,,,,,,,,,,,,,,,,,,,,,,,,,,,,
,,?,0.002,0,,,,,,stimuli/images/PICTURE_160.png,LEADER,5f3f28926fa4352174cb8da4,06/28/2002,2020-08-27_09h31.12.683,proactive3.2,2020.1.2,Win32,60,5f47c0b9b035471e11593a5c,5f47df92da9c1421ad526c38,6,,,,,,wheelbarrow,,,,,,,,,,,1,0,0,2,2,3,1,,,,,,,,,,,,,,,,,,,,,,,,,,,,,,,,,,,,,,,,,,,,,,,,,,,,,,,,,,,,,,,,,,,,,,
,,?,0.001,0,,,,,,stimuli/images/PICTURE_491.png,ROOF,5f3f28926fa4352174cb8da4,06/28/2002,2020-08-27_09h31.12.683,proactive3.2,2020.1.2,Win32,60,5f47c0b9b035471e11593a5c,5f47df92da9c1421ad526c38,6,,,,,,rug,,,,,,,,,,,3,0,0,3,3,24,1,,,,,,,,,,,,,,,,,,,,,,,,,,,,,,,,,,,,,,,,,,,,,,,,,,,,,,,,,,,,,,,,,,,,,,
,,?,0.002,0,,,,,,stimuli/images/PICTURE_453.png,DUDE,5f3f28926fa4352174cb8da4,06/28/2002,2020-08-27_09h31.12.683,proactive3.2,2020.1.2,Win32,60,5f47c0b9b035471e11593a5c,5f47df92da9c1421ad526c38,6,,,,,,scissors,,,,,,,,,,,3,0,0,4,4,27,1,,,,,,,,,,,,,,,,,,,,,,,,,,,,,,,,,,,,,,,,,,,,,,,,,,,,,,,,,,,,,,,,,,,,,,
,,DANGER,2.698,1,,,,,,stimuli/images/PICTURE_356.png,DANGER,5f3f28926fa4352174cb8da4,06/28/2002,2020-08-27_09h31.12.683,proactive3.2,2020.1.2,Win32,60,5f47c0b9b035471e11593a5c,5f47df92da9c1421ad526c38,6,,,,,,pawn,,,,,,,,,,,6,0,0,5,5,55,1,,,,,,,,,,,,,,,,,,,,,,,,,,,,,,,,,,,,,,,,,,,,,,,,,,,,,,,,,,,,,,,,,,,,,,
,,?,0.003,0,,,,,,stimuli/images/PICTURE_95.png,STYLE,5f3f28926fa4352174cb8da4,06/28/2002,2020-08-27_09h31.12.683,proactive3.2,2020.1.2,Win32,60,5f47c0b9b035471e11593a5c,5f47df92da9c1421ad526c38,6,,,,,,suitcase,,,,,,,,,,,3,0,0,6,6,25,1,,,,,,,,,,,,,,,,,,,,,,,,,,,,,,,,,,,,,,,,,,,,,,,,,,,,,,,,,,,,,,,,,,,,,,
,,?,0.002,0,,,,,,stimuli/images/PICTURE_744.png,SAKE,5f3f28926fa4352174cb8da4,06/28/2002,2020-08-27_09h31.12.683,proactive3.2,2020.1.2,Win32,60,5f47c0b9b035471e11593a5c,5f47df92da9c1421ad526c38,6,,,,,,ring,,,,,,,,,,,2,0,0,7,7,17,1,,,,,,,,,,,,,,,,,,,,,,,,,,,,,,,,,,,,,,,,,,,,,,,,,,,,,,,,,,,,,,,,,,,,,,
,,FEET,1.645,1,,,,,,stimuli/images/PICTURE_160.png,FEET,5f3f28926fa4352174cb8da4,06/28/2002,2020-08-27_09h31.12.683,proactive3.2,2020.1.2,Win32,60,5f47c0b9b035471e11593a5c,5f47df92da9c1421ad526c38,6,,,,,,wheelbarrow,,,,,,,,,,,6,0,0,8,8,58,1,,,,,,,,,,,,,,,,,,,,,,,,,,,,,,,,,,,,,,,,,,,,,,,,,,,,,,,,,,,,,,,,,,,,,,
,,?,0.001,0,,,,,,stimuli/images/PICTURE_509.png,PHOTO,5f3f28926fa4352174cb8da4,06/28/2002,2020-08-27_09h31.12.683,proactive3.2,2020.1.2,Win32,60,5f47c0b9b035471e11593a5c,5f47df92da9c1421ad526c38,6,,,,,,telephone,,,,,,,,,,,3,0,0,9,9,21,1,,,,,,,,,,,,,,,,,,,,,,,,,,,,,,,,,,,,,,,,,,,,,,,,,,,,,,,,,,,,,,,,,,,,,,
,,?,0.001,0,,,,,,stimuli/images/PICTURE_675.png,WEAPON,5f3f28926fa4352174cb8da4,06/28/2002,2020-08-27_09h31.12.683,proactive3.2,2020.1.2,Win32,60,5f47c0b9b035471e11593a5c,5f47df92da9c1421ad526c38,6,,,,,,windmill,,,,,,,,,,,4,0,0,10,10,32,1,,,,,,,,,,,,,,,,,,,,,,,,,,,,,,,,,,,,,,,,,,,,,,,,,,,,,,,,,,,,,,,,,,,,,,
,,?,0.001,0,,,,,,stimuli/images/PICTURE_123.png,ADVICE,5f3f28926fa4352174cb8da4,06/28/2002,2020-08-27_09h31.12.683,proactive3.2,2020.1.2,Win32,60,5f47c0b9b035471e11593a5c,5f47df92da9c1421ad526c38,6,,,,,,dart,,,,,,,,,,,5,0,0,11,11,40,1,,,,,,,,,,,,,,,,,,,,,,,,,,,,,,,,,,,,,,,,,,,,,,,,,,,,,,,,,,,,,,,,,,,,,,
,,?,0.001,0,,,,,,stimuli/images/PICTURE_32.png,JUNGLE,5f3f28926fa4352174cb8da4,06/28/2002,2020-08-27_09h31.12.683,proactive3.2,2020.1.2,Win32,60,5f47c0b9b035471e11593a5c,5f47df92da9c1421ad526c38,6,,,,,,crown,,,,,,,,,,,5,0,0,12,12,45,1,,,,,,,,,,,,,,,,,,,,,,,,,,,,,,,,,,,,,,,,,,,,,,,,,,,,,,,,,,,,,,,,,,,,,,
,,?,0.001,0,,,,,,stimuli/images/PICTURE_487.png,FLIGHT,5f3f28926fa4352174cb8da4,06/28/2002,2020-08-27_09h31.12.683,proactive3.2,2020.1.2,Win32,60,5f47c0b9b035471e11593a5c,5f47df92da9c1421ad526c38,6,,,,,,basket,,,,,,,,,,,1,0,0,13,13,9,1,,,,,,,,,,,,,,,,,,,,,,,,,,,,,,,,,,,,,,,,,,,,,,,,,,,,,,,,,,,,,,,,,,,,,,
,,?,0.002,0,,,,,,stimuli/images/PICTURE_177.png,CARS,5f3f28926fa4352174cb8da4,06/28/2002,2020-08-27_09h31.12.683,proactive3.2,2020.1.2,Win32,60,5f47c0b9b035471e11593a5c,5f47df92da9c1421ad526c38,6,,,,,,mushroom,,,,,,,,,,,4,0,0,14,14,35,1,,,,,,,,,,,,,,,,,,,,,,,,,,,,,,,,,,,,,,,,,,,,,,,,,,,,,,,,,,,,,,,,,,,,,,
