consent_key.keys,consent_key.rt,recalled,recalled_rt,recall_acc,example_recall.thisRepN,example_recall.thisTrialN,example_recall.thisN,example_recall.thisIndex,example_recall.ran,file,word,participant,please enter your date of birth (dd/mm/yyyy),date,expName,psychopyVersion,OS,frameRate,STUDY_ID,SESSION_ID,list,prac_learn_study_loop.thisRepN,prac_learn_study_loop.thisTrialN,prac_learn_study_loop.thisN,prac_learn_study_loop.thisIndex,prac_learn_study_loop.ran,image,prac_learn_test_loop.thisRepN,prac_learn_test_loop.thisTrialN,prac_learn_test_loop.thisN,prac_learn_test_loop.thisIndex,prac_learn_test_loop.ran,learn_study_loop.thisRepN,learn_study_loop.thisTrialN,learn_study_loop.thisN,learn_study_loop.thisIndex,learn_study_loop.ran,list_no,block_no,learn_test_loop.thisRepN,learn_test_loop.thisTrialN,learn_test_loop.thisN,learn_test_loop.thisIndex,learn_test_loop.ran,learn_blocks.thisRepN,learn_blocks.thisTrialN,learn_blocks.thisN,learn_blocks.thisIndex,learn_blocks.ran,block_csv,key_resp_13.keys,key_resp_13.rt,learn_blocks_loop.thisRepN,learn_blocks_loop.thisTrialN,learn_blocks_loop.thisN,learn_blocks_loop.thisIndex,learn_blocks_loop.ran,final_learn_test.thisRepN,final_learn_test.thisTrialN,final_learn_test.thisN,final_learn_test.thisIndex,final_learn_test.ran,prac_wm_test_loop.thisRepN,prac_wm_test_loop.thisTrialN,prac_wm_test_loop.thisN,prac_wm_test_loop.thisIndex,prac_wm_test_loop.ran,wm_recalled1,wm_recall_rt1,wm_probed1,wm_recall_acc1,wm_recalled2,wm_recall_rt2,wm_probed2,wm_recall_acc2,wm_recalled3,wm_recall_rt3,wm_probed3,wm_recall_acc3,wm_recalled4,wm_recall_rt4,wm_probed4,wm_recall_acc4,prac_wm_trial_loop.thisRepN,prac_wm_trial_loop.thisTrialN,prac_wm_trial_loop.thisN,prac_wm_trial_loop.thisIndex,prac_wm_trial_loop.ran,word1,image1,file1,item_type1,word2,image2,file2,item_type2,word4,image4,file4,item_type4,word3,image3,file3,item_type3,wm_test_loop.thisRepN,wm_test_loop.thisTrialN,wm_test_loop.thisN,wm_test_loop.thisIndex,wm_test_loop.ran,wm_trial_loop.thisRepN,wm_trial_loop.thisTrialN,wm_trial_loop.thisN,wm_trial_loop.thisIndex,wm_trial_loop.ran
y,38.186915,TOUGH,7.860535,1,0,0,0,0,1,stimuli/images/PICTURE_747.png,TOUGH,5f453c02fabd950dc8c1625c,o6/03/1945,2020-09-12_07h46.13.395,proactive3.2,2020.1.2,Linux aarch64,60,5f5adea66120081ea0f57a61,5f5c6e92ce878745de961ed2,2,,,,,,,,,,,,,,,,,,,,,,,,,,,,,,,,,,,,,,,,,,,,,,,,,,,,,,,,,,,,,,,,,,,,,,,,,,,,,,,,,,,,,,,,,,,,,
,,,,,,,,,,stimuli/images/PICTURE_378.png,LOSS,5f453c02fabd950dc8c1625c,o6/03/1945,2020-09-12_07h46.13.395,proactive3.2,2020.1.2,Linux aarch64,60,5f5adea66120081ea0f57a61,5f5c6e92ce878745de961ed2,2,0,0,0,2,1,lobster,,,,,,,,,,,,,,,,,,,,,,,,,,,,,,,,,,,,,,,,,,,,,,,,,,,,,,,,,,,,,,,,,,,,,,,,,,,,,,,,,,,,,,,
,,,,,,,,,,stimuli/images/PICTURE_269.png,GENIUS,5f453c02fabd950dc8c1625c,o6/03/1945,2020-09-12_07h46.13.395,proactive3.2,2020.1.2,Linux aarch64,60,5f5adea66120081ea0f57a61,5f5c6e92ce878745de961ed2,2,0,1,1,0,1,chameleon,,,,,,,,,,,,,,,,,,,,,,,,,,,,,,,,,,,,,,,,,,,,,,,,,,,,,,,,,,,,,,,,,,,,,,,,,,,,,,,,,,,,,,,
,,,,,,,,,,stimuli/images/PICTURE_658.png,DEVIL,5f453c02fabd950dc8c1625c,o6/03/1945,2020-09-12_07h46.13.395,proactive3.2,2020.1.2,Linux aarch64,60,5f5adea66120081ea0f57a61,5f5c6e92ce878745de961ed2,2,0,2,2,3,1,crow,,,,,,,,,,,,,,,,,,,,,,,,,,,,,,,,,,,,,,,,,,,,,,,,,,,,,,,,,,,,,,,,,,,,,,,,,,,,,,,,,,,,,,,
,,,,,,,,,,stimuli/images/PICTURE_727.png,CELL,5f453c02fabd950dc8c1625c,o6/03/1945,2020-09-12_07h46.13.395,proactive3.2,2020.1.2,Linux aarch64,60,5f5adea66120081ea0f57a61,5f5c6e92ce878745de961ed2,2,0,3,3,1,1,hose,,,,,,,,,,,,,,,,,,,,,,,,,,,,,,,,,,,,,,,,,,,,,,,,,,,,,,,,,,,,,,,,,,,,,,,,,,,,,,,,,,,,,,,
,,DEVIL,5.11239,1,,,,,,stimuli/images/PICTURE_658.png,DEVIL,5f453c02fabd950dc8c1625c,o6/03/1945,2020-09-12_07h46.13.395,proactive3.2,2020.1.2,Linux aarch64,60,5f5adea66120081ea0f57a61,5f5c6e92ce878745de961ed2,2,,,,,,crow,0,0,0,3,1,,,,,,,,,,,,,,,,,,,,,,,,,,,,,,,,,,,,,,,,,,,,,,,,,,,,,,,,,,,,,,,,,,,,,,,,,,,,,,,,,,
,,CELL,3.14702,1,,,,,,stimuli/images/PICTURE_727.png,CELL,5f453c02fabd950dc8c1625c,o6/03/1945,2020-09-12_07h46.13.395,proactive3.2,2020.1.2,Linux aarch64,60,5f5adea66120081ea0f57a61,5f5c6e92ce878745de961ed2,2,,,,,,hose,0,1,1,1,1,,,,,,,,,,,,,,,,,,,,,,,,,,,,,,,,,,,,,,,,,,,,,,,,,,,,,,,,,,,,,,,,,,,,,,,,,,,,,,,,,,
,,OSS,3.94659,0,,,,,,stimuli/images/PICTURE_378.png,LOSS,5f453c02fabd950dc8c1625c,o6/03/1945,2020-09-12_07h46.13.395,proactive3.2,2020.1.2,Linux aarch64,60,5f5adea66120081ea0f57a61,5f5c6e92ce878745de961ed2,2,,,,,,lobster,0,2,2,2,1,,,,,,,,,,,,,,,,,,,,,,,,,,,,,,,,,,,,,,,,,,,,,,,,,,,,,,,,,,,,,,,,,,,,,,,,,,,,,,,,,,
,,GENIUS,6.12115,1,,,,,,stimuli/images/PICTURE_269.png,GENIUS,5f453c02fabd950dc8c1625c,o6/03/1945,2020-09-12_07h46.13.395,proactive3.2,2020.1.2,Linux aarch64,60,5f5adea66120081ea0f57a61,5f5c6e92ce878745de961ed2,2,,,,,,chameleon,0,3,3,0,1,,,,,,,,,,,,,,,,,,,,,,,,,,,,,,,,,,,,,,,,,,,,,,,,,,,,,,,,,,,,,,,,,,,,,,,,,,,,,,,,,,
,,KILLER,3.90915,1,,,,,,stimuli/images/PICTURE_697.png,KILLER,5f453c02fabd950dc8c1625c,o6/03/1945,2020-09-12_07h46.13.395,proactive3.2,2020.1.2,Linux aarch64,60,5f5adea66120081ea0f57a61,5f5c6e92ce878745de961ed2,2,,,,,,peach,0,4,4,4,1,,,,,,,,,,,,,,,,,,,,,,,,,,,,,,,,,,,,,,,,,,,,,,,,,,,,,,,,,,,,,,,,,,,,,,,,,,,,,,,,,,
,,,,,,,,,,stimuli/images/PICTURE_487.png,GIRL,5f453c02fabd950dc8c1625c,o6/03/1945,2020-09-12_07h46.13.395,proactive3.2,2020.1.2,Linux aarch64,60,5f5adea66120081ea0f57a61,5f5c6e92ce878745de961ed2,2,,,,,,basket,,,,,,0,0,0,45,1,5,1,,,,,,,,,,,,,,,,,,,,,,,,,,,,,,,,,,,,,,,,,,,,,,,,,,,,,,,,,,,,,,,,,,,,,,,,,,,
,,,,,,,,,,stimuli/images/PICTURE_285.png,LIFE,5f453c02fabd950dc8c1625c,o6/03/1945,2020-09-12_07h46.13.395,proactive3.2,2020.1.2,Linux aarch64,60,5f5adea66120081ea0f57a61,5f5c6e92ce878745de961ed2,2,,,,,,carrot,,,,,,0,1,1,33,1,4,1,,,,,,,,,,,,,,,,,,,,,,,,,,,,,,,,,,,,,,,,,,,,,,,,,,,,,,,,,,,,,,,,,,,,,,,,,,,
,,,,,,,,,,stimuli/images/PICTURE_491.png,RIVER,5f453c02fabd950dc8c1625c,o6/03/1945,2020-09-12_07h46.13.395,proactive3.2,2020.1.2,Linux aarch64,60,5f5adea66120081ea0f57a61,5f5c6e92ce878745de961ed2,2,,,,,,rug,,,,,,0,2,2,6,1,1,1,,,,,,,,,,,,,,,,,,,,,,,,,,,,,,,,,,,,,,,,,,,,,,,,,,,,,,,,,,,,,,,,,,,,,,,,,,,
,,,,,,,,,,stimuli/images/PICTURE_564.png,BATH,5f453c02fabd950dc8c1625c,o6/03/1945,2020-09-12_07h46.13.395,proactive3.2,2020.1.2,Linux aarch64,60,5f5adea66120081ea0f57a61,5f5c6e92ce878745de961ed2,2,,,,,,spoon,,,,,,0,3,3,26,1,3,1,,,,,,,,,,,,,,,,,,,,,,,,,,,,,,,,,,,,,,,,,,,,,,,,,,,,,,,,,,,,,,,,,,,,,,,,,,,
,,,,,,,,,,stimuli/images/PICTURE_57.png,MOMENT,5f453c02fabd950dc8c1625c,o6/03/1945,2020-09-12_07h46.13.395,proactive3.2,2020.1.2,Linux aarch64,60,5f5adea66120081ea0f57a61,5f5c6e92ce878745de961ed2,2,,,,,,stamp,,,,,,0,4,4,37,1,4,1,,,,,,,,,,,,,,,,,,,,,,,,,,,,,,,,,,,,,,,,,,,,,,,,,,,,,,,,,,,,,,,,,,,,,,,,,,,
,,,,,,,,,,stimuli/images/PICTURE_654.png,MONTH,5f453c02fabd950dc8c1625c,o6/03/1945,2020-09-12_07h46.13.395,proactive3.2,2020.1.2,Linux aarch64,60,5f5adea66120081ea0f57a61,5f5c6e92ce878745de961ed2,2,,,,,,pencil,,,,,,0,5,5,29,1,3,1,,,,,,,,,,,,,,,,,,,,,,,,,,,,,,,,,,,,,,,,,,,,,,,,,,,,,,,,,,,,,,,,,,,,,,,,,,,
,,,,,,,,,,stimuli/images/PICTURE_308.png,FAMILY,5f453c02fabd950dc8c1625c,o6/03/1945,2020-09-12_07h46.13.395,proactive3.2,2020.1.2,Linux aarch64,60,5f5adea66120081ea0f57a61,5f5c6e92ce878745de961ed2,2,,,,,,dice,,,,,,0,6,6,36,1,4,1,,,,,,,,,,,,,,,,,,,,,,,,,,,,,,,,,,,,,,,,,,,,,,,,,,,,,,,,,,,,,,,,,,,,,,,,,,,
,,,,,,,,,,stimuli/images/PICTURE_203.png,NIGHT,5f453c02fabd950dc8c1625c,o6/03/1945,2020-09-12_07h46.13.395,proactive3.2,2020.1.2,Linux aarch64,60,5f5adea66120081ea0f57a61,5f5c6e92ce878745de961ed2,2,,,,,,cap,,,,,,0,7,7,2,1,1,1,,,,,,,,,,,,,,,,,,,,,,,,,,,,,,,,,,,,,,,,,,,,,,,,,,,,,,,,,,,,,,,,,,,,,,,,,,,
,,,,,,,,,,stimuli/images/PICTURE_85.png,TOILET,5f453c02fabd950dc8c1625c,o6/03/1945,2020-09-12_07h46.13.395,proactive3.2,2020.1.2,Linux aarch64,60,5f5adea66120081ea0f57a61,5f5c6e92ce878745de961ed2,2,,,,,,diamond,,,,,,0,8,8,48,1,5,1,,,,,,,,,,,,,,,,,,,,,,,,,,,,,,,,,,,,,,,,,,,,,,,,,,,,,,,,,,,,,,,,,,,,,,,,,,,
,,,,,,,,,,stimuli/images/PICTURE_685.png,PENNY,5f453c02fabd950dc8c1625c,o6/03/1945,2020-09-12_07h46.13.395,proactive3.2,2020.1.2,Linux aarch64,60,5f5adea66120081ea0f57a61,5f5c6e92ce878745de961ed2,2,,,,,,goose,,,,,,0,9,9,4,1,1,1,,,,,,,,,,,,,,,,,,,,,,,,,,,,,,,,,,,,,,,,,,,,,,,,,,,,,,,,,,,,,,,,,,,,,,,,,,,
,,,,,,,,,,stimuli/images/PICTURE_403.png,RIVER,5f453c02fabd950dc8c1625c,o6/03/1945,2020-09-12_07h46.13.395,proactive3.2,2020.1.2,Linux aarch64,60,5f5adea66120081ea0f57a61,5f5c6e92ce878745de961ed2,2,,,,,,cathedral,,,,,,0,10,10,40,1,5,1,,,,,,,,,,,,,,,,,,,,,,,,,,,,,,,,,,,,,,,,,,,,,,,,,,,,,,,,,,,,,,,,,,,,,,,,,,,
,,,,,,,,,,stimuli/images/PICTURE_177.png,WRITER,5f453c02fabd950dc8c1625c,o6/03/1945,2020-09-12_07h46.13.395,proactive3.2,2020.1.2,Linux aarch64,60,5f5adea66120081ea0f57a61,5f5c6e92ce878745de961ed2,2,,,,,,mushroom,,,,,,0,11,11,41,1,5,1,,,,,,,,,,,,,,,,,,,,,,,,,,,,,,,,,,,,,,,,,,,,,,,,,,,,,,,,,,,,,,,,,,,,,,,,,,,
,,,,,,,,,,stimuli/images/PICTURE_380.png,CANDY,5f453c02fabd950dc8c1625c,o6/03/1945,2020-09-12_07h46.13.395,proactive3.2,2020.1.2,Linux aarch64,60,5f5adea66120081ea0f57a61,5f5c6e92ce878745de961ed2,2,,,,,,gorilla,,,,,,0,12,12,0,1,1,1,,,,,,,,,,,,,,,,,,,,,,,,,,,,,,,,,,,,,,,,,,,,,,,,,,,,,,,,,,,,,,,,,,,,,,,,,,,
,,,,,,,,,,stimuli/images/PICTURE_677.png,APPLE,5f453c02fabd950dc8c1625c,o6/03/1945,2020-09-12_07h46.13.395,proactive3.2,2020.1.2,Linux aarch64,60,5f5adea66120081ea0f57a61,5f5c6e92ce878745de961ed2,2,,,,,,map,,,,,,0,13,13,43,1,5,1,,,,,,,,,,,,,,,,,,,,,,,,,,,,,,,,,,,,,,,,,,,,,,,,,,,,,,,,,,,,,,,,,,,,,,,,,,,
,,,,,,,,,,stimuli/images/PICTURE_42.png,BOYS,5f453c02fabd950dc8c1625c,o6/03/1945,2020-09-12_07h46.13.395,proactive3.2,2020.1.2,Linux aarch64,60,5f5adea66120081ea0f57a61,5f5c6e92ce878745de961ed2,2,,,,,,pear,,,,,,0,14,14,55,1,6,1,,,,,,,,,,,,,,,,,,,,,,,,,,,,,,,,,,,,,,,,,,,,,,,,,,,,,,,,,,,,,,,,,,,,,,,,,,,
,,,,,,,,,,stimuli/images/PICTURE_33.png,FRIEND,5f453c02fabd950dc8c1625c,o6/03/1945,2020-09-12_07h46.13.395,proactive3.2,2020.1.2,Linux aarch64,60,5f5adea66120081ea0f57a61,5f5c6e92ce878745de961ed2,2,,,,,,frame,,,,,,0,15,15,8,1,1,1,,,,,,,,,,,,,,,,,,,,,,,,,,,,,,,,,,,,,,,,,,,,,,,,,,,,,,,,,,,,,,,,,,,,,,,,,,,
,,,,,,,,,,stimuli/images/PICTURE_327.png,SERIES,5f453c02fabd950dc8c1625c,o6/03/1945,2020-09-12_07h46.13.395,proactive3.2,2020.1.2,Linux aarch64,60,5f5adea66120081ea0f57a61,5f5c6e92ce878745de961ed2,2,,,,,,helmet,,,,,,0,16,16,3,1,1,1,,,,,,,,,,,,,,,,,,,,,,,,,,,,,,,,,,,,,,,,,,,,,,,,,,,,,,,,,,,,,,,,,,,,,,,,,,,
,,,,,,,,,,stimuli/images/PICTURE_147.png,WOMEN,5f453c02fabd950dc8c1625c,o6/03/1945,2020-09-12_07h46.13.395,proactive3.2,2020.1.2,Linux aarch64,60,5f5adea66120081ea0f57a61,5f5c6e92ce878745de961ed2,2,,,,,,hanger,,,,,,0,17,17,7,1,1,1,,,,,,,,,,,,,,,,,,,,,,,,,,,,,,,,,,,,,,,,,,,,,,,,,,,,,,,,,,,,,,,,,,,,,,,,,,,
,,,,,,,,,,stimuli/images/PICTURE_95.png,MILLER,5f453c02fabd950dc8c1625c,o6/03/1945,2020-09-12_07h46.13.395,proactive3.2,2020.1.2,Linux aarch64,60,5f5adea66120081ea0f57a61,5f5c6e92ce878745de961ed2,2,,,,,,suitcase,,,,,,0,18,18,56,1,6,1,,,,,,,,,,,,,,,,,,,,,,,,,,,,,,,,,,,,,,,,,,,,,,,,,,,,,,,,,,,,,,,,,,,,,,,,,,,
,,,,,,,,,,stimuli/images/PICTURE_383.png,SERIES,5f453c02fabd950dc8c1625c,o6/03/1945,2020-09-12_07h46.13.395,proactive3.2,2020.1.2,Linux aarch64,60,5f5adea66120081ea0f57a61,5f5c6e92ce878745de961ed2,2,,,,,,coin,,,,,,0,19,19,46,1,5,1,,,,,,,,,,,,,,,,,,,,,,,,,,,,,,,,,,,,,,,,,,,,,,,,,,,,,,,,,,,,,,,,,,,,,,,,,,,
,,,,,,,,,,stimuli/images/PICTURE_504.png,COPS,5f453c02fabd950dc8c1625c,o6/03/1945,2020-09-12_07h46.13.395,proactive3.2,2020.1.2,Linux aarch64,60,5f5adea66120081ea0f57a61,5f5c6e92ce878745de961ed2,2,,,,,,wheel,,,,,,0,20,20,52,1,6,1,,,,,,,,,,,,,,,,,,,,,,,,,,,,,,,,,,,,,,,,,,,,,,,,,,,,,,,,,,,,,,,,,,,,,,,,,,,
,,,,,,,,,,stimuli/images/PICTURE_405.png,PLENTY,5f453c02fabd950dc8c1625c,o6/03/1945,2020-09-12_07h46.13.395,proactive3.2,2020.1.2,Linux aarch64,60,5f5adea66120081ea0f57a61,5f5c6e92ce878745de961ed2,2,,,,,,anchor,,,,,,0,21,21,23,1,3,1,,,,,,,,,,,,,,,,,,,,,,,,,,,,,,,,,,,,,,,,,,,,,,,,,,,,,,,,,,,,,,,,,,,,,,,,,,,
,,,,,,,,,,stimuli/images/PICTURE_403.png,WRITER,5f453c02fabd950dc8c1625c,o6/03/1945,2020-09-12_07h46.13.395,proactive3.2,2020.1.2,Linux aarch64,60,5f5adea66120081ea0f57a61,5f5c6e92ce878745de961ed2,2,,,,,,cathedral,,,,,,0,22,22,31,1,4,1,,,,,,,,,,,,,,,,,,,,,,,,,,,,,,,,,,,,,,,,,,,,,,,,,,,,,,,,,,,,,,,,,,,,,,,,,,,
,,,,,,,,,,stimuli/images/PICTURE_233.png,LOTS,5f453c02fabd950dc8c1625c,o6/03/1945,2020-09-12_07h46.13.395,proactive3.2,2020.1.2,Linux aarch64,60,5f5adea66120081ea0f57a61,5f5c6e92ce878745de961ed2,2,,,,,,salt,,,,,,0,23,23,42,1,5,1,,,,,,,,,,,,,,,,,,,,,,,,,,,,,,,,,,,,,,,,,,,,,,,,,,,,,,,,,,,,,,,,,,,,,,,,,,,
,,,,,,,,,,stimuli/images/PICTURE_340.png,LETTER,5f453c02fabd950dc8c1625c,o6/03/1945,2020-09-12_07h46.13.395,proactive3.2,2020.1.2,Linux aarch64,60,5f5adea66120081ea0f57a61,5f5c6e92ce878745de961ed2,2,,,,,,mirror,,,,,,0,24,24,24,1,3,1,,,,,,,,,,,,,,,,,,,,,,,,,,,,,,,,,,,,,,,,,,,,,,,,,,,,,,,,,,,,,,,,,,,,,,,,,,,
,,,,,,,,,,stimuli/images/PICTURE_32.png,PILLS,5f453c02fabd950dc8c1625c,o6/03/1945,2020-09-12_07h46.13.395,proactive3.2,2020.1.2,Linux aarch64,60,5f5adea66120081ea0f57a61,5f5c6e92ce878745de961ed2,2,,,,,,crown,,,,,,0,25,25,18,1,2,1,,,,,,,,,,,,,,,,,,,,,,,,,,,,,,,,,,,,,,,,,,,,,,,,,,,,,,,,,,,,,,,,,,,,,,,,,,,
,,,,,,,,,,stimuli/images/PICTURE_667.png,RIVER,5f453c02fabd950dc8c1625c,o6/03/1945,2020-09-12_07h46.13.395,proactive3.2,2020.1.2,Linux aarch64,60,5f5adea66120081ea0f57a61,5f5c6e92ce878745de961ed2,2,,,,,,daisy,,,,,,0,26,26,10,1,2,1,,,,,,,,,,,,,,,,,,,,,,,,,,,,,,,,,,,,,,,,,,,,,,,,,,,,,,,,,,,,,,,,,,,,,,,,,,,
,,,,,,,,,,stimuli/images/PICTURE_383.png,WRITER,5f453c02fabd950dc8c1625c,o6/03/1945,2020-09-12_07h46.13.395,proactive3.2,2020.1.2,Linux aarch64,60,5f5adea66120081ea0f57a61,5f5c6e92ce878745de961ed2,2,,,,,,coin,,,,,,0,27,27,28,1,3,1,,,,,,,,,,,,,,,,,,,,,,,,,,,,,,,,,,,,,,,,,,,,,,,,,,,,,,,,,,,,,,,,,,,,,,,,,,,
,,,,,,,,,,stimuli/images/PICTURE_469.png,AGENT,5f453c02fabd950dc8c1625c,o6/03/1945,2020-09-12_07h46.13.395,proactive3.2,2020.1.2,Linux aarch64,60,5f5adea66120081ea0f57a61,5f5c6e92ce878745de961ed2,2,,,,,,stool,,,,,,0,28,28,16,1,2,1,,,,,,,,,,,,,,,,,,,,,,,,,,,,,,,,,,,,,,,,,,,,,,,,,,,,,,,,,,,,,,,,,,,,,,,,,,,
,,,,,,,,,,stimuli/images/PICTURE_296.png,LOTS,5f453c02fabd950dc8c1625c,o6/03/1945,2020-09-12_07h46.13.395,proactive3.2,2020.1.2,Linux aarch64,60,5f5adea66120081ea0f57a61,5f5c6e92ce878745de961ed2,2,,,,,,bolt,,,,,,0,29,29,9,1,1,1,,,,,,,,,,,,,,,,,,,,,,,,,,,,,,,,,,,,,,,,,,,,,,,,,,,,,,,,,,,,,,,,,,,,,,,,,,,
,,,,,,,,,,stimuli/images/PICTURE_68.png,MILE,5f453c02fabd950dc8c1625c,o6/03/1945,2020-09-12_07h46.13.395,proactive3.2,2020.1.2,Linux aarch64,60,5f5adea66120081ea0f57a61,5f5c6e92ce878745de961ed2,2,,,,,,candle,,,,,,0,30,30,51,1,6,1,,,,,,,,,,,,,,,,,,,,,,,,,,,,,,,,,,,,,,,,,,,,,,,,,,,,,,,,,,,,,,,,,,,,,,,,,,,
,,,,,,,,,,stimuli/images/PICTURE_68.png,ROOF,5f453c02fabd950dc8c1625c,o6/03/1945,2020-09-12_07h46.13.395,proactive3.2,2020.1.2,Linux aarch64,60,5f5adea66120081ea0f57a61,5f5c6e92ce878745de961ed2,2,,,,,,candle,,,,,,0,31,31,38,1,4,1,,,,,,,,,,,,,,,,,,,,,,,,,,,,,,,,,,,,,,,,,,,,,,,,,,,,,,,,,,,,,,,,,,,,,,,,,,,
,,,,,,,,,,stimuli/images/PICTURE_297.png,RIVER,5f453c02fabd950dc8c1625c,o6/03/1945,2020-09-12_07h46.13.395,proactive3.2,2020.1.2,Linux aarch64,60,5f5adea66120081ea0f57a61,5f5c6e92ce878745de961ed2,2,,,,,,aeroplane,,,,,,0,32,32,39,1,4,1,,,,,,,,,,,,,,,,,,,,,,,,,,,,,,,,,,,,,,,,,,,,,,,,,,,,,,,,,,,,,,,,,,,,,,,,,,,
,,,,,,,,,,stimuli/images/PICTURE_504.png,YEAR,5f453c02fabd950dc8c1625c,o6/03/1945,2020-09-12_07h46.13.395,proactive3.2,2020.1.2,Linux aarch64,60,5f5adea66120081ea0f57a61,5f5c6e92ce878745de961ed2,2,,,,,,wheel,,,,,,0,33,33,13,1,2,1,,,,,,,,,,,,,,,,,,,,,,,,,,,,,,,,,,,,,,,,,,,,,,,,,,,,,,,,,,,,,,,,,,,,,,,,,,,
,,,,,,,,,,stimuli/images/PICTURE_340.png,VALLEY,5f453c02fabd950dc8c1625c,o6/03/1945,2020-09-12_07h46.13.395,proactive3.2,2020.1.2,Linux aarch64,60,5f5adea66120081ea0f57a61,5f5c6e92ce878745de961ed2,2,,,,,,mirror,,,,,,0,34,34,54,1,6,1,,,,,,,,,,,,,,,,,,,,,,,,,,,,,,,,,,,,,,,,,,,,,,,,,,,,,,,,,,,,,,,,,,,,,,,,,,,
,,,,,,,,,,stimuli/images/PICTURE_405.png,YEAR,5f453c02fabd950dc8c1625c,o6/03/1945,2020-09-12_07h46.13.395,proactive3.2,2020.1.2,Linux aarch64,60,5f5adea66120081ea0f57a61,5f5c6e92ce878745de961ed2,2,,,,,,anchor,,,,,,0,35,35,34,1,4,1,,,,,,,,,,,,,,,,,,,,,,,,,,,,,,,,,,,,,,,,,,,,,,,,,,,,,,,,,,,,,,,,,,,,,,,,,,,
,,,,,,,,,,stimuli/images/PICTURE_95.png,BOYS,5f453c02fabd950dc8c1625c,o6/03/1945,2020-09-12_07h46.13.395,proactive3.2,2020.1.2,Linux aarch64,60,5f5adea66120081ea0f57a61,5f5c6e92ce878745de961ed2,2,,,,,,suitcase,,,,,,0,36,36,1,1,1,1,,,,,,,,,,,,,,,,,,,,,,,,,,,,,,,,,,,,,,,,,,,,,,,,,,,,,,,,,,,,,,,,,,,,,,,,,,,
,,,,,,,,,,stimuli/images/PICTURE_108.png,POLICY,5f453c02fabd950dc8c1625c,o6/03/1945,2020-09-12_07h46.13.395,proactive3.2,2020.1.2,Linux aarch64,60,5f5adea66120081ea0f57a61,5f5c6e92ce878745de961ed2,2,,,,,,calendar,,,,,,0,37,37,22,1,3,1,,,,,,,,,,,,,,,,,,,,,,,,,,,,,,,,,,,,,,,,,,,,,,,,,,,,,,,,,,,,,,,,,,,,,,,,,,,
,,,,,,,,,,stimuli/images/PICTURE_750.png,HOTEL,5f453c02fabd950dc8c1625c,o6/03/1945,2020-09-12_07h46.13.395,proactive3.2,2020.1.2,Linux aarch64,60,5f5adea66120081ea0f57a61,5f5c6e92ce878745de961ed2,2,,,,,,kettle,,,,,,0,38,38,27,1,3,1,,,,,,,,,,,,,,,,,,,,,,,,,,,,,,,,,,,,,,,,,,,,,,,,,,,,,,,,,,,,,,,,,,,,,,,,,,,
,,,,,,,,,,stimuli/images/PICTURE_504.png,ARTIST,5f453c02fabd950dc8c1625c,o6/03/1945,2020-09-12_07h46.13.395,proactive3.2,2020.1.2,Linux aarch64,60,5f5adea66120081ea0f57a61,5f5c6e92ce878745de961ed2,2,,,,,,wheel,,,,,,0,39,39,49,1,5,1,,,,,,,,,,,,,,,,,,,,,,,,,,,,,,,,,,,,,,,,,,,,,,,,,,,,,,,,,,,,,,,,,,,,,,,,,,,
,,,,,,,,,,stimuli/images/PICTURE_32.png,KIND,5f453c02fabd950dc8c1625c,o6/03/1945,2020-09-12_07h46.13.395,proactive3.2,2020.1.2,Linux aarch64,60,5f5adea66120081ea0f57a61,5f5c6e92ce878745de961ed2,2,,,,,,crown,,,,,,0,40,40,35,1,4,1,,,,,,,,,,,,,,,,,,,,,,,,,,,,,,,,,,,,,,,,,,,,,,,,,,,,,,,,,,,,,,,,,,,,,,,,,,,
,,,,,,,,,,stimuli/images/PICTURE_403.png,TOILET,5f453c02fabd950dc8c1625c,o6/03/1945,2020-09-12_07h46.13.395,proactive3.2,2020.1.2,Linux aarch64,60,5f5adea66120081ea0f57a61,5f5c6e92ce878745de961ed2,2,,,,,,cathedral,,,,,,0,41,41,25,1,3,1,,,,,,,,,,,,,,,,,,,,,,,,,,,,,,,,,,,,,,,,,,,,,,,,,,,,,,,,,,,,,,,,,,,,,,,,,,,
,,,,,,,,,,stimuli/images/PICTURE_95.png,HONEY,5f453c02fabd950dc8c1625c,o6/03/1945,2020-09-12_07h46.13.395,proactive3.2,2020.1.2,Linux aarch64,60,5f5adea66120081ea0f57a61,5f5c6e92ce878745de961ed2,2,,,,,,suitcase,,,,,,0,42,42,44,1,5,1,,,,,,,,,,,,,,,,,,,,,,,,,,,,,,,,,,,,,,,,,,,,,,,,,,,,,,,,,,,,,,,,,,,,,,,,,,,
,,,,,,,,,,stimuli/images/PICTURE_491.png,GLASS,5f453c02fabd950dc8c1625c,o6/03/1945,2020-09-12_07h46.13.395,proactive3.2,2020.1.2,Linux aarch64,60,5f5adea66120081ea0f57a61,5f5c6e92ce878745de961ed2,2,,,,,,rug,,,,,,0,43,43,14,1,2,1,,,,,,,,,,,,,,,,,,,,,,,,,,,,,,,,,,,,,,,,,,,,,,,,,,,,,,,,,,,,,,,,,,,,,,,,,,,
,,,,,,,,,,stimuli/images/PICTURE_655.png,TOILET,5f453c02fabd950dc8c1625c,o6/03/1945,2020-09-12_07h46.13.395,proactive3.2,2020.1.2,Linux aarch64,60,5f5adea66120081ea0f57a61,5f5c6e92ce878745de961ed2,2,,,,,,megaphone,,,,,,0,44,44,12,1,2,1,,,,,,,,,,,,,,,,,,,,,,,,,,,,,,,,,,,,,,,,,,,,,,,,,,,,,,,,,,,,,,,,,,,,,,,,,,,
,,,,,,,,,,stimuli/images/PICTURE_208.png,SYSTEM,5f453c02fabd950dc8c1625c,o6/03/1945,2020-09-12_07h46.13.395,proactive3.2,2020.1.2,Linux aarch64,60,5f5adea66120081ea0f57a61,5f5c6e92ce878745de961ed2,2,,,,,,microphone,,,,,,0,45,45,32,1,4,1,,,,,,,,,,,,,,,,,,,,,,,,,,,,,,,,,,,,,,,,,,,,,,,,,,,,,,,,,,,,,,,,,,,,,,,,,,,
,,,,,,,,,,stimuli/images/PICTURE_2.png,FLIGHT,5f453c02fabd950dc8c1625c,o6/03/1945,2020-09-12_07h46.13.395,proactive3.2,2020.1.2,Linux aarch64,60,5f5adea66120081ea0f57a61,5f5c6e92ce878745de961ed2,2,,,,,,tyre,,,,,,0,46,46,15,1,2,1,,,,,,,,,,,,,,,,,,,,,,,,,,,,,,,,,,,,,,,,,,,,,,,,,,,,,,,,,,,,,,,,,,,,,,,,,,,
,,,,,,,,,,stimuli/images/PICTURE_108.png,FLIGHT,5f453c02fabd950dc8c1625c,o6/03/1945,2020-09-12_07h46.13.395,proactive3.2,2020.1.2,Linux aarch64,60,5f5adea66120081ea0f57a61,5f5c6e92ce878745de961ed2,2,,,,,,calendar,,,,,,0,47,47,59,1,6,1,,,,,,,,,,,,,,,,,,,,,,,,,,,,,,,,,,,,,,,,,,,,,,,,,,,,,,,,,,,,,,,,,,,,,,,,,,,
,,,,,,,,,,stimuli/images/PICTURE_339.png,CLIENT,5f453c02fabd950dc8c1625c,o6/03/1945,2020-09-12_07h46.13.395,proactive3.2,2020.1.2,Linux aarch64,60,5f5adea66120081ea0f57a61,5f5c6e92ce878745de961ed2,2,,,,,,backpack,,,,,,0,48,48,11,1,2,1,,,,,,,,,,,,,,,,,,,,,,,,,,,,,,,,,,,,,,,,,,,,,,,,,,,,,,,,,,,,,,,,,,,,,,,,,,,
,,,,,,,,,,stimuli/images/PICTURE_449.png,DUDE,5f453c02fabd950dc8c1625c,o6/03/1945,2020-09-12_07h46.13.395,proactive3.2,2020.1.2,Linux aarch64,60,5f5adea66120081ea0f57a61,5f5c6e92ce878745de961ed2,2,,,,,,bench,,,,,,0,49,49,17,1,2,1,,,,,,,,,,,,,,,,,,,,,,,,,,,,,,,,,,,,,,,,,,,,,,,,,,,,,,,,,,,,,,,,,,,,,,,,,,,
,,,,,,,,,,stimuli/images/PICTURE_85.png,NATION,5f453c02fabd950dc8c1625c,o6/03/1945,2020-09-12_07h46.13.395,proactive3.2,2020.1.2,Linux aarch64,60,5f5adea66120081ea0f57a61,5f5c6e92ce878745de961ed2,2,,,,,,diamond,,,,,,0,50,50,5,1,1,1,,,,,,,,,,,,,,,,,,,,,,,,,,,,,,,,,,,,,,,,,,,,,,,,,,,,,,,,,,,,,,,,,,,,,,,,,,,
,,,,,,,,,,stimuli/images/PICTURE_708.png,RECORD,5f453c02fabd950dc8c1625c,o6/03/1945,2020-09-12_07h46.13.395,proactive3.2,2020.1.2,Linux aarch64,60,5f5adea66120081ea0f57a61,5f5c6e92ce878745de961ed2,2,,,,,,monkey,,,,,,0,51,51,58,1,6,1,,,,,,,,,,,,,,,,,,,,,,,,,,,,,,,,,,,,,,,,,,,,,,,,,,,,,,,,,,,,,,,,,,,,,,,,,,,
,,,,,,,,,,stimuli/images/PICTURE_327.png,CASINO,5f453c02fabd950dc8c1625c,o6/03/1945,2020-09-12_07h46.13.395,proactive3.2,2020.1.2,Linux aarch64,60,5f5adea66120081ea0f57a61,5f5c6e92ce878745de961ed2,2,,,,,,helmet,,,,,,0,52,52,20,1,3,1,,,,,,,,,,,,,,,,,,,,,,,,,,,,,,,,,,,,,,,,,,,,,,,,,,,,,,,,,,,,,,,,,,,,,,,,,,,
,,,,,,,,,,stimuli/images/PICTURE_203.png,GODS,5f453c02fabd950dc8c1625c,o6/03/1945,2020-09-12_07h46.13.395,proactive3.2,2020.1.2,Linux aarch64,60,5f5adea66120081ea0f57a61,5f5c6e92ce878745de961ed2,2,,,,,,cap,,,,,,0,53,53,30,1,4,1,,,,,,,,,,,,,,,,,,,,,,,,,,,,,,,,,,,,,,,,,,,,,,,,,,,,,,,,,,,,,,,,,,,,,,,,,,,
,,,,,,,,,,stimuli/images/PICTURE_296.png,LIFE,5f453c02fabd950dc8c1625c,o6/03/1945,2020-09-12_07h46.13.395,proactive3.2,2020.1.2,Linux aarch64,60,5f5adea66120081ea0f57a61,5f5c6e92ce878745de961ed2,2,,,,,,bolt,,,,,,0,54,54,57,1,6,1,,,,,,,,,,,,,,,,,,,,,,,,,,,,,,,,,,,,,,,,,,,,,,,,,,,,,,,,,,,,,,,,,,,,,,,,,,,
,,,,,,,,,,stimuli/images/PICTURE_467.png,POLICY,5f453c02fabd950dc8c1625c,o6/03/1945,2020-09-12_07h46.13.395,proactive3.2,2020.1.2,Linux aarch64,60,5f5adea66120081ea0f57a61,5f5c6e92ce878745de961ed2,2,,,,,,peg,,,,,,0,55,55,53,1,6,1,,,,,,,,,,,,,,,,,,,,,,,,,,,,,,,,,,,,,,,,,,,,,,,,,,,,,,,,,,,,,,,,,,,,,,,,,,,
,,,,,,,,,,stimuli/images/PICTURE_744.png,WEAPON,5f453c02fabd950dc8c1625c,o6/03/1945,2020-09-12_07h46.13.395,proactive3.2,2020.1.2,Linux aarch64,60,5f5adea66120081ea0f57a61,5f5c6e92ce878745de961ed2,2,,,,,,ring,,,,,,0,56,56,50,1,6,1,,,,,,,,,,,,,,,,,,,,,,,,,,,,,,,,,,,,,,,,,,,,,,,,,,,,,,,,,,,,,,,,,,,,,,,,,,,
,,,,,,,,,,stimuli/images/PICTURE_147.png,YEAR,5f453c02fabd950dc8c1625c,o6/03/1945,2020-09-12_07h46.13.395,proactive3.2,2020.1.2,Linux aarch64,60,5f5adea66120081ea0f57a61,5f5c6e92ce878745de961ed2,2,,,,,,hanger,,,,,,0,57,57,21,1,3,1,,,,,,,,,,,,,,,,,,,,,,,,,,,,,,,,,,,,,,,,,,,,,,,,,,,,,,,,,,,,,,,,,,,,,,,,,,,
,,,,,,,,,,stimuli/images/PICTURE_675.png,SALE,5f453c02fabd950dc8c1625c,o6/03/1945,2020-09-12_07h46.13.395,proactive3.2,2020.1.2,Linux aarch64,60,5f5adea66120081ea0f57a61,5f5c6e92ce878745de961ed2,2,,,,,,windmill,,,,,,0,58,58,47,1,5,1,,,,,,,,,,,,,,,,,,,,,,,,,,,,,,,,,,,,,,,,,,,,,,,,,,,,,,,,,,,,,,,,,,,,,,,,,,,
,,?,0.00223,0,,,,,,stimuli/images/PICTURE_403.png,WRITER,5f453c02fabd950dc8c1625c,o6/03/1945,2020-09-12_07h46.13.395,proactive3.2,2020.1.2,Linux aarch64,60,5f5adea66120081ea0f57a61,5f5c6e92ce878745de961ed2,2,,,,,,cathedral,,,,,,,,,,,4,1,0,0,0,31,1,,,,,,,,,,,,,,,,,,,,,,,,,,,,,,,,,,,,,,,,,,,,,,,,,,,,,,,,,,,,,,,,,,,,,,
,,?,0.001785,0,,,,,,stimuli/images/PICTURE_85.png,NATION,5f453c02fabd950dc8c1625c,o6/03/1945,2020-09-12_07h46.13.395,proactive3.2,2020.1.2,Linux aarch64,60,5f5adea66120081ea0f57a61,5f5c6e92ce878745de961ed2,2,,,,,,diamond,,,,,,,,,,,1,1,0,1,1,5,1,,,,,,,,,,,,,,,,,,,,,,,,,,,,,,,,,,,,,,,,,,,,,,,,,,,,,,,,,,,,,,,,,,,,,,
,,?,0.00169,0,,,,,,stimuli/images/PICTURE_491.png,RIVER,5f453c02fabd950dc8c1625c,o6/03/1945,2020-09-12_07h46.13.395,proactive3.2,2020.1.2,Linux aarch64,60,5f5adea66120081ea0f57a61,5f5c6e92ce878745de961ed2,2,,,,,,rug,,,,,,,,,,,1,1,0,2,2,6,1,,,,,,,,,,,,,,,,,,,,,,,,,,,,,,,,,,,,,,,,,,,,,,,,,,,,,,,,,,,,,,,,,,,,,,
,,?,15.016285,0,,,,,,stimuli/images/PICTURE_667.png,RIVER,5f453c02fabd950dc8c1625c,o6/03/1945,2020-09-12_07h46.13.395,proactive3.2,2020.1.2,Linux aarch64,60,5f5adea66120081ea0f57a61,5f5c6e92ce878745de961ed2,2,,,,,,daisy,,,,,,,,,,,2,1,0,3,3,10,1,,,,,,,,,,,,,,,,,,,,,,,,,,,,,,,,,,,,,,,,,,,,,,,,,,,,,,,,,,,,,,,,,,,,,,
,,?,0.004475,0,,,,,,stimuli/images/PICTURE_85.png,TOILET,5f453c02fabd950dc8c1625c,o6/03/1945,2020-09-12_07h46.13.395,proactive3.2,2020.1.2,Linux aarch64,60,5f5adea66120081ea0f57a61,5f5c6e92ce878745de961ed2,2,,,,,,diamond,,,,,,,,,,,5,1,0,4,4,48,1,,,,,,,,,,,,,,,,,,,,,,,,,,,,,,,,,,,,,,,,,,,,,,,,,,,,,,,,,,,,,,,,,,,,,,
,,?,0.005035,0,,,,,,stimuli/images/PICTURE_403.png,TOILET,5f453c02fabd950dc8c1625c,o6/03/1945,2020-09-12_07h46.13.395,proactive3.2,2020.1.2,Linux aarch64,60,5f5adea66120081ea0f57a61,5f5c6e92ce878745de961ed2,2,,,,,,cathedral,,,,,,,,,,,3,1,0,5,5,25,1,,,,,,,,,,,,,,,,,,,,,,,,,,,,,,,,,,,,,,,,,,,,,,,,,,,,,,,,,,,,,,,,,,,,,,
,,?,0.00141,0,,,,,,stimuli/images/PICTURE_708.png,RECORD,5f453c02fabd950dc8c1625c,o6/03/1945,2020-09-12_07h46.13.395,proactive3.2,2020.1.2,Linux aarch64,60,5f5adea66120081ea0f57a61,5f5c6e92ce878745de961ed2,2,,,,,,monkey,,,,,,,,,,,6,1,0,6,6,58,1,,,,,,,,,,,,,,,,,,,,,,,,,,,,,,,,,,,,,,,,,,,,,,,,,,,,,,,,,,,,,,,,,,,,,,
,,?,0.001425,0,,,,,,stimuli/images/PICTURE_95.png,HONEY,5f453c02fabd950dc8c1625c,o6/03/1945,2020-09-12_07h46.13.395,proactive3.2,2020.1.2,Linux aarch64,60,5f5adea66120081ea0f57a61,5f5c6e92ce878745de961ed2,2,,,,,,suitcase,,,,,,,,,,,5,1,0,7,7,44,1,,,,,,,,,,,,,,,,,,,,,,,,,,,,,,,,,,,,,,,,,,,,,,,,,,,,,,,,,,,,,,,,,,,,,,
,,?,0.001705,0,,,,,,stimuli/images/PICTURE_33.png,FRIEND,5f453c02fabd950dc8c1625c,o6/03/1945,2020-09-12_07h46.13.395,proactive3.2,2020.1.2,Linux aarch64,60,5f5adea66120081ea0f57a61,5f5c6e92ce878745de961ed2,2,,,,,,frame,,,,,,,,,,,1,1,0,8,8,8,1,,,,,,,,,,,,,,,,,,,,,,,,,,,,,,,,,,,,,,,,,,,,,,,,,,,,,,,,,,,,,,,,,,,,,,
,,?,15.00931,0,,,,,,stimuli/images/PICTURE_2.png,FLIGHT,5f453c02fabd950dc8c1625c,o6/03/1945,2020-09-12_07h46.13.395,proactive3.2,2020.1.2,Linux aarch64,60,5f5adea66120081ea0f57a61,5f5c6e92ce878745de961ed2,2,,,,,,tyre,,,,,,,,,,,2,1,0,9,9,15,1,,,,,,,,,,,,,,,,,,,,,,,,,,,,,,,,,,,,,,,,,,,,,,,,,,,,,,,,,,,,,,,,,,,,,,
,,?,0.004655,0,,,,,,stimuli/images/PICTURE_405.png,YEAR,5f453c02fabd950dc8c1625c,o6/03/1945,2020-09-12_07h46.13.395,proactive3.2,2020.1.2,Linux aarch64,60,5f5adea66120081ea0f57a61,5f5c6e92ce878745de961ed2,2,,,,,,anchor,,,,,,,,,,,4,1,0,10,10,34,1,,,,,,,,,,,,,,,,,,,,,,,,,,,,,,,,,,,,,,,,,,,,,,,,,,,,,,,,,,,,,,,,,,,,,,
,,?,0.003805,0,,,,,,stimuli/images/PICTURE_504.png,ARTIST,5f453c02fabd950dc8c1625c,o6/03/1945,2020-09-12_07h46.13.395,proactive3.2,2020.1.2,Linux aarch64,60,5f5adea66120081ea0f57a61,5f5c6e92ce878745de961ed2,2,,,,,,wheel,,,,,,,,,,,5,1,0,11,11,49,1,,,,,,,,,,,,,,,,,,,,,,,,,,,,,,,,,,,,,,,,,,,,,,,,,,,,,,,,,,,,,,,,,,,,,,
,,?,15.003965,0,,,,,,stimuli/images/PICTURE_491.png,GLASS,5f453c02fabd950dc8c1625c,o6/03/1945,2020-09-12_07h46.13.395,proactive3.2,2020.1.2,Linux aarch64,60,5f5adea66120081ea0f57a61,5f5c6e92ce878745de961ed2,2,,,,,,rug,,,,,,,,,,,2,1,0,12,12,14,1,,,,,,,,,,,,,,,,,,,,,,,,,,,,,,,,,,,,,,,,,,,,,,,,,,,,,,,,,,,,,,,,,,,,,,
,,?,0.003415,0,,,,,,stimuli/images/PICTURE_42.png,BOYS,5f453c02fabd950dc8c1625c,o6/03/1945,2020-09-12_07h46.13.395,proactive3.2,2020.1.2,Linux aarch64,60,5f5adea66120081ea0f57a61,5f5c6e92ce878745de961ed2,2,,,,,,pear,,,,,,,,,,,6,1,0,13,13,55,1,,,,,,,,,,,,,,,,,,,,,,,,,,,,,,,,,,,,,,,,,,,,,,,,,,,,,,,,,,,,,,,,,,,,,,
,,?,15.010845,0,,,,,,stimuli/images/PICTURE_380.png,HONEY,5f453c02fabd950dc8c1625c,o6/03/1945,2020-09-12_07h46.13.395,proactive3.2,2020.1.2,Linux aarch64,60,5f5adea66120081ea0f57a61,5f5c6e92ce878745de961ed2,2,,,,,,gorilla,,,,,,,,,,,2,1,0,14,14,19,1,,,,,,,,,,,,,,,,,,,,,,,,,,,,,,,,,,,,,,,,,,,,,,,,,,,,,,,,,,,,,,,,,,,,,,
,,?,15.00822,0,,,,,,stimuli/images/PICTURE_449.png,DUDE,5f453c02fabd950dc8c1625c,o6/03/1945,2020-09-12_07h46.13.395,proactive3.2,2020.1.2,Linux aarch64,60,5f5adea66120081ea0f57a61,5f5c6e92ce878745de961ed2,2,,,,,,bench,,,,,,,,,,,2,1,0,15,15,17,1,,,,,,,,,,,,,,,,,,,,,,,,,,,,,,,,,,,,,,,,,,,,,,,,,,,,,,,,,,,,,,,,,,,,,,
,,?,0.00469,0,,,,,,stimuli/images/PICTURE_340.png,LETTER,5f453c02fabd950dc8c1625c,o6/03/1945,2020-09-12_07h46.13.395,proactive3.2,2020.1.2,Linux aarch64,60,5f5adea66120081ea0f57a61,5f5c6e92ce878745de961ed2,2,,,,,,mirror,,,,,,,,,,,3,1,0,16,16,24,1,,,,,,,,,,,,,,,,,,,,,,,,,,,,,,,,,,,,,,,,,,,,,,,,,,,,,,,,,,,,,,,,,,,,,,
,,?,0.011035,0,,,,,,stimuli/images/PICTURE_467.png,POLICY,5f453c02fabd950dc8c1625c,o6/03/1945,2020-09-12_07h46.13.395,proactive3.2,2020.1.2,Linux aarch64,60,5f5adea66120081ea0f57a61,5f5c6e92ce878745de961ed2,2,,,,,,peg,,,,,,,,,,,6,1,0,17,17,53,1,,,,,,,,,,,,,,,,,,,,,,,,,,,,,,,,,,,,,,,,,,,,,,,,,,,,,,,,,,,,,,,,,,,,,,
,,?,0.001265,0,,,,,,stimuli/images/PICTURE_68.png,ROOF,5f453c02fabd950dc8c1625c,o6/03/1945,2020-09-12_07h46.13.395,proactive3.2,2020.1.2,Linux aarch64,60,5f5adea66120081ea0f57a61,5f5c6e92ce878745de961ed2,2,,,,,,candle,,,,,,,,,,,4,1,0,18,18,38,1,,,,,,,,,,,,,,,,,,,,,,,,,,,,,,,,,,,,,,,,,,,,,,,,,,,,,,,,,,,,,,,,,,,,,,
,,?,0.00117,0,,,,,,stimuli/images/PICTURE_68.png,MILE,5f453c02fabd950dc8c1625c,o6/03/1945,2020-09-12_07h46.13.395,proactive3.2,2020.1.2,Linux aarch64,60,5f5adea66120081ea0f57a61,5f5c6e92ce878745de961ed2,2,,,,,,candle,,,,,,,,,,,6,1,0,19,19,51,1,,,,,,,,,,,,,,,,,,,,,,,,,,,,,,,,,,,,,,,,,,,,,,,,,,,,,,,,,,,,,,,,,,,,,,
,,?,0.00143,0,,,,,,stimuli/images/PICTURE_296.png,LIFE,5f453c02fabd950dc8c1625c,o6/03/1945,2020-09-12_07h46.13.395,proactive3.2,2020.1.2,Linux aarch64,60,5f5adea66120081ea0f57a61,5f5c6e92ce878745de961ed2,2,,,,,,bolt,,,,,,,,,,,6,1,0,20,20,57,1,,,,,,,,,,,,,,,,,,,,,,,,,,,,,,,,,,,,,,,,,,,,,,,,,,,,,,,,,,,,,,,,,,,,,,
,,?,0.001435,0,,,,,,stimuli/images/PICTURE_403.png,RIVER,5f453c02fabd950dc8c1625c,o6/03/1945,2020-09-12_07h46.13.395,proactive3.2,2020.1.2,Linux aarch64,60,5f5adea66120081ea0f57a61,5f5c6e92ce878745de961ed2,2,,,,,,cathedral,,,,,,,,,,,5,1,0,21,21,40,1,,,,,,,,,,,,,,,,,,,,,,,,,,,,,,,,,,,,,,,,,,,,,,,,,,,,,,,,,,,,,,,,,,,,,,
,,?,15.00254,0,,,,,,stimuli/images/PICTURE_339.png,CLIENT,5f453c02fabd950dc8c1625c,o6/03/1945,2020-09-12_07h46.13.395,proactive3.2,2020.1.2,Linux aarch64,60,5f5adea66120081ea0f57a61,5f5c6e92ce878745de961ed2,2,,,,,,backpack,,,,,,,,,,,2,1,0,22,22,11,1,,,,,,,,,,,,,,,,,,,,,,,,,,,,,,,,,,,,,,,,,,,,,,,,,,,,,,,,,,,,,,,,,,,,,,
,,?,0.003255,0,,,,,,stimuli/images/PICTURE_564.png,BATH,5f453c02fabd950dc8c1625c,o6/03/1945,2020-09-12_07h46.13.395,proactive3.2,2020.1.2,Linux aarch64,60,5f5adea66120081ea0f57a61,5f5c6e92ce878745de961ed2,2,,,,,,spoon,,,,,,,,,,,3,1,0,23,23,26,1,,,,,,,,,,,,,,,,,,,,,,,,,,,,,,,,,,,,,,,,,,,,,,,,,,,,,,,,,,,,,,,,,,,,,,
,,?,0.005995,0,,,,,,stimuli/images/PICTURE_147.png,WOMEN,5f453c02fabd950dc8c1625c,o6/03/1945,2020-09-12_07h46.13.395,proactive3.2,2020.1.2,Linux aarch64,60,5f5adea66120081ea0f57a61,5f5c6e92ce878745de961ed2,2,,,,,,hanger,,,,,,,,,,,1,1,0,24,24,7,1,,,,,,,,,,,,,,,,,,,,,,,,,,,,,,,,,,,,,,,,,,,,,,,,,,,,,,,,,,,,,,,,,,,,,,
,,?,0.003555,0,,,,,,stimuli/images/PICTURE_208.png,SYSTEM,5f453c02fabd950dc8c1625c,o6/03/1945,2020-09-12_07h46.13.395,proactive3.2,2020.1.2,Linux aarch64,60,5f5adea66120081ea0f57a61,5f5c6e92ce878745de961ed2,2,,,,,,microphone,,,,,,,,,,,4,1,0,25,25,32,1,,,,,,,,,,,,,,,,,,,,,,,,,,,,,,,,,,,,,,,,,,,,,,,,,,,,,,,,,,,,,,,,,,,,,,
,,?,0.00528,0,,,,,,stimuli/images/PICTURE_327.png,CASINO,5f453c02fabd950dc8c1625c,o6/03/1945,2020-09-12_07h46.13.395,proactive3.2,2020.1.2,Linux aarch64,60,5f5adea66120081ea0f57a61,5f5c6e92ce878745de961ed2,2,,,,,,helmet,,,,,,,,,,,3,1,0,26,26,20,1,,,,,,,,,,,,,,,,,,,,,,,,,,,,,,,,,,,,,,,,,,,,,,,,,,,,,,,,,,,,,,,,,,,,,,
,,?,0.00204,0,,,,,,stimuli/images/PICTURE_308.png,FAMILY,5f453c02fabd950dc8c1625c,o6/03/1945,2020-09-12_07h46.13.395,proactive3.2,2020.1.2,Linux aarch64,60,5f5adea66120081ea0f57a61,5f5c6e92ce878745de961ed2,2,,,,,,dice,,,,,,,,,,,4,1,0,27,27,36,1,,,,,,,,,,,,,,,,,,,,,,,,,,,,,,,,,,,,,,,,,,,,,,,,,,,,,,,,,,,,,,,,,,,,,,
,,?,0.00149,0,,,,,,stimuli/images/PICTURE_108.png,POLICY,5f453c02fabd950dc8c1625c,o6/03/1945,2020-09-12_07h46.13.395,proactive3.2,2020.1.2,Linux aarch64,60,5f5adea66120081ea0f57a61,5f5c6e92ce878745de961ed2,2,,,,,,calendar,,,,,,,,,,,3,1,0,28,28,22,1,,,,,,,,,,,,,,,,,,,,,,,,,,,,,,,,,,,,,,,,,,,,,,,,,,,,,,,,,,,,,,,,,,,,,,
,,?,0.001615,0,,,,,,stimuli/images/PICTURE_233.png,LOTS,5f453c02fabd950dc8c1625c,o6/03/1945,2020-09-12_07h46.13.395,proactive3.2,2020.1.2,Linux aarch64,60,5f5adea66120081ea0f57a61,5f5c6e92ce878745de961ed2,2,,,,,,salt,,,,,,,,,,,5,1,0,29,29,42,1,,,,,,,,,,,,,,,,,,,,,,,,,,,,,,,,,,,,,,,,,,,,,,,,,,,,,,,,,,,,,,,,,,,,,,
,,?,15.015755,0,,,,,,stimuli/images/PICTURE_504.png,YEAR,5f453c02fabd950dc8c1625c,o6/03/1945,2020-09-12_07h46.13.395,proactive3.2,2020.1.2,Linux aarch64,60,5f5adea66120081ea0f57a61,5f5c6e92ce878745de961ed2,2,,,,,,wheel,,,,,,,,,,,2,1,0,30,30,13,1,,,,,,,,,,,,,,,,,,,,,,,,,,,,,,,,,,,,,,,,,,,,,,,,,,,,,,,,,,,,,,,,,,,,,,
,,?,0.005525,0,,,,,,stimuli/images/PICTURE_57.png,MOMENT,5f453c02fabd950dc8c1625c,o6/03/1945,2020-09-12_07h46.13.395,proactive3.2,2020.1.2,Linux aarch64,60,5f5adea66120081ea0f57a61,5f5c6e92ce878745de961ed2,2,,,,,,stamp,,,,,,,,,,,4,1,0,31,31,37,1,,,,,,,,,,,,,,,,,,,,,,,,,,,,,,,,,,,,,,,,,,,,,,,,,,,,,,,,,,,,,,,,,,,,,,
,,?,15.012,0,,,,,,stimuli/images/PICTURE_655.png,TOILET,5f453c02fabd950dc8c1625c,o6/03/1945,2020-09-12_07h46.13.395,proactive3.2,2020.1.2,Linux aarch64,60,5f5adea66120081ea0f57a61,5f5c6e92ce878745de961ed2,2,,,,,,megaphone,,,,,,,,,,,2,1,0,32,32,12,1,,,,,,,,,,,,,,,,,,,,,,,,,,,,,,,,,,,,,,,,,,,,,,,,,,,,,,,,,,,,,,,,,,,,,,
,,?,0.002635,0,,,,,,stimuli/images/PICTURE_285.png,LIFE,5f453c02fabd950dc8c1625c,o6/03/1945,2020-09-12_07h46.13.395,proactive3.2,2020.1.2,Linux aarch64,60,5f5adea66120081ea0f57a61,5f5c6e92ce878745de961ed2,2,,,,,,carrot,,,,,,,,,,,4,1,0,33,33,33,1,,,,,,,,,,,,,,,,,,,,,,,,,,,,,,,,,,,,,,,,,,,,,,,,,,,,,,,,,,,,,,,,,,,,,,
,,?,15.01094,0,,,,,,stimuli/images/PICTURE_32.png,PILLS,5f453c02fabd950dc8c1625c,o6/03/1945,2020-09-12_07h46.13.395,proactive3.2,2020.1.2,Linux aarch64,60,5f5adea66120081ea0f57a61,5f5c6e92ce878745de961ed2,2,,,,,,crown,,,,,,,,,,,2,1,0,34,34,18,1,,,,,,,,,,,,,,,,,,,,,,,,,,,,,,,,,,,,,,,,,,,,,,,,,,,,,,,,,,,,,,,,,,,,,,
,,?,0.003325,0,,,,,,stimuli/images/PICTURE_677.png,APPLE,5f453c02fabd950dc8c1625c,o6/03/1945,2020-09-12_07h46.13.395,proactive3.2,2020.1.2,Linux aarch64,60,5f5adea66120081ea0f57a61,5f5c6e92ce878745de961ed2,2,,,,,,map,,,,,,,,,,,5,1,0,35,35,43,1,,,,,,,,,,,,,,,,,,,,,,,,,,,,,,,,,,,,,,,,,,,,,,,,,,,,,,,,,,,,,,,,,,,,,,
,,?,0.004295,0,,,,,,stimuli/images/PICTURE_95.png,BOYS,5f453c02fabd950dc8c1625c,o6/03/1945,2020-09-12_07h46.13.395,proactive3.2,2020.1.2,Linux aarch64,60,5f5adea66120081ea0f57a61,5f5c6e92ce878745de961ed2,2,,,,,,suitcase,,,,,,,,,,,1,1,0,36,36,1,1,,,,,,,,,,,,,,,,,,,,,,,,,,,,,,,,,,,,,,,,,,,,,,,,,,,,,,,,,,,,,,,,,,,,,,
,,?,0.003175,0,,,,,,stimuli/images/PICTURE_32.png,KIND,5f453c02fabd950dc8c1625c,o6/03/1945,2020-09-12_07h46.13.395,proactive3.2,2020.1.2,Linux aarch64,60,5f5adea66120081ea0f57a61,5f5c6e92ce878745de961ed2,2,,,,,,crown,,,,,,,,,,,4,1,0,37,37,35,1,,,,,,,,,,,,,,,,,,,,,,,,,,,,,,,,,,,,,,,,,,,,,,,,,,,,,,,,,,,,,,,,,,,,,,
,,?,0.002125,0,,,,,,stimuli/images/PICTURE_750.png,HOTEL,5f453c02fabd950dc8c1625c,o6/03/1945,2020-09-12_07h46.13.395,proactive3.2,2020.1.2,Linux aarch64,60,5f5adea66120081ea0f57a61,5f5c6e92ce878745de961ed2,2,,,,,,kettle,,,,,,,,,,,3,1,0,38,38,27,1,,,,,,,,,,,,,,,,,,,,,,,,,,,,,,,,,,,,,,,,,,,,,,,,,,,,,,,,,,,,,,,,,,,,,,
,,?,0.001645,0,,,,,,stimuli/images/PICTURE_685.png,PENNY,5f453c02fabd950dc8c1625c,o6/03/1945,2020-09-12_07h46.13.395,proactive3.2,2020.1.2,Linux aarch64,60,5f5adea66120081ea0f57a61,5f5c6e92ce878745de961ed2,2,,,,,,goose,,,,,,,,,,,1,1,0,39,39,4,1,,,,,,,,,,,,,,,,,,,,,,,,,,,,,,,,,,,,,,,,,,,,,,,,,,,,,,,,,,,,,,,,,,,,,,
,,?,0.00161,0,,,,,,stimuli/images/PICTURE_654.png,MONTH,5f453c02fabd950dc8c1625c,o6/03/1945,2020-09-12_07h46.13.395,proactive3.2,2020.1.2,Linux aarch64,60,5f5adea66120081ea0f57a61,5f5c6e92ce878745de961ed2,2,,,,,,pencil,,,,,,,,,,,3,1,0,40,40,29,1,,,,,,,,,,,,,,,,,,,,,,,,,,,,,,,,,,,,,,,,,,,,,,,,,,,,,,,,,,,,,,,,,,,,,,
,,?,0.0016,0,,,,,,stimuli/images/PICTURE_296.png,LOTS,5f453c02fabd950dc8c1625c,o6/03/1945,2020-09-12_07h46.13.395,proactive3.2,2020.1.2,Linux aarch64,60,5f5adea66120081ea0f57a61,5f5c6e92ce878745de961ed2,2,,,,,,bolt,,,,,,,,,,,1,1,0,41,41,9,1,,,,,,,,,,,,,,,,,,,,,,,,,,,,,,,,,,,,,,,,,,,,,,,,,,,,,,,,,,,,,,,,,,,,,,
,,?,0.00145,0,,,,,,stimuli/images/PICTURE_177.png,WRITER,5f453c02fabd950dc8c1625c,o6/03/1945,2020-09-12_07h46.13.395,proactive3.2,2020.1.2,Linux aarch64,60,5f5adea66120081ea0f57a61,5f5c6e92ce878745de961ed2,2,,,,,,mushroom,,,,,,,,,,,5,1,0,42,42,41,1,,,,,,,,,,,,,,,,,,,,,,,,,,,,,,,,,,,,,,,,,,,,,,,,,,,,,,,,,,,,,,,,,,,,,,
,,?,0.00142,0,,,,,,stimuli/images/PICTURE_504.png,COPS,5f453c02fabd950dc8c1625c,o6/03/1945,2020-09-12_07h46.13.395,proactive3.2,2020.1.2,Linux aarch64,60,5f5adea66120081ea0f57a61,5f5c6e92ce878745de961ed2,2,,,,,,wheel,,,,,,,,,,,6,1,0,43,43,52,1,,,,,,,,,,,,,,,,,,,,,,,,,,,,,,,,,,,,,,,,,,,,,,,,,,,,,,,,,,,,,,,,,,,,,,
,,?,0.001355,0,,,,,,stimuli/images/PICTURE_203.png,GODS,5f453c02fabd950dc8c1625c,o6/03/1945,2020-09-12_07h46.13.395,proactive3.2,2020.1.2,Linux aarch64,60,5f5adea66120081ea0f57a61,5f5c6e92ce878745de961ed2,2,,,,,,cap,,,,,,,,,,,4,1,0,44,44,30,1,,,,,,,,,,,,,,,,,,,,,,,,,,,,,,,,,,,,,,,,,,,,,,,,,,,,,,,,,,,,,,,,,,,,,,
,,?,0.001685,0,,,,,,stimuli/images/PICTURE_383.png,SERIES,5f453c02fabd950dc8c1625c,o6/03/1945,2020-09-12_07h46.13.395,proactive3.2,2020.1.2,Linux aarch64,60,5f5adea66120081ea0f57a61,5f5c6e92ce878745de961ed2,2,,,,,,coin,,,,,,,,,,,5,1,0,45,45,46,1,,,,,,,,,,,,,,,,,,,,,,,,,,,,,,,,,,,,,,,,,,,,,,,,,,,,,,,,,,,,,,,,,,,,,,
,,?,0.0016,0,,,,,,stimuli/images/PICTURE_327.png,SERIES,5f453c02fabd950dc8c1625c,o6/03/1945,2020-09-12_07h46.13.395,proactive3.2,2020.1.2,Linux aarch64,60,5f5adea66120081ea0f57a61,5f5c6e92ce878745de961ed2,2,,,,,,helmet,,,,,,,,,,,1,1,0,46,46,3,1,,,,,,,,,,,,,,,,,,,,,,,,,,,,,,,,,,,,,,,,,,,,,,,,,,,,,,,,,,,,,,,,,,,,,,
,,?,0.001655,0,,,,,,stimuli/images/PICTURE_675.png,SALE,5f453c02fabd950dc8c1625c,o6/03/1945,2020-09-12_07h46.13.395,proactive3.2,2020.1.2,Linux aarch64,60,5f5adea66120081ea0f57a61,5f5c6e92ce878745de961ed2,2,,,,,,windmill,,,,,,,,,,,5,1,0,47,47,47,1,,,,,,,,,,,,,,,,,,,,,,,,,,,,,,,,,,,,,,,,,,,,,,,,,,,,,,,,,,,,,,,,,,,,,,
,,?,0.001735,0,,,,,,stimuli/images/PICTURE_203.png,NIGHT,5f453c02fabd950dc8c1625c,o6/03/1945,2020-09-12_07h46.13.395,proactive3.2,2020.1.2,Linux aarch64,60,5f5adea66120081ea0f57a61,5f5c6e92ce878745de961ed2,2,,,,,,cap,,,,,,,,,,,1,1,0,48,48,2,1,,,,,,,,,,,,,,,,,,,,,,,,,,,,,,,,,,,,,,,,,,,,,,,,,,,,,,,,,,,,,,,,,,,,,,
,,?,0.00162,0,,,,,,stimuli/images/PICTURE_108.png,FLIGHT,5f453c02fabd950dc8c1625c,o6/03/1945,2020-09-12_07h46.13.395,proactive3.2,2020.1.2,Linux aarch64,60,5f5adea66120081ea0f57a61,5f5c6e92ce878745de961ed2,2,,,,,,calendar,,,,,,,,,,,6,1,0,49,49,59,1,,,,,,,,,,,,,,,,,,,,,,,,,,,,,,,,,,,,,,,,,,,,,,,,,,,,,,,,,,,,,,,,,,,,,,
,,?,0.00158,0,,,,,,stimuli/images/PICTURE_147.png,YEAR,5f453c02fabd950dc8c1625c,o6/03/1945,2020-09-12_07h46.13.395,proactive3.2,2020.1.2,Linux aarch64,60,5f5adea66120081ea0f57a61,5f5c6e92ce878745de961ed2,2,,,,,,hanger,,,,,,,,,,,3,1,0,50,50,21,1,,,,,,,,,,,,,,,,,,,,,,,,,,,,,,,,,,,,,,,,,,,,,,,,,,,,,,,,,,,,,,,,,,,,,,
,,?,0.001585,0,,,,,,stimuli/images/PICTURE_297.png,RIVER,5f453c02fabd950dc8c1625c,o6/03/1945,2020-09-12_07h46.13.395,proactive3.2,2020.1.2,Linux aarch64,60,5f5adea66120081ea0f57a61,5f5c6e92ce878745de961ed2,2,,,,,,aeroplane,,,,,,,,,,,4,1,0,51,51,39,1,,,,,,,,,,,,,,,,,,,,,,,,,,,,,,,,,,,,,,,,,,,,,,,,,,,,,,,,,,,,,,,,,,,,,,
,,?,0.00669,0,,,,,,stimuli/images/PICTURE_380.png,CANDY,5f453c02fabd950dc8c1625c,o6/03/1945,2020-09-12_07h46.13.395,proactive3.2,2020.1.2,Linux aarch64,60,5f5adea66120081ea0f57a61,5f5c6e92ce878745de961ed2,2,,,,,,gorilla,,,,,,,,,,,1,1,0,52,52,0,1,,,,,,,,,,,,,,,,,,,,,,,,,,,,,,,,,,,,,,,,,,,,,,,,,,,,,,,,,,,,,,,,,,,,,,
,,?,0.001685,0,,,,,,stimuli/images/PICTURE_405.png,PLENTY,5f453c02fabd950dc8c1625c,o6/03/1945,2020-09-12_07h46.13.395,proactive3.2,2020.1.2,Linux aarch64,60,5f5adea66120081ea0f57a61,5f5c6e92ce878745de961ed2,2,,,,,,anchor,,,,,,,,,,,3,1,0,53,53,23,1,,,,,,,,,,,,,,,,,,,,,,,,,,,,,,,,,,,,,,,,,,,,,,,,,,,,,,,,,,,,,,,,,,,,,,
,,?,0.001525,0,,,,,,stimuli/images/PICTURE_340.png,VALLEY,5f453c02fabd950dc8c1625c,o6/03/1945,2020-09-12_07h46.13.395,proactive3.2,2020.1.2,Linux aarch64,60,5f5adea66120081ea0f57a61,5f5c6e92ce878745de961ed2,2,,,,,,mirror,,,,,,,,,,,6,1,0,54,54,54,1,,,,,,,,,,,,,,,,,,,,,,,,,,,,,,,,,,,,,,,,,,,,,,,,,,,,,,,,,,,,,,,,,,,,,,
,,?,0.001635,0,,,,,,stimuli/images/PICTURE_383.png,WRITER,5f453c02fabd950dc8c1625c,o6/03/1945,2020-09-12_07h46.13.395,proactive3.2,2020.1.2,Linux aarch64,60,5f5adea66120081ea0f57a61,5f5c6e92ce878745de961ed2,2,,,,,,coin,,,,,,,,,,,3,1,0,55,55,28,1,,,,,,,,,,,,,,,,,,,,,,,,,,,,,,,,,,,,,,,,,,,,,,,,,,,,,,,,,,,,,,,,,,,,,,
,,?,0.001545,0,,,,,,stimuli/images/PICTURE_95.png,MILLER,5f453c02fabd950dc8c1625c,o6/03/1945,2020-09-12_07h46.13.395,proactive3.2,2020.1.2,Linux aarch64,60,5f5adea66120081ea0f57a61,5f5c6e92ce878745de961ed2,2,,,,,,suitcase,,,,,,,,,,,6,1,0,56,56,56,1,,,,,,,,,,,,,,,,,,,,,,,,,,,,,,,,,,,,,,,,,,,,,,,,,,,,,,,,,,,,,,,,,,,,,,
,,?,15.00488,0,,,,,,stimuli/images/PICTURE_469.png,AGENT,5f453c02fabd950dc8c1625c,o6/03/1945,2020-09-12_07h46.13.395,proactive3.2,2020.1.2,Linux aarch64,60,5f5adea66120081ea0f57a61,5f5c6e92ce878745de961ed2,2,,,,,,stool,,,,,,,,,,,2,1,0,57,57,16,1,,,,,,,,,,,,,,,,,,,,,,,,,,,,,,,,,,,,,,,,,,,,,,,,,,,,,,,,,,,,,,,,,,,,,,
,,?,0.004225,0,,,,,,stimuli/images/PICTURE_487.png,GIRL,5f453c02fabd950dc8c1625c,o6/03/1945,2020-09-12_07h46.13.395,proactive3.2,2020.1.2,Linux aarch64,60,5f5adea66120081ea0f57a61,5f5c6e92ce878745de961ed2,2,,,,,,basket,,,,,,,,,,,5,1,0,58,58,45,1,,,,,,,,,,,,,,,,,,,,,,,,,,,,,,,,,,,,,,,,,,,,,,,,,,,,,,,,,,,,,,,,,,,,,,
,,?,0.00411,0,,,,,,stimuli/images/PICTURE_744.png,WEAPON,5f453c02fabd950dc8c1625c,o6/03/1945,2020-09-12_07h46.13.395,proactive3.2,2020.1.2,Linux aarch64,60,5f5adea66120081ea0f57a61,5f5c6e92ce878745de961ed2,2,,,,,,ring,,,,,,,,,,,6,1,0,59,59,50,1,,,,,,,,,,,,,,,,,,,,,,,,,,,,,,,,,,,,,,,,,,,,,,,,,,,,,,,,,,,,,,,,,,,,,,
,,,,,,,,,,,,5f453c02fabd950dc8c1625c,o6/03/1945,2020-09-12_07h46.13.395,proactive3.2,2020.1.2,Linux aarch64,60,5f5adea66120081ea0f57a61,5f5c6e92ce878745de961ed2,2,,,,,,,,,,,,,,,,,,,,,,,,0,0,0,1,1,stimuli/learn-block2.csv,,,,,,,,,,,,,,,,,,,,,,,,,,,,,,,,,,,,,,,,,,,,,,,,,,,,,,,,,,,,,,,,
,,,,,,,,,,stimuli/images/PICTURE_470.png,CASINO,5f453c02fabd950dc8c1625c,o6/03/1945,2020-09-12_07h46.13.395,proactive3.2,2020.1.2,Linux aarch64,60,5f5adea66120081ea0f57a61,5f5c6e92ce878745de961ed2,2,,,,,,motorbike,,,,,,0,0,0,36,1,4,0,,,,,,,,,,,,,,,,,,,,,,,,,,,,,,,,,,,,,,,,,,,,,,,,,,,,,,,,,,,,,,,,,,,,,,,,,,,
,,,,,,,,,,stimuli/images/PICTURE_68.png,MILE,5f453c02fabd950dc8c1625c,o6/03/1945,2020-09-12_07h46.13.395,proactive3.2,2020.1.2,Linux aarch64,60,5f5adea66120081ea0f57a61,5f5c6e92ce878745de961ed2,2,,,,,,candle,,,,,,0,1,1,44,1,5,0,,,,,,,,,,,,,,,,,,,,,,,,,,,,,,,,,,,,,,,,,,,,,,,,,,,,,,,,,,,,,,,,,,,,,,,,,,,
,,,,,,,,,,stimuli/images/PICTURE_708.png,CLIENT,5f453c02fabd950dc8c1625c,o6/03/1945,2020-09-12_07h46.13.395,proactive3.2,2020.1.2,Linux aarch64,60,5f5adea66120081ea0f57a61,5f5c6e92ce878745de961ed2,2,,,,,,monkey,,,,,,0,2,2,5,1,1,0,,,,,,,,,,,,,,,,,,,,,,,,,,,,,,,,,,,,,,,,,,,,,,,,,,,,,,,,,,,,,,,,,,,,,,,,,,,
,,,,,,,,,,stimuli/images/PICTURE_453.png,PLENTY,5f453c02fabd950dc8c1625c,o6/03/1945,2020-09-12_07h46.13.395,proactive3.2,2020.1.2,Linux aarch64,60,5f5adea66120081ea0f57a61,5f5c6e92ce878745de961ed2,2,,,,,,scissors,,,,,,0,3,3,56,1,6,0,,,,,,,,,,,,,,,,,,,,,,,,,,,,,,,,,,,,,,,,,,,,,,,,,,,,,,,,,,,,,,,,,,,,,,,,,,,
,,,,,,,,,,stimuli/images/PICTURE_487.png,FLIGHT,5f453c02fabd950dc8c1625c,o6/03/1945,2020-09-12_07h46.13.395,proactive3.2,2020.1.2,Linux aarch64,60,5f5adea66120081ea0f57a61,5f5c6e92ce878745de961ed2,2,,,,,,basket,,,,,,0,4,4,9,1,1,0,,,,,,,,,,,,,,,,,,,,,,,,,,,,,,,,,,,,,,,,,,,,,,,,,,,,,,,,,,,,,,,,,,,,,,,,,,,
,,,,,,,,,,stimuli/images/PICTURE_469.png,ARTIST,5f453c02fabd950dc8c1625c,o6/03/1945,2020-09-12_07h46.13.395,proactive3.2,2020.1.2,Linux aarch64,60,5f5adea66120081ea0f57a61,5f5c6e92ce878745de961ed2,2,,,,,,stool,,,,,,0,5,5,6,1,1,0,,,,,,,,,,,,,,,,,,,,,,,,,,,,,,,,,,,,,,,,,,,,,,,,,,,,,,,,,,,,,,,,,,,,,,,,,,,
,,,,,,,,,,stimuli/images/PICTURE_654.png,VALLEY,5f453c02fabd950dc8c1625c,o6/03/1945,2020-09-12_07h46.13.395,proactive3.2,2020.1.2,Linux aarch64,60,5f5adea66120081ea0f57a61,5f5c6e92ce878745de961ed2,2,,,,,,pencil,,,,,,0,6,6,1,1,1,0,,,,,,,,,,,,,,,,,,,,,,,,,,,,,,,,,,,,,,,,,,,,,,,,,,,,,,,,,,,,,,,,,,,,,,,,,,,
,,,,,,,,,,stimuli/images/PICTURE_308.png,ESTATE,5f453c02fabd950dc8c1625c,o6/03/1945,2020-09-12_07h46.13.395,proactive3.2,2020.1.2,Linux aarch64,60,5f5adea66120081ea0f57a61,5f5c6e92ce878745de961ed2,2,,,,,,dice,,,,,,0,7,7,46,1,5,0,,,,,,,,,,,,,,,,,,,,,,,,,,,,,,,,,,,,,,,,,,,,,,,,,,,,,,,,,,,,,,,,,,,,,,,,,,,
,,,,,,,,,,stimuli/images/PICTURE_311.png,BEAUTY,5f453c02fabd950dc8c1625c,o6/03/1945,2020-09-12_07h46.13.395,proactive3.2,2020.1.2,Linux aarch64,60,5f5adea66120081ea0f57a61,5f5c6e92ce878745de961ed2,2,,,,,,razor,,,,,,0,8,8,13,1,2,0,,,,,,,,,,,,,,,,,,,,,,,,,,,,,,,,,,,,,,,,,,,,,,,,,,,,,,,,,,,,,,,,,,,,,,,,,,,
,,,,,,,,,,stimuli/images/PICTURE_85.png,THING,5f453c02fabd950dc8c1625c,o6/03/1945,2020-09-12_07h46.13.395,proactive3.2,2020.1.2,Linux aarch64,60,5f5adea66120081ea0f57a61,5f5c6e92ce878745de961ed2,2,,,,,,diamond,,,,,,0,9,9,15,1,2,0,,,,,,,,,,,,,,,,,,,,,,,,,,,,,,,,,,,,,,,,,,,,,,,,,,,,,,,,,,,,,,,,,,,,,,,,,,,
,,,,,,,,,,stimuli/images/PICTURE_504.png,BODY,5f453c02fabd950dc8c1625c,o6/03/1945,2020-09-12_07h46.13.395,proactive3.2,2020.1.2,Linux aarch64,60,5f5adea66120081ea0f57a61,5f5c6e92ce878745de961ed2,2,,,,,,wheel,,,,,,0,10,10,8,1,1,0,,,,,,,,,,,,,,,,,,,,,,,,,,,,,,,,,,,,,,,,,,,,,,,,,,,,,,,,,,,,,,,,,,,,,,,,,,,
,,,,,,,,,,stimuli/images/PICTURE_215.png,PLENTY,5f453c02fabd950dc8c1625c,o6/03/1945,2020-09-12_07h46.13.395,proactive3.2,2020.1.2,Linux aarch64,60,5f5adea66120081ea0f57a61,5f5c6e92ce878745de961ed2,2,,,,,,boot,,,,,,0,11,11,37,1,4,0,,,,,,,,,,,,,,,,,,,,,,,,,,,,,,,,,,,,,,,,,,,,,,,,,,,,,,,,,,,,,,,,,,,,,,,,,,,
,,,,,,,,,,stimuli/images/PICTURE_248.png,DOZEN,5f453c02fabd950dc8c1625c,o6/03/1945,2020-09-12_07h46.13.395,proactive3.2,2020.1.2,Linux aarch64,60,5f5adea66120081ea0f57a61,5f5c6e92ce878745de961ed2,2,,,,,,cart,,,,,,0,12,12,39,1,4,0,,,,,,,,,,,,,,,,,,,,,,,,,,,,,,,,,,,,,,,,,,,,,,,,,,,,,,,,,,,,,,,,,,,,,,,,,,,
,,,,,,,,,,stimuli/images/PICTURE_449.png,THING,5f453c02fabd950dc8c1625c,o6/03/1945,2020-09-12_07h46.13.395,proactive3.2,2020.1.2,Linux aarch64,60,5f5adea66120081ea0f57a61,5f5c6e92ce878745de961ed2,2,,,,,,bench,,,,,,0,13,13,59,1,6,0,,,,,,,,,,,,,,,,,,,,,,,,,,,,,,,,,,,,,,,,,,,,,,,,,,,,,,,,,,,,,,,,,,,,,,,,,,,
,,,,,,,,,,stimuli/images/PICTURE_203.png,ARTIST,5f453c02fabd950dc8c1625c,o6/03/1945,2020-09-12_07h46.13.395,proactive3.2,2020.1.2,Linux aarch64,60,5f5adea66120081ea0f57a61,5f5c6e92ce878745de961ed2,2,,,,,,cap,,,,,,0,14,14,26,1,3,0,,,,,,,,,,,,,,,,,,,,,,,,,,,,,,,,,,,,,,,,,,,,,,,,,,,,,,,,,,,,,,,,,,,,,,,,,,,
,,,,,,,,,,stimuli/images/PICTURE_667.png,BATH,5f453c02fabd950dc8c1625c,o6/03/1945,2020-09-12_07h46.13.395,proactive3.2,2020.1.2,Linux aarch64,60,5f5adea66120081ea0f57a61,5f5c6e92ce878745de961ed2,2,,,,,,daisy,,,,,,0,15,15,4,1,1,0,,,,,,,,,,,,,,,,,,,,,,,,,,,,,,,,,,,,,,,,,,,,,,,,,,,,,,,,,,,,,,,,,,,,,,,,,,,
,,,,,,,,,,stimuli/images/PICTURE_688.png,CASINO,5f453c02fabd950dc8c1625c,o6/03/1945,2020-09-12_07h46.13.395,proactive3.2,2020.1.2,Linux aarch64,60,5f5adea66120081ea0f57a61,5f5c6e92ce878745de961ed2,2,,,,,,runner,,,,,,0,16,16,2,1,1,0,,,,,,,,,,,,,,,,,,,,,,,,,,,,,,,,,,,,,,,,,,,,,,,,,,,,,,,,,,,,,,,,,,,,,,,,,,,
,,,,,,,,,,stimuli/images/PICTURE_744.png,SAKE,5f453c02fabd950dc8c1625c,o6/03/1945,2020-09-12_07h46.13.395,proactive3.2,2020.1.2,Linux aarch64,60,5f5adea66120081ea0f57a61,5f5c6e92ce878745de961ed2,2,,,,,,ring,,,,,,0,17,17,17,1,2,0,,,,,,,,,,,,,,,,,,,,,,,,,,,,,,,,,,,,,,,,,,,,,,,,,,,,,,,,,,,,,,,,,,,,,,,,,,,
,,,,,,,,,,stimuli/images/PICTURE_233.png,WOMEN,5f453c02fabd950dc8c1625c,o6/03/1945,2020-09-12_07h46.13.395,proactive3.2,2020.1.2,Linux aarch64,60,5f5adea66120081ea0f57a61,5f5c6e92ce878745de961ed2,2,,,,,,salt,,,,,,0,18,18,38,1,4,0,,,,,,,,,,,,,,,,,,,,,,,,,,,,,,,,,,,,,,,,,,,,,,,,,,,,,,,,,,,,,,,,,,,,,,,,,,,
,,,,,,,,,,stimuli/images/PICTURE_708.png,PENNY,5f453c02fabd950dc8c1625c,o6/03/1945,2020-09-12_07h46.13.395,proactive3.2,2020.1.2,Linux aarch64,60,5f5adea66120081ea0f57a61,5f5c6e92ce878745de961ed2,2,,,,,,monkey,,,,,,0,19,19,31,1,4,0,,,,,,,,,,,,,,,,,,,,,,,,,,,,,,,,,,,,,,,,,,,,,,,,,,,,,,,,,,,,,,,,,,,,,,,,,,,
,,,,,,,,,,stimuli/images/PICTURE_160.png,LEADER,5f453c02fabd950dc8c1625c,o6/03/1945,2020-09-12_07h46.13.395,proactive3.2,2020.1.2,Linux aarch64,60,5f5adea66120081ea0f57a61,5f5c6e92ce878745de961ed2,2,,,,,,wheelbarrow,,,,,,0,20,20,3,1,1,0,,,,,,,,,,,,,,,,,,,,,,,,,,,,,,,,,,,,,,,,,,,,,,,,,,,,,,,,,,,,,,,,,,,,,,,,,,,
,,,,,,,,,,stimuli/images/PICTURE_314.png,SAKE,5f453c02fabd950dc8c1625c,o6/03/1945,2020-09-12_07h46.13.395,proactive3.2,2020.1.2,Linux aarch64,60,5f5adea66120081ea0f57a61,5f5c6e92ce878745de961ed2,2,,,,,,perfume,,,,,,0,21,21,7,1,1,0,,,,,,,,,,,,,,,,,,,,,,,,,,,,,,,,,,,,,,,,,,,,,,,,,,,,,,,,,,,,,,,,,,,,,,,,,,,
,,,,,,,,,,stimuli/images/PICTURE_348.png,SPEECH,5f453c02fabd950dc8c1625c,o6/03/1945,2020-09-12_07h46.13.395,proactive3.2,2020.1.2,Linux aarch64,60,5f5adea66120081ea0f57a61,5f5c6e92ce878745de961ed2,2,,,,,,pepper,,,,,,0,22,22,20,1,3,0,,,,,,,,,,,,,,,,,,,,,,,,,,,,,,,,,,,,,,,,,,,,,,,,,,,,,,,,,,,,,,,,,,,,,,,,,,,
,,,,,,,,,,stimuli/images/PICTURE_311.png,FRIEND,5f453c02fabd950dc8c1625c,o6/03/1945,2020-09-12_07h46.13.395,proactive3.2,2020.1.2,Linux aarch64,60,5f5adea66120081ea0f57a61,5f5c6e92ce878745de961ed2,2,,,,,,razor,,,,,,0,23,23,34,1,4,0,,,,,,,,,,,,,,,,,,,,,,,,,,,,,,,,,,,,,,,,,,,,,,,,,,,,,,,,,,,,,,,,,,,,,,,,,,,
,,,,,,,,,,stimuli/images/PICTURE_255.png,AREA,5f453c02fabd950dc8c1625c,o6/03/1945,2020-09-12_07h46.13.395,proactive3.2,2020.1.2,Linux aarch64,60,5f5adea66120081ea0f57a61,5f5c6e92ce878745de961ed2,2,,,,,,shovel,,,,,,0,24,24,22,1,3,0,,,,,,,,,,,,,,,,,,,,,,,,,,,,,,,,,,,,,,,,,,,,,,,,,,,,,,,,,,,,,,,,,,,,,,,,,,,
,,,,,,,,,,stimuli/images/PICTURE_453.png,DUDE,5f453c02fabd950dc8c1625c,o6/03/1945,2020-09-12_07h46.13.395,proactive3.2,2020.1.2,Linux aarch64,60,5f5adea66120081ea0f57a61,5f5c6e92ce878745de961ed2,2,,,,,,scissors,,,,,,0,25,25,27,1,3,0,,,,,,,,,,,,,,,,,,,,,,,,,,,,,,,,,,,,,,,,,,,,,,,,,,,,,,,,,,,,,,,,,,,,,,,,,,,
,,,,,,,,,,stimuli/images/PICTURE_327.png,BEAUTY,5f453c02fabd950dc8c1625c,o6/03/1945,2020-09-12_07h46.13.395,proactive3.2,2020.1.2,Linux aarch64,60,5f5adea66120081ea0f57a61,5f5c6e92ce878745de961ed2,2,,,,,,helmet,,,,,,0,26,26,48,1,5,0,,,,,,,,,,,,,,,,,,,,,,,,,,,,,,,,,,,,,,,,,,,,,,,,,,,,,,,,,,,,,,,,,,,,,,,,,,,
,,,,,,,,,,stimuli/images/PICTURE_32.png,JUNGLE,5f453c02fabd950dc8c1625c,o6/03/1945,2020-09-12_07h46.13.395,proactive3.2,2020.1.2,Linux aarch64,60,5f5adea66120081ea0f57a61,5f5c6e92ce878745de961ed2,2,,,,,,crown,,,,,,0,27,27,45,1,5,0,,,,,,,,,,,,,,,,,,,,,,,,,,,,,,,,,,,,,,,,,,,,,,,,,,,,,,,,,,,,,,,,,,,,,,,,,,,
,,,,,,,,,,stimuli/images/PICTURE_208.png,LOTS,5f453c02fabd950dc8c1625c,o6/03/1945,2020-09-12_07h46.13.395,proactive3.2,2020.1.2,Linux aarch64,60,5f5adea66120081ea0f57a61,5f5c6e92ce878745de961ed2,2,,,,,,microphone,,,,,,0,28,28,10,1,2,0,,,,,,,,,,,,,,,,,,,,,,,,,,,,,,,,,,,,,,,,,,,,,,,,,,,,,,,,,,,,,,,,,,,,,,,,,,,
,,,,,,,,,,stimuli/images/PICTURE_488.png,STYLE,5f453c02fabd950dc8c1625c,o6/03/1945,2020-09-12_07h46.13.395,proactive3.2,2020.1.2,Linux aarch64,60,5f5adea66120081ea0f57a61,5f5c6e92ce878745de961ed2,2,,,,,,sun,,,,,,0,29,29,33,1,4,0,,,,,,,,,,,,,,,,,,,,,,,,,,,,,,,,,,,,,,,,,,,,,,,,,,,,,,,,,,,,,,,,,,,,,,,,,,,
,,,,,,,,,,stimuli/images/PICTURE_677.png,MILE,5f453c02fabd950dc8c1625c,o6/03/1945,2020-09-12_07h46.13.395,proactive3.2,2020.1.2,Linux aarch64,60,5f5adea66120081ea0f57a61,5f5c6e92ce878745de961ed2,2,,,,,,map,,,,,,0,30,30,30,1,4,0,,,,,,,,,,,,,,,,,,,,,,,,,,,,,,,,,,,,,,,,,,,,,,,,,,,,,,,,,,,,,,,,,,,,,,,,,,,
,,,,,,,,,,stimuli/images/PICTURE_339.png,PLENTY,5f453c02fabd950dc8c1625c,o6/03/1945,2020-09-12_07h46.13.395,proactive3.2,2020.1.2,Linux aarch64,60,5f5adea66120081ea0f57a61,5f5c6e92ce878745de961ed2,2,,,,,,backpack,,,,,,0,31,31,0,1,1,0,,,,,,,,,,,,,,,,,,,,,,,,,,,,,,,,,,,,,,,,,,,,,,,,,,,,,,,,,,,,,,,,,,,,,,,,,,,
,,,,,,,,,,stimuli/images/PICTURE_467.png,DEMON,5f453c02fabd950dc8c1625c,o6/03/1945,2020-09-12_07h46.13.395,proactive3.2,2020.1.2,Linux aarch64,60,5f5adea66120081ea0f57a61,5f5c6e92ce878745de961ed2,2,,,,,,peg,,,,,,0,32,32,23,1,3,0,,,,,,,,,,,,,,,,,,,,,,,,,,,,,,,,,,,,,,,,,,,,,,,,,,,,,,,,,,,,,,,,,,,,,,,,,,,
,,,,,,,,,,stimuli/images/PICTURE_160.png,FEET,5f453c02fabd950dc8c1625c,o6/03/1945,2020-09-12_07h46.13.395,proactive3.2,2020.1.2,Linux aarch64,60,5f5adea66120081ea0f57a61,5f5c6e92ce878745de961ed2,2,,,,,,wheelbarrow,,,,,,0,33,33,58,1,6,0,,,,,,,,,,,,,,,,,,,,,,,,,,,,,,,,,,,,,,,,,,,,,,,,,,,,,,,,,,,,,,,,,,,,,,,,,,,
,,,,,,,,,,stimuli/images/PICTURE_233.png,IDEAS,5f453c02fabd950dc8c1625c,o6/03/1945,2020-09-12_07h46.13.395,proactive3.2,2020.1.2,Linux aarch64,60,5f5adea66120081ea0f57a61,5f5c6e92ce878745de961ed2,2,,,,,,salt,,,,,,0,34,34,28,1,3,0,,,,,,,,,,,,,,,,,,,,,,,,,,,,,,,,,,,,,,,,,,,,,,,,,,,,,,,,,,,,,,,,,,,,,,,,,,,
,,,,,,,,,,stimuli/images/PICTURE_147.png,MOMENT,5f453c02fabd950dc8c1625c,o6/03/1945,2020-09-12_07h46.13.395,proactive3.2,2020.1.2,Linux aarch64,60,5f5adea66120081ea0f57a61,5f5c6e92ce878745de961ed2,2,,,,,,hanger,,,,,,0,35,35,51,1,6,0,,,,,,,,,,,,,,,,,,,,,,,,,,,,,,,,,,,,,,,,,,,,,,,,,,,,,,,,,,,,,,,,,,,,,,,,,,,
,,,,,,,,,,stimuli/images/PICTURE_509.png,PHOTO,5f453c02fabd950dc8c1625c,o6/03/1945,2020-09-12_07h46.13.395,proactive3.2,2020.1.2,Linux aarch64,60,5f5adea66120081ea0f57a61,5f5c6e92ce878745de961ed2,2,,,,,,telephone,,,,,,0,36,36,21,1,3,0,,,,,,,,,,,,,,,,,,,,,,,,,,,,,,,,,,,,,,,,,,,,,,,,,,,,,,,,,,,,,,,,,,,,,,,,,,,
,,,,,,,,,,stimuli/images/PICTURE_308.png,KIND,5f453c02fabd950dc8c1625c,o6/03/1945,2020-09-12_07h46.13.395,proactive3.2,2020.1.2,Linux aarch64,60,5f5adea66120081ea0f57a61,5f5c6e92ce878745de961ed2,2,,,,,,dice,,,,,,0,37,37,54,1,6,0,,,,,,,,,,,,,,,,,,,,,,,,,,,,,,,,,,,,,,,,,,,,,,,,,,,,,,,,,,,,,,,,,,,,,,,,,,,
,,,,,,,,,,stimuli/images/PICTURE_285.png,ADVICE,5f453c02fabd950dc8c1625c,o6/03/1945,2020-09-12_07h46.13.395,proactive3.2,2020.1.2,Linux aarch64,60,5f5adea66120081ea0f57a61,5f5c6e92ce878745de961ed2,2,,,,,,carrot,,,,,,0,38,38,12,1,2,0,,,,,,,,,,,,,,,,,,,,,,,,,,,,,,,,,,,,,,,,,,,,,,,,,,,,,,,,,,,,,,,,,,,,,,,,,,,
,,,,,,,,,,stimuli/images/PICTURE_380.png,PHOTO,5f453c02fabd950dc8c1625c,o6/03/1945,2020-09-12_07h46.13.395,proactive3.2,2020.1.2,Linux aarch64,60,5f5adea66120081ea0f57a61,5f5c6e92ce878745de961ed2,2,,,,,,gorilla,,,,,,0,39,39,52,1,6,0,,,,,,,,,,,,,,,,,,,,,,,,,,,,,,,,,,,,,,,,,,,,,,,,,,,,,,,,,,,,,,,,,,,,,,,,,,,
,,,,,,,,,,stimuli/images/PICTURE_380.png,DEATH,5f453c02fabd950dc8c1625c,o6/03/1945,2020-09-12_07h46.13.395,proactive3.2,2020.1.2,Linux aarch64,60,5f5adea66120081ea0f57a61,5f5c6e92ce878745de961ed2,2,,,,,,gorilla,,,,,,0,40,40,49,1,5,0,,,,,,,,,,,,,,,,,,,,,,,,,,,,,,,,,,,,,,,,,,,,,,,,,,,,,,,,,,,,,,,,,,,,,,,,,,,
,,,,,,,,,,stimuli/images/PICTURE_208.png,MONTH,5f453c02fabd950dc8c1625c,o6/03/1945,2020-09-12_07h46.13.395,proactive3.2,2020.1.2,Linux aarch64,60,5f5adea66120081ea0f57a61,5f5c6e92ce878745de961ed2,2,,,,,,microphone,,,,,,0,41,41,53,1,6,0,,,,,,,,,,,,,,,,,,,,,,,,,,,,,,,,,,,,,,,,,,,,,,,,,,,,,,,,,,,,,,,,,,,,,,,,,,,
,,,,,,,,,,stimuli/images/PICTURE_744.png,SYSTEM,5f453c02fabd950dc8c1625c,o6/03/1945,2020-09-12_07h46.13.395,proactive3.2,2020.1.2,Linux aarch64,60,5f5adea66120081ea0f57a61,5f5c6e92ce878745de961ed2,2,,,,,,ring,,,,,,0,42,42,43,1,5,0,,,,,,,,,,,,,,,,,,,,,,,,,,,,,,,,,,,,,,,,,,,,,,,,,,,,,,,,,,,,,,,,,,,,,,,,,,,
,,,,,,,,,,stimuli/images/PICTURE_692.png,MONTH,5f453c02fabd950dc8c1625c,o6/03/1945,2020-09-12_07h46.13.395,proactive3.2,2020.1.2,Linux aarch64,60,5f5adea66120081ea0f57a61,5f5c6e92ce878745de961ed2,2,,,,,,cherry,,,,,,0,43,43,16,1,2,0,,,,,,,,,,,,,,,,,,,,,,,,,,,,,,,,,,,,,,,,,,,,,,,,,,,,,,,,,,,,,,,,,,,,,,,,,,,
,,,,,,,,,,stimuli/images/PICTURE_708.png,YARD,5f453c02fabd950dc8c1625c,o6/03/1945,2020-09-12_07h46.13.395,proactive3.2,2020.1.2,Linux aarch64,60,5f5adea66120081ea0f57a61,5f5c6e92ce878745de961ed2,2,,,,,,monkey,,,,,,0,44,44,29,1,3,0,,,,,,,,,,,,,,,,,,,,,,,,,,,,,,,,,,,,,,,,,,,,,,,,,,,,,,,,,,,,,,,,,,,,,,,,,,,
,,,,,,,,,,stimuli/images/PICTURE_208.png,THING,5f453c02fabd950dc8c1625c,o6/03/1945,2020-09-12_07h46.13.395,proactive3.2,2020.1.2,Linux aarch64,60,5f5adea66120081ea0f57a61,5f5c6e92ce878745de961ed2,2,,,,,,microphone,,,,,,0,45,45,47,1,5,0,,,,,,,,,,,,,,,,,,,,,,,,,,,,,,,,,,,,,,,,,,,,,,,,,,,,,,,,,,,,,,,,,,,,,,,,,,,
,,,,,,,,,,stimuli/images/PICTURE_95.png,STYLE,5f453c02fabd950dc8c1625c,o6/03/1945,2020-09-12_07h46.13.395,proactive3.2,2020.1.2,Linux aarch64,60,5f5adea66120081ea0f57a61,5f5c6e92ce878745de961ed2,2,,,,,,suitcase,,,,,,0,46,46,25,1,3,0,,,,,,,,,,,,,,,,,,,,,,,,,,,,,,,,,,,,,,,,,,,,,,,,,,,,,,,,,,,,,,,,,,,,,,,,,,,
,,,,,,,,,,stimuli/images/PICTURE_469.png,LETTER,5f453c02fabd950dc8c1625c,o6/03/1945,2020-09-12_07h46.13.395,proactive3.2,2020.1.2,Linux aarch64,60,5f5adea66120081ea0f57a61,5f5c6e92ce878745de961ed2,2,,,,,,stool,,,,,,0,47,47,42,1,5,0,,,,,,,,,,,,,,,,,,,,,,,,,,,,,,,,,,,,,,,,,,,,,,,,,,,,,,,,,,,,,,,,,,,,,,,,,,,
,,,,,,,,,,stimuli/images/PICTURE_688.png,WOMEN,5f453c02fabd950dc8c1625c,o6/03/1945,2020-09-12_07h46.13.395,proactive3.2,2020.1.2,Linux aarch64,60,5f5adea66120081ea0f57a61,5f5c6e92ce878745de961ed2,2,,,,,,runner,,,,,,0,48,48,14,1,2,0,,,,,,,,,,,,,,,,,,,,,,,,,,,,,,,,,,,,,,,,,,,,,,,,,,,,,,,,,,,,,,,,,,,,,,,,,,,
,,,,,,,,,,stimuli/images/PICTURE_123.png,ADVICE,5f453c02fabd950dc8c1625c,o6/03/1945,2020-09-12_07h46.13.395,proactive3.2,2020.1.2,Linux aarch64,60,5f5adea66120081ea0f57a61,5f5c6e92ce878745de961ed2,2,,,,,,dart,,,,,,0,49,49,40,1,5,0,,,,,,,,,,,,,,,,,,,,,,,,,,,,,,,,,,,,,,,,,,,,,,,,,,,,,,,,,,,,,,,,,,,,,,,,,,,
,,,,,,,,,,stimuli/images/PICTURE_314.png,GODS,5f453c02fabd950dc8c1625c,o6/03/1945,2020-09-12_07h46.13.395,proactive3.2,2020.1.2,Linux aarch64,60,5f5adea66120081ea0f57a61,5f5c6e92ce878745de961ed2,2,,,,,,perfume,,,,,,0,50,50,11,1,2,0,,,,,,,,,,,,,,,,,,,,,,,,,,,,,,,,,,,,,,,,,,,,,,,,,,,,,,,,,,,,,,,,,,,,,,,,,,,
,,,,,,,,,,stimuli/images/PICTURE_356.png,DANGER,5f453c02fabd950dc8c1625c,o6/03/1945,2020-09-12_07h46.13.395,proactive3.2,2020.1.2,Linux aarch64,60,5f5adea66120081ea0f57a61,5f5c6e92ce878745de961ed2,2,,,,,,pawn,,,,,,0,51,51,55,1,6,0,,,,,,,,,,,,,,,,,,,,,,,,,,,,,,,,,,,,,,,,,,,,,,,,,,,,,,,,,,,,,,,,,,,,,,,,,,,
,,,,,,,,,,stimuli/images/PICTURE_491.png,WRITER,5f453c02fabd950dc8c1625c,o6/03/1945,2020-09-12_07h46.13.395,proactive3.2,2020.1.2,Linux aarch64,60,5f5adea66120081ea0f57a61,5f5c6e92ce878745de961ed2,2,,,,,,rug,,,,,,0,52,52,57,1,6,0,,,,,,,,,,,,,,,,,,,,,,,,,,,,,,,,,,,,,,,,,,,,,,,,,,,,,,,,,,,,,,,,,,,,,,,,,,,
,,,,,,,,,,stimuli/images/PICTURE_151.png,GIRL,5f453c02fabd950dc8c1625c,o6/03/1945,2020-09-12_07h46.13.395,proactive3.2,2020.1.2,Linux aarch64,60,5f5adea66120081ea0f57a61,5f5c6e92ce878745de961ed2,2,,,,,,tray,,,,,,0,53,53,19,1,2,0,,,,,,,,,,,,,,,,,,,,,,,,,,,,,,,,,,,,,,,,,,,,,,,,,,,,,,,,,,,,,,,,,,,,,,,,,,,
,,,,,,,,,,stimuli/images/PICTURE_177.png,CARS,5f453c02fabd950dc8c1625c,o6/03/1945,2020-09-12_07h46.13.395,proactive3.2,2020.1.2,Linux aarch64,60,5f5adea66120081ea0f57a61,5f5c6e92ce878745de961ed2,2,,,,,,mushroom,,,,,,0,54,54,35,1,4,0,,,,,,,,,,,,,,,,,,,,,,,,,,,,,,,,,,,,,,,,,,,,,,,,,,,,,,,,,,,,,,,,,,,,,,,,,,,
,,,,,,,,,,stimuli/images/PICTURE_302.png,FAMILY,5f453c02fabd950dc8c1625c,o6/03/1945,2020-09-12_07h46.13.395,proactive3.2,2020.1.2,Linux aarch64,60,5f5adea66120081ea0f57a61,5f5c6e92ce878745de961ed2,2,,,,,,taxi,,,,,,0,55,55,18,1,2,0,,,,,,,,,,,,,,,,,,,,,,,,,,,,,,,,,,,,,,,,,,,,,,,,,,,,,,,,,,,,,,,,,,,,,,,,,,,
,,,,,,,,,,stimuli/images/PICTURE_675.png,WEAPON,5f453c02fabd950dc8c1625c,o6/03/1945,2020-09-12_07h46.13.395,proactive3.2,2020.1.2,Linux aarch64,60,5f5adea66120081ea0f57a61,5f5c6e92ce878745de961ed2,2,,,,,,windmill,,,,,,0,56,56,32,1,4,0,,,,,,,,,,,,,,,,,,,,,,,,,,,,,,,,,,,,,,,,,,,,,,,,,,,,,,,,,,,,,,,,,,,,,,,,,,,
,,,,,,,,,,stimuli/images/PICTURE_123.png,ADVICE,5f453c02fabd950dc8c1625c,o6/03/1945,2020-09-12_07h46.13.395,proactive3.2,2020.1.2,Linux aarch64,60,5f5adea66120081ea0f57a61,5f5c6e92ce878745de961ed2,2,,,,,,dart,,,,,,0,57,57,50,1,6,0,,,,,,,,,,,,,,,,,,,,,,,,,,,,,,,,,,,,,,,,,,,,,,,,,,,,,,,,,,,,,,,,,,,,,,,,,,,
,,,,,,,,,,stimuli/images/PICTURE_667.png,PLENTY,5f453c02fabd950dc8c1625c,o6/03/1945,2020-09-12_07h46.13.395,proactive3.2,2020.1.2,Linux aarch64,60,5f5adea66120081ea0f57a61,5f5c6e92ce878745de961ed2,2,,,,,,daisy,,,,,,0,58,58,41,1,5,0,,,,,,,,,,,,,,,,,,,,,,,,,,,,,,,,,,,,,,,,,,,,,,,,,,,,,,,,,,,,,,,,,,,,,,,,,,,
,,?,0.001705,0,,,,,,stimuli/images/PICTURE_470.png,CASINO,5f453c02fabd950dc8c1625c,o6/03/1945,2020-09-12_07h46.13.395,proactive3.2,2020.1.2,Linux aarch64,60,5f5adea66120081ea0f57a61,5f5c6e92ce878745de961ed2,2,,,,,,motorbike,,,,,,,,,,,4,0,0,0,0,36,1,,,,,,,,,,,,,,,,,,,,,,,,,,,,,,,,,,,,,,,,,,,,,,,,,,,,,,,,,,,,,,,,,,,,,,
,,?,0.00131,0,,,,,,stimuli/images/PICTURE_203.png,ARTIST,5f453c02fabd950dc8c1625c,o6/03/1945,2020-09-12_07h46.13.395,proactive3.2,2020.1.2,Linux aarch64,60,5f5adea66120081ea0f57a61,5f5c6e92ce878745de961ed2,2,,,,,,cap,,,,,,,,,,,3,0,0,1,1,26,1,,,,,,,,,,,,,,,,,,,,,,,,,,,,,,,,,,,,,,,,,,,,,,,,,,,,,,,,,,,,,,,,,,,,,,
,,?,0.00132,0,,,,,,stimuli/images/PICTURE_208.png,MONTH,5f453c02fabd950dc8c1625c,o6/03/1945,2020-09-12_07h46.13.395,proactive3.2,2020.1.2,Linux aarch64,60,5f5adea66120081ea0f57a61,5f5c6e92ce878745de961ed2,2,,,,,,microphone,,,,,,,,,,,6,0,0,2,2,53,1,,,,,,,,,,,,,,,,,,,,,,,,,,,,,,,,,,,,,,,,,,,,,,,,,,,,,,,,,,,,,,,,,,,,,,
,,?,0.00119,0,,,,,,stimuli/images/PICTURE_311.png,FRIEND,5f453c02fabd950dc8c1625c,o6/03/1945,2020-09-12_07h46.13.395,proactive3.2,2020.1.2,Linux aarch64,60,5f5adea66120081ea0f57a61,5f5c6e92ce878745de961ed2,2,,,,,,razor,,,,,,,,,,,4,0,0,3,3,34,1,,,,,,,,,,,,,,,,,,,,,,,,,,,,,,,,,,,,,,,,,,,,,,,,,,,,,,,,,,,,,,,,,,,,,,
,,?,0.00122,0,,,,,,stimuli/images/PICTURE_308.png,KIND,5f453c02fabd950dc8c1625c,o6/03/1945,2020-09-12_07h46.13.395,proactive3.2,2020.1.2,Linux aarch64,60,5f5adea66120081ea0f57a61,5f5c6e92ce878745de961ed2,2,,,,,,dice,,,,,,,,,,,6,0,0,4,4,54,1,,,,,,,,,,,,,,,,,,,,,,,,,,,,,,,,,,,,,,,,,,,,,,,,,,,,,,,,,,,,,,,,,,,,,,
,,?,0.013375,0,,,,,,stimuli/images/PICTURE_208.png,THING,5f453c02fabd950dc8c1625c,o6/03/1945,2020-09-12_07h46.13.395,proactive3.2,2020.1.2,Linux aarch64,60,5f5adea66120081ea0f57a61,5f5c6e92ce878745de961ed2,2,,,,,,microphone,,,,,,,,,,,5,0,0,5,5,47,1,,,,,,,,,,,,,,,,,,,,,,,,,,,,,,,,,,,,,,,,,,,,,,,,,,,,,,,,,,,,,,,,,,,,,,
,,MONTH,5.74687,1,,,,,,stimuli/images/PICTURE_692.png,MONTH,5f453c02fabd950dc8c1625c,o6/03/1945,2020-09-12_07h46.13.395,proactive3.2,2020.1.2,Linux aarch64,60,5f5adea66120081ea0f57a61,5f5c6e92ce878745de961ed2,2,,,,,,cherry,,,,,,,,,,,2,0,0,6,6,16,1,,,,,,,,,,,,,,,,,,,,,,,,,,,,,,,,,,,,,,,,,,,,,,,,,,,,,,,,,,,,,,,,,,,,,,
,,?,0.0048,0,,,,,,stimuli/images/PICTURE_708.png,CLIENT,5f453c02fabd950dc8c1625c,o6/03/1945,2020-09-12_07h46.13.395,proactive3.2,2020.1.2,Linux aarch64,60,5f5adea66120081ea0f57a61,5f5c6e92ce878745de961ed2,2,,,,,,monkey,,,,,,,,,,,1,0,0,7,7,5,1,,,,,,,,,,,,,,,,,,,,,,,,,,,,,,,,,,,,,,,,,,,,,,,,,,,,,,,,,,,,,,,,,,,,,,
,,?,0.00406,0,,,,,,stimuli/images/PICTURE_453.png,PLENTY,5f453c02fabd950dc8c1625c,o6/03/1945,2020-09-12_07h46.13.395,proactive3.2,2020.1.2,Linux aarch64,60,5f5adea66120081ea0f57a61,5f5c6e92ce878745de961ed2,2,,,,,,scissors,,,,,,,,,,,6,0,0,8,8,56,1,,,,,,,,,,,,,,,,,,,,,,,,,,,,,,,,,,,,,,,,,,,,,,,,,,,,,,,,,,,,,,,,,,,,,,
,,?,0.003575,0,,,,,,stimuli/images/PICTURE_308.png,ESTATE,5f453c02fabd950dc8c1625c,o6/03/1945,2020-09-12_07h46.13.395,proactive3.2,2020.1.2,Linux aarch64,60,5f5adea66120081ea0f57a61,5f5c6e92ce878745de961ed2,2,,,,,,dice,,,,,,,,,,,5,0,0,9,9,46,1,,,,,,,,,,,,,,,,,,,,,,,,,,,,,,,,,,,,,,,,,,,,,,,,,,,,,,,,,,,,,,,,,,,,,,
,,?,0.006395,0,,,,,,stimuli/images/PICTURE_467.png,DEMON,5f453c02fabd950dc8c1625c,o6/03/1945,2020-09-12_07h46.13.395,proactive3.2,2020.1.2,Linux aarch64,60,5f5adea66120081ea0f57a61,5f5c6e92ce878745de961ed2,2,,,,,,peg,,,,,,,,,,,3,0,0,10,10,23,1,,,,,,,,,,,,,,,,,,,,,,,,,,,,,,,,,,,,,,,,,,,,,,,,,,,,,,,,,,,,,,,,,,,,,,
,,?,0.001975,0,,,,,,stimuli/images/PICTURE_708.png,YARD,5f453c02fabd950dc8c1625c,o6/03/1945,2020-09-12_07h46.13.395,proactive3.2,2020.1.2,Linux aarch64,60,5f5adea66120081ea0f57a61,5f5c6e92ce878745de961ed2,2,,,,,,monkey,,,,,,,,,,,3,0,0,11,11,29,1,,,,,,,,,,,,,,,,,,,,,,,,,,,,,,,,,,,,,,,,,,,,,,,,,,,,,,,,,,,,,,,,,,,,,,
,,MONEY,7.500675,0,,,,,,stimuli/images/PICTURE_85.png,THING,5f453c02fabd950dc8c1625c,o6/03/1945,2020-09-12_07h46.13.395,proactive3.2,2020.1.2,Linux aarch64,60,5f5adea66120081ea0f57a61,5f5c6e92ce878745de961ed2,2,,,,,,diamond,,,,,,,,,,,2,0,0,12,12,15,1,,,,,,,,,,,,,,,,,,,,,,,,,,,,,,,,,,,,,,,,,,,,,,,,,,,,,,,,,,,,,,,,,,,,,,
,,?,0.00313,0,,,,,,stimuli/images/PICTURE_487.png,FLIGHT,5f453c02fabd950dc8c1625c,o6/03/1945,2020-09-12_07h46.13.395,proactive3.2,2020.1.2,Linux aarch64,60,5f5adea66120081ea0f57a61,5f5c6e92ce878745de961ed2,2,,,,,,basket,,,,,,,,,,,1,0,0,13,13,9,1,,,,,,,,,,,,,,,,,,,,,,,,,,,,,,,,,,,,,,,,,,,,,,,,,,,,,,,,,,,,,,,,,,,,,,
,,?,0.010075,0,,,,,,stimuli/images/PICTURE_255.png,AREA,5f453c02fabd950dc8c1625c,o6/03/1945,2020-09-12_07h46.13.395,proactive3.2,2020.1.2,Linux aarch64,60,5f5adea66120081ea0f57a61,5f5c6e92ce878745de961ed2,2,,,,,,shovel,,,,,,,,,,,3,0,0,14,14,22,1,,,,,,,,,,,,,,,,,,,,,,,,,,,,,,,,,,,,,,,,,,,,,,,,,,,,,,,,,,,,,,,,,,,,,,
,,?,0.00453,0,,,,,,stimuli/images/PICTURE_32.png,JUNGLE,5f453c02fabd950dc8c1625c,o6/03/1945,2020-09-12_07h46.13.395,proactive3.2,2020.1.2,Linux aarch64,60,5f5adea66120081ea0f57a61,5f5c6e92ce878745de961ed2,2,,,,,,crown,,,,,,,,,,,5,0,0,15,15,45,1,,,,,,,,,,,,,,,,,,,,,,,,,,,,,,,,,,,,,,,,,,,,,,,,,,,,,,,,,,,,,,,,,,,,,,
,,?,0.001835,0,,,,,,stimuli/images/PICTURE_160.png,LEADER,5f453c02fabd950dc8c1625c,o6/03/1945,2020-09-12_07h46.13.395,proactive3.2,2020.1.2,Linux aarch64,60,5f5adea66120081ea0f57a61,5f5c6e92ce878745de961ed2,2,,,,,,wheelbarrow,,,,,,,,,,,1,0,0,16,16,3,1,,,,,,,,,,,,,,,,,,,,,,,,,,,,,,,,,,,,,,,,,,,,,,,,,,,,,,,,,,,,,,,,,,,,,,
,,?,0.001755,0,,,,,,stimuli/images/PICTURE_95.png,STYLE,5f453c02fabd950dc8c1625c,o6/03/1945,2020-09-12_07h46.13.395,proactive3.2,2020.1.2,Linux aarch64,60,5f5adea66120081ea0f57a61,5f5c6e92ce878745de961ed2,2,,,,,,suitcase,,,,,,,,,,,3,0,0,17,17,25,1,,,,,,,,,,,,,,,,,,,,,,,,,,,,,,,,,,,,,,,,,,,,,,,,,,,,,,,,,,,,,,,,,,,,,,
,,?,0.00172,0,,,,,,stimuli/images/PICTURE_675.png,WEAPON,5f453c02fabd950dc8c1625c,o6/03/1945,2020-09-12_07h46.13.395,proactive3.2,2020.1.2,Linux aarch64,60,5f5adea66120081ea0f57a61,5f5c6e92ce878745de961ed2,2,,,,,,windmill,,,,,,,,,,,4,0,0,18,18,32,1,,,,,,,,,,,,,,,,,,,,,,,,,,,,,,,,,,,,,,,,,,,,,,,,,,,,,,,,,,,,,,,,,,,,,,
,,?,0.001825,0,,,,,,stimuli/images/PICTURE_233.png,IDEAS,5f453c02fabd950dc8c1625c,o6/03/1945,2020-09-12_07h46.13.395,proactive3.2,2020.1.2,Linux aarch64,60,5f5adea66120081ea0f57a61,5f5c6e92ce878745de961ed2,2,,,,,,salt,,,,,,,,,,,3,0,0,19,19,28,1,,,,,,,,,,,,,,,,,,,,,,,,,,,,,,,,,,,,,,,,,,,,,,,,,,,,,,,,,,,,,,,,,,,,,,
,,?,0.001475,0,,,,,,stimuli/images/PICTURE_449.png,THING,5f453c02fabd950dc8c1625c,o6/03/1945,2020-09-12_07h46.13.395,proactive3.2,2020.1.2,Linux aarch64,60,5f5adea66120081ea0f57a61,5f5c6e92ce878745de961ed2,2,,,,,,bench,,,,,,,,,,,6,0,0,20,20,59,1,,,,,,,,,,,,,,,,,,,,,,,,,,,,,,,,,,,,,,,,,,,,,,,,,,,,,,,,,,,,,,,,,,,,,,
,,?,0.00175,0,,,,,,stimuli/images/PICTURE_339.png,PLENTY,5f453c02fabd950dc8c1625c,o6/03/1945,2020-09-12_07h46.13.395,proactive3.2,2020.1.2,Linux aarch64,60,5f5adea66120081ea0f57a61,5f5c6e92ce878745de961ed2,2,,,,,,backpack,,,,,,,,,,,1,0,0,21,21,0,1,,,,,,,,,,,,,,,,,,,,,,,,,,,,,,,,,,,,,,,,,,,,,,,,,,,,,,,,,,,,,,,,,,,,,,
,,?,0.00149,0,,,,,,stimuli/images/PICTURE_453.png,DUDE,5f453c02fabd950dc8c1625c,o6/03/1945,2020-09-12_07h46.13.395,proactive3.2,2020.1.2,Linux aarch64,60,5f5adea66120081ea0f57a61,5f5c6e92ce878745de961ed2,2,,,,,,scissors,,,,,,,,,,,3,0,0,22,22,27,1,,,,,,,,,,,,,,,,,,,,,,,,,,,,,,,,,,,,,,,,,,,,,,,,,,,,,,,,,,,,,,,,,,,,,,
,,?,0.00172,0,,,,,,stimuli/images/PICTURE_123.png,ADVICE,5f453c02fabd950dc8c1625c,o6/03/1945,2020-09-12_07h46.13.395,proactive3.2,2020.1.2,Linux aarch64,60,5f5adea66120081ea0f57a61,5f5c6e92ce878745de961ed2,2,,,,,,dart,,,,,,,,,,,5,0,0,23,23,40,1,,,,,,,,,,,,,,,,,,,,,,,,,,,,,,,,,,,,,,,,,,,,,,,,,,,,,,,,,,,,,,,,,,,,,,
,,WOMEN,3.57626,1,,,,,,stimuli/images/PICTURE_688.png,WOMEN,5f453c02fabd950dc8c1625c,o6/03/1945,2020-09-12_07h46.13.395,proactive3.2,2020.1.2,Linux aarch64,60,5f5adea66120081ea0f57a61,5f5c6e92ce878745de961ed2,2,,,,,,runner,,,,,,,,,,,2,0,0,24,24,14,1,,,,,,,,,,,,,,,,,,,,,,,,,,,,,,,,,,,,,,,,,,,,,,,,,,,,,,,,,,,,,,,,,,,,,,
,,?,0.004655,0,,,,,,stimuli/images/PICTURE_488.png,STYLE,5f453c02fabd950dc8c1625c,o6/03/1945,2020-09-12_07h46.13.395,proactive3.2,2020.1.2,Linux aarch64,60,5f5adea66120081ea0f57a61,5f5c6e92ce878745de961ed2,2,,,,,,sun,,,,,,,,,,,4,0,0,25,25,33,1,,,,,,,,,,,,,,,,,,,,,,,,,,,,,,,,,,,,,,,,,,,,,,,,,,,,,,,,,,,,,,,,,,,,,,
,,?,0.003285,0,,,,,,stimuli/images/PICTURE_215.png,PLENTY,5f453c02fabd950dc8c1625c,o6/03/1945,2020-09-12_07h46.13.395,proactive3.2,2020.1.2,Linux aarch64,60,5f5adea66120081ea0f57a61,5f5c6e92ce878745de961ed2,2,,,,,,boot,,,,,,,,,,,4,0,0,26,26,37,1,,,,,,,,,,,,,,,,,,,,,,,,,,,,,,,,,,,,,,,,,,,,,,,,,,,,,,,,,,,,,,,,,,,,,,
,,?,0.004155,0,,,,,,stimuli/images/PICTURE_504.png,BODY,5f453c02fabd950dc8c1625c,o6/03/1945,2020-09-12_07h46.13.395,proactive3.2,2020.1.2,Linux aarch64,60,5f5adea66120081ea0f57a61,5f5c6e92ce878745de961ed2,2,,,,,,wheel,,,,,,,,,,,1,0,0,27,27,8,1,,,,,,,,,,,,,,,,,,,,,,,,,,,,,,,,,,,,,,,,,,,,,,,,,,,,,,,,,,,,,,,,,,,,,,
,,?,0.003935,0,,,,,,stimuli/images/PICTURE_509.png,PHOTO,5f453c02fabd950dc8c1625c,o6/03/1945,2020-09-12_07h46.13.395,proactive3.2,2020.1.2,Linux aarch64,60,5f5adea66120081ea0f57a61,5f5c6e92ce878745de961ed2,2,,,,,,telephone,,,,,,,,,,,3,0,0,28,28,21,1,,,,,,,,,,,,,,,,,,,,,,,,,,,,,,,,,,,,,,,,,,,,,,,,,,,,,,,,,,,,,,,,,,,,,,
,,?,0.00217,0,,,,,,stimuli/images/PICTURE_160.png,FEET,5f453c02fabd950dc8c1625c,o6/03/1945,2020-09-12_07h46.13.395,proactive3.2,2020.1.2,Linux aarch64,60,5f5adea66120081ea0f57a61,5f5c6e92ce878745de961ed2,2,,,,,,wheelbarrow,,,,,,,,,,,6,0,0,29,29,58,1,,,,,,,,,,,,,,,,,,,,,,,,,,,,,,,,,,,,,,,,,,,,,,,,,,,,,,,,,,,,,,,,,,,,,,
,,WORK,12.07207,0,,,,,,stimuli/images/PICTURE_311.png,BEAUTY,5f453c02fabd950dc8c1625c,o6/03/1945,2020-09-12_07h46.13.395,proactive3.2,2020.1.2,Linux aarch64,60,5f5adea66120081ea0f57a61,5f5c6e92ce878745de961ed2,2,,,,,,razor,,,,,,,,,,,2,0,0,30,30,13,1,,,,,,,,,,,,,,,,,,,,,,,,,,,,,,,,,,,,,,,,,,,,,,,,,,,,,,,,,,,,,,,,,,,,,,
,,?,0.00434,0,,,,,,stimuli/images/PICTURE_177.png,CARS,5f453c02fabd950dc8c1625c,o6/03/1945,2020-09-12_07h46.13.395,proactive3.2,2020.1.2,Linux aarch64,60,5f5adea66120081ea0f57a61,5f5c6e92ce878745de961ed2,2,,,,,,mushroom,,,,,,,,,,,4,0,0,31,31,35,1,,,,,,,,,,,,,,,,,,,,,,,,,,,,,,,,,,,,,,,,,,,,,,,,,,,,,,,,,,,,,,,,,,,,,,
,,?,0.00324,0,,,,,,stimuli/images/PICTURE_380.png,PHOTO,5f453c02fabd950dc8c1625c,o6/03/1945,2020-09-12_07h46.13.395,proactive3.2,2020.1.2,Linux aarch64,60,5f5adea66120081ea0f57a61,5f5c6e92ce878745de961ed2,2,,,,,,gorilla,,,,,,,,,,,6,0,0,32,32,52,1,,,,,,,,,,,,,,,,,,,,,,,,,,,,,,,,,,,,,,,,,,,,,,,,,,,,,,,,,,,,,,,,,,,,,,
,,?,0.003685,0,,,,,,stimuli/images/PICTURE_314.png,SAKE,5f453c02fabd950dc8c1625c,o6/03/1945,2020-09-12_07h46.13.395,proactive3.2,2020.1.2,Linux aarch64,60,5f5adea66120081ea0f57a61,5f5c6e92ce878745de961ed2,2,,,,,,perfume,,,,,,,,,,,1,0,0,33,33,7,1,,,,,,,,,,,,,,,,,,,,,,,,,,,,,,,,,,,,,,,,,,,,,,,,,,,,,,,,,,,,,,,,,,,,,,
,,?,0.003435,0,,,,,,stimuli/images/PICTURE_380.png,DEATH,5f453c02fabd950dc8c1625c,o6/03/1945,2020-09-12_07h46.13.395,proactive3.2,2020.1.2,Linux aarch64,60,5f5adea66120081ea0f57a61,5f5c6e92ce878745de961ed2,2,,,,,,gorilla,,,,,,,,,,,5,0,0,34,34,49,1,,,,,,,,,,,,,,,,,,,,,,,,,,,,,,,,,,,,,,,,,,,,,,,,,,,,,,,,,,,,,,,,,,,,,,
,,?,0.005065,0,,,,,,stimuli/images/PICTURE_654.png,VALLEY,5f453c02fabd950dc8c1625c,o6/03/1945,2020-09-12_07h46.13.395,proactive3.2,2020.1.2,Linux aarch64,60,5f5adea66120081ea0f57a61,5f5c6e92ce878745de961ed2,2,,,,,,pencil,,,,,,,,,,,1,0,0,35,35,1,1,,,,,,,,,,,,,,,,,,,,,,,,,,,,,,,,,,,,,,,,,,,,,,,,,,,,,,,,,,,,,,,,,,,,,,
,,?,0.00155,0,,,,,,stimuli/images/PICTURE_248.png,DOZEN,5f453c02fabd950dc8c1625c,o6/03/1945,2020-09-12_07h46.13.395,proactive3.2,2020.1.2,Linux aarch64,60,5f5adea66120081ea0f57a61,5f5c6e92ce878745de961ed2,2,,,,,,cart,,,,,,,,,,,4,0,0,36,36,39,1,,,,,,,,,,,,,,,,,,,,,,,,,,,,,,,,,,,,,,,,,,,,,,,,,,,,,,,,,,,,,,,,,,,,,,
,,FAMILY,5.27154,1,,,,,,stimuli/images/PICTURE_302.png,FAMILY,5f453c02fabd950dc8c1625c,o6/03/1945,2020-09-12_07h46.13.395,proactive3.2,2020.1.2,Linux aarch64,60,5f5adea66120081ea0f57a61,5f5c6e92ce878745de961ed2,2,,,,,,taxi,,,,,,,,,,,2,0,0,37,37,18,1,,,,,,,,,,,,,,,,,,,,,,,,,,,,,,,,,,,,,,,,,,,,,,,,,,,,,,,,,,,,,,,,,,,,,,
,,?,0.00333,0,,,,,,stimuli/images/PICTURE_491.png,ROOF,5f453c02fabd950dc8c1625c,o6/03/1945,2020-09-12_07h46.13.395,proactive3.2,2020.1.2,Linux aarch64,60,5f5adea66120081ea0f57a61,5f5c6e92ce878745de961ed2,2,,,,,,rug,,,,,,,,,,,3,0,0,38,38,24,1,,,,,,,,,,,,,,,,,,,,,,,,,,,,,,,,,,,,,,,,,,,,,,,,,,,,,,,,,,,,,,,,,,,,,,
,,?,0.00554,0,,,,,,stimuli/images/PICTURE_356.png,DANGER,5f453c02fabd950dc8c1625c,o6/03/1945,2020-09-12_07h46.13.395,proactive3.2,2020.1.2,Linux aarch64,60,5f5adea66120081ea0f57a61,5f5c6e92ce878745de961ed2,2,,,,,,pawn,,,,,,,,,,,6,0,0,39,39,55,1,,,,,,,,,,,,,,,,,,,,,,,,,,,,,,,,,,,,,,,,,,,,,,,,,,,,,,,,,,,,,,,,,,,,,,
,,?,0.001585,0,,,,,,stimuli/images/PICTURE_147.png,MOMENT,5f453c02fabd950dc8c1625c,o6/03/1945,2020-09-12_07h46.13.395,proactive3.2,2020.1.2,Linux aarch64,60,5f5adea66120081ea0f57a61,5f5c6e92ce878745de961ed2,2,,,,,,hanger,,,,,,,,,,,6,0,0,40,40,51,1,,,,,,,,,,,,,,,,,,,,,,,,,,,,,,,,,,,,,,,,,,,,,,,,,,,,,,,,,,,,,,,,,,,,,,
,,?,0.001875,0,,,,,,stimuli/images/PICTURE_744.png,SYSTEM,5f453c02fabd950dc8c1625c,o6/03/1945,2020-09-12_07h46.13.395,proactive3.2,2020.1.2,Linux aarch64,60,5f5adea66120081ea0f57a61,5f5c6e92ce878745de961ed2,2,,,,,,ring,,,,,,,,,,,5,0,0,41,41,43,1,,,,,,,,,,,,,,,,,,,,,,,,,,,,,,,,,,,,,,,,,,,,,,,,,,,,,,,,,,,,,,,,,,,,,,
,,?,0.001805,0,,,,,,stimuli/images/PICTURE_491.png,WRITER,5f453c02fabd950dc8c1625c,o6/03/1945,2020-09-12_07h46.13.395,proactive3.2,2020.1.2,Linux aarch64,60,5f5adea66120081ea0f57a61,5f5c6e92ce878745de961ed2,2,,,,,,rug,,,,,,,,,,,6,0,0,42,42,57,1,,,,,,,,,,,,,,,,,,,,,,,,,,,,,,,,,,,,,,,,,,,,,,,,,,,,,,,,,,,,,,,,,,,,,,
,,?,0.00183,0,,,,,,stimuli/images/PICTURE_677.png,MILE,5f453c02fabd950dc8c1625c,o6/03/1945,2020-09-12_07h46.13.395,proactive3.2,2020.1.2,Linux aarch64,60,5f5adea66120081ea0f57a61,5f5c6e92ce878745de961ed2,2,,,,,,map,,,,,,,,,,,4,0,0,43,43,30,1,,,,,,,,,,,,,,,,,,,,,,,,,,,,,,,,,,,,,,,,,,,,,,,,,,,,,,,,,,,,,,,,,,,,,,
,,GIRL,3.85052,1,,,,,,stimuli/images/PICTURE_151.png,GIRL,5f453c02fabd950dc8c1625c,o6/03/1945,2020-09-12_07h46.13.395,proactive3.2,2020.1.2,Linux aarch64,60,5f5adea66120081ea0f57a61,5f5c6e92ce878745de961ed2,2,,,,,,tray,,,,,,,,,,,2,0,0,44,44,19,1,,,,,,,,,,,,,,,,,,,,,,,,,,,,,,,,,,,,,,,,,,,,,,,,,,,,,,,,,,,,,,,,,,,,,,
,,?,0.001985,0,,,,,,stimuli/images/PICTURE_688.png,CASINO,5f453c02fabd950dc8c1625c,o6/03/1945,2020-09-12_07h46.13.395,proactive3.2,2020.1.2,Linux aarch64,60,5f5adea66120081ea0f57a61,5f5c6e92ce878745de961ed2,2,,,,,,runner,,,,,,,,,,,1,0,0,45,45,2,1,,,,,,,,,,,,,,,,,,,,,,,,,,,,,,,,,,,,,,,,,,,,,,,,,,,,,,,,,,,,,,,,,,,,,,
,,GODS,3.411315,1,,,,,,stimuli/images/PICTURE_314.png,GODS,5f453c02fabd950dc8c1625c,o6/03/1945,2020-09-12_07h46.13.395,proactive3.2,2020.1.2,Linux aarch64,60,5f5adea66120081ea0f57a61,5f5c6e92ce878745de961ed2,2,,,,,,perfume,,,,,,,,,,,2,0,0,46,46,11,1,,,,,,,,,,,,,,,,,,,,,,,,,,,,,,,,,,,,,,,,,,,,,,,,,,,,,,,,,,,,,,,,,,,,,,
,,?,0.00487,0,,,,,,stimuli/images/PICTURE_348.png,SPEECH,5f453c02fabd950dc8c1625c,o6/03/1945,2020-09-12_07h46.13.395,proactive3.2,2020.1.2,Linux aarch64,60,5f5adea66120081ea0f57a61,5f5c6e92ce878745de961ed2,2,,,,,,pepper,,,,,,,,,,,3,0,0,47,47,20,1,,,,,,,,,,,,,,,,,,,,,,,,,,,,,,,,,,,,,,,,,,,,,,,,,,,,,,,,,,,,,,,,,,,,,,
,,?,0.00344,0,,,,,,stimuli/images/PICTURE_469.png,ARTIST,5f453c02fabd950dc8c1625c,o6/03/1945,2020-09-12_07h46.13.395,proactive3.2,2020.1.2,Linux aarch64,60,5f5adea66120081ea0f57a61,5f5c6e92ce878745de961ed2,2,,,,,,stool,,,,,,,,,,,1,0,0,48,48,6,1,,,,,,,,,,,,,,,,,,,,,,,,,,,,,,,,,,,,,,,,,,,,,,,,,,,,,,,,,,,,,,,,,,,,,,
,,?,0.00475,0,,,,,,stimuli/images/PICTURE_233.png,WOMEN,5f453c02fabd950dc8c1625c,o6/03/1945,2020-09-12_07h46.13.395,proactive3.2,2020.1.2,Linux aarch64,60,5f5adea66120081ea0f57a61,5f5c6e92ce878745de961ed2,2,,,,,,salt,,,,,,,,,,,4,0,0,49,49,38,1,,,,,,,,,,,,,,,,,,,,,,,,,,,,,,,,,,,,,,,,,,,,,,,,,,,,,,,,,,,,,,,,,,,,,,
,,?,0.003725,0,,,,,,stimuli/images/PICTURE_123.png,ADVICE,5f453c02fabd950dc8c1625c,o6/03/1945,2020-09-12_07h46.13.395,proactive3.2,2020.1.2,Linux aarch64,60,5f5adea66120081ea0f57a61,5f5c6e92ce878745de961ed2,2,,,,,,dart,,,,,,,,,,,6,0,0,50,50,50,1,,,,,,,,,,,,,,,,,,,,,,,,,,,,,,,,,,,,,,,,,,,,,,,,,,,,,,,,,,,,,,,,,,,,,,
,,?,0.0027,0,,,,,,stimuli/images/PICTURE_708.png,PENNY,5f453c02fabd950dc8c1625c,o6/03/1945,2020-09-12_07h46.13.395,proactive3.2,2020.1.2,Linux aarch64,60,5f5adea66120081ea0f57a61,5f5c6e92ce878745de961ed2,2,,,,,,monkey,,,,,,,,,,,4,0,0,51,51,31,1,,,,,,,,,,,,,,,,,,,,,,,,,,,,,,,,,,,,,,,,,,,,,,,,,,,,,,,,,,,,,,,,,,,,,,
,,SNAKE,3.800295,0,,,,,,stimuli/images/PICTURE_744.png,SAKE,5f453c02fabd950dc8c1625c,o6/03/1945,2020-09-12_07h46.13.395,proactive3.2,2020.1.2,Linux aarch64,60,5f5adea66120081ea0f57a61,5f5c6e92ce878745de961ed2,2,,,,,,ring,,,,,,,,,,,2,0,0,52,52,17,1,,,,,,,,,,,,,,,,,,,,,,,,,,,,,,,,,,,,,,,,,,,,,,,,,,,,,,,,,,,,,,,,,,,,,,
,,?,0.00255,0,,,,,,stimuli/images/PICTURE_327.png,BEAUTY,5f453c02fabd950dc8c1625c,o6/03/1945,2020-09-12_07h46.13.395,proactive3.2,2020.1.2,Linux aarch64,60,5f5adea66120081ea0f57a61,5f5c6e92ce878745de961ed2,2,,,,,,helmet,,,,,,,,,,,5,0,0,53,53,48,1,,,,,,,,,,,,,,,,,,,,,,,,,,,,,,,,,,,,,,,,,,,,,,,,,,,,,,,,,,,,,,,,,,,,,,
,,?,0.00204,0,,,,,,stimuli/images/PICTURE_469.png,LETTER,5f453c02fabd950dc8c1625c,o6/03/1945,2020-09-12_07h46.13.395,proactive3.2,2020.1.2,Linux aarch64,60,5f5adea66120081ea0f57a61,5f5c6e92ce878745de961ed2,2,,,,,,stool,,,,,,,,,,,5,0,0,54,54,42,1,,,,,,,,,,,,,,,,,,,,,,,,,,,,,,,,,,,,,,,,,,,,,,,,,,,,,,,,,,,,,,,,,,,,,,
,,?,0.00196,0,,,,,,stimuli/images/PICTURE_68.png,MILE,5f453c02fabd950dc8c1625c,o6/03/1945,2020-09-12_07h46.13.395,proactive3.2,2020.1.2,Linux aarch64,60,5f5adea66120081ea0f57a61,5f5c6e92ce878745de961ed2,2,,,,,,candle,,,,,,,,,,,5,0,0,55,55,44,1,,,,,,,,,,,,,,,,,,,,,,,,,,,,,,,,,,,,,,,,,,,,,,,,,,,,,,,,,,,,,,,,,,,,,,
,,AVICE,7.610065,0,,,,,,stimuli/images/PICTURE_285.png,ADVICE,5f453c02fabd950dc8c1625c,o6/03/1945,2020-09-12_07h46.13.395,proactive3.2,2020.1.2,Linux aarch64,60,5f5adea66120081ea0f57a61,5f5c6e92ce878745de961ed2,2,,,,,,carrot,,,,,,,,,,,2,0,0,56,56,12,1,,,,,,,,,,,,,,,,,,,,,,,,,,,,,,,,,,,,,,,,,,,,,,,,,,,,,,,,,,,,,,,,,,,,,,
,,LOTS,4.6229,1,,,,,,stimuli/images/PICTURE_208.png,LOTS,5f453c02fabd950dc8c1625c,o6/03/1945,2020-09-12_07h46.13.395,proactive3.2,2020.1.2,Linux aarch64,60,5f5adea66120081ea0f57a61,5f5c6e92ce878745de961ed2,2,,,,,,microphone,,,,,,,,,,,2,0,0,57,57,10,1,,,,,,,,,,,,,,,,,,,,,,,,,,,,,,,,,,,,,,,,,,,,,,,,,,,,,,,,,,,,,,,,,,,,,,
,,?,0.004555,0,,,,,,stimuli/images/PICTURE_667.png,PLENTY,5f453c02fabd950dc8c1625c,o6/03/1945,2020-09-12_07h46.13.395,proactive3.2,2020.1.2,Linux aarch64,60,5f5adea66120081ea0f57a61,5f5c6e92ce878745de961ed2,2,,,,,,daisy,,,,,,,,,,,5,0,0,58,58,41,1,,,,,,,,,,,,,,,,,,,,,,,,,,,,,,,,,,,,,,,,,,,,,,,,,,,,,,,,,,,,,,,,,,,,,,
,,?,0.004755,0,,,,,,stimuli/images/PICTURE_667.png,BATH,5f453c02fabd950dc8c1625c,o6/03/1945,2020-09-12_07h46.13.395,proactive3.2,2020.1.2,Linux aarch64,60,5f5adea66120081ea0f57a61,5f5c6e92ce878745de961ed2,2,,,,,,daisy,,,,,,,,,,,1,0,0,59,59,4,1,,,,,,,,,,,,,,,,,,,,,,,,,,,,,,,,,,,,,,,,,,,,,,,,,,,,,,,,,,,,,,,,,,,,,,
,,,,,,,,,,,,5f453c02fabd950dc8c1625c,o6/03/1945,2020-09-12_07h46.13.395,proactive3.2,2020.1.2,Linux aarch64,60,5f5adea66120081ea0f57a61,5f5c6e92ce878745de961ed2,2,,,,,,,,,,,,,,,,,,,,,,,,0,1,1,0,1,stimuli/learn-block1.csv,,,,,,,,,,,,,,,,,,,,,,,,,,,,,,,,,,,,,,,,,,,,,,,,,,,,,,,,,,,,,,,,
,,,,,,,,,,stimuli/images/PICTURE_487.png,ROOF,5f453c02fabd950dc8c1625c,o6/03/1945,2020-09-12_07h46.13.395,proactive3.2,2020.1.2,Linux aarch64,60,5f5adea66120081ea0f57a61,5f5c6e92ce878745de961ed2,2,,,,,,basket,,,,,,0,0,0,50,1,6,2,,,,,,,,,,,,,,,,,,,,,,,,,,,,,,,,,,,,,,,,,,,,,,,,,,,,,,,,,,,,,,,,,,,,,,,,,,,
,,,,,,,,,,stimuli/images/PICTURE_688.png,CLOCK,5f453c02fabd950dc8c1625c,o6/03/1945,2020-09-12_07h46.13.395,proactive3.2,2020.1.2,Linux aarch64,60,5f5adea66120081ea0f57a61,5f5c6e92ce878745de961ed2,2,,,,,,runner,,,,,,0,1,1,42,1,5,2,,,,,,,,,,,,,,,,,,,,,,,,,,,,,,,,,,,,,,,,,,,,,,,,,,,,,,,,,,,,,,,,,,,,,,,,,,,
,,,,,,,,,,stimuli/images/PICTURE_285.png,WRITER,5f453c02fabd950dc8c1625c,o6/03/1945,2020-09-12_07h46.13.395,proactive3.2,2020.1.2,Linux aarch64,60,5f5adea66120081ea0f57a61,5f5c6e92ce878745de961ed2,2,,,,,,carrot,,,,,,0,2,2,6,1,1,2,,,,,,,,,,,,,,,,,,,,,,,,,,,,,,,,,,,,,,,,,,,,,,,,,,,,,,,,,,,,,,,,,,,,,,,,,,,
,,,,,,,,,,stimuli/images/PICTURE_2.png,JUNGLE,5f453c02fabd950dc8c1625c,o6/03/1945,2020-09-12_07h46.13.395,proactive3.2,2020.1.2,Linux aarch64,60,5f5adea66120081ea0f57a61,5f5c6e92ce878745de961ed2,2,,,,,,tyre,,,,,,0,3,3,1,1,1,2,,,,,,,,,,,,,,,,,,,,,,,,,,,,,,,,,,,,,,,,,,,,,,,,,,,,,,,,,,,,,,,,,,,,,,,,,,,
,,,,,,,,,,stimuli/images/PICTURE_405.png,HOUSE,5f453c02fabd950dc8c1625c,o6/03/1945,2020-09-12_07h46.13.395,proactive3.2,2020.1.2,Linux aarch64,60,5f5adea66120081ea0f57a61,5f5c6e92ce878745de961ed2,2,,,,,,anchor,,,,,,0,4,4,2,1,1,2,,,,,,,,,,,,,,,,,,,,,,,,,,,,,,,,,,,,,,,,,,,,,,,,,,,,,,,,,,,,,,,,,,,,,,,,,,,
,,,,,,,,,,stimuli/images/PICTURE_311.png,TOILET,5f453c02fabd950dc8c1625c,o6/03/1945,2020-09-12_07h46.13.395,proactive3.2,2020.1.2,Linux aarch64,60,5f5adea66120081ea0f57a61,5f5c6e92ce878745de961ed2,2,,,,,,razor,,,,,,0,5,5,54,1,6,2,,,,,,,,,,,,,,,,,,,,,,,,,,,,,,,,,,,,,,,,,,,,,,,,,,,,,,,,,,,,,,,,,,,,,,,,,,,
,,,,,,,,,,stimuli/images/PICTURE_452.png,COPS,5f453c02fabd950dc8c1625c,o6/03/1945,2020-09-12_07h46.13.395,proactive3.2,2020.1.2,Linux aarch64,60,5f5adea66120081ea0f57a61,5f5c6e92ce878745de961ed2,2,,,,,,watch,,,,,,0,6,6,0,1,1,2,,,,,,,,,,,,,,,,,,,,,,,,,,,,,,,,,,,,,,,,,,,,,,,,,,,,,,,,,,,,,,,,,,,,,,,,,,,
,,,,,,,,,,stimuli/images/PICTURE_93.png,GIRL,5f453c02fabd950dc8c1625c,o6/03/1945,2020-09-12_07h46.13.395,proactive3.2,2020.1.2,Linux aarch64,60,5f5adea66120081ea0f57a61,5f5c6e92ce878745de961ed2,2,,,,,,skateboard,,,,,,0,7,7,31,1,4,2,,,,,,,,,,,,,,,,,,,,,,,,,,,,,,,,,,,,,,,,,,,,,,,,,,,,,,,,,,,,,,,,,,,,,,,,,,,
,,,,,,,,,,stimuli/images/PICTURE_677.png,FAMILY,5f453c02fabd950dc8c1625c,o6/03/1945,2020-09-12_07h46.13.395,proactive3.2,2020.1.2,Linux aarch64,60,5f5adea66120081ea0f57a61,5f5c6e92ce878745de961ed2,2,,,,,,map,,,,,,0,8,8,53,1,6,2,,,,,,,,,,,,,,,,,,,,,,,,,,,,,,,,,,,,,,,,,,,,,,,,,,,,,,,,,,,,,,,,,,,,,,,,,,,
,,,,,,,,,,stimuli/images/PICTURE_750.png,POLICY,5f453c02fabd950dc8c1625c,o6/03/1945,2020-09-12_07h46.13.395,proactive3.2,2020.1.2,Linux aarch64,60,5f5adea66120081ea0f57a61,5f5c6e92ce878745de961ed2,2,,,,,,kettle,,,,,,0,9,9,44,1,5,2,,,,,,,,,,,,,,,,,,,,,,,,,,,,,,,,,,,,,,,,,,,,,,,,,,,,,,,,,,,,,,,,,,,,,,,,,,,
,,,,,,,,,,stimuli/images/PICTURE_208.png,SPIRIT,5f453c02fabd950dc8c1625c,o6/03/1945,2020-09-12_07h46.13.395,proactive3.2,2020.1.2,Linux aarch64,60,5f5adea66120081ea0f57a61,5f5c6e92ce878745de961ed2,2,,,,,,microphone,,,,,,0,10,10,28,1,3,2,,,,,,,,,,,,,,,,,,,,,,,,,,,,,,,,,,,,,,,,,,,,,,,,,,,,,,,,,,,,,,,,,,,,,,,,,,,
,,,,,,,,,,stimuli/images/PICTURE_160.png,HOTEL,5f453c02fabd950dc8c1625c,o6/03/1945,2020-09-12_07h46.13.395,proactive3.2,2020.1.2,Linux aarch64,60,5f5adea66120081ea0f57a61,5f5c6e92ce878745de961ed2,2,,,,,,wheelbarrow,,,,,,0,11,11,16,1,2,2,,,,,,,,,,,,,,,,,,,,,,,,,,,,,,,,,,,,,,,,,,,,,,,,,,,,,,,,,,,,,,,,,,,,,,,,,,,
,,,,,,,,,,stimuli/images/PICTURE_57.png,CASINO,5f453c02fabd950dc8c1625c,o6/03/1945,2020-09-12_07h46.13.395,proactive3.2,2020.1.2,Linux aarch64,60,5f5adea66120081ea0f57a61,5f5c6e92ce878745de961ed2,2,,,,,,stamp,,,,,,0,12,12,12,1,2,2,,,,,,,,,,,,,,,,,,,,,,,,,,,,,,,,,,,,,,,,,,,,,,,,,,,,,,,,,,,,,,,,,,,,,,,,,,,
,,,,,,,,,,stimuli/images/PICTURE_348.png,TOILET,5f453c02fabd950dc8c1625c,o6/03/1945,2020-09-12_07h46.13.395,proactive3.2,2020.1.2,Linux aarch64,60,5f5adea66120081ea0f57a61,5f5c6e92ce878745de961ed2,2,,,,,,pepper,,,,,,0,13,13,4,1,1,2,,,,,,,,,,,,,,,,,,,,,,,,,,,,,,,,,,,,,,,,,,,,,,,,,,,,,,,,,,,,,,,,,,,,,,,,,,,
,,,,,,,,,,stimuli/images/PICTURE_215.png,LEADER,5f453c02fabd950dc8c1625c,o6/03/1945,2020-09-12_07h46.13.395,proactive3.2,2020.1.2,Linux aarch64,60,5f5adea66120081ea0f57a61,5f5c6e92ce878745de961ed2,2,,,,,,boot,,,,,,0,14,14,43,1,5,2,,,,,,,,,,,,,,,,,,,,,,,,,,,,,,,,,,,,,,,,,,,,,,,,,,,,,,,,,,,,,,,,,,,,,,,,,,,
,,,,,,,,,,stimuli/images/PICTURE_296.png,CLOCK,5f453c02fabd950dc8c1625c,o6/03/1945,2020-09-12_07h46.13.395,proactive3.2,2020.1.2,Linux aarch64,60,5f5adea66120081ea0f57a61,5f5c6e92ce878745de961ed2,2,,,,,,bolt,,,,,,0,15,15,18,1,2,2,,,,,,,,,,,,,,,,,,,,,,,,,,,,,,,,,,,,,,,,,,,,,,,,,,,,,,,,,,,,,,,,,,,,,,,,,,,
,,,,,,,,,,stimuli/images/PICTURE_677.png,PHOTO,5f453c02fabd950dc8c1625c,o6/03/1945,2020-09-12_07h46.13.395,proactive3.2,2020.1.2,Linux aarch64,60,5f5adea66120081ea0f57a61,5f5c6e92ce878745de961ed2,2,,,,,,map,,,,,,0,16,16,14,1,2,2,,,,,,,,,,,,,,,,,,,,,,,,,,,,,,,,,,,,,,,,,,,,,,,,,,,,,,,,,,,,,,,,,,,,,,,,,,,
,,,,,,,,,,stimuli/images/PICTURE_147.png,LEADER,5f453c02fabd950dc8c1625c,o6/03/1945,2020-09-12_07h46.13.395,proactive3.2,2020.1.2,Linux aarch64,60,5f5adea66120081ea0f57a61,5f5c6e92ce878745de961ed2,2,,,,,,hanger,,,,,,0,17,17,33,1,4,2,,,,,,,,,,,,,,,,,,,,,,,,,,,,,,,,,,,,,,,,,,,,,,,,,,,,,,,,,,,,,,,,,,,,,,,,,,,
,,,,,,,,,,stimuli/images/PICTURE_564.png,PLENTY,5f453c02fabd950dc8c1625c,o6/03/1945,2020-09-12_07h46.13.395,proactive3.2,2020.1.2,Linux aarch64,60,5f5adea66120081ea0f57a61,5f5c6e92ce878745de961ed2,2,,,,,,spoon,,,,,,0,18,18,11,1,2,2,,,,,,,,,,,,,,,,,,,,,,,,,,,,,,,,,,,,,,,,,,,,,,,,,,,,,,,,,,,,,,,,,,,,,,,,,,,
,,,,,,,,,,stimuli/images/PICTURE_314.png,SPEECH,5f453c02fabd950dc8c1625c,o6/03/1945,2020-09-12_07h46.13.395,proactive3.2,2020.1.2,Linux aarch64,60,5f5adea66120081ea0f57a61,5f5c6e92ce878745de961ed2,2,,,,,,perfume,,,,,,0,19,19,35,1,4,2,,,,,,,,,,,,,,,,,,,,,,,,,,,,,,,,,,,,,,,,,,,,,,,,,,,,,,,,,,,,,,,,,,,,,,,,,,,
,,,,,,,,,,stimuli/images/PICTURE_348.png,DUDE,5f453c02fabd950dc8c1625c,o6/03/1945,2020-09-12_07h46.13.395,proactive3.2,2020.1.2,Linux aarch64,60,5f5adea66120081ea0f57a61,5f5c6e92ce878745de961ed2,2,,,,,,pepper,,,,,,0,20,20,59,1,6,2,,,,,,,,,,,,,,,,,,,,,,,,,,,,,,,,,,,,,,,,,,,,,,,,,,,,,,,,,,,,,,,,,,,,,,,,,,,
,,,,,,,,,,stimuli/images/PICTURE_509.png,APPLE,5f453c02fabd950dc8c1625c,o6/03/1945,2020-09-12_07h46.13.395,proactive3.2,2020.1.2,Linux aarch64,60,5f5adea66120081ea0f57a61,5f5c6e92ce878745de961ed2,2,,,,,,telephone,,,,,,0,21,21,38,1,4,2,,,,,,,,,,,,,,,,,,,,,,,,,,,,,,,,,,,,,,,,,,,,,,,,,,,,,,,,,,,,,,,,,,,,,,,,,,,
,,,,,,,,,,stimuli/images/PICTURE_667.png,GLASS,5f453c02fabd950dc8c1625c,o6/03/1945,2020-09-12_07h46.13.395,proactive3.2,2020.1.2,Linux aarch64,60,5f5adea66120081ea0f57a61,5f5c6e92ce878745de961ed2,2,,,,,,daisy,,,,,,0,22,22,27,1,3,2,,,,,,,,,,,,,,,,,,,,,,,,,,,,,,,,,,,,,,,,,,,,,,,,,,,,,,,,,,,,,,,,,,,,,,,,,,,
,,,,,,,,,,stimuli/images/PICTURE_68.png,KIND,5f453c02fabd950dc8c1625c,o6/03/1945,2020-09-12_07h46.13.395,proactive3.2,2020.1.2,Linux aarch64,60,5f5adea66120081ea0f57a61,5f5c6e92ce878745de961ed2,2,,,,,,candle,,,,,,0,23,23,23,1,3,2,,,,,,,,,,,,,,,,,,,,,,,,,,,,,,,,,,,,,,,,,,,,,,,,,,,,,,,,,,,,,,,,,,,,,,,,,,,
,,,,,,,,,,stimuli/images/PICTURE_708.png,VALLEY,5f453c02fabd950dc8c1625c,o6/03/1945,2020-09-12_07h46.13.395,proactive3.2,2020.1.2,Linux aarch64,60,5f5adea66120081ea0f57a61,5f5c6e92ce878745de961ed2,2,,,,,,monkey,,,,,,0,24,24,45,1,5,2,,,,,,,,,,,,,,,,,,,,,,,,,,,,,,,,,,,,,,,,,,,,,,,,,,,,,,,,,,,,,,,,,,,,,,,,,,,
,,,,,,,,,,stimuli/images/PICTURE_356.png,CANDY,5f453c02fabd950dc8c1625c,o6/03/1945,2020-09-12_07h46.13.395,proactive3.2,2020.1.2,Linux aarch64,60,5f5adea66120081ea0f57a61,5f5c6e92ce878745de961ed2,2,,,,,,pawn,,,,,,0,25,25,46,1,5,2,,,,,,,,,,,,,,,,,,,,,,,,,,,,,,,,,,,,,,,,,,,,,,,,,,,,,,,,,,,,,,,,,,,,,,,,,,,
,,,,,,,,,,stimuli/images/PICTURE_57.png,NATION,5f453c02fabd950dc8c1625c,o6/03/1945,2020-09-12_07h46.13.395,proactive3.2,2020.1.2,Linux aarch64,60,5f5adea66120081ea0f57a61,5f5c6e92ce878745de961ed2,2,,,,,,stamp,,,,,,0,26,26,21,1,3,2,,,,,,,,,,,,,,,,,,,,,,,,,,,,,,,,,,,,,,,,,,,,,,,,,,,,,,,,,,,,,,,,,,,,,,,,,,,
,,,,,,,,,,stimuli/images/PICTURE_32.png,LETTER,5f453c02fabd950dc8c1625c,o6/03/1945,2020-09-12_07h46.13.395,proactive3.2,2020.1.2,Linux aarch64,60,5f5adea66120081ea0f57a61,5f5c6e92ce878745de961ed2,2,,,,,,crown,,,,,,0,27,27,56,1,6,2,,,,,,,,,,,,,,,,,,,,,,,,,,,,,,,,,,,,,,,,,,,,,,,,,,,,,,,,,,,,,,,,,,,,,,,,,,,
,,,,,,,,,,stimuli/images/PICTURE_403.png,FAMILY,5f453c02fabd950dc8c1625c,o6/03/1945,2020-09-12_07h46.13.395,proactive3.2,2020.1.2,Linux aarch64,60,5f5adea66120081ea0f57a61,5f5c6e92ce878745de961ed2,2,,,,,,cathedral,,,,,,0,28,28,9,1,1,2,,,,,,,,,,,,,,,,,,,,,,,,,,,,,,,,,,,,,,,,,,,,,,,,,,,,,,,,,,,,,,,,,,,,,,,,,,,
,,,,,,,,,,stimuli/images/PICTURE_95.png,NIGHT,5f453c02fabd950dc8c1625c,o6/03/1945,2020-09-12_07h46.13.395,proactive3.2,2020.1.2,Linux aarch64,60,5f5adea66120081ea0f57a61,5f5c6e92ce878745de961ed2,2,,,,,,suitcase,,,,,,0,29,29,37,1,4,2,,,,,,,,,,,,,,,,,,,,,,,,,,,,,,,,,,,,,,,,,,,,,,,,,,,,,,,,,,,,,,,,,,,,,,,,,,,
,,,,,,,,,,stimuli/images/PICTURE_654.png,COPS,5f453c02fabd950dc8c1625c,o6/03/1945,2020-09-12_07h46.13.395,proactive3.2,2020.1.2,Linux aarch64,60,5f5adea66120081ea0f57a61,5f5c6e92ce878745de961ed2,2,,,,,,pencil,,,,,,0,30,30,10,1,2,2,,,,,,,,,,,,,,,,,,,,,,,,,,,,,,,,,,,,,,,,,,,,,,,,,,,,,,,,,,,,,,,,,,,,,,,,,,,
,,,,,,,,,,stimuli/images/PICTURE_470.png,BEAUTY,5f453c02fabd950dc8c1625c,o6/03/1945,2020-09-12_07h46.13.395,proactive3.2,2020.1.2,Linux aarch64,60,5f5adea66120081ea0f57a61,5f5c6e92ce878745de961ed2,2,,,,,,motorbike,,,,,,0,31,31,26,1,3,2,,,,,,,,,,,,,,,,,,,,,,,,,,,,,,,,,,,,,,,,,,,,,,,,,,,,,,,,,,,,,,,,,,,,,,,,,,,
,,,,,,,,,,stimuli/images/PICTURE_487.png,POLICY,5f453c02fabd950dc8c1625c,o6/03/1945,2020-09-12_07h46.13.395,proactive3.2,2020.1.2,Linux aarch64,60,5f5adea66120081ea0f57a61,5f5c6e92ce878745de961ed2,2,,,,,,basket,,,,,,0,32,32,34,1,4,2,,,,,,,,,,,,,,,,,,,,,,,,,,,,,,,,,,,,,,,,,,,,,,,,,,,,,,,,,,,,,,,,,,,,,,,,,,,
,,,,,,,,,,stimuli/images/PICTURE_255.png,PENNY,5f453c02fabd950dc8c1625c,o6/03/1945,2020-09-12_07h46.13.395,proactive3.2,2020.1.2,Linux aarch64,60,5f5adea66120081ea0f57a61,5f5c6e92ce878745de961ed2,2,,,,,,shovel,,,,,,0,33,33,19,1,2,2,,,,,,,,,,,,,,,,,,,,,,,,,,,,,,,,,,,,,,,,,,,,,,,,,,,,,,,,,,,,,,,,,,,,,,,,,,,
,,,,,,,,,,stimuli/images/PICTURE_33.png,COPS,5f453c02fabd950dc8c1625c,o6/03/1945,2020-09-12_07h46.13.395,proactive3.2,2020.1.2,Linux aarch64,60,5f5adea66120081ea0f57a61,5f5c6e92ce878745de961ed2,2,,,,,,frame,,,,,,0,34,34,29,1,3,2,,,,,,,,,,,,,,,,,,,,,,,,,,,,,,,,,,,,,,,,,,,,,,,,,,,,,,,,,,,,,,,,,,,,,,,,,,,
,,,,,,,,,,stimuli/images/PICTURE_405.png,JUNGLE,5f453c02fabd950dc8c1625c,o6/03/1945,2020-09-12_07h46.13.395,proactive3.2,2020.1.2,Linux aarch64,60,5f5adea66120081ea0f57a61,5f5c6e92ce878745de961ed2,2,,,,,,anchor,,,,,,0,35,35,13,1,2,2,,,,,,,,,,,,,,,,,,,,,,,,,,,,,,,,,,,,,,,,,,,,,,,,,,,,,,,,,,,,,,,,,,,,,,,,,,,
,,,,,,,,,,stimuli/images/PICTURE_215.png,BOYS,5f453c02fabd950dc8c1625c,o6/03/1945,2020-09-12_07h46.13.395,proactive3.2,2020.1.2,Linux aarch64,60,5f5adea66120081ea0f57a61,5f5c6e92ce878745de961ed2,2,,,,,,boot,,,,,,0,36,36,24,1,3,2,,,,,,,,,,,,,,,,,,,,,,,,,,,,,,,,,,,,,,,,,,,,,,,,,,,,,,,,,,,,,,,,,,,,,,,,,,,
,,,,,,,,,,stimuli/images/PICTURE_123.png,SALE,5f453c02fabd950dc8c1625c,o6/03/1945,2020-09-12_07h46.13.395,proactive3.2,2020.1.2,Linux aarch64,60,5f5adea66120081ea0f57a61,5f5c6e92ce878745de961ed2,2,,,,,,dart,,,,,,0,37,37,8,1,1,2,,,,,,,,,,,,,,,,,,,,,,,,,,,,,,,,,,,,,,,,,,,,,,,,,,,,,,,,,,,,,,,,,,,,,,,,,,,
,,,,,,,,,,stimuli/images/PICTURE_692.png,DUDE,5f453c02fabd950dc8c1625c,o6/03/1945,2020-09-12_07h46.13.395,proactive3.2,2020.1.2,Linux aarch64,60,5f5adea66120081ea0f57a61,5f5c6e92ce878745de961ed2,2,,,,,,cherry,,,,,,0,38,38,47,1,5,2,,,,,,,,,,,,,,,,,,,,,,,,,,,,,,,,,,,,,,,,,,,,,,,,,,,,,,,,,,,,,,,,,,,,,,,,,,,
,,,,,,,,,,stimuli/images/PICTURE_655.png,SALE,5f453c02fabd950dc8c1625c,o6/03/1945,2020-09-12_07h46.13.395,proactive3.2,2020.1.2,Linux aarch64,60,5f5adea66120081ea0f57a61,5f5c6e92ce878745de961ed2,2,,,,,,megaphone,,,,,,0,39,39,57,1,6,2,,,,,,,,,,,,,,,,,,,,,,,,,,,,,,,,,,,,,,,,,,,,,,,,,,,,,,,,,,,,,,,,,,,,,,,,,,,
,,,,,,,,,,stimuli/images/PICTURE_327.png,LEADER,5f453c02fabd950dc8c1625c,o6/03/1945,2020-09-12_07h46.13.395,proactive3.2,2020.1.2,Linux aarch64,60,5f5adea66120081ea0f57a61,5f5c6e92ce878745de961ed2,2,,,,,,helmet,,,,,,0,40,40,17,1,2,2,,,,,,,,,,,,,,,,,,,,,,,,,,,,,,,,,,,,,,,,,,,,,,,,,,,,,,,,,,,,,,,,,,,,,,,,,,,
,,,,,,,,,,stimuli/images/PICTURE_453.png,FAMILY,5f453c02fabd950dc8c1625c,o6/03/1945,2020-09-12_07h46.13.395,proactive3.2,2020.1.2,Linux aarch64,60,5f5adea66120081ea0f57a61,5f5c6e92ce878745de961ed2,2,,,,,,scissors,,,,,,0,41,41,48,1,5,2,,,,,,,,,,,,,,,,,,,,,,,,,,,,,,,,,,,,,,,,,,,,,,,,,,,,,,,,,,,,,,,,,,,,,,,,,,,
,,,,,,,,,,stimuli/images/PICTURE_297.png,BODY,5f453c02fabd950dc8c1625c,o6/03/1945,2020-09-12_07h46.13.395,proactive3.2,2020.1.2,Linux aarch64,60,5f5adea66120081ea0f57a61,5f5c6e92ce878745de961ed2,2,,,,,,aeroplane,,,,,,0,42,42,51,1,6,2,,,,,,,,,,,,,,,,,,,,,,,,,,,,,,,,,,,,,,,,,,,,,,,,,,,,,,,,,,,,,,,,,,,,,,,,,,,
,,,,,,,,,,stimuli/images/PICTURE_509.png,BATH,5f453c02fabd950dc8c1625c,o6/03/1945,2020-09-12_07h46.13.395,proactive3.2,2020.1.2,Linux aarch64,60,5f5adea66120081ea0f57a61,5f5c6e92ce878745de961ed2,2,,,,,,telephone,,,,,,0,43,43,15,1,2,2,,,,,,,,,,,,,,,,,,,,,,,,,,,,,,,,,,,,,,,,,,,,,,,,,,,,,,,,,,,,,,,,,,,,,,,,,,,
,,,,,,,,,,stimuli/images/PICTURE_2.png,YARD,5f453c02fabd950dc8c1625c,o6/03/1945,2020-09-12_07h46.13.395,proactive3.2,2020.1.2,Linux aarch64,60,5f5adea66120081ea0f57a61,5f5c6e92ce878745de961ed2,2,,,,,,tyre,,,,,,0,44,44,55,1,6,2,,,,,,,,,,,,,,,,,,,,,,,,,,,,,,,,,,,,,,,,,,,,,,,,,,,,,,,,,,,,,,,,,,,,,,,,,,,
,,,,,,,,,,stimuli/images/PICTURE_57.png,CANDY,5f453c02fabd950dc8c1625c,o6/03/1945,2020-09-12_07h46.13.395,proactive3.2,2020.1.2,Linux aarch64,60,5f5adea66120081ea0f57a61,5f5c6e92ce878745de961ed2,2,,,,,,stamp,,,,,,0,45,45,52,1,6,2,,,,,,,,,,,,,,,,,,,,,,,,,,,,,,,,,,,,,,,,,,,,,,,,,,,,,,,,,,,,,,,,,,,,,,,,,,,
,,,,,,,,,,stimuli/images/PICTURE_405.png,JUNGLE,5f453c02fabd950dc8c1625c,o6/03/1945,2020-09-12_07h46.13.395,proactive3.2,2020.1.2,Linux aarch64,60,5f5adea66120081ea0f57a61,5f5c6e92ce878745de961ed2,2,,,,,,anchor,,,,,,0,46,46,58,1,6,2,,,,,,,,,,,,,,,,,,,,,,,,,,,,,,,,,,,,,,,,,,,,,,,,,,,,,,,,,,,,,,,,,,,,,,,,,,,
,,,,,,,,,,stimuli/images/PICTURE_470.png,MOMENT,5f453c02fabd950dc8c1625c,o6/03/1945,2020-09-12_07h46.13.395,proactive3.2,2020.1.2,Linux aarch64,60,5f5adea66120081ea0f57a61,5f5c6e92ce878745de961ed2,2,,,,,,motorbike,,,,,,0,47,47,40,1,5,2,,,,,,,,,,,,,,,,,,,,,,,,,,,,,,,,,,,,,,,,,,,,,,,,,,,,,,,,,,,,,,,,,,,,,,,,,,,
,,,,,,,,,,stimuli/images/PICTURE_141.png,CLIENT,5f453c02fabd950dc8c1625c,o6/03/1945,2020-09-12_07h46.13.395,proactive3.2,2020.1.2,Linux aarch64,60,5f5adea66120081ea0f57a61,5f5c6e92ce878745de961ed2,2,,,,,,sunflower,,,,,,0,48,48,30,1,4,2,,,,,,,,,,,,,,,,,,,,,,,,,,,,,,,,,,,,,,,,,,,,,,,,,,,,,,,,,,,,,,,,,,,,,,,,,,,
,,,,,,,,,,stimuli/images/PICTURE_509.png,SHOTS,5f453c02fabd950dc8c1625c,o6/03/1945,2020-09-12_07h46.13.395,proactive3.2,2020.1.2,Linux aarch64,60,5f5adea66120081ea0f57a61,5f5c6e92ce878745de961ed2,2,,,,,,telephone,,,,,,0,49,49,7,1,1,2,,,,,,,,,,,,,,,,,,,,,,,,,,,,,,,,,,,,,,,,,,,,,,,,,,,,,,,,,,,,,,,,,,,,,,,,,,,
,,,,,,,,,,stimuli/images/PICTURE_285.png,PRINCE,5f453c02fabd950dc8c1625c,o6/03/1945,2020-09-12_07h46.13.395,proactive3.2,2020.1.2,Linux aarch64,60,5f5adea66120081ea0f57a61,5f5c6e92ce878745de961ed2,2,,,,,,carrot,,,,,,0,50,50,20,1,3,2,,,,,,,,,,,,,,,,,,,,,,,,,,,,,,,,,,,,,,,,,,,,,,,,,,,,,,,,,,,,,,,,,,,,,,,,,,,
,,,,,,,,,,stimuli/images/PICTURE_504.png,HOUSE,5f453c02fabd950dc8c1625c,o6/03/1945,2020-09-12_07h46.13.395,proactive3.2,2020.1.2,Linux aarch64,60,5f5adea66120081ea0f57a61,5f5c6e92ce878745de961ed2,2,,,,,,wheel,,,,,,0,51,51,36,1,4,2,,,,,,,,,,,,,,,,,,,,,,,,,,,,,,,,,,,,,,,,,,,,,,,,,,,,,,,,,,,,,,,,,,,,,,,,,,,
,,,,,,,,,,stimuli/images/PICTURE_215.png,FOOD,5f453c02fabd950dc8c1625c,o6/03/1945,2020-09-12_07h46.13.395,proactive3.2,2020.1.2,Linux aarch64,60,5f5adea66120081ea0f57a61,5f5c6e92ce878745de961ed2,2,,,,,,boot,,,,,,0,52,52,5,1,1,2,,,,,,,,,,,,,,,,,,,,,,,,,,,,,,,,,,,,,,,,,,,,,,,,,,,,,,,,,,,,,,,,,,,,,,,,,,,
,,,,,,,,,,stimuli/images/PICTURE_491.png,SERIES,5f453c02fabd950dc8c1625c,o6/03/1945,2020-09-12_07h46.13.395,proactive3.2,2020.1.2,Linux aarch64,60,5f5adea66120081ea0f57a61,5f5c6e92ce878745de961ed2,2,,,,,,rug,,,,,,0,53,53,39,1,4,2,,,,,,,,,,,,,,,,,,,,,,,,,,,,,,,,,,,,,,,,,,,,,,,,,,,,,,,,,,,,,,,,,,,,,,,,,,,
,,,,,,,,,,stimuli/images/PICTURE_654.png,YEAR,5f453c02fabd950dc8c1625c,o6/03/1945,2020-09-12_07h46.13.395,proactive3.2,2020.1.2,Linux aarch64,60,5f5adea66120081ea0f57a61,5f5c6e92ce878745de961ed2,2,,,,,,pencil,,,,,,0,54,54,41,1,5,2,,,,,,,,,,,,,,,,,,,,,,,,,,,,,,,,,,,,,,,,,,,,,,,,,,,,,,,,,,,,,,,,,,,,,,,,,,,
,,,,,,,,,,stimuli/images/PICTURE_311.png,FLESH,5f453c02fabd950dc8c1625c,o6/03/1945,2020-09-12_07h46.13.395,proactive3.2,2020.1.2,Linux aarch64,60,5f5adea66120081ea0f57a61,5f5c6e92ce878745de961ed2,2,,,,,,razor,,,,,,0,55,55,3,1,1,2,,,,,,,,,,,,,,,,,,,,,,,,,,,,,,,,,,,,,,,,,,,,,,,,,,,,,,,,,,,,,,,,,,,,,,,,,,,
,,,,,,,,,,stimuli/images/PICTURE_509.png,MILLER,5f453c02fabd950dc8c1625c,o6/03/1945,2020-09-12_07h46.13.395,proactive3.2,2020.1.2,Linux aarch64,60,5f5adea66120081ea0f57a61,5f5c6e92ce878745de961ed2,2,,,,,,telephone,,,,,,0,56,56,49,1,5,2,,,,,,,,,,,,,,,,,,,,,,,,,,,,,,,,,,,,,,,,,,,,,,,,,,,,,,,,,,,,,,,,,,,,,,,,,,,
,,,,,,,,,,stimuli/images/PICTURE_177.png,HOUSE,5f453c02fabd950dc8c1625c,o6/03/1945,2020-09-12_07h46.13.395,proactive3.2,2020.1.2,Linux aarch64,60,5f5adea66120081ea0f57a61,5f5c6e92ce878745de961ed2,2,,,,,,mushroom,,,,,,0,57,57,25,1,3,2,,,,,,,,,,,,,,,,,,,,,,,,,,,,,,,,,,,,,,,,,,,,,,,,,,,,,,,,,,,,,,,,,,,,,,,,,,,
,,,,,,,,,,stimuli/images/PICTURE_2.png,AREA,5f453c02fabd950dc8c1625c,o6/03/1945,2020-09-12_07h46.13.395,proactive3.2,2020.1.2,Linux aarch64,60,5f5adea66120081ea0f57a61,5f5c6e92ce878745de961ed2,2,,,,,,tyre,,,,,,0,58,58,32,1,4,2,,,,,,,,,,,,,,,,,,,,,,,,,,,,,,,,,,,,,,,,,,,,,,,,,,,,,,,,,,,,,,,,,,,,,,,,,,,
,,?,0.001875,0,,,,,,stimuli/images/PICTURE_93.png,GIRL,5f453c02fabd950dc8c1625c,o6/03/1945,2020-09-12_07h46.13.395,proactive3.2,2020.1.2,Linux aarch64,60,5f5adea66120081ea0f57a61,5f5c6e92ce878745de961ed2,2,,,,,,skateboard,,,,,,,,,,,4,2,0,0,0,31,1,,,,,,,,,,,,,,,,,,,,,,,,,,,,,,,,,,,,,,,,,,,,,,,,,,,,,,,,,,,,,,,,,,,,,,
,,?,0.001775,0,,,,,,stimuli/images/PICTURE_405.png,JUNGLE,5f453c02fabd950dc8c1625c,o6/03/1945,2020-09-12_07h46.13.395,proactive3.2,2020.1.2,Linux aarch64,60,5f5adea66120081ea0f57a61,5f5c6e92ce878745de961ed2,2,,,,,,anchor,,,,,,,,,,,6,2,0,1,1,58,1,,,,,,,,,,,,,,,,,,,,,,,,,,,,,,,,,,,,,,,,,,,,,,,,,,,,,,,,,,,,,,,,,,,,,,
,,?,0.00206,0,,,,,,stimuli/images/PICTURE_57.png,NATION,5f453c02fabd950dc8c1625c,o6/03/1945,2020-09-12_07h46.13.395,proactive3.2,2020.1.2,Linux aarch64,60,5f5adea66120081ea0f57a61,5f5c6e92ce878745de961ed2,2,,,,,,stamp,,,,,,,,,,,3,2,0,2,2,21,1,,,,,,,,,,,,,,,,,,,,,,,,,,,,,,,,,,,,,,,,,,,,,,,,,,,,,,,,,,,,,,,,,,,,,,
,,?,0.001725,0,,,,,,stimuli/images/PICTURE_147.png,LEADER,5f453c02fabd950dc8c1625c,o6/03/1945,2020-09-12_07h46.13.395,proactive3.2,2020.1.2,Linux aarch64,60,5f5adea66120081ea0f57a61,5f5c6e92ce878745de961ed2,2,,,,,,hanger,,,,,,,,,,,4,2,0,3,3,33,1,,,,,,,,,,,,,,,,,,,,,,,,,,,,,,,,,,,,,,,,,,,,,,,,,,,,,,,,,,,,,,,,,,,,,,
,,?,0.001595,0,,,,,,stimuli/images/PICTURE_314.png,SPEECH,5f453c02fabd950dc8c1625c,o6/03/1945,2020-09-12_07h46.13.395,proactive3.2,2020.1.2,Linux aarch64,60,5f5adea66120081ea0f57a61,5f5c6e92ce878745de961ed2,2,,,,,,perfume,,,,,,,,,,,4,2,0,4,4,35,1,,,,,,,,,,,,,,,,,,,,,,,,,,,,,,,,,,,,,,,,,,,,,,,,,,,,,,,,,,,,,,,,,,,,,,
,,?,0.001395,0,,,,,,stimuli/images/PICTURE_2.png,YARD,5f453c02fabd950dc8c1625c,o6/03/1945,2020-09-12_07h46.13.395,proactive3.2,2020.1.2,Linux aarch64,60,5f5adea66120081ea0f57a61,5f5c6e92ce878745de961ed2,2,,,,,,tyre,,,,,,,,,,,6,2,0,5,5,55,1,,,,,,,,,,,,,,,,,,,,,,,,,,,,,,,,,,,,,,,,,,,,,,,,,,,,,,,,,,,,,,,,,,,,,,
