consent_key.keys,consent_key.rt,recalled,recalled_rt,recall_acc,example_recall.thisRepN,example_recall.thisTrialN,example_recall.thisN,example_recall.thisIndex,example_recall.ran,file,word,participant,please enter your date of birth (dd/mm/yyyy),date,expName,psychopyVersion,OS,frameRate,STUDY_ID,SESSION_ID,list,prac_learn_study_loop.thisRepN,prac_learn_study_loop.thisTrialN,prac_learn_study_loop.thisN,prac_learn_study_loop.thisIndex,prac_learn_study_loop.ran,image,prac_learn_test_loop.thisRepN,prac_learn_test_loop.thisTrialN,prac_learn_test_loop.thisN,prac_learn_test_loop.thisIndex,prac_learn_test_loop.ran,learn_study_loop.thisRepN,learn_study_loop.thisTrialN,learn_study_loop.thisN,learn_study_loop.thisIndex,learn_study_loop.ran,list_no,block_no,learn_test_loop.thisRepN,learn_test_loop.thisTrialN,learn_test_loop.thisN,learn_test_loop.thisIndex,learn_test_loop.ran,learn_blocks.thisRepN,learn_blocks.thisTrialN,learn_blocks.thisN,learn_blocks.thisIndex,learn_blocks.ran,block_csv,key_resp_13.keys,key_resp_13.rt,learn_blocks_loop.thisRepN,learn_blocks_loop.thisTrialN,learn_blocks_loop.thisN,learn_blocks_loop.thisIndex,learn_blocks_loop.ran,final_learn_test.thisRepN,final_learn_test.thisTrialN,final_learn_test.thisN,final_learn_test.thisIndex,final_learn_test.ran,prac_wm_test_loop.thisRepN,prac_wm_test_loop.thisTrialN,prac_wm_test_loop.thisN,prac_wm_test_loop.thisIndex,prac_wm_test_loop.ran,wm_recalled1,wm_recall_rt1,wm_probed1,wm_recall_acc1,wm_recalled2,wm_recall_rt2,wm_probed2,wm_recall_acc2,wm_recalled3,wm_recall_rt3,wm_probed3,wm_recall_acc3,wm_recalled4,wm_recall_rt4,wm_probed4,wm_recall_acc4,prac_wm_trial_loop.thisRepN,prac_wm_trial_loop.thisTrialN,prac_wm_trial_loop.thisN,prac_wm_trial_loop.thisIndex,prac_wm_trial_loop.ran,word1,image1,file1,item_type1,word2,image2,file2,item_type2,word4,image4,file4,item_type4,word3,image3,file3,item_type3,wm_test_loop.thisRepN,wm_test_loop.thisTrialN,wm_test_loop.thisN,wm_test_loop.thisIndex,wm_test_loop.ran,wm_trial_loop.thisRepN,wm_trial_loop.thisTrialN,wm_trial_loop.thisN,wm_trial_loop.thisIndex,wm_trial_loop.ran
y,82.12323,TOUGH,7.31225,1,0,0,0,0,1,stimuli/images/PICTURE_747.png,TOUGH,5f5023517ef2f019cf3ebb57,10/01/1953,2020-09-12_00h11.59.251,proactive3.2,2020.1.2,Win32,60,5f5adea66120081ea0f57a61,5f5c4a0ea9ba1143b5c08c65,4,,,,,,,,,,,,,,,,,,,,,,,,,,,,,,,,,,,,,,,,,,,,,,,,,,,,,,,,,,,,,,,,,,,,,,,,,,,,,,,,,,,,,,,,,,,,,
,,,,,,,,,,stimuli/images/PICTURE_658.png,DEVIL,5f5023517ef2f019cf3ebb57,10/01/1953,2020-09-12_00h11.59.251,proactive3.2,2020.1.2,Win32,60,5f5adea66120081ea0f57a61,5f5c4a0ea9ba1143b5c08c65,4,0,0,0,3,1,crow,,,,,,,,,,,,,,,,,,,,,,,,,,,,,,,,,,,,,,,,,,,,,,,,,,,,,,,,,,,,,,,,,,,,,,,,,,,,,,,,,,,,,,,
,,,,,,,,,,stimuli/images/PICTURE_269.png,GENIUS,5f5023517ef2f019cf3ebb57,10/01/1953,2020-09-12_00h11.59.251,proactive3.2,2020.1.2,Win32,60,5f5adea66120081ea0f57a61,5f5c4a0ea9ba1143b5c08c65,4,0,1,1,0,1,chameleon,,,,,,,,,,,,,,,,,,,,,,,,,,,,,,,,,,,,,,,,,,,,,,,,,,,,,,,,,,,,,,,,,,,,,,,,,,,,,,,,,,,,,,,
,,,,,,,,,,stimuli/images/PICTURE_697.png,KILLER,5f5023517ef2f019cf3ebb57,10/01/1953,2020-09-12_00h11.59.251,proactive3.2,2020.1.2,Win32,60,5f5adea66120081ea0f57a61,5f5c4a0ea9ba1143b5c08c65,4,0,2,2,4,1,peach,,,,,,,,,,,,,,,,,,,,,,,,,,,,,,,,,,,,,,,,,,,,,,,,,,,,,,,,,,,,,,,,,,,,,,,,,,,,,,,,,,,,,,,
,,,,,,,,,,stimuli/images/PICTURE_378.png,LOSS,5f5023517ef2f019cf3ebb57,10/01/1953,2020-09-12_00h11.59.251,proactive3.2,2020.1.2,Win32,60,5f5adea66120081ea0f57a61,5f5c4a0ea9ba1143b5c08c65,4,0,3,3,2,1,lobster,,,,,,,,,,,,,,,,,,,,,,,,,,,,,,,,,,,,,,,,,,,,,,,,,,,,,,,,,,,,,,,,,,,,,,,,,,,,,,,,,,,,,,,
,,?,11.20369,0,,,,,,stimuli/images/PICTURE_378.png,LOSS,5f5023517ef2f019cf3ebb57,10/01/1953,2020-09-12_00h11.59.251,proactive3.2,2020.1.2,Win32,60,5f5adea66120081ea0f57a61,5f5c4a0ea9ba1143b5c08c65,4,,,,,,lobster,0,0,0,2,1,,,,,,,,,,,,,,,,,,,,,,,,,,,,,,,,,,,,,,,,,,,,,,,,,,,,,,,,,,,,,,,,,,,,,,,,,,,,,,,,,,
,,CELL,8.28843,1,,,,,,stimuli/images/PICTURE_727.png,CELL,5f5023517ef2f019cf3ebb57,10/01/1953,2020-09-12_00h11.59.251,proactive3.2,2020.1.2,Win32,60,5f5adea66120081ea0f57a61,5f5c4a0ea9ba1143b5c08c65,4,,,,,,hose,0,1,1,1,1,,,,,,,,,,,,,,,,,,,,,,,,,,,,,,,,,,,,,,,,,,,,,,,,,,,,,,,,,,,,,,,,,,,,,,,,,,,,,,,,,,
,,KILLER,5.72415,1,,,,,,stimuli/images/PICTURE_697.png,KILLER,5f5023517ef2f019cf3ebb57,10/01/1953,2020-09-12_00h11.59.251,proactive3.2,2020.1.2,Win32,60,5f5adea66120081ea0f57a61,5f5c4a0ea9ba1143b5c08c65,4,,,,,,peach,0,2,2,4,1,,,,,,,,,,,,,,,,,,,,,,,,,,,,,,,,,,,,,,,,,,,,,,,,,,,,,,,,,,,,,,,,,,,,,,,,,,,,,,,,,,
,,GENIUS,4.77998,1,,,,,,stimuli/images/PICTURE_269.png,GENIUS,5f5023517ef2f019cf3ebb57,10/01/1953,2020-09-12_00h11.59.251,proactive3.2,2020.1.2,Win32,60,5f5adea66120081ea0f57a61,5f5c4a0ea9ba1143b5c08c65,4,,,,,,chameleon,0,3,3,0,1,,,,,,,,,,,,,,,,,,,,,,,,,,,,,,,,,,,,,,,,,,,,,,,,,,,,,,,,,,,,,,,,,,,,,,,,,,,,,,,,,,
,,DEVIL,5.786275,1,,,,,,stimuli/images/PICTURE_658.png,DEVIL,5f5023517ef2f019cf3ebb57,10/01/1953,2020-09-12_00h11.59.251,proactive3.2,2020.1.2,Win32,60,5f5adea66120081ea0f57a61,5f5c4a0ea9ba1143b5c08c65,4,,,,,,crow,0,4,4,3,1,,,,,,,,,,,,,,,,,,,,,,,,,,,,,,,,,,,,,,,,,,,,,,,,,,,,,,,,,,,,,,,,,,,,,,,,,,,,,,,,,,
,,,,,,,,,,stimuli/images/PICTURE_32.png,LETTER,5f5023517ef2f019cf3ebb57,10/01/1953,2020-09-12_00h11.59.251,proactive3.2,2020.1.2,Win32,60,5f5adea66120081ea0f57a61,5f5c4a0ea9ba1143b5c08c65,4,,,,,,crown,,,,,,0,0,0,56,1,6,2,,,,,,,,,,,,,,,,,,,,,,,,,,,,,,,,,,,,,,,,,,,,,,,,,,,,,,,,,,,,,,,,,,,,,,,,,,,
,,,,,,,,,,stimuli/images/PICTURE_509.png,APPLE,5f5023517ef2f019cf3ebb57,10/01/1953,2020-09-12_00h11.59.251,proactive3.2,2020.1.2,Win32,60,5f5adea66120081ea0f57a61,5f5c4a0ea9ba1143b5c08c65,4,,,,,,telephone,,,,,,0,1,1,38,1,4,2,,,,,,,,,,,,,,,,,,,,,,,,,,,,,,,,,,,,,,,,,,,,,,,,,,,,,,,,,,,,,,,,,,,,,,,,,,,
,,,,,,,,,,stimuli/images/PICTURE_2.png,JUNGLE,5f5023517ef2f019cf3ebb57,10/01/1953,2020-09-12_00h11.59.251,proactive3.2,2020.1.2,Win32,60,5f5adea66120081ea0f57a61,5f5c4a0ea9ba1143b5c08c65,4,,,,,,tyre,,,,,,0,2,2,1,1,1,2,,,,,,,,,,,,,,,,,,,,,,,,,,,,,,,,,,,,,,,,,,,,,,,,,,,,,,,,,,,,,,,,,,,,,,,,,,,
,,,,,,,,,,stimuli/images/PICTURE_215.png,LEADER,5f5023517ef2f019cf3ebb57,10/01/1953,2020-09-12_00h11.59.251,proactive3.2,2020.1.2,Win32,60,5f5adea66120081ea0f57a61,5f5c4a0ea9ba1143b5c08c65,4,,,,,,boot,,,,,,0,3,3,43,1,5,2,,,,,,,,,,,,,,,,,,,,,,,,,,,,,,,,,,,,,,,,,,,,,,,,,,,,,,,,,,,,,,,,,,,,,,,,,,,
,,,,,,,,,,stimuli/images/PICTURE_2.png,YARD,5f5023517ef2f019cf3ebb57,10/01/1953,2020-09-12_00h11.59.251,proactive3.2,2020.1.2,Win32,60,5f5adea66120081ea0f57a61,5f5c4a0ea9ba1143b5c08c65,4,,,,,,tyre,,,,,,0,4,4,55,1,6,2,,,,,,,,,,,,,,,,,,,,,,,,,,,,,,,,,,,,,,,,,,,,,,,,,,,,,,,,,,,,,,,,,,,,,,,,,,,
,,,,,,,,,,stimuli/images/PICTURE_57.png,CASINO,5f5023517ef2f019cf3ebb57,10/01/1953,2020-09-12_00h11.59.251,proactive3.2,2020.1.2,Win32,60,5f5adea66120081ea0f57a61,5f5c4a0ea9ba1143b5c08c65,4,,,,,,stamp,,,,,,0,5,5,12,1,2,2,,,,,,,,,,,,,,,,,,,,,,,,,,,,,,,,,,,,,,,,,,,,,,,,,,,,,,,,,,,,,,,,,,,,,,,,,,,
,,,,,,,,,,stimuli/images/PICTURE_348.png,TOILET,5f5023517ef2f019cf3ebb57,10/01/1953,2020-09-12_00h11.59.251,proactive3.2,2020.1.2,Win32,60,5f5adea66120081ea0f57a61,5f5c4a0ea9ba1143b5c08c65,4,,,,,,pepper,,,,,,0,6,6,4,1,1,2,,,,,,,,,,,,,,,,,,,,,,,,,,,,,,,,,,,,,,,,,,,,,,,,,,,,,,,,,,,,,,,,,,,,,,,,,,,
,,,,,,,,,,stimuli/images/PICTURE_177.png,HOUSE,5f5023517ef2f019cf3ebb57,10/01/1953,2020-09-12_00h11.59.251,proactive3.2,2020.1.2,Win32,60,5f5adea66120081ea0f57a61,5f5c4a0ea9ba1143b5c08c65,4,,,,,,mushroom,,,,,,0,7,7,25,1,3,2,,,,,,,,,,,,,,,,,,,,,,,,,,,,,,,,,,,,,,,,,,,,,,,,,,,,,,,,,,,,,,,,,,,,,,,,,,,
,,,,,,,,,,stimuli/images/PICTURE_487.png,POLICY,5f5023517ef2f019cf3ebb57,10/01/1953,2020-09-12_00h11.59.251,proactive3.2,2020.1.2,Win32,60,5f5adea66120081ea0f57a61,5f5c4a0ea9ba1143b5c08c65,4,,,,,,basket,,,,,,0,8,8,34,1,4,2,,,,,,,,,,,,,,,,,,,,,,,,,,,,,,,,,,,,,,,,,,,,,,,,,,,,,,,,,,,,,,,,,,,,,,,,,,,
,,,,,,,,,,stimuli/images/PICTURE_356.png,CANDY,5f5023517ef2f019cf3ebb57,10/01/1953,2020-09-12_00h11.59.251,proactive3.2,2020.1.2,Win32,60,5f5adea66120081ea0f57a61,5f5c4a0ea9ba1143b5c08c65,4,,,,,,pawn,,,,,,0,9,9,46,1,5,2,,,,,,,,,,,,,,,,,,,,,,,,,,,,,,,,,,,,,,,,,,,,,,,,,,,,,,,,,,,,,,,,,,,,,,,,,,,
,,,,,,,,,,stimuli/images/PICTURE_93.png,GIRL,5f5023517ef2f019cf3ebb57,10/01/1953,2020-09-12_00h11.59.251,proactive3.2,2020.1.2,Win32,60,5f5adea66120081ea0f57a61,5f5c4a0ea9ba1143b5c08c65,4,,,,,,skateboard,,,,,,0,10,10,31,1,4,2,,,,,,,,,,,,,,,,,,,,,,,,,,,,,,,,,,,,,,,,,,,,,,,,,,,,,,,,,,,,,,,,,,,,,,,,,,,
,,,,,,,,,,stimuli/images/PICTURE_509.png,MILLER,5f5023517ef2f019cf3ebb57,10/01/1953,2020-09-12_00h11.59.251,proactive3.2,2020.1.2,Win32,60,5f5adea66120081ea0f57a61,5f5c4a0ea9ba1143b5c08c65,4,,,,,,telephone,,,,,,0,11,11,49,1,5,2,,,,,,,,,,,,,,,,,,,,,,,,,,,,,,,,,,,,,,,,,,,,,,,,,,,,,,,,,,,,,,,,,,,,,,,,,,,
,,,,,,,,,,stimuli/images/PICTURE_405.png,HOUSE,5f5023517ef2f019cf3ebb57,10/01/1953,2020-09-12_00h11.59.251,proactive3.2,2020.1.2,Win32,60,5f5adea66120081ea0f57a61,5f5c4a0ea9ba1143b5c08c65,4,,,,,,anchor,,,,,,0,12,12,2,1,1,2,,,,,,,,,,,,,,,,,,,,,,,,,,,,,,,,,,,,,,,,,,,,,,,,,,,,,,,,,,,,,,,,,,,,,,,,,,,
,,,,,,,,,,stimuli/images/PICTURE_141.png,CLIENT,5f5023517ef2f019cf3ebb57,10/01/1953,2020-09-12_00h11.59.251,proactive3.2,2020.1.2,Win32,60,5f5adea66120081ea0f57a61,5f5c4a0ea9ba1143b5c08c65,4,,,,,,sunflower,,,,,,0,13,13,30,1,4,2,,,,,,,,,,,,,,,,,,,,,,,,,,,,,,,,,,,,,,,,,,,,,,,,,,,,,,,,,,,,,,,,,,,,,,,,,,,
,,,,,,,,,,stimuli/images/PICTURE_564.png,PLENTY,5f5023517ef2f019cf3ebb57,10/01/1953,2020-09-12_00h11.59.251,proactive3.2,2020.1.2,Win32,60,5f5adea66120081ea0f57a61,5f5c4a0ea9ba1143b5c08c65,4,,,,,,spoon,,,,,,0,14,14,11,1,2,2,,,,,,,,,,,,,,,,,,,,,,,,,,,,,,,,,,,,,,,,,,,,,,,,,,,,,,,,,,,,,,,,,,,,,,,,,,,
,,,,,,,,,,stimuli/images/PICTURE_677.png,FAMILY,5f5023517ef2f019cf3ebb57,10/01/1953,2020-09-12_00h11.59.251,proactive3.2,2020.1.2,Win32,60,5f5adea66120081ea0f57a61,5f5c4a0ea9ba1143b5c08c65,4,,,,,,map,,,,,,0,15,15,53,1,6,2,,,,,,,,,,,,,,,,,,,,,,,,,,,,,,,,,,,,,,,,,,,,,,,,,,,,,,,,,,,,,,,,,,,,,,,,,,,
,,,,,,,,,,stimuli/images/PICTURE_453.png,FAMILY,5f5023517ef2f019cf3ebb57,10/01/1953,2020-09-12_00h11.59.251,proactive3.2,2020.1.2,Win32,60,5f5adea66120081ea0f57a61,5f5c4a0ea9ba1143b5c08c65,4,,,,,,scissors,,,,,,0,16,16,48,1,5,2,,,,,,,,,,,,,,,,,,,,,,,,,,,,,,,,,,,,,,,,,,,,,,,,,,,,,,,,,,,,,,,,,,,,,,,,,,,
,,,,,,,,,,stimuli/images/PICTURE_2.png,AREA,5f5023517ef2f019cf3ebb57,10/01/1953,2020-09-12_00h11.59.251,proactive3.2,2020.1.2,Win32,60,5f5adea66120081ea0f57a61,5f5c4a0ea9ba1143b5c08c65,4,,,,,,tyre,,,,,,0,17,17,32,1,4,2,,,,,,,,,,,,,,,,,,,,,,,,,,,,,,,,,,,,,,,,,,,,,,,,,,,,,,,,,,,,,,,,,,,,,,,,,,,
,,,,,,,,,,stimuli/images/PICTURE_311.png,TOILET,5f5023517ef2f019cf3ebb57,10/01/1953,2020-09-12_00h11.59.251,proactive3.2,2020.1.2,Win32,60,5f5adea66120081ea0f57a61,5f5c4a0ea9ba1143b5c08c65,4,,,,,,razor,,,,,,0,18,18,54,1,6,2,,,,,,,,,,,,,,,,,,,,,,,,,,,,,,,,,,,,,,,,,,,,,,,,,,,,,,,,,,,,,,,,,,,,,,,,,,,
,,,,,,,,,,stimuli/images/PICTURE_509.png,BATH,5f5023517ef2f019cf3ebb57,10/01/1953,2020-09-12_00h11.59.251,proactive3.2,2020.1.2,Win32,60,5f5adea66120081ea0f57a61,5f5c4a0ea9ba1143b5c08c65,4,,,,,,telephone,,,,,,0,19,19,15,1,2,2,,,,,,,,,,,,,,,,,,,,,,,,,,,,,,,,,,,,,,,,,,,,,,,,,,,,,,,,,,,,,,,,,,,,,,,,,,,
,,,,,,,,,,stimuli/images/PICTURE_33.png,COPS,5f5023517ef2f019cf3ebb57,10/01/1953,2020-09-12_00h11.59.251,proactive3.2,2020.1.2,Win32,60,5f5adea66120081ea0f57a61,5f5c4a0ea9ba1143b5c08c65,4,,,,,,frame,,,,,,0,20,20,29,1,3,2,,,,,,,,,,,,,,,,,,,,,,,,,,,,,,,,,,,,,,,,,,,,,,,,,,,,,,,,,,,,,,,,,,,,,,,,,,,
,,,,,,,,,,stimuli/images/PICTURE_297.png,BODY,5f5023517ef2f019cf3ebb57,10/01/1953,2020-09-12_00h11.59.251,proactive3.2,2020.1.2,Win32,60,5f5adea66120081ea0f57a61,5f5c4a0ea9ba1143b5c08c65,4,,,,,,aeroplane,,,,,,0,21,21,51,1,6,2,,,,,,,,,,,,,,,,,,,,,,,,,,,,,,,,,,,,,,,,,,,,,,,,,,,,,,,,,,,,,,,,,,,,,,,,,,,
,,,,,,,,,,stimuli/images/PICTURE_95.png,NIGHT,5f5023517ef2f019cf3ebb57,10/01/1953,2020-09-12_00h11.59.251,proactive3.2,2020.1.2,Win32,60,5f5adea66120081ea0f57a61,5f5c4a0ea9ba1143b5c08c65,4,,,,,,suitcase,,,,,,0,22,22,37,1,4,2,,,,,,,,,,,,,,,,,,,,,,,,,,,,,,,,,,,,,,,,,,,,,,,,,,,,,,,,,,,,,,,,,,,,,,,,,,,
,,,,,,,,,,stimuli/images/PICTURE_311.png,FLESH,5f5023517ef2f019cf3ebb57,10/01/1953,2020-09-12_00h11.59.251,proactive3.2,2020.1.2,Win32,60,5f5adea66120081ea0f57a61,5f5c4a0ea9ba1143b5c08c65,4,,,,,,razor,,,,,,0,23,23,3,1,1,2,,,,,,,,,,,,,,,,,,,,,,,,,,,,,,,,,,,,,,,,,,,,,,,,,,,,,,,,,,,,,,,,,,,,,,,,,,,
,,,,,,,,,,stimuli/images/PICTURE_255.png,PENNY,5f5023517ef2f019cf3ebb57,10/01/1953,2020-09-12_00h11.59.251,proactive3.2,2020.1.2,Win32,60,5f5adea66120081ea0f57a61,5f5c4a0ea9ba1143b5c08c65,4,,,,,,shovel,,,,,,0,24,24,19,1,2,2,,,,,,,,,,,,,,,,,,,,,,,,,,,,,,,,,,,,,,,,,,,,,,,,,,,,,,,,,,,,,,,,,,,,,,,,,,,
,,,,,,,,,,stimuli/images/PICTURE_504.png,HOUSE,5f5023517ef2f019cf3ebb57,10/01/1953,2020-09-12_00h11.59.251,proactive3.2,2020.1.2,Win32,60,5f5adea66120081ea0f57a61,5f5c4a0ea9ba1143b5c08c65,4,,,,,,wheel,,,,,,0,25,25,36,1,4,2,,,,,,,,,,,,,,,,,,,,,,,,,,,,,,,,,,,,,,,,,,,,,,,,,,,,,,,,,,,,,,,,,,,,,,,,,,,
,,,,,,,,,,stimuli/images/PICTURE_677.png,PHOTO,5f5023517ef2f019cf3ebb57,10/01/1953,2020-09-12_00h11.59.251,proactive3.2,2020.1.2,Win32,60,5f5adea66120081ea0f57a61,5f5c4a0ea9ba1143b5c08c65,4,,,,,,map,,,,,,0,26,26,14,1,2,2,,,,,,,,,,,,,,,,,,,,,,,,,,,,,,,,,,,,,,,,,,,,,,,,,,,,,,,,,,,,,,,,,,,,,,,,,,,
,,,,,,,,,,stimuli/images/PICTURE_314.png,SPEECH,5f5023517ef2f019cf3ebb57,10/01/1953,2020-09-12_00h11.59.251,proactive3.2,2020.1.2,Win32,60,5f5adea66120081ea0f57a61,5f5c4a0ea9ba1143b5c08c65,4,,,,,,perfume,,,,,,0,27,27,35,1,4,2,,,,,,,,,,,,,,,,,,,,,,,,,,,,,,,,,,,,,,,,,,,,,,,,,,,,,,,,,,,,,,,,,,,,,,,,,,,
,,,,,,,,,,stimuli/images/PICTURE_403.png,FAMILY,5f5023517ef2f019cf3ebb57,10/01/1953,2020-09-12_00h11.59.251,proactive3.2,2020.1.2,Win32,60,5f5adea66120081ea0f57a61,5f5c4a0ea9ba1143b5c08c65,4,,,,,,cathedral,,,,,,0,28,28,9,1,1,2,,,,,,,,,,,,,,,,,,,,,,,,,,,,,,,,,,,,,,,,,,,,,,,,,,,,,,,,,,,,,,,,,,,,,,,,,,,
,,,,,,,,,,stimuli/images/PICTURE_18.png,RIVER,5f5023517ef2f019cf3ebb57,10/01/1953,2020-09-12_00h11.59.251,proactive3.2,2020.1.2,Win32,60,5f5adea66120081ea0f57a61,5f5c4a0ea9ba1143b5c08c65,4,,,,,,planet,,,,,,0,29,29,22,1,3,2,,,,,,,,,,,,,,,,,,,,,,,,,,,,,,,,,,,,,,,,,,,,,,,,,,,,,,,,,,,,,,,,,,,,,,,,,,,
,,,,,,,,,,stimuli/images/PICTURE_285.png,PRINCE,5f5023517ef2f019cf3ebb57,10/01/1953,2020-09-12_00h11.59.251,proactive3.2,2020.1.2,Win32,60,5f5adea66120081ea0f57a61,5f5c4a0ea9ba1143b5c08c65,4,,,,,,carrot,,,,,,0,30,30,20,1,3,2,,,,,,,,,,,,,,,,,,,,,,,,,,,,,,,,,,,,,,,,,,,,,,,,,,,,,,,,,,,,,,,,,,,,,,,,,,,
,,,,,,,,,,stimuli/images/PICTURE_215.png,FOOD,5f5023517ef2f019cf3ebb57,10/01/1953,2020-09-12_00h11.59.251,proactive3.2,2020.1.2,Win32,60,5f5adea66120081ea0f57a61,5f5c4a0ea9ba1143b5c08c65,4,,,,,,boot,,,,,,0,31,31,5,1,1,2,,,,,,,,,,,,,,,,,,,,,,,,,,,,,,,,,,,,,,,,,,,,,,,,,,,,,,,,,,,,,,,,,,,,,,,,,,,
,,,,,,,,,,stimuli/images/PICTURE_667.png,GLASS,5f5023517ef2f019cf3ebb57,10/01/1953,2020-09-12_00h11.59.251,proactive3.2,2020.1.2,Win32,60,5f5adea66120081ea0f57a61,5f5c4a0ea9ba1143b5c08c65,4,,,,,,daisy,,,,,,0,32,32,27,1,3,2,,,,,,,,,,,,,,,,,,,,,,,,,,,,,,,,,,,,,,,,,,,,,,,,,,,,,,,,,,,,,,,,,,,,,,,,,,,
,,,,,,,,,,stimuli/images/PICTURE_708.png,VALLEY,5f5023517ef2f019cf3ebb57,10/01/1953,2020-09-12_00h11.59.251,proactive3.2,2020.1.2,Win32,60,5f5adea66120081ea0f57a61,5f5c4a0ea9ba1143b5c08c65,4,,,,,,monkey,,,,,,0,33,33,45,1,5,2,,,,,,,,,,,,,,,,,,,,,,,,,,,,,,,,,,,,,,,,,,,,,,,,,,,,,,,,,,,,,,,,,,,,,,,,,,,
,,,,,,,,,,stimuli/images/PICTURE_654.png,COPS,5f5023517ef2f019cf3ebb57,10/01/1953,2020-09-12_00h11.59.251,proactive3.2,2020.1.2,Win32,60,5f5adea66120081ea0f57a61,5f5c4a0ea9ba1143b5c08c65,4,,,,,,pencil,,,,,,0,34,34,10,1,2,2,,,,,,,,,,,,,,,,,,,,,,,,,,,,,,,,,,,,,,,,,,,,,,,,,,,,,,,,,,,,,,,,,,,,,,,,,,,
,,,,,,,,,,stimuli/images/PICTURE_57.png,NATION,5f5023517ef2f019cf3ebb57,10/01/1953,2020-09-12_00h11.59.251,proactive3.2,2020.1.2,Win32,60,5f5adea66120081ea0f57a61,5f5c4a0ea9ba1143b5c08c65,4,,,,,,stamp,,,,,,0,35,35,21,1,3,2,,,,,,,,,,,,,,,,,,,,,,,,,,,,,,,,,,,,,,,,,,,,,,,,,,,,,,,,,,,,,,,,,,,,,,,,,,,
,,,,,,,,,,stimuli/images/PICTURE_57.png,CANDY,5f5023517ef2f019cf3ebb57,10/01/1953,2020-09-12_00h11.59.251,proactive3.2,2020.1.2,Win32,60,5f5adea66120081ea0f57a61,5f5c4a0ea9ba1143b5c08c65,4,,,,,,stamp,,,,,,0,36,36,52,1,6,2,,,,,,,,,,,,,,,,,,,,,,,,,,,,,,,,,,,,,,,,,,,,,,,,,,,,,,,,,,,,,,,,,,,,,,,,,,,
,,,,,,,,,,stimuli/images/PICTURE_405.png,JUNGLE,5f5023517ef2f019cf3ebb57,10/01/1953,2020-09-12_00h11.59.251,proactive3.2,2020.1.2,Win32,60,5f5adea66120081ea0f57a61,5f5c4a0ea9ba1143b5c08c65,4,,,,,,anchor,,,,,,0,37,37,58,1,6,2,,,,,,,,,,,,,,,,,,,,,,,,,,,,,,,,,,,,,,,,,,,,,,,,,,,,,,,,,,,,,,,,,,,,,,,,,,,
,,,,,,,,,,stimuli/images/PICTURE_452.png,COPS,5f5023517ef2f019cf3ebb57,10/01/1953,2020-09-12_00h11.59.251,proactive3.2,2020.1.2,Win32,60,5f5adea66120081ea0f57a61,5f5c4a0ea9ba1143b5c08c65,4,,,,,,watch,,,,,,0,38,38,0,1,1,2,,,,,,,,,,,,,,,,,,,,,,,,,,,,,,,,,,,,,,,,,,,,,,,,,,,,,,,,,,,,,,,,,,,,,,,,,,,
,,,,,,,,,,stimuli/images/PICTURE_487.png,ROOF,5f5023517ef2f019cf3ebb57,10/01/1953,2020-09-12_00h11.59.251,proactive3.2,2020.1.2,Win32,60,5f5adea66120081ea0f57a61,5f5c4a0ea9ba1143b5c08c65,4,,,,,,basket,,,,,,0,39,39,50,1,6,2,,,,,,,,,,,,,,,,,,,,,,,,,,,,,,,,,,,,,,,,,,,,,,,,,,,,,,,,,,,,,,,,,,,,,,,,,,,
,,,,,,,,,,stimuli/images/PICTURE_123.png,SALE,5f5023517ef2f019cf3ebb57,10/01/1953,2020-09-12_00h11.59.251,proactive3.2,2020.1.2,Win32,60,5f5adea66120081ea0f57a61,5f5c4a0ea9ba1143b5c08c65,4,,,,,,dart,,,,,,0,40,40,8,1,1,2,,,,,,,,,,,,,,,,,,,,,,,,,,,,,,,,,,,,,,,,,,,,,,,,,,,,,,,,,,,,,,,,,,,,,,,,,,,
,,,,,,,,,,stimuli/images/PICTURE_654.png,YEAR,5f5023517ef2f019cf3ebb57,10/01/1953,2020-09-12_00h11.59.251,proactive3.2,2020.1.2,Win32,60,5f5adea66120081ea0f57a61,5f5c4a0ea9ba1143b5c08c65,4,,,,,,pencil,,,,,,0,41,41,41,1,5,2,,,,,,,,,,,,,,,,,,,,,,,,,,,,,,,,,,,,,,,,,,,,,,,,,,,,,,,,,,,,,,,,,,,,,,,,,,,
,,,,,,,,,,stimuli/images/PICTURE_208.png,SPIRIT,5f5023517ef2f019cf3ebb57,10/01/1953,2020-09-12_00h11.59.251,proactive3.2,2020.1.2,Win32,60,5f5adea66120081ea0f57a61,5f5c4a0ea9ba1143b5c08c65,4,,,,,,microphone,,,,,,0,42,42,28,1,3,2,,,,,,,,,,,,,,,,,,,,,,,,,,,,,,,,,,,,,,,,,,,,,,,,,,,,,,,,,,,,,,,,,,,,,,,,,,,
,,,,,,,,,,stimuli/images/PICTURE_692.png,DUDE,5f5023517ef2f019cf3ebb57,10/01/1953,2020-09-12_00h11.59.251,proactive3.2,2020.1.2,Win32,60,5f5adea66120081ea0f57a61,5f5c4a0ea9ba1143b5c08c65,4,,,,,,cherry,,,,,,0,43,43,47,1,5,2,,,,,,,,,,,,,,,,,,,,,,,,,,,,,,,,,,,,,,,,,,,,,,,,,,,,,,,,,,,,,,,,,,,,,,,,,,,
,,,,,,,,,,stimuli/images/PICTURE_688.png,CLOCK,5f5023517ef2f019cf3ebb57,10/01/1953,2020-09-12_00h11.59.251,proactive3.2,2020.1.2,Win32,60,5f5adea66120081ea0f57a61,5f5c4a0ea9ba1143b5c08c65,4,,,,,,runner,,,,,,0,44,44,42,1,5,2,,,,,,,,,,,,,,,,,,,,,,,,,,,,,,,,,,,,,,,,,,,,,,,,,,,,,,,,,,,,,,,,,,,,,,,,,,,
,,,,,,,,,,stimuli/images/PICTURE_405.png,JUNGLE,5f5023517ef2f019cf3ebb57,10/01/1953,2020-09-12_00h11.59.251,proactive3.2,2020.1.2,Win32,60,5f5adea66120081ea0f57a61,5f5c4a0ea9ba1143b5c08c65,4,,,,,,anchor,,,,,,0,45,45,13,1,2,2,,,,,,,,,,,,,,,,,,,,,,,,,,,,,,,,,,,,,,,,,,,,,,,,,,,,,,,,,,,,,,,,,,,,,,,,,,,
,,,,,,,,,,stimuli/images/PICTURE_509.png,SHOTS,5f5023517ef2f019cf3ebb57,10/01/1953,2020-09-12_00h11.59.251,proactive3.2,2020.1.2,Win32,60,5f5adea66120081ea0f57a61,5f5c4a0ea9ba1143b5c08c65,4,,,,,,telephone,,,,,,0,46,46,7,1,1,2,,,,,,,,,,,,,,,,,,,,,,,,,,,,,,,,,,,,,,,,,,,,,,,,,,,,,,,,,,,,,,,,,,,,,,,,,,,
,,,,,,,,,,stimuli/images/PICTURE_491.png,SERIES,5f5023517ef2f019cf3ebb57,10/01/1953,2020-09-12_00h11.59.251,proactive3.2,2020.1.2,Win32,60,5f5adea66120081ea0f57a61,5f5c4a0ea9ba1143b5c08c65,4,,,,,,rug,,,,,,0,47,47,39,1,4,2,,,,,,,,,,,,,,,,,,,,,,,,,,,,,,,,,,,,,,,,,,,,,,,,,,,,,,,,,,,,,,,,,,,,,,,,,,,
,,,,,,,,,,stimuli/images/PICTURE_655.png,SALE,5f5023517ef2f019cf3ebb57,10/01/1953,2020-09-12_00h11.59.251,proactive3.2,2020.1.2,Win32,60,5f5adea66120081ea0f57a61,5f5c4a0ea9ba1143b5c08c65,4,,,,,,megaphone,,,,,,0,48,48,57,1,6,2,,,,,,,,,,,,,,,,,,,,,,,,,,,,,,,,,,,,,,,,,,,,,,,,,,,,,,,,,,,,,,,,,,,,,,,,,,,
,,,,,,,,,,stimuli/images/PICTURE_147.png,LEADER,5f5023517ef2f019cf3ebb57,10/01/1953,2020-09-12_00h11.59.251,proactive3.2,2020.1.2,Win32,60,5f5adea66120081ea0f57a61,5f5c4a0ea9ba1143b5c08c65,4,,,,,,hanger,,,,,,0,49,49,33,1,4,2,,,,,,,,,,,,,,,,,,,,,,,,,,,,,,,,,,,,,,,,,,,,,,,,,,,,,,,,,,,,,,,,,,,,,,,,,,,
,,,,,,,,,,stimuli/images/PICTURE_327.png,LEADER,5f5023517ef2f019cf3ebb57,10/01/1953,2020-09-12_00h11.59.251,proactive3.2,2020.1.2,Win32,60,5f5adea66120081ea0f57a61,5f5c4a0ea9ba1143b5c08c65,4,,,,,,helmet,,,,,,0,50,50,17,1,2,2,,,,,,,,,,,,,,,,,,,,,,,,,,,,,,,,,,,,,,,,,,,,,,,,,,,,,,,,,,,,,,,,,,,,,,,,,,,
,,,,,,,,,,stimuli/images/PICTURE_470.png,BEAUTY,5f5023517ef2f019cf3ebb57,10/01/1953,2020-09-12_00h11.59.251,proactive3.2,2020.1.2,Win32,60,5f5adea66120081ea0f57a61,5f5c4a0ea9ba1143b5c08c65,4,,,,,,motorbike,,,,,,0,51,51,26,1,3,2,,,,,,,,,,,,,,,,,,,,,,,,,,,,,,,,,,,,,,,,,,,,,,,,,,,,,,,,,,,,,,,,,,,,,,,,,,,
,,,,,,,,,,stimuli/images/PICTURE_160.png,HOTEL,5f5023517ef2f019cf3ebb57,10/01/1953,2020-09-12_00h11.59.251,proactive3.2,2020.1.2,Win32,60,5f5adea66120081ea0f57a61,5f5c4a0ea9ba1143b5c08c65,4,,,,,,wheelbarrow,,,,,,0,52,52,16,1,2,2,,,,,,,,,,,,,,,,,,,,,,,,,,,,,,,,,,,,,,,,,,,,,,,,,,,,,,,,,,,,,,,,,,,,,,,,,,,
,,,,,,,,,,stimuli/images/PICTURE_296.png,CLOCK,5f5023517ef2f019cf3ebb57,10/01/1953,2020-09-12_00h11.59.251,proactive3.2,2020.1.2,Win32,60,5f5adea66120081ea0f57a61,5f5c4a0ea9ba1143b5c08c65,4,,,,,,bolt,,,,,,0,53,53,18,1,2,2,,,,,,,,,,,,,,,,,,,,,,,,,,,,,,,,,,,,,,,,,,,,,,,,,,,,,,,,,,,,,,,,,,,,,,,,,,,
,,,,,,,,,,stimuli/images/PICTURE_750.png,POLICY,5f5023517ef2f019cf3ebb57,10/01/1953,2020-09-12_00h11.59.251,proactive3.2,2020.1.2,Win32,60,5f5adea66120081ea0f57a61,5f5c4a0ea9ba1143b5c08c65,4,,,,,,kettle,,,,,,0,54,54,44,1,5,2,,,,,,,,,,,,,,,,,,,,,,,,,,,,,,,,,,,,,,,,,,,,,,,,,,,,,,,,,,,,,,,,,,,,,,,,,,,
,,,,,,,,,,stimuli/images/PICTURE_470.png,MOMENT,5f5023517ef2f019cf3ebb57,10/01/1953,2020-09-12_00h11.59.251,proactive3.2,2020.1.2,Win32,60,5f5adea66120081ea0f57a61,5f5c4a0ea9ba1143b5c08c65,4,,,,,,motorbike,,,,,,0,55,55,40,1,5,2,,,,,,,,,,,,,,,,,,,,,,,,,,,,,,,,,,,,,,,,,,,,,,,,,,,,,,,,,,,,,,,,,,,,,,,,,,,
,,,,,,,,,,stimuli/images/PICTURE_215.png,BOYS,5f5023517ef2f019cf3ebb57,10/01/1953,2020-09-12_00h11.59.251,proactive3.2,2020.1.2,Win32,60,5f5adea66120081ea0f57a61,5f5c4a0ea9ba1143b5c08c65,4,,,,,,boot,,,,,,0,56,56,24,1,3,2,,,,,,,,,,,,,,,,,,,,,,,,,,,,,,,,,,,,,,,,,,,,,,,,,,,,,,,,,,,,,,,,,,,,,,,,,,,
,,,,,,,,,,stimuli/images/PICTURE_68.png,KIND,5f5023517ef2f019cf3ebb57,10/01/1953,2020-09-12_00h11.59.251,proactive3.2,2020.1.2,Win32,60,5f5adea66120081ea0f57a61,5f5c4a0ea9ba1143b5c08c65,4,,,,,,candle,,,,,,0,57,57,23,1,3,2,,,,,,,,,,,,,,,,,,,,,,,,,,,,,,,,,,,,,,,,,,,,,,,,,,,,,,,,,,,,,,,,,,,,,,,,,,,
,,,,,,,,,,stimuli/images/PICTURE_348.png,DUDE,5f5023517ef2f019cf3ebb57,10/01/1953,2020-09-12_00h11.59.251,proactive3.2,2020.1.2,Win32,60,5f5adea66120081ea0f57a61,5f5c4a0ea9ba1143b5c08c65,4,,,,,,pepper,,,,,,0,58,58,59,1,6,2,,,,,,,,,,,,,,,,,,,,,,,,,,,,,,,,,,,,,,,,,,,,,,,,,,,,,,,,,,,,,,,,,,,,,,,,,,,
,,?,0.002345,0,,,,,,stimuli/images/PICTURE_215.png,LEADER,5f5023517ef2f019cf3ebb57,10/01/1953,2020-09-12_00h11.59.251,proactive3.2,2020.1.2,Win32,60,5f5adea66120081ea0f57a61,5f5c4a0ea9ba1143b5c08c65,4,,,,,,boot,,,,,,,,,,,5,2,0,0,0,43,1,,,,,,,,,,,,,,,,,,,,,,,,,,,,,,,,,,,,,,,,,,,,,,,,,,,,,,,,,,,,,,,,,,,,,,
,,?,0.002145,0,,,,,,stimuli/images/PICTURE_677.png,FAMILY,5f5023517ef2f019cf3ebb57,10/01/1953,2020-09-12_00h11.59.251,proactive3.2,2020.1.2,Win32,60,5f5adea66120081ea0f57a61,5f5c4a0ea9ba1143b5c08c65,4,,,,,,map,,,,,,,,,,,6,2,0,1,1,53,1,,,,,,,,,,,,,,,,,,,,,,,,,,,,,,,,,,,,,,,,,,,,,,,,,,,,,,,,,,,,,,,,,,,,,,
,,?,0.002195,0,,,,,,stimuli/images/PICTURE_655.png,SALE,5f5023517ef2f019cf3ebb57,10/01/1953,2020-09-12_00h11.59.251,proactive3.2,2020.1.2,Win32,60,5f5adea66120081ea0f57a61,5f5c4a0ea9ba1143b5c08c65,4,,,,,,megaphone,,,,,,,,,,,6,2,0,2,2,57,1,,,,,,,,,,,,,,,,,,,,,,,,,,,,,,,,,,,,,,,,,,,,,,,,,,,,,,,,,,,,,,,,,,,,,,
,,?,0.002235,0,,,,,,stimuli/images/PICTURE_564.png,PLENTY,5f5023517ef2f019cf3ebb57,10/01/1953,2020-09-12_00h11.59.251,proactive3.2,2020.1.2,Win32,60,5f5adea66120081ea0f57a61,5f5c4a0ea9ba1143b5c08c65,4,,,,,,spoon,,,,,,,,,,,2,2,0,3,3,11,1,,,,,,,,,,,,,,,,,,,,,,,,,,,,,,,,,,,,,,,,,,,,,,,,,,,,,,,,,,,,,,,,,,,,,,
,,?,0.00248,0,,,,,,stimuli/images/PICTURE_654.png,COPS,5f5023517ef2f019cf3ebb57,10/01/1953,2020-09-12_00h11.59.251,proactive3.2,2020.1.2,Win32,60,5f5adea66120081ea0f57a61,5f5c4a0ea9ba1143b5c08c65,4,,,,,,pencil,,,,,,,,,,,2,2,0,4,4,10,1,,,,,,,,,,,,,,,,,,,,,,,,,,,,,,,,,,,,,,,,,,,,,,,,,,,,,,,,,,,,,,,,,,,,,,
,,?,0.002195,0,,,,,,stimuli/images/PICTURE_405.png,JUNGLE,5f5023517ef2f019cf3ebb57,10/01/1953,2020-09-12_00h11.59.251,proactive3.2,2020.1.2,Win32,60,5f5adea66120081ea0f57a61,5f5c4a0ea9ba1143b5c08c65,4,,,,,,anchor,,,,,,,,,,,2,2,0,5,5,13,1,,,,,,,,,,,,,,,,,,,,,,,,,,,,,,,,,,,,,,,,,,,,,,,,,,,,,,,,,,,,,,,,,,,,,,
,,?,0.00218,0,,,,,,stimuli/images/PICTURE_688.png,CLOCK,5f5023517ef2f019cf3ebb57,10/01/1953,2020-09-12_00h11.59.251,proactive3.2,2020.1.2,Win32,60,5f5adea66120081ea0f57a61,5f5c4a0ea9ba1143b5c08c65,4,,,,,,runner,,,,,,,,,,,5,2,0,6,6,42,1,,,,,,,,,,,,,,,,,,,,,,,,,,,,,,,,,,,,,,,,,,,,,,,,,,,,,,,,,,,,,,,,,,,,,,
,,?,0.00217,0,,,,,,stimuli/images/PICTURE_692.png,DUDE,5f5023517ef2f019cf3ebb57,10/01/1953,2020-09-12_00h11.59.251,proactive3.2,2020.1.2,Win32,60,5f5adea66120081ea0f57a61,5f5c4a0ea9ba1143b5c08c65,4,,,,,,cherry,,,,,,,,,,,5,2,0,7,7,47,1,,,,,,,,,,,,,,,,,,,,,,,,,,,,,,,,,,,,,,,,,,,,,,,,,,,,,,,,,,,,,,,,,,,,,,
,,?,0.00213,0,,,,,,stimuli/images/PICTURE_57.png,NATION,5f5023517ef2f019cf3ebb57,10/01/1953,2020-09-12_00h11.59.251,proactive3.2,2020.1.2,Win32,60,5f5adea66120081ea0f57a61,5f5c4a0ea9ba1143b5c08c65,4,,,,,,stamp,,,,,,,,,,,3,2,0,8,8,21,1,,,,,,,,,,,,,,,,,,,,,,,,,,,,,,,,,,,,,,,,,,,,,,,,,,,,,,,,,,,,,,,,,,,,,,
,,GIRL,3.5992,1,,,,,,stimuli/images/PICTURE_93.png,GIRL,5f5023517ef2f019cf3ebb57,10/01/1953,2020-09-12_00h11.59.251,proactive3.2,2020.1.2,Win32,60,5f5adea66120081ea0f57a61,5f5c4a0ea9ba1143b5c08c65,4,,,,,,skateboard,,,,,,,,,,,4,2,0,9,9,31,1,,,,,,,,,,,,,,,,,,,,,,,,,,,,,,,,,,,,,,,,,,,,,,,,,,,,,,,,,,,,,,,,,,,,,,
,,?,0.003,0,,,,,,stimuli/images/PICTURE_18.png,RIVER,5f5023517ef2f019cf3ebb57,10/01/1953,2020-09-12_00h11.59.251,proactive3.2,2020.1.2,Win32,60,5f5adea66120081ea0f57a61,5f5c4a0ea9ba1143b5c08c65,4,,,,,,planet,,,,,,,,,,,3,2,0,10,10,22,1,,,,,,,,,,,,,,,,,,,,,,,,,,,,,,,,,,,,,,,,,,,,,,,,,,,,,,,,,,,,,,,,,,,,,,
,,?,0.00293,0,,,,,,stimuli/images/PICTURE_470.png,BEAUTY,5f5023517ef2f019cf3ebb57,10/01/1953,2020-09-12_00h11.59.251,proactive3.2,2020.1.2,Win32,60,5f5adea66120081ea0f57a61,5f5c4a0ea9ba1143b5c08c65,4,,,,,,motorbike,,,,,,,,,,,3,2,0,11,11,26,1,,,,,,,,,,,,,,,,,,,,,,,,,,,,,,,,,,,,,,,,,,,,,,,,,,,,,,,,,,,,,,,,,,,,,,
,,?,0.00294,0,,,,,,stimuli/images/PICTURE_33.png,COPS,5f5023517ef2f019cf3ebb57,10/01/1953,2020-09-12_00h11.59.251,proactive3.2,2020.1.2,Win32,60,5f5adea66120081ea0f57a61,5f5c4a0ea9ba1143b5c08c65,4,,,,,,frame,,,,,,,,,,,3,2,0,12,12,29,1,,,,,,,,,,,,,,,,,,,,,,,,,,,,,,,,,,,,,,,,,,,,,,,,,,,,,,,,,,,,,,,,,,,,,,
,,?,0.00325,0,,,,,,stimuli/images/PICTURE_177.png,HOUSE,5f5023517ef2f019cf3ebb57,10/01/1953,2020-09-12_00h11.59.251,proactive3.2,2020.1.2,Win32,60,5f5adea66120081ea0f57a61,5f5c4a0ea9ba1143b5c08c65,4,,,,,,mushroom,,,,,,,,,,,3,2,0,13,13,25,1,,,,,,,,,,,,,,,,,,,,,,,,,,,,,,,,,,,,,,,,,,,,,,,,,,,,,,,,,,,,,,,,,,,,,,
,,?,0.00278,0,,,,,,stimuli/images/PICTURE_57.png,CASINO,5f5023517ef2f019cf3ebb57,10/01/1953,2020-09-12_00h11.59.251,proactive3.2,2020.1.2,Win32,60,5f5adea66120081ea0f57a61,5f5c4a0ea9ba1143b5c08c65,4,,,,,,stamp,,,,,,,,,,,2,2,0,14,14,12,1,,,,,,,,,,,,,,,,,,,,,,,,,,,,,,,,,,,,,,,,,,,,,,,,,,,,,,,,,,,,,,,,,,,,,,
,,?,0.012875,0,,,,,,stimuli/images/PICTURE_405.png,JUNGLE,5f5023517ef2f019cf3ebb57,10/01/1953,2020-09-12_00h11.59.251,proactive3.2,2020.1.2,Win32,60,5f5adea66120081ea0f57a61,5f5c4a0ea9ba1143b5c08c65,4,,,,,,anchor,,,,,,,,,,,6,2,0,15,15,58,1,,,,,,,,,,,,,,,,,,,,,,,,,,,,,,,,,,,,,,,,,,,,,,,,,,,,,,,,,,,,,,,,,,,,,,
,,?,9.769465,0,,,,,,stimuli/images/PICTURE_314.png,SPEECH,5f5023517ef2f019cf3ebb57,10/01/1953,2020-09-12_00h11.59.251,proactive3.2,2020.1.2,Win32,60,5f5adea66120081ea0f57a61,5f5c4a0ea9ba1143b5c08c65,4,,,,,,perfume,,,,,,,,,,,4,2,0,16,16,35,1,,,,,,,,,,,,,,,,,,,,,,,,,,,,,,,,,,,,,,,,,,,,,,,,,,,,,,,,,,,,,,,,,,,,,,
,,?,0.002485,0,,,,,,stimuli/images/PICTURE_487.png,ROOF,5f5023517ef2f019cf3ebb57,10/01/1953,2020-09-12_00h11.59.251,proactive3.2,2020.1.2,Win32,60,5f5adea66120081ea0f57a61,5f5c4a0ea9ba1143b5c08c65,4,,,,,,basket,,,,,,,,,,,6,2,0,17,17,50,1,,,,,,,,,,,,,,,,,,,,,,,,,,,,,,,,,,,,,,,,,,,,,,,,,,,,,,,,,,,,,,,,,,,,,,
,,?,0.002225,0,,,,,,stimuli/images/PICTURE_215.png,BOYS,5f5023517ef2f019cf3ebb57,10/01/1953,2020-09-12_00h11.59.251,proactive3.2,2020.1.2,Win32,60,5f5adea66120081ea0f57a61,5f5c4a0ea9ba1143b5c08c65,4,,,,,,boot,,,,,,,,,,,3,2,0,18,18,24,1,,,,,,,,,,,,,,,,,,,,,,,,,,,,,,,,,,,,,,,,,,,,,,,,,,,,,,,,,,,,,,,,,,,,,,
,,?,0.002595,0,,,,,,stimuli/images/PICTURE_285.png,PRINCE,5f5023517ef2f019cf3ebb57,10/01/1953,2020-09-12_00h11.59.251,proactive3.2,2020.1.2,Win32,60,5f5adea66120081ea0f57a61,5f5c4a0ea9ba1143b5c08c65,4,,,,,,carrot,,,,,,,,,,,3,2,0,19,19,20,1,,,,,,,,,,,,,,,,,,,,,,,,,,,,,,,,,,,,,,,,,,,,,,,,,,,,,,,,,,,,,,,,,,,,,,
,,?,13.23022,0,,,,,,stimuli/images/PICTURE_141.png,CLIENT,5f5023517ef2f019cf3ebb57,10/01/1953,2020-09-12_00h11.59.251,proactive3.2,2020.1.2,Win32,60,5f5adea66120081ea0f57a61,5f5c4a0ea9ba1143b5c08c65,4,,,,,,sunflower,,,,,,,,,,,4,2,0,20,20,30,1,,,,,,,,,,,,,,,,,,,,,,,,,,,,,,,,,,,,,,,,,,,,,,,,,,,,,,,,,,,,,,,,,,,,,,
,,?,0.00203,0,,,,,,stimuli/images/PICTURE_356.png,CANDY,5f5023517ef2f019cf3ebb57,10/01/1953,2020-09-12_00h11.59.251,proactive3.2,2020.1.2,Win32,60,5f5adea66120081ea0f57a61,5f5c4a0ea9ba1143b5c08c65,4,,,,,,pawn,,,,,,,,,,,5,2,0,21,21,46,1,,,,,,,,,,,,,,,,,,,,,,,,,,,,,,,,,,,,,,,,,,,,,,,,,,,,,,,,,,,,,,,,,,,,,,
,,?,0.00385,0,,,,,,stimuli/images/PICTURE_667.png,GLASS,5f5023517ef2f019cf3ebb57,10/01/1953,2020-09-12_00h11.59.251,proactive3.2,2020.1.2,Win32,60,5f5adea66120081ea0f57a61,5f5c4a0ea9ba1143b5c08c65,4,,,,,,daisy,,,,,,,,,,,3,2,0,22,22,27,1,,,,,,,,,,,,,,,,,,,,,,,,,,,,,,,,,,,,,,,,,,,,,,,,,,,,,,,,,,,,,,,,,,,,,,
,,APPLE,6.012075,1,,,,,,stimuli/images/PICTURE_509.png,APPLE,5f5023517ef2f019cf3ebb57,10/01/1953,2020-09-12_00h11.59.251,proactive3.2,2020.1.2,Win32,60,5f5adea66120081ea0f57a61,5f5c4a0ea9ba1143b5c08c65,4,,,,,,telephone,,,,,,,,,,,4,2,0,23,23,38,1,,,,,,,,,,,,,,,,,,,,,,,,,,,,,,,,,,,,,,,,,,,,,,,,,,,,,,,,,,,,,,,,,,,,,,
,,?,9.7529,0,,,,,,stimuli/images/PICTURE_487.png,POLICY,5f5023517ef2f019cf3ebb57,10/01/1953,2020-09-12_00h11.59.251,proactive3.2,2020.1.2,Win32,60,5f5adea66120081ea0f57a61,5f5c4a0ea9ba1143b5c08c65,4,,,,,,basket,,,,,,,,,,,4,2,0,24,24,34,1,,,,,,,,,,,,,,,,,,,,,,,,,,,,,,,,,,,,,,,,,,,,,,,,,,,,,,,,,,,,,,,,,,,,,,
,,?,0.00234,0,,,,,,stimuli/images/PICTURE_509.png,BATH,5f5023517ef2f019cf3ebb57,10/01/1953,2020-09-12_00h11.59.251,proactive3.2,2020.1.2,Win32,60,5f5adea66120081ea0f57a61,5f5c4a0ea9ba1143b5c08c65,4,,,,,,telephone,,,,,,,,,,,2,2,0,25,25,15,1,,,,,,,,,,,,,,,,,,,,,,,,,,,,,,,,,,,,,,,,,,,,,,,,,,,,,,,,,,,,,,,,,,,,,,
,,?,0.00201,0,,,,,,stimuli/images/PICTURE_57.png,CANDY,5f5023517ef2f019cf3ebb57,10/01/1953,2020-09-12_00h11.59.251,proactive3.2,2020.1.2,Win32,60,5f5adea66120081ea0f57a61,5f5c4a0ea9ba1143b5c08c65,4,,,,,,stamp,,,,,,,,,,,6,2,0,26,26,52,1,,,,,,,,,,,,,,,,,,,,,,,,,,,,,,,,,,,,,,,,,,,,,,,,,,,,,,,,,,,,,,,,,,,,,,
,,AREA,3.993495,1,,,,,,stimuli/images/PICTURE_2.png,AREA,5f5023517ef2f019cf3ebb57,10/01/1953,2020-09-12_00h11.59.251,proactive3.2,2020.1.2,Win32,60,5f5adea66120081ea0f57a61,5f5c4a0ea9ba1143b5c08c65,4,,,,,,tyre,,,,,,,,,,,4,2,0,27,27,32,1,,,,,,,,,,,,,,,,,,,,,,,,,,,,,,,,,,,,,,,,,,,,,,,,,,,,,,,,,,,,,,,,,,,,,,
,,?,0.00218,0,,,,,,stimuli/images/PICTURE_452.png,COPS,5f5023517ef2f019cf3ebb57,10/01/1953,2020-09-12_00h11.59.251,proactive3.2,2020.1.2,Win32,60,5f5adea66120081ea0f57a61,5f5c4a0ea9ba1143b5c08c65,4,,,,,,watch,,,,,,,,,,,1,2,0,28,28,0,1,,,,,,,,,,,,,,,,,,,,,,,,,,,,,,,,,,,,,,,,,,,,,,,,,,,,,,,,,,,,,,,,,,,,,,
,,?,0.00203,0,,,,,,stimuli/images/PICTURE_708.png,VALLEY,5f5023517ef2f019cf3ebb57,10/01/1953,2020-09-12_00h11.59.251,proactive3.2,2020.1.2,Win32,60,5f5adea66120081ea0f57a61,5f5c4a0ea9ba1143b5c08c65,4,,,,,,monkey,,,,,,,,,,,5,2,0,29,29,45,1,,,,,,,,,,,,,,,,,,,,,,,,,,,,,,,,,,,,,,,,,,,,,,,,,,,,,,,,,,,,,,,,,,,,,,
,,?,0.002105,0,,,,,,stimuli/images/PICTURE_2.png,YARD,5f5023517ef2f019cf3ebb57,10/01/1953,2020-09-12_00h11.59.251,proactive3.2,2020.1.2,Win32,60,5f5adea66120081ea0f57a61,5f5c4a0ea9ba1143b5c08c65,4,,,,,,tyre,,,,,,,,,,,6,2,0,30,30,55,1,,,,,,,,,,,,,,,,,,,,,,,,,,,,,,,,,,,,,,,,,,,,,,,,,,,,,,,,,,,,,,,,,,,,,,
,,?,0.002115,0,,,,,,stimuli/images/PICTURE_123.png,SALE,5f5023517ef2f019cf3ebb57,10/01/1953,2020-09-12_00h11.59.251,proactive3.2,2020.1.2,Win32,60,5f5adea66120081ea0f57a61,5f5c4a0ea9ba1143b5c08c65,4,,,,,,dart,,,,,,,,,,,1,2,0,31,31,8,1,,,,,,,,,,,,,,,,,,,,,,,,,,,,,,,,,,,,,,,,,,,,,,,,,,,,,,,,,,,,,,,,,,,,,,
,,?,0.001975,0,,,,,,stimuli/images/PICTURE_509.png,MILLER,5f5023517ef2f019cf3ebb57,10/01/1953,2020-09-12_00h11.59.251,proactive3.2,2020.1.2,Win32,60,5f5adea66120081ea0f57a61,5f5c4a0ea9ba1143b5c08c65,4,,,,,,telephone,,,,,,,,,,,5,2,0,32,32,49,1,,,,,,,,,,,,,,,,,,,,,,,,,,,,,,,,,,,,,,,,,,,,,,,,,,,,,,,,,,,,,,,,,,,,,,
,,?,0.002095,0,,,,,,stimuli/images/PICTURE_255.png,PENNY,5f5023517ef2f019cf3ebb57,10/01/1953,2020-09-12_00h11.59.251,proactive3.2,2020.1.2,Win32,60,5f5adea66120081ea0f57a61,5f5c4a0ea9ba1143b5c08c65,4,,,,,,shovel,,,,,,,,,,,2,2,0,33,33,19,1,,,,,,,,,,,,,,,,,,,,,,,,,,,,,,,,,,,,,,,,,,,,,,,,,,,,,,,,,,,,,,,,,,,,,,
,,?,0.00223,0,,,,,,stimuli/images/PICTURE_405.png,HOUSE,5f5023517ef2f019cf3ebb57,10/01/1953,2020-09-12_00h11.59.251,proactive3.2,2020.1.2,Win32,60,5f5adea66120081ea0f57a61,5f5c4a0ea9ba1143b5c08c65,4,,,,,,anchor,,,,,,,,,,,1,2,0,34,34,2,1,,,,,,,,,,,,,,,,,,,,,,,,,,,,,,,,,,,,,,,,,,,,,,,,,,,,,,,,,,,,,,,,,,,,,,
,,?,0.005155,0,,,,,,stimuli/images/PICTURE_327.png,LEADER,5f5023517ef2f019cf3ebb57,10/01/1953,2020-09-12_00h11.59.251,proactive3.2,2020.1.2,Win32,60,5f5adea66120081ea0f57a61,5f5c4a0ea9ba1143b5c08c65,4,,,,,,helmet,,,,,,,,,,,2,2,0,35,35,17,1,,,,,,,,,,,,,,,,,,,,,,,,,,,,,,,,,,,,,,,,,,,,,,,,,,,,,,,,,,,,,,,,,,,,,,
,,?,6.26215,0,,,,,,stimuli/images/PICTURE_147.png,LEADER,5f5023517ef2f019cf3ebb57,10/01/1953,2020-09-12_00h11.59.251,proactive3.2,2020.1.2,Win32,60,5f5adea66120081ea0f57a61,5f5c4a0ea9ba1143b5c08c65,4,,,,,,hanger,,,,,,,,,,,4,2,0,36,36,33,1,,,,,,,,,,,,,,,,,,,,,,,,,,,,,,,,,,,,,,,,,,,,,,,,,,,,,,,,,,,,,,,,,,,,,,
,,?,0.00227,0,,,,,,stimuli/images/PICTURE_285.png,WRITER,5f5023517ef2f019cf3ebb57,10/01/1953,2020-09-12_00h11.59.251,proactive3.2,2020.1.2,Win32,60,5f5adea66120081ea0f57a61,5f5c4a0ea9ba1143b5c08c65,4,,,,,,carrot,,,,,,,,,,,1,2,0,37,37,6,1,,,,,,,,,,,,,,,,,,,,,,,,,,,,,,,,,,,,,,,,,,,,,,,,,,,,,,,,,,,,,,,,,,,,,,
,,?,0.001945,0,,,,,,stimuli/images/PICTURE_297.png,BODY,5f5023517ef2f019cf3ebb57,10/01/1953,2020-09-12_00h11.59.251,proactive3.2,2020.1.2,Win32,60,5f5adea66120081ea0f57a61,5f5c4a0ea9ba1143b5c08c65,4,,,,,,aeroplane,,,,,,,,,,,6,2,0,38,38,51,1,,,,,,,,,,,,,,,,,,,,,,,,,,,,,,,,,,,,,,,,,,,,,,,,,,,,,,,,,,,,,,,,,,,,,,
,,?,0.002525,0,,,,,,stimuli/images/PICTURE_215.png,FOOD,5f5023517ef2f019cf3ebb57,10/01/1953,2020-09-12_00h11.59.251,proactive3.2,2020.1.2,Win32,60,5f5adea66120081ea0f57a61,5f5c4a0ea9ba1143b5c08c65,4,,,,,,boot,,,,,,,,,,,1,2,0,39,39,5,1,,,,,,,,,,,,,,,,,,,,,,,,,,,,,,,,,,,,,,,,,,,,,,,,,,,,,,,,,,,,,,,,,,,,,,
,,?,0.00199,0,,,,,,stimuli/images/PICTURE_453.png,FAMILY,5f5023517ef2f019cf3ebb57,10/01/1953,2020-09-12_00h11.59.251,proactive3.2,2020.1.2,Win32,60,5f5adea66120081ea0f57a61,5f5c4a0ea9ba1143b5c08c65,4,,,,,,scissors,,,,,,,,,,,5,2,0,40,40,48,1,,,,,,,,,,,,,,,,,,,,,,,,,,,,,,,,,,,,,,,,,,,,,,,,,,,,,,,,,,,,,,,,,,,,,,
,,?,0.00202,0,,,,,,stimuli/images/PICTURE_311.png,FLESH,5f5023517ef2f019cf3ebb57,10/01/1953,2020-09-12_00h11.59.251,proactive3.2,2020.1.2,Win32,60,5f5adea66120081ea0f57a61,5f5c4a0ea9ba1143b5c08c65,4,,,,,,razor,,,,,,,,,,,1,2,0,41,41,3,1,,,,,,,,,,,,,,,,,,,,,,,,,,,,,,,,,,,,,,,,,,,,,,,,,,,,,,,,,,,,,,,,,,,,,,
,,?,0.002305,0,,,,,,stimuli/images/PICTURE_403.png,FAMILY,5f5023517ef2f019cf3ebb57,10/01/1953,2020-09-12_00h11.59.251,proactive3.2,2020.1.2,Win32,60,5f5adea66120081ea0f57a61,5f5c4a0ea9ba1143b5c08c65,4,,,,,,cathedral,,,,,,,,,,,1,2,0,42,42,9,1,,,,,,,,,,,,,,,,,,,,,,,,,,,,,,,,,,,,,,,,,,,,,,,,,,,,,,,,,,,,,,,,,,,,,,
,,?,0.001945,0,,,,,,stimuli/images/PICTURE_509.png,SHOTS,5f5023517ef2f019cf3ebb57,10/01/1953,2020-09-12_00h11.59.251,proactive3.2,2020.1.2,Win32,60,5f5adea66120081ea0f57a61,5f5c4a0ea9ba1143b5c08c65,4,,,,,,telephone,,,,,,,,,,,1,2,0,43,43,7,1,,,,,,,,,,,,,,,,,,,,,,,,,,,,,,,,,,,,,,,,,,,,,,,,,,,,,,,,,,,,,,,,,,,,,,
,,?,0.00235,0,,,,,,stimuli/images/PICTURE_654.png,YEAR,5f5023517ef2f019cf3ebb57,10/01/1953,2020-09-12_00h11.59.251,proactive3.2,2020.1.2,Win32,60,5f5adea66120081ea0f57a61,5f5c4a0ea9ba1143b5c08c65,4,,,,,,pencil,,,,,,,,,,,5,2,0,44,44,41,1,,,,,,,,,,,,,,,,,,,,,,,,,,,,,,,,,,,,,,,,,,,,,,,,,,,,,,,,,,,,,,,,,,,,,,
,,?,0.0021,0,,,,,,stimuli/images/PICTURE_32.png,LETTER,5f5023517ef2f019cf3ebb57,10/01/1953,2020-09-12_00h11.59.251,proactive3.2,2020.1.2,Win32,60,5f5adea66120081ea0f57a61,5f5c4a0ea9ba1143b5c08c65,4,,,,,,crown,,,,,,,,,,,6,2,0,45,45,56,1,,,,,,,,,,,,,,,,,,,,,,,,,,,,,,,,,,,,,,,,,,,,,,,,,,,,,,,,,,,,,,,,,,,,,,
,,?,0.00231,0,,,,,,stimuli/images/PICTURE_348.png,TOILET,5f5023517ef2f019cf3ebb57,10/01/1953,2020-09-12_00h11.59.251,proactive3.2,2020.1.2,Win32,60,5f5adea66120081ea0f57a61,5f5c4a0ea9ba1143b5c08c65,4,,,,,,pepper,,,,,,,,,,,1,2,0,46,46,4,1,,,,,,,,,,,,,,,,,,,,,,,,,,,,,,,,,,,,,,,,,,,,,,,,,,,,,,,,,,,,,,,,,,,,,,
,,?,0.002035,0,,,,,,stimuli/images/PICTURE_296.png,CLOCK,5f5023517ef2f019cf3ebb57,10/01/1953,2020-09-12_00h11.59.251,proactive3.2,2020.1.2,Win32,60,5f5adea66120081ea0f57a61,5f5c4a0ea9ba1143b5c08c65,4,,,,,,bolt,,,,,,,,,,,2,2,0,47,47,18,1,,,,,,,,,,,,,,,,,,,,,,,,,,,,,,,,,,,,,,,,,,,,,,,,,,,,,,,,,,,,,,,,,,,,,,
,,?,0.00203,0,,,,,,stimuli/images/PICTURE_68.png,KIND,5f5023517ef2f019cf3ebb57,10/01/1953,2020-09-12_00h11.59.251,proactive3.2,2020.1.2,Win32,60,5f5adea66120081ea0f57a61,5f5c4a0ea9ba1143b5c08c65,4,,,,,,candle,,,,,,,,,,,3,2,0,48,48,23,1,,,,,,,,,,,,,,,,,,,,,,,,,,,,,,,,,,,,,,,,,,,,,,,,,,,,,,,,,,,,,,,,,,,,,,
,,?,0.002125,0,,,,,,stimuli/images/PICTURE_750.png,POLICY,5f5023517ef2f019cf3ebb57,10/01/1953,2020-09-12_00h11.59.251,proactive3.2,2020.1.2,Win32,60,5f5adea66120081ea0f57a61,5f5c4a0ea9ba1143b5c08c65,4,,,,,,kettle,,,,,,,,,,,5,2,0,49,49,44,1,,,,,,,,,,,,,,,,,,,,,,,,,,,,,,,,,,,,,,,,,,,,,,,,,,,,,,,,,,,,,,,,,,,,,,
,,?,0.00192,0,,,,,,stimuli/images/PICTURE_677.png,PHOTO,5f5023517ef2f019cf3ebb57,10/01/1953,2020-09-12_00h11.59.251,proactive3.2,2020.1.2,Win32,60,5f5adea66120081ea0f57a61,5f5c4a0ea9ba1143b5c08c65,4,,,,,,map,,,,,,,,,,,2,2,0,50,50,14,1,,,,,,,,,,,,,,,,,,,,,,,,,,,,,,,,,,,,,,,,,,,,,,,,,,,,,,,,,,,,,,,,,,,,,,
,,NIGHT,3.850885,1,,,,,,stimuli/images/PICTURE_95.png,NIGHT,5f5023517ef2f019cf3ebb57,10/01/1953,2020-09-12_00h11.59.251,proactive3.2,2020.1.2,Win32,60,5f5adea66120081ea0f57a61,5f5c4a0ea9ba1143b5c08c65,4,,,,,,suitcase,,,,,,,,,,,4,2,0,51,51,37,1,,,,,,,,,,,,,,,,,,,,,,,,,,,,,,,,,,,,,,,,,,,,,,,,,,,,,,,,,,,,,,,,,,,,,,
,,?,0.002315,0,,,,,,stimuli/images/PICTURE_160.png,HOTEL,5f5023517ef2f019cf3ebb57,10/01/1953,2020-09-12_00h11.59.251,proactive3.2,2020.1.2,Win32,60,5f5adea66120081ea0f57a61,5f5c4a0ea9ba1143b5c08c65,4,,,,,,wheelbarrow,,,,,,,,,,,2,2,0,52,52,16,1,,,,,,,,,,,,,,,,,,,,,,,,,,,,,,,,,,,,,,,,,,,,,,,,,,,,,,,,,,,,,,,,,,,,,,
,,?,0.00199,0,,,,,,stimuli/images/PICTURE_208.png,SPIRIT,5f5023517ef2f019cf3ebb57,10/01/1953,2020-09-12_00h11.59.251,proactive3.2,2020.1.2,Win32,60,5f5adea66120081ea0f57a61,5f5c4a0ea9ba1143b5c08c65,4,,,,,,microphone,,,,,,,,,,,3,2,0,53,53,28,1,,,,,,,,,,,,,,,,,,,,,,,,,,,,,,,,,,,,,,,,,,,,,,,,,,,,,,,,,,,,,,,,,,,,,,
,,?,0.005255,0,,,,,,stimuli/images/PICTURE_470.png,MOMENT,5f5023517ef2f019cf3ebb57,10/01/1953,2020-09-12_00h11.59.251,proactive3.2,2020.1.2,Win32,60,5f5adea66120081ea0f57a61,5f5c4a0ea9ba1143b5c08c65,4,,,,,,motorbike,,,,,,,,,,,5,2,0,54,54,40,1,,,,,,,,,,,,,,,,,,,,,,,,,,,,,,,,,,,,,,,,,,,,,,,,,,,,,,,,,,,,,,,,,,,,,,
,,?,0.00202,0,,,,,,stimuli/images/PICTURE_348.png,DUDE,5f5023517ef2f019cf3ebb57,10/01/1953,2020-09-12_00h11.59.251,proactive3.2,2020.1.2,Win32,60,5f5adea66120081ea0f57a61,5f5c4a0ea9ba1143b5c08c65,4,,,,,,pepper,,,,,,,,,,,6,2,0,55,55,59,1,,,,,,,,,,,,,,,,,,,,,,,,,,,,,,,,,,,,,,,,,,,,,,,,,,,,,,,,,,,,,,,,,,,,,,
,,?,7.49985,0,,,,,,stimuli/images/PICTURE_491.png,SERIES,5f5023517ef2f019cf3ebb57,10/01/1953,2020-09-12_00h11.59.251,proactive3.2,2020.1.2,Win32,60,5f5adea66120081ea0f57a61,5f5c4a0ea9ba1143b5c08c65,4,,,,,,rug,,,,,,,,,,,4,2,0,56,56,39,1,,,,,,,,,,,,,,,,,,,,,,,,,,,,,,,,,,,,,,,,,,,,,,,,,,,,,,,,,,,,,,,,,,,,,,
,,?,0.002055,0,,,,,,stimuli/images/PICTURE_2.png,JUNGLE,5f5023517ef2f019cf3ebb57,10/01/1953,2020-09-12_00h11.59.251,proactive3.2,2020.1.2,Win32,60,5f5adea66120081ea0f57a61,5f5c4a0ea9ba1143b5c08c65,4,,,,,,tyre,,,,,,,,,,,1,2,0,57,57,1,1,,,,,,,,,,,,,,,,,,,,,,,,,,,,,,,,,,,,,,,,,,,,,,,,,,,,,,,,,,,,,,,,,,,,,,
,,HOUSE,4.06953,1,,,,,,stimuli/images/PICTURE_504.png,HOUSE,5f5023517ef2f019cf3ebb57,10/01/1953,2020-09-12_00h11.59.251,proactive3.2,2020.1.2,Win32,60,5f5adea66120081ea0f57a61,5f5c4a0ea9ba1143b5c08c65,4,,,,,,wheel,,,,,,,,,,,4,2,0,58,58,36,1,,,,,,,,,,,,,,,,,,,,,,,,,,,,,,,,,,,,,,,,,,,,,,,,,,,,,,,,,,,,,,,,,,,,,,
,,?,0.002085,0,,,,,,stimuli/images/PICTURE_311.png,TOILET,5f5023517ef2f019cf3ebb57,10/01/1953,2020-09-12_00h11.59.251,proactive3.2,2020.1.2,Win32,60,5f5adea66120081ea0f57a61,5f5c4a0ea9ba1143b5c08c65,4,,,,,,razor,,,,,,,,,,,6,2,0,59,59,54,1,,,,,,,,,,,,,,,,,,,,,,,,,,,,,,,,,,,,,,,,,,,,,,,,,,,,,,,,,,,,,,,,,,,,,,
,,,,,,,,,,,,5f5023517ef2f019cf3ebb57,10/01/1953,2020-09-12_00h11.59.251,proactive3.2,2020.1.2,Win32,60,5f5adea66120081ea0f57a61,5f5c4a0ea9ba1143b5c08c65,4,,,,,,,,,,,,,,,,,,,,,,,,0,0,0,2,1,stimuli/learn-block3.csv,,,,,,,,,,,,,,,,,,,,,,,,,,,,,,,,,,,,,,,,,,,,,,,,,,,,,,,,,,,,,,,,
,,,,,,,,,,stimuli/images/PICTURE_708.png,YARD,5f5023517ef2f019cf3ebb57,10/01/1953,2020-09-12_00h11.59.251,proactive3.2,2020.1.2,Win32,60,5f5adea66120081ea0f57a61,5f5c4a0ea9ba1143b5c08c65,4,,,,,,monkey,,,,,,0,0,0,29,1,3,0,,,,,,,,,,,,,,,,,,,,,,,,,,,,,,,,,,,,,,,,,,,,,,,,,,,,,,,,,,,,,,,,,,,,,,,,,,,
,,,,,,,,,,stimuli/images/PICTURE_348.png,SPEECH,5f5023517ef2f019cf3ebb57,10/01/1953,2020-09-12_00h11.59.251,proactive3.2,2020.1.2,Win32,60,5f5adea66120081ea0f57a61,5f5c4a0ea9ba1143b5c08c65,4,,,,,,pepper,,,,,,0,1,1,20,1,3,0,,,,,,,,,,,,,,,,,,,,,,,,,,,,,,,,,,,,,,,,,,,,,,,,,,,,,,,,,,,,,,,,,,,,,,,,,,,
,,,,,,,,,,stimuli/images/PICTURE_453.png,PLENTY,5f5023517ef2f019cf3ebb57,10/01/1953,2020-09-12_00h11.59.251,proactive3.2,2020.1.2,Win32,60,5f5adea66120081ea0f57a61,5f5c4a0ea9ba1143b5c08c65,4,,,,,,scissors,,,,,,0,2,2,56,1,6,0,,,,,,,,,,,,,,,,,,,,,,,,,,,,,,,,,,,,,,,,,,,,,,,,,,,,,,,,,,,,,,,,,,,,,,,,,,,
,,,,,,,,,,stimuli/images/PICTURE_491.png,WRITER,5f5023517ef2f019cf3ebb57,10/01/1953,2020-09-12_00h11.59.251,proactive3.2,2020.1.2,Win32,60,5f5adea66120081ea0f57a61,5f5c4a0ea9ba1143b5c08c65,4,,,,,,rug,,,,,,0,3,3,57,1,6,0,,,,,,,,,,,,,,,,,,,,,,,,,,,,,,,,,,,,,,,,,,,,,,,,,,,,,,,,,,,,,,,,,,,,,,,,,,,
,,,,,,,,,,stimuli/images/PICTURE_311.png,FRIEND,5f5023517ef2f019cf3ebb57,10/01/1953,2020-09-12_00h11.59.251,proactive3.2,2020.1.2,Win32,60,5f5adea66120081ea0f57a61,5f5c4a0ea9ba1143b5c08c65,4,,,,,,razor,,,,,,0,4,4,34,1,4,0,,,,,,,,,,,,,,,,,,,,,,,,,,,,,,,,,,,,,,,,,,,,,,,,,,,,,,,,,,,,,,,,,,,,,,,,,,,
,,,,,,,,,,stimuli/images/PICTURE_32.png,JUNGLE,5f5023517ef2f019cf3ebb57,10/01/1953,2020-09-12_00h11.59.251,proactive3.2,2020.1.2,Win32,60,5f5adea66120081ea0f57a61,5f5c4a0ea9ba1143b5c08c65,4,,,,,,crown,,,,,,0,5,5,45,1,5,0,,,,,,,,,,,,,,,,,,,,,,,,,,,,,,,,,,,,,,,,,,,,,,,,,,,,,,,,,,,,,,,,,,,,,,,,,,,
,,,,,,,,,,stimuli/images/PICTURE_151.png,GIRL,5f5023517ef2f019cf3ebb57,10/01/1953,2020-09-12_00h11.59.251,proactive3.2,2020.1.2,Win32,60,5f5adea66120081ea0f57a61,5f5c4a0ea9ba1143b5c08c65,4,,,,,,tray,,,,,,0,6,6,19,1,2,0,,,,,,,,,,,,,,,,,,,,,,,,,,,,,,,,,,,,,,,,,,,,,,,,,,,,,,,,,,,,,,,,,,,,,,,,,,,
,,,,,,,,,,stimuli/images/PICTURE_504.png,BODY,5f5023517ef2f019cf3ebb57,10/01/1953,2020-09-12_00h11.59.251,proactive3.2,2020.1.2,Win32,60,5f5adea66120081ea0f57a61,5f5c4a0ea9ba1143b5c08c65,4,,,,,,wheel,,,,,,0,7,7,8,1,1,0,,,,,,,,,,,,,,,,,,,,,,,,,,,,,,,,,,,,,,,,,,,,,,,,,,,,,,,,,,,,,,,,,,,,,,,,,,,
,,,,,,,,,,stimuli/images/PICTURE_688.png,WOMEN,5f5023517ef2f019cf3ebb57,10/01/1953,2020-09-12_00h11.59.251,proactive3.2,2020.1.2,Win32,60,5f5adea66120081ea0f57a61,5f5c4a0ea9ba1143b5c08c65,4,,,,,,runner,,,,,,0,8,8,14,1,2,0,,,,,,,,,,,,,,,,,,,,,,,,,,,,,,,,,,,,,,,,,,,,,,,,,,,,,,,,,,,,,,,,,,,,,,,,,,,
,,,,,,,,,,stimuli/images/PICTURE_449.png,THING,5f5023517ef2f019cf3ebb57,10/01/1953,2020-09-12_00h11.59.251,proactive3.2,2020.1.2,Win32,60,5f5adea66120081ea0f57a61,5f5c4a0ea9ba1143b5c08c65,4,,,,,,bench,,,,,,0,9,9,59,1,6,0,,,,,,,,,,,,,,,,,,,,,,,,,,,,,,,,,,,,,,,,,,,,,,,,,,,,,,,,,,,,,,,,,,,,,,,,,,,
,,,,,,,,,,stimuli/images/PICTURE_469.png,LETTER,5f5023517ef2f019cf3ebb57,10/01/1953,2020-09-12_00h11.59.251,proactive3.2,2020.1.2,Win32,60,5f5adea66120081ea0f57a61,5f5c4a0ea9ba1143b5c08c65,4,,,,,,stool,,,,,,0,10,10,42,1,5,0,,,,,,,,,,,,,,,,,,,,,,,,,,,,,,,,,,,,,,,,,,,,,,,,,,,,,,,,,,,,,,,,,,,,,,,,,,,
,,,,,,,,,,stimuli/images/PICTURE_308.png,KIND,5f5023517ef2f019cf3ebb57,10/01/1953,2020-09-12_00h11.59.251,proactive3.2,2020.1.2,Win32,60,5f5adea66120081ea0f57a61,5f5c4a0ea9ba1143b5c08c65,4,,,,,,dice,,,,,,0,11,11,54,1,6,0,,,,,,,,,,,,,,,,,,,,,,,,,,,,,,,,,,,,,,,,,,,,,,,,,,,,,,,,,,,,,,,,,,,,,,,,,,,
,,,,,,,,,,stimuli/images/PICTURE_380.png,DEATH,5f5023517ef2f019cf3ebb57,10/01/1953,2020-09-12_00h11.59.251,proactive3.2,2020.1.2,Win32,60,5f5adea66120081ea0f57a61,5f5c4a0ea9ba1143b5c08c65,4,,,,,,gorilla,,,,,,0,12,12,49,1,5,0,,,,,,,,,,,,,,,,,,,,,,,,,,,,,,,,,,,,,,,,,,,,,,,,,,,,,,,,,,,,,,,,,,,,,,,,,,,
,,,,,,,,,,stimuli/images/PICTURE_160.png,FEET,5f5023517ef2f019cf3ebb57,10/01/1953,2020-09-12_00h11.59.251,proactive3.2,2020.1.2,Win32,60,5f5adea66120081ea0f57a61,5f5c4a0ea9ba1143b5c08c65,4,,,,,,wheelbarrow,,,,,,0,13,13,58,1,6,0,,,,,,,,,,,,,,,,,,,,,,,,,,,,,,,,,,,,,,,,,,,,,,,,,,,,,,,,,,,,,,,,,,,,,,,,,,,
,,,,,,,,,,stimuli/images/PICTURE_380.png,PHOTO,5f5023517ef2f019cf3ebb57,10/01/1953,2020-09-12_00h11.59.251,proactive3.2,2020.1.2,Win32,60,5f5adea66120081ea0f57a61,5f5c4a0ea9ba1143b5c08c65,4,,,,,,gorilla,,,,,,0,14,14,52,1,6,0,,,,,,,,,,,,,,,,,,,,,,,,,,,,,,,,,,,,,,,,,,,,,,,,,,,,,,,,,,,,,,,,,,,,,,,,,,,
,,,,,,,,,,stimuli/images/PICTURE_314.png,GODS,5f5023517ef2f019cf3ebb57,10/01/1953,2020-09-12_00h11.59.251,proactive3.2,2020.1.2,Win32,60,5f5adea66120081ea0f57a61,5f5c4a0ea9ba1143b5c08c65,4,,,,,,perfume,,,,,,0,15,15,11,1,2,0,,,,,,,,,,,,,,,,,,,,,,,,,,,,,,,,,,,,,,,,,,,,,,,,,,,,,,,,,,,,,,,,,,,,,,,,,,,
,,,,,,,,,,stimuli/images/PICTURE_688.png,CASINO,5f5023517ef2f019cf3ebb57,10/01/1953,2020-09-12_00h11.59.251,proactive3.2,2020.1.2,Win32,60,5f5adea66120081ea0f57a61,5f5c4a0ea9ba1143b5c08c65,4,,,,,,runner,,,,,,0,16,16,2,1,1,0,,,,,,,,,,,,,,,,,,,,,,,,,,,,,,,,,,,,,,,,,,,,,,,,,,,,,,,,,,,,,,,,,,,,,,,,,,,
,,,,,,,,,,stimuli/images/PICTURE_327.png,BEAUTY,5f5023517ef2f019cf3ebb57,10/01/1953,2020-09-12_00h11.59.251,proactive3.2,2020.1.2,Win32,60,5f5adea66120081ea0f57a61,5f5c4a0ea9ba1143b5c08c65,4,,,,,,helmet,,,,,,0,17,17,48,1,5,0,,,,,,,,,,,,,,,,,,,,,,,,,,,,,,,,,,,,,,,,,,,,,,,,,,,,,,,,,,,,,,,,,,,,,,,,,,,
,,,,,,,,,,stimuli/images/PICTURE_123.png,ADVICE,5f5023517ef2f019cf3ebb57,10/01/1953,2020-09-12_00h11.59.251,proactive3.2,2020.1.2,Win32,60,5f5adea66120081ea0f57a61,5f5c4a0ea9ba1143b5c08c65,4,,,,,,dart,,,,,,0,18,18,40,1,5,0,,,,,,,,,,,,,,,,,,,,,,,,,,,,,,,,,,,,,,,,,,,,,,,,,,,,,,,,,,,,,,,,,,,,,,,,,,,
,,,,,,,,,,stimuli/images/PICTURE_95.png,STYLE,5f5023517ef2f019cf3ebb57,10/01/1953,2020-09-12_00h11.59.251,proactive3.2,2020.1.2,Win32,60,5f5adea66120081ea0f57a61,5f5c4a0ea9ba1143b5c08c65,4,,,,,,suitcase,,,,,,0,19,19,25,1,3,0,,,,,,,,,,,,,,,,,,,,,,,,,,,,,,,,,,,,,,,,,,,,,,,,,,,,,,,,,,,,,,,,,,,,,,,,,,,
,,,,,,,,,,stimuli/images/PICTURE_470.png,CASINO,5f5023517ef2f019cf3ebb57,10/01/1953,2020-09-12_00h11.59.251,proactive3.2,2020.1.2,Win32,60,5f5adea66120081ea0f57a61,5f5c4a0ea9ba1143b5c08c65,4,,,,,,motorbike,,,,,,0,20,20,36,1,4,0,,,,,,,,,,,,,,,,,,,,,,,,,,,,,,,,,,,,,,,,,,,,,,,,,,,,,,,,,,,,,,,,,,,,,,,,,,,
,,,,,,,,,,stimuli/images/PICTURE_215.png,PLENTY,5f5023517ef2f019cf3ebb57,10/01/1953,2020-09-12_00h11.59.251,proactive3.2,2020.1.2,Win32,60,5f5adea66120081ea0f57a61,5f5c4a0ea9ba1143b5c08c65,4,,,,,,boot,,,,,,0,21,21,37,1,4,0,,,,,,,,,,,,,,,,,,,,,,,,,,,,,,,,,,,,,,,,,,,,,,,,,,,,,,,,,,,,,,,,,,,,,,,,,,,
,,,,,,,,,,stimuli/images/PICTURE_314.png,SAKE,5f5023517ef2f019cf3ebb57,10/01/1953,2020-09-12_00h11.59.251,proactive3.2,2020.1.2,Win32,60,5f5adea66120081ea0f57a61,5f5c4a0ea9ba1143b5c08c65,4,,,,,,perfume,,,,,,0,22,22,7,1,1,0,,,,,,,,,,,,,,,,,,,,,,,,,,,,,,,,,,,,,,,,,,,,,,,,,,,,,,,,,,,,,,,,,,,,,,,,,,,
,,,,,,,,,,stimuli/images/PICTURE_677.png,MILE,5f5023517ef2f019cf3ebb57,10/01/1953,2020-09-12_00h11.59.251,proactive3.2,2020.1.2,Win32,60,5f5adea66120081ea0f57a61,5f5c4a0ea9ba1143b5c08c65,4,,,,,,map,,,,,,0,23,23,30,1,4,0,,,,,,,,,,,,,,,,,,,,,,,,,,,,,,,,,,,,,,,,,,,,,,,,,,,,,,,,,,,,,,,,,,,,,,,,,,,
,,,,,,,,,,stimuli/images/PICTURE_68.png,MILE,5f5023517ef2f019cf3ebb57,10/01/1953,2020-09-12_00h11.59.251,proactive3.2,2020.1.2,Win32,60,5f5adea66120081ea0f57a61,5f5c4a0ea9ba1143b5c08c65,4,,,,,,candle,,,,,,0,24,24,44,1,5,0,,,,,,,,,,,,,,,,,,,,,,,,,,,,,,,,,,,,,,,,,,,,,,,,,,,,,,,,,,,,,,,,,,,,,,,,,,,
,,,,,,,,,,stimuli/images/PICTURE_208.png,THING,5f5023517ef2f019cf3ebb57,10/01/1953,2020-09-12_00h11.59.251,proactive3.2,2020.1.2,Win32,60,5f5adea66120081ea0f57a61,5f5c4a0ea9ba1143b5c08c65,4,,,,,,microphone,,,,,,0,25,25,47,1,5,0,,,,,,,,,,,,,,,,,,,,,,,,,,,,,,,,,,,,,,,,,,,,,,,,,,,,,,,,,,,,,,,,,,,,,,,,,,,
,,,,,,,,,,stimuli/images/PICTURE_692.png,MONTH,5f5023517ef2f019cf3ebb57,10/01/1953,2020-09-12_00h11.59.251,proactive3.2,2020.1.2,Win32,60,5f5adea66120081ea0f57a61,5f5c4a0ea9ba1143b5c08c65,4,,,,,,cherry,,,,,,0,26,26,16,1,2,0,,,,,,,,,,,,,,,,,,,,,,,,,,,,,,,,,,,,,,,,,,,,,,,,,,,,,,,,,,,,,,,,,,,,,,,,,,,
,,,,,,,,,,stimuli/images/PICTURE_356.png,DANGER,5f5023517ef2f019cf3ebb57,10/01/1953,2020-09-12_00h11.59.251,proactive3.2,2020.1.2,Win32,60,5f5adea66120081ea0f57a61,5f5c4a0ea9ba1143b5c08c65,4,,,,,,pawn,,,,,,0,27,27,55,1,6,0,,,,,,,,,,,,,,,,,,,,,,,,,,,,,,,,,,,,,,,,,,,,,,,,,,,,,,,,,,,,,,,,,,,,,,,,,,,
,,,,,,,,,,stimuli/images/PICTURE_744.png,SAKE,5f5023517ef2f019cf3ebb57,10/01/1953,2020-09-12_00h11.59.251,proactive3.2,2020.1.2,Win32,60,5f5adea66120081ea0f57a61,5f5c4a0ea9ba1143b5c08c65,4,,,,,,ring,,,,,,0,28,28,17,1,2,0,,,,,,,,,,,,,,,,,,,,,,,,,,,,,,,,,,,,,,,,,,,,,,,,,,,,,,,,,,,,,,,,,,,,,,,,,,,
,,,,,,,,,,stimuli/images/PICTURE_509.png,PHOTO,5f5023517ef2f019cf3ebb57,10/01/1953,2020-09-12_00h11.59.251,proactive3.2,2020.1.2,Win32,60,5f5adea66120081ea0f57a61,5f5c4a0ea9ba1143b5c08c65,4,,,,,,telephone,,,,,,0,29,29,21,1,3,0,,,,,,,,,,,,,,,,,,,,,,,,,,,,,,,,,,,,,,,,,,,,,,,,,,,,,,,,,,,,,,,,,,,,,,,,,,,
,,,,,,,,,,stimuli/images/PICTURE_208.png,MONTH,5f5023517ef2f019cf3ebb57,10/01/1953,2020-09-12_00h11.59.251,proactive3.2,2020.1.2,Win32,60,5f5adea66120081ea0f57a61,5f5c4a0ea9ba1143b5c08c65,4,,,,,,microphone,,,,,,0,30,30,53,1,6,0,,,,,,,,,,,,,,,,,,,,,,,,,,,,,,,,,,,,,,,,,,,,,,,,,,,,,,,,,,,,,,,,,,,,,,,,,,,
,,,,,,,,,,stimuli/images/PICTURE_302.png,FAMILY,5f5023517ef2f019cf3ebb57,10/01/1953,2020-09-12_00h11.59.251,proactive3.2,2020.1.2,Win32,60,5f5adea66120081ea0f57a61,5f5c4a0ea9ba1143b5c08c65,4,,,,,,taxi,,,,,,0,31,31,18,1,2,0,,,,,,,,,,,,,,,,,,,,,,,,,,,,,,,,,,,,,,,,,,,,,,,,,,,,,,,,,,,,,,,,,,,,,,,,,,,
,,,,,,,,,,stimuli/images/PICTURE_208.png,LOTS,5f5023517ef2f019cf3ebb57,10/01/1953,2020-09-12_00h11.59.251,proactive3.2,2020.1.2,Win32,60,5f5adea66120081ea0f57a61,5f5c4a0ea9ba1143b5c08c65,4,,,,,,microphone,,,,,,0,32,32,10,1,2,0,,,,,,,,,,,,,,,,,,,,,,,,,,,,,,,,,,,,,,,,,,,,,,,,,,,,,,,,,,,,,,,,,,,,,,,,,,,
,,,,,,,,,,stimuli/images/PICTURE_467.png,DEMON,5f5023517ef2f019cf3ebb57,10/01/1953,2020-09-12_00h11.59.251,proactive3.2,2020.1.2,Win32,60,5f5adea66120081ea0f57a61,5f5c4a0ea9ba1143b5c08c65,4,,,,,,peg,,,,,,0,33,33,23,1,3,0,,,,,,,,,,,,,,,,,,,,,,,,,,,,,,,,,,,,,,,,,,,,,,,,,,,,,,,,,,,,,,,,,,,,,,,,,,,
,,,,,,,,,,stimuli/images/PICTURE_177.png,CARS,5f5023517ef2f019cf3ebb57,10/01/1953,2020-09-12_00h11.59.251,proactive3.2,2020.1.2,Win32,60,5f5adea66120081ea0f57a61,5f5c4a0ea9ba1143b5c08c65,4,,,,,,mushroom,,,,,,0,34,34,35,1,4,0,,,,,,,,,,,,,,,,,,,,,,,,,,,,,,,,,,,,,,,,,,,,,,,,,,,,,,,,,,,,,,,,,,,,,,,,,,,
,,,,,,,,,,stimuli/images/PICTURE_667.png,PLENTY,5f5023517ef2f019cf3ebb57,10/01/1953,2020-09-12_00h11.59.251,proactive3.2,2020.1.2,Win32,60,5f5adea66120081ea0f57a61,5f5c4a0ea9ba1143b5c08c65,4,,,,,,daisy,,,,,,0,35,35,41,1,5,0,,,,,,,,,,,,,,,,,,,,,,,,,,,,,,,,,,,,,,,,,,,,,,,,,,,,,,,,,,,,,,,,,,,,,,,,,,,
,,,,,,,,,,stimuli/images/PICTURE_708.png,CLIENT,5f5023517ef2f019cf3ebb57,10/01/1953,2020-09-12_00h11.59.251,proactive3.2,2020.1.2,Win32,60,5f5adea66120081ea0f57a61,5f5c4a0ea9ba1143b5c08c65,4,,,,,,monkey,,,,,,0,36,36,5,1,1,0,,,,,,,,,,,,,,,,,,,,,,,,,,,,,,,,,,,,,,,,,,,,,,,,,,,,,,,,,,,,,,,,,,,,,,,,,,,
,,,,,,,,,,stimuli/images/PICTURE_667.png,BATH,5f5023517ef2f019cf3ebb57,10/01/1953,2020-09-12_00h11.59.251,proactive3.2,2020.1.2,Win32,60,5f5adea66120081ea0f57a61,5f5c4a0ea9ba1143b5c08c65,4,,,,,,daisy,,,,,,0,37,37,4,1,1,0,,,,,,,,,,,,,,,,,,,,,,,,,,,,,,,,,,,,,,,,,,,,,,,,,,,,,,,,,,,,,,,,,,,,,,,,,,,
,,,,,,,,,,stimuli/images/PICTURE_744.png,SYSTEM,5f5023517ef2f019cf3ebb57,10/01/1953,2020-09-12_00h11.59.251,proactive3.2,2020.1.2,Win32,60,5f5adea66120081ea0f57a61,5f5c4a0ea9ba1143b5c08c65,4,,,,,,ring,,,,,,0,38,38,43,1,5,0,,,,,,,,,,,,,,,,,,,,,,,,,,,,,,,,,,,,,,,,,,,,,,,,,,,,,,,,,,,,,,,,,,,,,,,,,,,
,,,,,,,,,,stimuli/images/PICTURE_233.png,WOMEN,5f5023517ef2f019cf3ebb57,10/01/1953,2020-09-12_00h11.59.251,proactive3.2,2020.1.2,Win32,60,5f5adea66120081ea0f57a61,5f5c4a0ea9ba1143b5c08c65,4,,,,,,salt,,,,,,0,39,39,38,1,4,0,,,,,,,,,,,,,,,,,,,,,,,,,,,,,,,,,,,,,,,,,,,,,,,,,,,,,,,,,,,,,,,,,,,,,,,,,,,
,,,,,,,,,,stimuli/images/PICTURE_123.png,ADVICE,5f5023517ef2f019cf3ebb57,10/01/1953,2020-09-12_00h11.59.251,proactive3.2,2020.1.2,Win32,60,5f5adea66120081ea0f57a61,5f5c4a0ea9ba1143b5c08c65,4,,,,,,dart,,,,,,0,40,40,50,1,6,0,,,,,,,,,,,,,,,,,,,,,,,,,,,,,,,,,,,,,,,,,,,,,,,,,,,,,,,,,,,,,,,,,,,,,,,,,,,
,,,,,,,,,,stimuli/images/PICTURE_85.png,THING,5f5023517ef2f019cf3ebb57,10/01/1953,2020-09-12_00h11.59.251,proactive3.2,2020.1.2,Win32,60,5f5adea66120081ea0f57a61,5f5c4a0ea9ba1143b5c08c65,4,,,,,,diamond,,,,,,0,41,41,15,1,2,0,,,,,,,,,,,,,,,,,,,,,,,,,,,,,,,,,,,,,,,,,,,,,,,,,,,,,,,,,,,,,,,,,,,,,,,,,,,
,,,,,,,,,,stimuli/images/PICTURE_255.png,AREA,5f5023517ef2f019cf3ebb57,10/01/1953,2020-09-12_00h11.59.251,proactive3.2,2020.1.2,Win32,60,5f5adea66120081ea0f57a61,5f5c4a0ea9ba1143b5c08c65,4,,,,,,shovel,,,,,,0,42,42,22,1,3,0,,,,,,,,,,,,,,,,,,,,,,,,,,,,,,,,,,,,,,,,,,,,,,,,,,,,,,,,,,,,,,,,,,,,,,,,,,,
,,,,,,,,,,stimuli/images/PICTURE_311.png,BEAUTY,5f5023517ef2f019cf3ebb57,10/01/1953,2020-09-12_00h11.59.251,proactive3.2,2020.1.2,Win32,60,5f5adea66120081ea0f57a61,5f5c4a0ea9ba1143b5c08c65,4,,,,,,razor,,,,,,0,43,43,13,1,2,0,,,,,,,,,,,,,,,,,,,,,,,,,,,,,,,,,,,,,,,,,,,,,,,,,,,,,,,,,,,,,,,,,,,,,,,,,,,
,,,,,,,,,,stimuli/images/PICTURE_675.png,WEAPON,5f5023517ef2f019cf3ebb57,10/01/1953,2020-09-12_00h11.59.251,proactive3.2,2020.1.2,Win32,60,5f5adea66120081ea0f57a61,5f5c4a0ea9ba1143b5c08c65,4,,,,,,windmill,,,,,,0,44,44,32,1,4,0,,,,,,,,,,,,,,,,,,,,,,,,,,,,,,,,,,,,,,,,,,,,,,,,,,,,,,,,,,,,,,,,,,,,,,,,,,,
,,,,,,,,,,stimuli/images/PICTURE_285.png,ADVICE,5f5023517ef2f019cf3ebb57,10/01/1953,2020-09-12_00h11.59.251,proactive3.2,2020.1.2,Win32,60,5f5adea66120081ea0f57a61,5f5c4a0ea9ba1143b5c08c65,4,,,,,,carrot,,,,,,0,45,45,12,1,2,0,,,,,,,,,,,,,,,,,,,,,,,,,,,,,,,,,,,,,,,,,,,,,,,,,,,,,,,,,,,,,,,,,,,,,,,,,,,
,,,,,,,,,,stimuli/images/PICTURE_469.png,ARTIST,5f5023517ef2f019cf3ebb57,10/01/1953,2020-09-12_00h11.59.251,proactive3.2,2020.1.2,Win32,60,5f5adea66120081ea0f57a61,5f5c4a0ea9ba1143b5c08c65,4,,,,,,stool,,,,,,0,46,46,6,1,1,0,,,,,,,,,,,,,,,,,,,,,,,,,,,,,,,,,,,,,,,,,,,,,,,,,,,,,,,,,,,,,,,,,,,,,,,,,,,
,,,,,,,,,,stimuli/images/PICTURE_453.png,DUDE,5f5023517ef2f019cf3ebb57,10/01/1953,2020-09-12_00h11.59.251,proactive3.2,2020.1.2,Win32,60,5f5adea66120081ea0f57a61,5f5c4a0ea9ba1143b5c08c65,4,,,,,,scissors,,,,,,0,47,47,27,1,3,0,,,,,,,,,,,,,,,,,,,,,,,,,,,,,,,,,,,,,,,,,,,,,,,,,,,,,,,,,,,,,,,,,,,,,,,,,,,
,,,,,,,,,,stimuli/images/PICTURE_308.png,ESTATE,5f5023517ef2f019cf3ebb57,10/01/1953,2020-09-12_00h11.59.251,proactive3.2,2020.1.2,Win32,60,5f5adea66120081ea0f57a61,5f5c4a0ea9ba1143b5c08c65,4,,,,,,dice,,,,,,0,48,48,46,1,5,0,,,,,,,,,,,,,,,,,,,,,,,,,,,,,,,,,,,,,,,,,,,,,,,,,,,,,,,,,,,,,,,,,,,,,,,,,,,
,,,,,,,,,,stimuli/images/PICTURE_487.png,FLIGHT,5f5023517ef2f019cf3ebb57,10/01/1953,2020-09-12_00h11.59.251,proactive3.2,2020.1.2,Win32,60,5f5adea66120081ea0f57a61,5f5c4a0ea9ba1143b5c08c65,4,,,,,,basket,,,,,,0,49,49,9,1,1,0,,,,,,,,,,,,,,,,,,,,,,,,,,,,,,,,,,,,,,,,,,,,,,,,,,,,,,,,,,,,,,,,,,,,,,,,,,,
,,,,,,,,,,stimuli/images/PICTURE_339.png,PLENTY,5f5023517ef2f019cf3ebb57,10/01/1953,2020-09-12_00h11.59.251,proactive3.2,2020.1.2,Win32,60,5f5adea66120081ea0f57a61,5f5c4a0ea9ba1143b5c08c65,4,,,,,,backpack,,,,,,0,50,50,0,1,1,0,,,,,,,,,,,,,,,,,,,,,,,,,,,,,,,,,,,,,,,,,,,,,,,,,,,,,,,,,,,,,,,,,,,,,,,,,,,
,,,,,,,,,,stimuli/images/PICTURE_203.png,ARTIST,5f5023517ef2f019cf3ebb57,10/01/1953,2020-09-12_00h11.59.251,proactive3.2,2020.1.2,Win32,60,5f5adea66120081ea0f57a61,5f5c4a0ea9ba1143b5c08c65,4,,,,,,cap,,,,,,0,51,51,26,1,3,0,,,,,,,,,,,,,,,,,,,,,,,,,,,,,,,,,,,,,,,,,,,,,,,,,,,,,,,,,,,,,,,,,,,,,,,,,,,
,,,,,,,,,,stimuli/images/PICTURE_654.png,VALLEY,5f5023517ef2f019cf3ebb57,10/01/1953,2020-09-12_00h11.59.251,proactive3.2,2020.1.2,Win32,60,5f5adea66120081ea0f57a61,5f5c4a0ea9ba1143b5c08c65,4,,,,,,pencil,,,,,,0,52,52,1,1,1,0,,,,,,,,,,,,,,,,,,,,,,,,,,,,,,,,,,,,,,,,,,,,,,,,,,,,,,,,,,,,,,,,,,,,,,,,,,,
,,,,,,,,,,stimuli/images/PICTURE_488.png,STYLE,5f5023517ef2f019cf3ebb57,10/01/1953,2020-09-12_00h11.59.251,proactive3.2,2020.1.2,Win32,60,5f5adea66120081ea0f57a61,5f5c4a0ea9ba1143b5c08c65,4,,,,,,sun,,,,,,0,53,53,33,1,4,0,,,,,,,,,,,,,,,,,,,,,,,,,,,,,,,,,,,,,,,,,,,,,,,,,,,,,,,,,,,,,,,,,,,,,,,,,,,
,,,,,,,,,,stimuli/images/PICTURE_147.png,MOMENT,5f5023517ef2f019cf3ebb57,10/01/1953,2020-09-12_00h11.59.251,proactive3.2,2020.1.2,Win32,60,5f5adea66120081ea0f57a61,5f5c4a0ea9ba1143b5c08c65,4,,,,,,hanger,,,,,,0,54,54,51,1,6,0,,,,,,,,,,,,,,,,,,,,,,,,,,,,,,,,,,,,,,,,,,,,,,,,,,,,,,,,,,,,,,,,,,,,,,,,,,,
,,,,,,,,,,stimuli/images/PICTURE_233.png,IDEAS,5f5023517ef2f019cf3ebb57,10/01/1953,2020-09-12_00h11.59.251,proactive3.2,2020.1.2,Win32,60,5f5adea66120081ea0f57a61,5f5c4a0ea9ba1143b5c08c65,4,,,,,,salt,,,,,,0,55,55,28,1,3,0,,,,,,,,,,,,,,,,,,,,,,,,,,,,,,,,,,,,,,,,,,,,,,,,,,,,,,,,,,,,,,,,,,,,,,,,,,,
,,,,,,,,,,stimuli/images/PICTURE_491.png,ROOF,5f5023517ef2f019cf3ebb57,10/01/1953,2020-09-12_00h11.59.251,proactive3.2,2020.1.2,Win32,60,5f5adea66120081ea0f57a61,5f5c4a0ea9ba1143b5c08c65,4,,,,,,rug,,,,,,0,56,56,24,1,3,0,,,,,,,,,,,,,,,,,,,,,,,,,,,,,,,,,,,,,,,,,,,,,,,,,,,,,,,,,,,,,,,,,,,,,,,,,,,
,,,,,,,,,,stimuli/images/PICTURE_160.png,LEADER,5f5023517ef2f019cf3ebb57,10/01/1953,2020-09-12_00h11.59.251,proactive3.2,2020.1.2,Win32,60,5f5adea66120081ea0f57a61,5f5c4a0ea9ba1143b5c08c65,4,,,,,,wheelbarrow,,,,,,0,57,57,3,1,1,0,,,,,,,,,,,,,,,,,,,,,,,,,,,,,,,,,,,,,,,,,,,,,,,,,,,,,,,,,,,,,,,,,,,,,,,,,,,
,,,,,,,,,,stimuli/images/PICTURE_708.png,PENNY,5f5023517ef2f019cf3ebb57,10/01/1953,2020-09-12_00h11.59.251,proactive3.2,2020.1.2,Win32,60,5f5adea66120081ea0f57a61,5f5c4a0ea9ba1143b5c08c65,4,,,,,,monkey,,,,,,0,58,58,31,1,4,0,,,,,,,,,,,,,,,,,,,,,,,,,,,,,,,,,,,,,,,,,,,,,,,,,,,,,,,,,,,,,,,,,,,,,,,,,,,
,,?,0.002735,0,,,,,,stimuli/images/PICTURE_491.png,WRITER,5f5023517ef2f019cf3ebb57,10/01/1953,2020-09-12_00h11.59.251,proactive3.2,2020.1.2,Win32,60,5f5adea66120081ea0f57a61,5f5c4a0ea9ba1143b5c08c65,4,,,,,,rug,,,,,,,,,,,6,0,0,0,0,57,1,,,,,,,,,,,,,,,,,,,,,,,,,,,,,,,,,,,,,,,,,,,,,,,,,,,,,,,,,,,,,,,,,,,,,,
,,?,0.002735,0,,,,,,stimuli/images/PICTURE_380.png,DEATH,5f5023517ef2f019cf3ebb57,10/01/1953,2020-09-12_00h11.59.251,proactive3.2,2020.1.2,Win32,60,5f5adea66120081ea0f57a61,5f5c4a0ea9ba1143b5c08c65,4,,,,,,gorilla,,,,,,,,,,,5,0,0,1,1,49,1,,,,,,,,,,,,,,,,,,,,,,,,,,,,,,,,,,,,,,,,,,,,,,,,,,,,,,,,,,,,,,,,,,,,,,
,,?,0.00221,0,,,,,,stimuli/images/PICTURE_654.png,VALLEY,5f5023517ef2f019cf3ebb57,10/01/1953,2020-09-12_00h11.59.251,proactive3.2,2020.1.2,Win32,60,5f5adea66120081ea0f57a61,5f5c4a0ea9ba1143b5c08c65,4,,,,,,pencil,,,,,,,,,,,1,0,0,2,2,1,1,,,,,,,,,,,,,,,,,,,,,,,,,,,,,,,,,,,,,,,,,,,,,,,,,,,,,,,,,,,,,,,,,,,,,,
,,?,0.002485,0,,,,,,stimuli/images/PICTURE_339.png,PLENTY,5f5023517ef2f019cf3ebb57,10/01/1953,2020-09-12_00h11.59.251,proactive3.2,2020.1.2,Win32,60,5f5adea66120081ea0f57a61,5f5c4a0ea9ba1143b5c08c65,4,,,,,,backpack,,,,,,,,,,,1,0,0,3,3,0,1,,,,,,,,,,,,,,,,,,,,,,,,,,,,,,,,,,,,,,,,,,,,,,,,,,,,,,,,,,,,,,,,,,,,,,
,,DOZEN,4.924355,1,,,,,,stimuli/images/PICTURE_248.png,DOZEN,5f5023517ef2f019cf3ebb57,10/01/1953,2020-09-12_00h11.59.251,proactive3.2,2020.1.2,Win32,60,5f5adea66120081ea0f57a61,5f5c4a0ea9ba1143b5c08c65,4,,,,,,cart,,,,,,,,,,,4,0,0,4,4,39,1,,,,,,,,,,,,,,,,,,,,,,,,,,,,,,,,,,,,,,,,,,,,,,,,,,,,,,,,,,,,,,,,,,,,,,
,,?,0.00211,0,,,,,,stimuli/images/PICTURE_380.png,PHOTO,5f5023517ef2f019cf3ebb57,10/01/1953,2020-09-12_00h11.59.251,proactive3.2,2020.1.2,Win32,60,5f5adea66120081ea0f57a61,5f5c4a0ea9ba1143b5c08c65,4,,,,,,gorilla,,,,,,,,,,,6,0,0,5,5,52,1,,,,,,,,,,,,,,,,,,,,,,,,,,,,,,,,,,,,,,,,,,,,,,,,,,,,,,,,,,,,,,,,,,,,,,
,,CARS,6.037545,1,,,,,,stimuli/images/PICTURE_177.png,CARS,5f5023517ef2f019cf3ebb57,10/01/1953,2020-09-12_00h11.59.251,proactive3.2,2020.1.2,Win32,60,5f5adea66120081ea0f57a61,5f5c4a0ea9ba1143b5c08c65,4,,,,,,mushroom,,,,,,,,,,,4,0,0,6,6,35,1,,,,,,,,,,,,,,,,,,,,,,,,,,,,,,,,,,,,,,,,,,,,,,,,,,,,,,,,,,,,,,,,,,,,,,
,,?,0.00207,0,,,,,,stimuli/images/PICTURE_356.png,DANGER,5f5023517ef2f019cf3ebb57,10/01/1953,2020-09-12_00h11.59.251,proactive3.2,2020.1.2,Win32,60,5f5adea66120081ea0f57a61,5f5c4a0ea9ba1143b5c08c65,4,,,,,,pawn,,,,,,,,,,,6,0,0,7,7,55,1,,,,,,,,,,,,,,,,,,,,,,,,,,,,,,,,,,,,,,,,,,,,,,,,,,,,,,,,,,,,,,,,,,,,,,
,,?,0.002995,0,,,,,,stimuli/images/PICTURE_208.png,MONTH,5f5023517ef2f019cf3ebb57,10/01/1953,2020-09-12_00h11.59.251,proactive3.2,2020.1.2,Win32,60,5f5adea66120081ea0f57a61,5f5c4a0ea9ba1143b5c08c65,4,,,,,,microphone,,,,,,,,,,,6,0,0,8,8,53,1,,,,,,,,,,,,,,,,,,,,,,,,,,,,,,,,,,,,,,,,,,,,,,,,,,,,,,,,,,,,,,,,,,,,,,
,,?,0.00199,0,,,,,,stimuli/images/PICTURE_314.png,SAKE,5f5023517ef2f019cf3ebb57,10/01/1953,2020-09-12_00h11.59.251,proactive3.2,2020.1.2,Win32,60,5f5adea66120081ea0f57a61,5f5c4a0ea9ba1143b5c08c65,4,,,,,,perfume,,,,,,,,,,,1,0,0,9,9,7,1,,,,,,,,,,,,,,,,,,,,,,,,,,,,,,,,,,,,,,,,,,,,,,,,,,,,,,,,,,,,,,,,,,,,,,
,,?,0.002185,0,,,,,,stimuli/images/PICTURE_308.png,ESTATE,5f5023517ef2f019cf3ebb57,10/01/1953,2020-09-12_00h11.59.251,proactive3.2,2020.1.2,Win32,60,5f5adea66120081ea0f57a61,5f5c4a0ea9ba1143b5c08c65,4,,,,,,dice,,,,,,,,,,,5,0,0,10,10,46,1,,,,,,,,,,,,,,,,,,,,,,,,,,,,,,,,,,,,,,,,,,,,,,,,,,,,,,,,,,,,,,,,,,,,,,
,,?,0.006655,0,,,,,,stimuli/images/PICTURE_708.png,CLIENT,5f5023517ef2f019cf3ebb57,10/01/1953,2020-09-12_00h11.59.251,proactive3.2,2020.1.2,Win32,60,5f5adea66120081ea0f57a61,5f5c4a0ea9ba1143b5c08c65,4,,,,,,monkey,,,,,,,,,,,1,0,0,11,11,5,1,,,,,,,,,,,,,,,,,,,,,,,,,,,,,,,,,,,,,,,,,,,,,,,,,,,,,,,,,,,,,,,,,,,,,,
,,?,0.002075,0,,,,,,stimuli/images/PICTURE_467.png,DEMON,5f5023517ef2f019cf3ebb57,10/01/1953,2020-09-12_00h11.59.251,proactive3.2,2020.1.2,Win32,60,5f5adea66120081ea0f57a61,5f5c4a0ea9ba1143b5c08c65,4,,,,,,peg,,,,,,,,,,,3,0,0,12,12,23,1,,,,,,,,,,,,,,,,,,,,,,,,,,,,,,,,,,,,,,,,,,,,,,,,,,,,,,,,,,,,,,,,,,,,,,
,,?,0.00219,0,,,,,,stimuli/images/PICTURE_285.png,ADVICE,5f5023517ef2f019cf3ebb57,10/01/1953,2020-09-12_00h11.59.251,proactive3.2,2020.1.2,Win32,60,5f5adea66120081ea0f57a61,5f5c4a0ea9ba1143b5c08c65,4,,,,,,carrot,,,,,,,,,,,2,0,0,13,13,12,1,,,,,,,,,,,,,,,,,,,,,,,,,,,,,,,,,,,,,,,,,,,,,,,,,,,,,,,,,,,,,,,,,,,,,,
,,?,0.00215,0,,,,,,stimuli/images/PICTURE_744.png,SAKE,5f5023517ef2f019cf3ebb57,10/01/1953,2020-09-12_00h11.59.251,proactive3.2,2020.1.2,Win32,60,5f5adea66120081ea0f57a61,5f5c4a0ea9ba1143b5c08c65,4,,,,,,ring,,,,,,,,,,,2,0,0,14,14,17,1,,,,,,,,,,,,,,,,,,,,,,,,,,,,,,,,,,,,,,,,,,,,,,,,,,,,,,,,,,,,,,,,,,,,,,
,,MILE,4.601295,1,,,,,,stimuli/images/PICTURE_677.png,MILE,5f5023517ef2f019cf3ebb57,10/01/1953,2020-09-12_00h11.59.251,proactive3.2,2020.1.2,Win32,60,5f5adea66120081ea0f57a61,5f5c4a0ea9ba1143b5c08c65,4,,,,,,map,,,,,,,,,,,4,0,0,15,15,30,1,,,,,,,,,,,,,,,,,,,,,,,,,,,,,,,,,,,,,,,,,,,,,,,,,,,,,,,,,,,,,,,,,,,,,,
,,CASINO,4.582655,1,,,,,,stimuli/images/PICTURE_470.png,CASINO,5f5023517ef2f019cf3ebb57,10/01/1953,2020-09-12_00h11.59.251,proactive3.2,2020.1.2,Win32,60,5f5adea66120081ea0f57a61,5f5c4a0ea9ba1143b5c08c65,4,,,,,,motorbike,,,,,,,,,,,4,0,0,16,16,36,1,,,,,,,,,,,,,,,,,,,,,,,,,,,,,,,,,,,,,,,,,,,,,,,,,,,,,,,,,,,,,,,,,,,,,,
,,?,0.00247,0,,,,,,stimuli/images/PICTURE_453.png,DUDE,5f5023517ef2f019cf3ebb57,10/01/1953,2020-09-12_00h11.59.251,proactive3.2,2020.1.2,Win32,60,5f5adea66120081ea0f57a61,5f5c4a0ea9ba1143b5c08c65,4,,,,,,scissors,,,,,,,,,,,3,0,0,17,17,27,1,,,,,,,,,,,,,,,,,,,,,,,,,,,,,,,,,,,,,,,,,,,,,,,,,,,,,,,,,,,,,,,,,,,,,,
,,?,0.00239,0,,,,,,stimuli/images/PICTURE_302.png,FAMILY,5f5023517ef2f019cf3ebb57,10/01/1953,2020-09-12_00h11.59.251,proactive3.2,2020.1.2,Win32,60,5f5adea66120081ea0f57a61,5f5c4a0ea9ba1143b5c08c65,4,,,,,,taxi,,,,,,,,,,,2,0,0,18,18,18,1,,,,,,,,,,,,,,,,,,,,,,,,,,,,,,,,,,,,,,,,,,,,,,,,,,,,,,,,,,,,,,,,,,,,,,
,,PENNY,5.17179,1,,,,,,stimuli/images/PICTURE_708.png,PENNY,5f5023517ef2f019cf3ebb57,10/01/1953,2020-09-12_00h11.59.251,proactive3.2,2020.1.2,Win32,60,5f5adea66120081ea0f57a61,5f5c4a0ea9ba1143b5c08c65,4,,,,,,monkey,,,,,,,,,,,4,0,0,19,19,31,1,,,,,,,,,,,,,,,,,,,,,,,,,,,,,,,,,,,,,,,,,,,,,,,,,,,,,,,,,,,,,,,,,,,,,,
,,?,0.002615,0,,,,,,stimuli/images/PICTURE_311.png,BEAUTY,5f5023517ef2f019cf3ebb57,10/01/1953,2020-09-12_00h11.59.251,proactive3.2,2020.1.2,Win32,60,5f5adea66120081ea0f57a61,5f5c4a0ea9ba1143b5c08c65,4,,,,,,razor,,,,,,,,,,,2,0,0,20,20,13,1,,,,,,,,,,,,,,,,,,,,,,,,,,,,,,,,,,,,,,,,,,,,,,,,,,,,,,,,,,,,,,,,,,,,,,
,,?,0.00215,0,,,,,,stimuli/images/PICTURE_487.png,FLIGHT,5f5023517ef2f019cf3ebb57,10/01/1953,2020-09-12_00h11.59.251,proactive3.2,2020.1.2,Win32,60,5f5adea66120081ea0f57a61,5f5c4a0ea9ba1143b5c08c65,4,,,,,,basket,,,,,,,,,,,1,0,0,21,21,9,1,,,,,,,,,,,,,,,,,,,,,,,,,,,,,,,,,,,,,,,,,,,,,,,,,,,,,,,,,,,,,,,,,,,,,,
,,?,0.002885,0,,,,,,stimuli/images/PICTURE_708.png,YARD,5f5023517ef2f019cf3ebb57,10/01/1953,2020-09-12_00h11.59.251,proactive3.2,2020.1.2,Win32,60,5f5adea66120081ea0f57a61,5f5c4a0ea9ba1143b5c08c65,4,,,,,,monkey,,,,,,,,,,,3,0,0,22,22,29,1,,,,,,,,,,,,,,,,,,,,,,,,,,,,,,,,,,,,,,,,,,,,,,,,,,,,,,,,,,,,,,,,,,,,,,
,,?,0.00278,0,,,,,,stimuli/images/PICTURE_449.png,THING,5f5023517ef2f019cf3ebb57,10/01/1953,2020-09-12_00h11.59.251,proactive3.2,2020.1.2,Win32,60,5f5adea66120081ea0f57a61,5f5c4a0ea9ba1143b5c08c65,4,,,,,,bench,,,,,,,,,,,6,0,0,23,23,59,1,,,,,,,,,,,,,,,,,,,,,,,,,,,,,,,,,,,,,,,,,,,,,,,,,,,,,,,,,,,,,,,,,,,,,,
,,?,0.002415,0,,,,,,stimuli/images/PICTURE_123.png,ADVICE,5f5023517ef2f019cf3ebb57,10/01/1953,2020-09-12_00h11.59.251,proactive3.2,2020.1.2,Win32,60,5f5adea66120081ea0f57a61,5f5c4a0ea9ba1143b5c08c65,4,,,,,,dart,,,,,,,,,,,5,0,0,24,24,40,1,,,,,,,,,,,,,,,,,,,,,,,,,,,,,,,,,,,,,,,,,,,,,,,,,,,,,,,,,,,,,,,,,,,,,,
,,?,0.019965,0,,,,,,stimuli/images/PICTURE_151.png,GIRL,5f5023517ef2f019cf3ebb57,10/01/1953,2020-09-12_00h11.59.251,proactive3.2,2020.1.2,Win32,60,5f5adea66120081ea0f57a61,5f5c4a0ea9ba1143b5c08c65,4,,,,,,tray,,,,,,,,,,,2,0,0,25,25,19,1,,,,,,,,,,,,,,,,,,,,,,,,,,,,,,,,,,,,,,,,,,,,,,,,,,,,,,,,,,,,,,,,,,,,,,
,,?,0.002165,0,,,,,,stimuli/images/PICTURE_255.png,AREA,5f5023517ef2f019cf3ebb57,10/01/1953,2020-09-12_00h11.59.251,proactive3.2,2020.1.2,Win32,60,5f5adea66120081ea0f57a61,5f5c4a0ea9ba1143b5c08c65,4,,,,,,shovel,,,,,,,,,,,3,0,0,26,26,22,1,,,,,,,,,,,,,,,,,,,,,,,,,,,,,,,,,,,,,,,,,,,,,,,,,,,,,,,,,,,,,,,,,,,,,,
,,?,0.002855,0,,,,,,stimuli/images/PICTURE_208.png,LOTS,5f5023517ef2f019cf3ebb57,10/01/1953,2020-09-12_00h11.59.251,proactive3.2,2020.1.2,Win32,60,5f5adea66120081ea0f57a61,5f5c4a0ea9ba1143b5c08c65,4,,,,,,microphone,,,,,,,,,,,2,0,0,27,27,10,1,,,,,,,,,,,,,,,,,,,,,,,,,,,,,,,,,,,,,,,,,,,,,,,,,,,,,,,,,,,,,,,,,,,,,,
,,?,0.002465,0,,,,,,stimuli/images/PICTURE_123.png,ADVICE,5f5023517ef2f019cf3ebb57,10/01/1953,2020-09-12_00h11.59.251,proactive3.2,2020.1.2,Win32,60,5f5adea66120081ea0f57a61,5f5c4a0ea9ba1143b5c08c65,4,,,,,,dart,,,,,,,,,,,6,0,0,28,28,50,1,,,,,,,,,,,,,,,,,,,,,,,,,,,,,,,,,,,,,,,,,,,,,,,,,,,,,,,,,,,,,,,,,,,,,,
,,?,0.002455,0,,,,,,stimuli/images/PICTURE_688.png,WOMEN,5f5023517ef2f019cf3ebb57,10/01/1953,2020-09-12_00h11.59.251,proactive3.2,2020.1.2,Win32,60,5f5adea66120081ea0f57a61,5f5c4a0ea9ba1143b5c08c65,4,,,,,,runner,,,,,,,,,,,2,0,0,29,29,14,1,,,,,,,,,,,,,,,,,,,,,,,,,,,,,,,,,,,,,,,,,,,,,,,,,,,,,,,,,,,,,,,,,,,,,,
,,PLENTY,5.432355,1,,,,,,stimuli/images/PICTURE_215.png,PLENTY,5f5023517ef2f019cf3ebb57,10/01/1953,2020-09-12_00h11.59.251,proactive3.2,2020.1.2,Win32,60,5f5adea66120081ea0f57a61,5f5c4a0ea9ba1143b5c08c65,4,,,,,,boot,,,,,,,,,,,4,0,0,30,30,37,1,,,,,,,,,,,,,,,,,,,,,,,,,,,,,,,,,,,,,,,,,,,,,,,,,,,,,,,,,,,,,,,,,,,,,,
,,STYLE,6.08407,1,,,,,,stimuli/images/PICTURE_488.png,STYLE,5f5023517ef2f019cf3ebb57,10/01/1953,2020-09-12_00h11.59.251,proactive3.2,2020.1.2,Win32,60,5f5adea66120081ea0f57a61,5f5c4a0ea9ba1143b5c08c65,4,,,,,,sun,,,,,,,,,,,4,0,0,31,31,33,1,,,,,,,,,,,,,,,,,,,,,,,,,,,,,,,,,,,,,,,,,,,,,,,,,,,,,,,,,,,,,,,,,,,,,,
,,?,0.00245,0,,,,,,stimuli/images/PICTURE_504.png,BODY,5f5023517ef2f019cf3ebb57,10/01/1953,2020-09-12_00h11.59.251,proactive3.2,2020.1.2,Win32,60,5f5adea66120081ea0f57a61,5f5c4a0ea9ba1143b5c08c65,4,,,,,,wheel,,,,,,,,,,,1,0,0,32,32,8,1,,,,,,,,,,,,,,,,,,,,,,,,,,,,,,,,,,,,,,,,,,,,,,,,,,,,,,,,,,,,,,,,,,,,,,
,,?,0.002305,0,,,,,,stimuli/images/PICTURE_314.png,GODS,5f5023517ef2f019cf3ebb57,10/01/1953,2020-09-12_00h11.59.251,proactive3.2,2020.1.2,Win32,60,5f5adea66120081ea0f57a61,5f5c4a0ea9ba1143b5c08c65,4,,,,,,perfume,,,,,,,,,,,2,0,0,33,33,11,1,,,,,,,,,,,,,,,,,,,,,,,,,,,,,,,,,,,,,,,,,,,,,,,,,,,,,,,,,,,,,,,,,,,,,,
,,?,0.002585,0,,,,,,stimuli/images/PICTURE_203.png,ARTIST,5f5023517ef2f019cf3ebb57,10/01/1953,2020-09-12_00h11.59.251,proactive3.2,2020.1.2,Win32,60,5f5adea66120081ea0f57a61,5f5c4a0ea9ba1143b5c08c65,4,,,,,,cap,,,,,,,,,,,3,0,0,34,34,26,1,,,,,,,,,,,,,,,,,,,,,,,,,,,,,,,,,,,,,,,,,,,,,,,,,,,,,,,,,,,,,,,,,,,,,,
,,?,0.0021,0,,,,,,stimuli/images/PICTURE_208.png,THING,5f5023517ef2f019cf3ebb57,10/01/1953,2020-09-12_00h11.59.251,proactive3.2,2020.1.2,Win32,60,5f5adea66120081ea0f57a61,5f5c4a0ea9ba1143b5c08c65,4,,,,,,microphone,,,,,,,,,,,5,0,0,35,35,47,1,,,,,,,,,,,,,,,,,,,,,,,,,,,,,,,,,,,,,,,,,,,,,,,,,,,,,,,,,,,,,,,,,,,,,,
,,?,0.00206,0,,,,,,stimuli/images/PICTURE_32.png,JUNGLE,5f5023517ef2f019cf3ebb57,10/01/1953,2020-09-12_00h11.59.251,proactive3.2,2020.1.2,Win32,60,5f5adea66120081ea0f57a61,5f5c4a0ea9ba1143b5c08c65,4,,,,,,crown,,,,,,,,,,,5,0,0,36,36,45,1,,,,,,,,,,,,,,,,,,,,,,,,,,,,,,,,,,,,,,,,,,,,,,,,,,,,,,,,,,,,,,,,,,,,,,
,,?,0.003395,0,,,,,,stimuli/images/PICTURE_160.png,FEET,5f5023517ef2f019cf3ebb57,10/01/1953,2020-09-12_00h11.59.251,proactive3.2,2020.1.2,Win32,60,5f5adea66120081ea0f57a61,5f5c4a0ea9ba1143b5c08c65,4,,,,,,wheelbarrow,,,,,,,,,,,6,0,0,37,37,58,1,,,,,,,,,,,,,,,,,,,,,,,,,,,,,,,,,,,,,,,,,,,,,,,,,,,,,,,,,,,,,,,,,,,,,,
,,?,0.00214,0,,,,,,stimuli/images/PICTURE_744.png,SYSTEM,5f5023517ef2f019cf3ebb57,10/01/1953,2020-09-12_00h11.59.251,proactive3.2,2020.1.2,Win32,60,5f5adea66120081ea0f57a61,5f5c4a0ea9ba1143b5c08c65,4,,,,,,ring,,,,,,,,,,,5,0,0,38,38,43,1,,,,,,,,,,,,,,,,,,,,,,,,,,,,,,,,,,,,,,,,,,,,,,,,,,,,,,,,,,,,,,,,,,,,,,
,,?,0.002055,0,,,,,,stimuli/images/PICTURE_667.png,BATH,5f5023517ef2f019cf3ebb57,10/01/1953,2020-09-12_00h11.59.251,proactive3.2,2020.1.2,Win32,60,5f5adea66120081ea0f57a61,5f5c4a0ea9ba1143b5c08c65,4,,,,,,daisy,,,,,,,,,,,1,0,0,39,39,4,1,,,,,,,,,,,,,,,,,,,,,,,,,,,,,,,,,,,,,,,,,,,,,,,,,,,,,,,,,,,,,,,,,,,,,,
,,?,0.00207,0,,,,,,stimuli/images/PICTURE_308.png,KIND,5f5023517ef2f019cf3ebb57,10/01/1953,2020-09-12_00h11.59.251,proactive3.2,2020.1.2,Win32,60,5f5adea66120081ea0f57a61,5f5c4a0ea9ba1143b5c08c65,4,,,,,,dice,,,,,,,,,,,6,0,0,40,40,54,1,,,,,,,,,,,,,,,,,,,,,,,,,,,,,,,,,,,,,,,,,,,,,,,,,,,,,,,,,,,,,,,,,,,,,,
,,?,0.00193,0,,,,,,stimuli/images/PICTURE_327.png,BEAUTY,5f5023517ef2f019cf3ebb57,10/01/1953,2020-09-12_00h11.59.251,proactive3.2,2020.1.2,Win32,60,5f5adea66120081ea0f57a61,5f5c4a0ea9ba1143b5c08c65,4,,,,,,helmet,,,,,,,,,,,5,0,0,41,41,48,1,,,,,,,,,,,,,,,,,,,,,,,,,,,,,,,,,,,,,,,,,,,,,,,,,,,,,,,,,,,,,,,,,,,,,,
,,?,0.00199,0,,,,,,stimuli/images/PICTURE_491.png,ROOF,5f5023517ef2f019cf3ebb57,10/01/1953,2020-09-12_00h11.59.251,proactive3.2,2020.1.2,Win32,60,5f5adea66120081ea0f57a61,5f5c4a0ea9ba1143b5c08c65,4,,,,,,rug,,,,,,,,,,,3,0,0,42,42,24,1,,,,,,,,,,,,,,,,,,,,,,,,,,,,,,,,,,,,,,,,,,,,,,,,,,,,,,,,,,,,,,,,,,,,,,
,,?,0.006135,0,,,,,,stimuli/images/PICTURE_509.png,PHOTO,5f5023517ef2f019cf3ebb57,10/01/1953,2020-09-12_00h11.59.251,proactive3.2,2020.1.2,Win32,60,5f5adea66120081ea0f57a61,5f5c4a0ea9ba1143b5c08c65,4,,,,,,telephone,,,,,,,,,,,3,0,0,43,43,21,1,,,,,,,,,,,,,,,,,,,,,,,,,,,,,,,,,,,,,,,,,,,,,,,,,,,,,,,,,,,,,,,,,,,,,,
,,?,0.00202,0,,,,,,stimuli/images/PICTURE_68.png,MILE,5f5023517ef2f019cf3ebb57,10/01/1953,2020-09-12_00h11.59.251,proactive3.2,2020.1.2,Win32,60,5f5adea66120081ea0f57a61,5f5c4a0ea9ba1143b5c08c65,4,,,,,,candle,,,,,,,,,,,5,0,0,44,44,44,1,,,,,,,,,,,,,,,,,,,,,,,,,,,,,,,,,,,,,,,,,,,,,,,,,,,,,,,,,,,,,,,,,,,,,,
,,?,0.002,0,,,,,,stimuli/images/PICTURE_469.png,LETTER,5f5023517ef2f019cf3ebb57,10/01/1953,2020-09-12_00h11.59.251,proactive3.2,2020.1.2,Win32,60,5f5adea66120081ea0f57a61,5f5c4a0ea9ba1143b5c08c65,4,,,,,,stool,,,,,,,,,,,5,0,0,45,45,42,1,,,,,,,,,,,,,,,,,,,,,,,,,,,,,,,,,,,,,,,,,,,,,,,,,,,,,,,,,,,,,,,,,,,,,,
,,WOMEN,4.915815,1,,,,,,stimuli/images/PICTURE_233.png,WOMEN,5f5023517ef2f019cf3ebb57,10/01/1953,2020-09-12_00h11.59.251,proactive3.2,2020.1.2,Win32,60,5f5adea66120081ea0f57a61,5f5c4a0ea9ba1143b5c08c65,4,,,,,,salt,,,,,,,,,,,4,0,0,46,46,38,1,,,,,,,,,,,,,,,,,,,,,,,,,,,,,,,,,,,,,,,,,,,,,,,,,,,,,,,,,,,,,,,,,,,,,,
,,?,0.00206,0,,,,,,stimuli/images/PICTURE_688.png,CASINO,5f5023517ef2f019cf3ebb57,10/01/1953,2020-09-12_00h11.59.251,proactive3.2,2020.1.2,Win32,60,5f5adea66120081ea0f57a61,5f5c4a0ea9ba1143b5c08c65,4,,,,,,runner,,,,,,,,,,,1,0,0,47,47,2,1,,,,,,,,,,,,,,,,,,,,,,,,,,,,,,,,,,,,,,,,,,,,,,,,,,,,,,,,,,,,,,,,,,,,,,
,,?,0.002025,0,,,,,,stimuli/images/PICTURE_233.png,IDEAS,5f5023517ef2f019cf3ebb57,10/01/1953,2020-09-12_00h11.59.251,proactive3.2,2020.1.2,Win32,60,5f5adea66120081ea0f57a61,5f5c4a0ea9ba1143b5c08c65,4,,,,,,salt,,,,,,,,,,,3,0,0,48,48,28,1,,,,,,,,,,,,,,,,,,,,,,,,,,,,,,,,,,,,,,,,,,,,,,,,,,,,,,,,,,,,,,,,,,,,,,
,,?,0.003735,0,,,,,,stimuli/images/PICTURE_453.png,PLENTY,5f5023517ef2f019cf3ebb57,10/01/1953,2020-09-12_00h11.59.251,proactive3.2,2020.1.2,Win32,60,5f5adea66120081ea0f57a61,5f5c4a0ea9ba1143b5c08c65,4,,,,,,scissors,,,,,,,,,,,6,0,0,49,49,56,1,,,,,,,,,,,,,,,,,,,,,,,,,,,,,,,,,,,,,,,,,,,,,,,,,,,,,,,,,,,,,,,,,,,,,,
,,?,0.00572,0,,,,,,stimuli/images/PICTURE_160.png,LEADER,5f5023517ef2f019cf3ebb57,10/01/1953,2020-09-12_00h11.59.251,proactive3.2,2020.1.2,Win32,60,5f5adea66120081ea0f57a61,5f5c4a0ea9ba1143b5c08c65,4,,,,,,wheelbarrow,,,,,,,,,,,1,0,0,50,50,3,1,,,,,,,,,,,,,,,,,,,,,,,,,,,,,,,,,,,,,,,,,,,,,,,,,,,,,,,,,,,,,,,,,,,,,,
,,?,0.002995,0,,,,,,stimuli/images/PICTURE_85.png,THING,5f5023517ef2f019cf3ebb57,10/01/1953,2020-09-12_00h11.59.251,proactive3.2,2020.1.2,Win32,60,5f5adea66120081ea0f57a61,5f5c4a0ea9ba1143b5c08c65,4,,,,,,diamond,,,,,,,,,,,2,0,0,51,51,15,1,,,,,,,,,,,,,,,,,,,,,,,,,,,,,,,,,,,,,,,,,,,,,,,,,,,,,,,,,,,,,,,,,,,,,,
,,?,0.002075,0,,,,,,stimuli/images/PICTURE_147.png,MOMENT,5f5023517ef2f019cf3ebb57,10/01/1953,2020-09-12_00h11.59.251,proactive3.2,2020.1.2,Win32,60,5f5adea66120081ea0f57a61,5f5c4a0ea9ba1143b5c08c65,4,,,,,,hanger,,,,,,,,,,,6,0,0,52,52,51,1,,,,,,,,,,,,,,,,,,,,,,,,,,,,,,,,,,,,,,,,,,,,,,,,,,,,,,,,,,,,,,,,,,,,,,
,,FRIEND,10.10207,1,,,,,,stimuli/images/PICTURE_311.png,FRIEND,5f5023517ef2f019cf3ebb57,10/01/1953,2020-09-12_00h11.59.251,proactive3.2,2020.1.2,Win32,60,5f5adea66120081ea0f57a61,5f5c4a0ea9ba1143b5c08c65,4,,,,,,razor,,,,,,,,,,,4,0,0,53,53,34,1,,,,,,,,,,,,,,,,,,,,,,,,,,,,,,,,,,,,,,,,,,,,,,,,,,,,,,,,,,,,,,,,,,,,,,
,,?,0.00233,0,,,,,,stimuli/images/PICTURE_95.png,STYLE,5f5023517ef2f019cf3ebb57,10/01/1953,2020-09-12_00h11.59.251,proactive3.2,2020.1.2,Win32,60,5f5adea66120081ea0f57a61,5f5c4a0ea9ba1143b5c08c65,4,,,,,,suitcase,,,,,,,,,,,3,0,0,54,54,25,1,,,,,,,,,,,,,,,,,,,,,,,,,,,,,,,,,,,,,,,,,,,,,,,,,,,,,,,,,,,,,,,,,,,,,,
,,WEAPON,7.020905,1,,,,,,stimuli/images/PICTURE_675.png,WEAPON,5f5023517ef2f019cf3ebb57,10/01/1953,2020-09-12_00h11.59.251,proactive3.2,2020.1.2,Win32,60,5f5adea66120081ea0f57a61,5f5c4a0ea9ba1143b5c08c65,4,,,,,,windmill,,,,,,,,,,,4,0,0,55,55,32,1,,,,,,,,,,,,,,,,,,,,,,,,,,,,,,,,,,,,,,,,,,,,,,,,,,,,,,,,,,,,,,,,,,,,,,
,,?,0.00251,0,,,,,,stimuli/images/PICTURE_469.png,ARTIST,5f5023517ef2f019cf3ebb57,10/01/1953,2020-09-12_00h11.59.251,proactive3.2,2020.1.2,Win32,60,5f5adea66120081ea0f57a61,5f5c4a0ea9ba1143b5c08c65,4,,,,,,stool,,,,,,,,,,,1,0,0,56,56,6,1,,,,,,,,,,,,,,,,,,,,,,,,,,,,,,,,,,,,,,,,,,,,,,,,,,,,,,,,,,,,,,,,,,,,,,
,,?,0.00208,0,,,,,,stimuli/images/PICTURE_692.png,MONTH,5f5023517ef2f019cf3ebb57,10/01/1953,2020-09-12_00h11.59.251,proactive3.2,2020.1.2,Win32,60,5f5adea66120081ea0f57a61,5f5c4a0ea9ba1143b5c08c65,4,,,,,,cherry,,,,,,,,,,,2,0,0,57,57,16,1,,,,,,,,,,,,,,,,,,,,,,,,,,,,,,,,,,,,,,,,,,,,,,,,,,,,,,,,,,,,,,,,,,,,,,
,,?,0.002855,0,,,,,,stimuli/images/PICTURE_667.png,PLENTY,5f5023517ef2f019cf3ebb57,10/01/1953,2020-09-12_00h11.59.251,proactive3.2,2020.1.2,Win32,60,5f5adea66120081ea0f57a61,5f5c4a0ea9ba1143b5c08c65,4,,,,,,daisy,,,,,,,,,,,5,0,0,58,58,41,1,,,,,,,,,,,,,,,,,,,,,,,,,,,,,,,,,,,,,,,,,,,,,,,,,,,,,,,,,,,,,,,,,,,,,,
,,?,0.00576,0,,,,,,stimuli/images/PICTURE_348.png,SPEECH,5f5023517ef2f019cf3ebb57,10/01/1953,2020-09-12_00h11.59.251,proactive3.2,2020.1.2,Win32,60,5f5adea66120081ea0f57a61,5f5c4a0ea9ba1143b5c08c65,4,,,,,,pepper,,,,,,,,,,,3,0,0,59,59,20,1,,,,,,,,,,,,,,,,,,,,,,,,,,,,,,,,,,,,,,,,,,,,,,,,,,,,,,,,,,,,,,,,,,,,,,
,,,,,,,,,,,,5f5023517ef2f019cf3ebb57,10/01/1953,2020-09-12_00h11.59.251,proactive3.2,2020.1.2,Win32,60,5f5adea66120081ea0f57a61,5f5c4a0ea9ba1143b5c08c65,4,,,,,,,,,,,,,,,,,,,,,,,,0,1,1,0,1,stimuli/learn-block1.csv,,,,,,,,,,,,,,,,,,,,,,,,,,,,,,,,,,,,,,,,,,,,,,,,,,,,,,,,,,,,,,,,
,,,,,,,,,,stimuli/images/PICTURE_383.png,WRITER,5f5023517ef2f019cf3ebb57,10/01/1953,2020-09-12_00h11.59.251,proactive3.2,2020.1.2,Win32,60,5f5adea66120081ea0f57a61,5f5c4a0ea9ba1143b5c08c65,4,,,,,,coin,,,,,,0,0,0,28,1,3,1,,,,,,,,,,,,,,,,,,,,,,,,,,,,,,,,,,,,,,,,,,,,,,,,,,,,,,,,,,,,,,,,,,,,,,,,,,,
,,,,,,,,,,stimuli/images/PICTURE_750.png,HOTEL,5f5023517ef2f019cf3ebb57,10/01/1953,2020-09-12_00h11.59.251,proactive3.2,2020.1.2,Win32,60,5f5adea66120081ea0f57a61,5f5c4a0ea9ba1143b5c08c65,4,,,,,,kettle,,,,,,0,1,1,27,1,3,1,,,,,,,,,,,,,,,,,,,,,,,,,,,,,,,,,,,,,,,,,,,,,,,,,,,,,,,,,,,,,,,,,,,,,,,,,,,
,,,,,,,,,,stimuli/images/PICTURE_487.png,GIRL,5f5023517ef2f019cf3ebb57,10/01/1953,2020-09-12_00h11.59.251,proactive3.2,2020.1.2,Win32,60,5f5adea66120081ea0f57a61,5f5c4a0ea9ba1143b5c08c65,4,,,,,,basket,,,,,,0,2,2,45,1,5,1,,,,,,,,,,,,,,,,,,,,,,,,,,,,,,,,,,,,,,,,,,,,,,,,,,,,,,,,,,,,,,,,,,,,,,,,,,,
,,,,,,,,,,stimuli/images/PICTURE_33.png,FRIEND,5f5023517ef2f019cf3ebb57,10/01/1953,2020-09-12_00h11.59.251,proactive3.2,2020.1.2,Win32,60,5f5adea66120081ea0f57a61,5f5c4a0ea9ba1143b5c08c65,4,,,,,,frame,,,,,,0,3,3,8,1,1,1,,,,,,,,,,,,,,,,,,,,,,,,,,,,,,,,,,,,,,,,,,,,,,,,,,,,,,,,,,,,,,,,,,,,,,,,,,,
,,,,,,,,,,stimuli/images/PICTURE_32.png,PILLS,5f5023517ef2f019cf3ebb57,10/01/1953,2020-09-12_00h11.59.251,proactive3.2,2020.1.2,Win32,60,5f5adea66120081ea0f57a61,5f5c4a0ea9ba1143b5c08c65,4,,,,,,crown,,,,,,0,4,4,18,1,2,1,,,,,,,,,,,,,,,,,,,,,,,,,,,,,,,,,,,,,,,,,,,,,,,,,,,,,,,,,,,,,,,,,,,,,,,,,,,
,,,,,,,,,,stimuli/images/PICTURE_744.png,WEAPON,5f5023517ef2f019cf3ebb57,10/01/1953,2020-09-12_00h11.59.251,proactive3.2,2020.1.2,Win32,60,5f5adea66120081ea0f57a61,5f5c4a0ea9ba1143b5c08c65,4,,,,,,ring,,,,,,0,5,5,50,1,6,1,,,,,,,,,,,,,,,,,,,,,,,,,,,,,,,,,,,,,,,,,,,,,,,,,,,,,,,,,,,,,,,,,,,,,,,,,,,
,,,,,,,,,,stimuli/images/PICTURE_383.png,SERIES,5f5023517ef2f019cf3ebb57,10/01/1953,2020-09-12_00h11.59.251,proactive3.2,2020.1.2,Win32,60,5f5adea66120081ea0f57a61,5f5c4a0ea9ba1143b5c08c65,4,,,,,,coin,,,,,,0,6,6,46,1,5,1,,,,,,,,,,,,,,,,,,,,,,,,,,,,,,,,,,,,,,,,,,,,,,,,,,,,,,,,,,,,,,,,,,,,,,,,,,,
,,,,,,,,,,stimuli/images/PICTURE_340.png,VALLEY,5f5023517ef2f019cf3ebb57,10/01/1953,2020-09-12_00h11.59.251,proactive3.2,2020.1.2,Win32,60,5f5adea66120081ea0f57a61,5f5c4a0ea9ba1143b5c08c65,4,,,,,,mirror,,,,,,0,7,7,54,1,6,1,,,,,,,,,,,,,,,,,,,,,,,,,,,,,,,,,,,,,,,,,,,,,,,,,,,,,,,,,,,,,,,,,,,,,,,,,,,
,,,,,,,,,,stimuli/images/PICTURE_108.png,POLICY,5f5023517ef2f019cf3ebb57,10/01/1953,2020-09-12_00h11.59.251,proactive3.2,2020.1.2,Win32,60,5f5adea66120081ea0f57a61,5f5c4a0ea9ba1143b5c08c65,4,,,,,,calendar,,,,,,0,8,8,22,1,3,1,,,,,,,,,,,,,,,,,,,,,,,,,,,,,,,,,,,,,,,,,,,,,,,,,,,,,,,,,,,,,,,,,,,,,,,,,,,
,,,,,,,,,,stimuli/images/PICTURE_68.png,MILE,5f5023517ef2f019cf3ebb57,10/01/1953,2020-09-12_00h11.59.251,proactive3.2,2020.1.2,Win32,60,5f5adea66120081ea0f57a61,5f5c4a0ea9ba1143b5c08c65,4,,,,,,candle,,,,,,0,9,9,51,1,6,1,,,,,,,,,,,,,,,,,,,,,,,,,,,,,,,,,,,,,,,,,,,,,,,,,,,,,,,,,,,,,,,,,,,,,,,,,,,
,,,,,,,,,,stimuli/images/PICTURE_203.png,GODS,5f5023517ef2f019cf3ebb57,10/01/1953,2020-09-12_00h11.59.251,proactive3.2,2020.1.2,Win32,60,5f5adea66120081ea0f57a61,5f5c4a0ea9ba1143b5c08c65,4,,,,,,cap,,,,,,0,10,10,30,1,4,1,,,,,,,,,,,,,,,,,,,,,,,,,,,,,,,,,,,,,,,,,,,,,,,,,,,,,,,,,,,,,,,,,,,,,,,,,,,
,,,,,,,,,,stimuli/images/PICTURE_403.png,RIVER,5f5023517ef2f019cf3ebb57,10/01/1953,2020-09-12_00h11.59.251,proactive3.2,2020.1.2,Win32,60,5f5adea66120081ea0f57a61,5f5c4a0ea9ba1143b5c08c65,4,,,,,,cathedral,,,,,,0,11,11,40,1,5,1,,,,,,,,,,,,,,,,,,,,,,,,,,,,,,,,,,,,,,,,,,,,,,,,,,,,,,,,,,,,,,,,,,,,,,,,,,,
,,,,,,,,,,stimuli/images/PICTURE_233.png,LOTS,5f5023517ef2f019cf3ebb57,10/01/1953,2020-09-12_00h11.59.251,proactive3.2,2020.1.2,Win32,60,5f5adea66120081ea0f57a61,5f5c4a0ea9ba1143b5c08c65,4,,,,,,salt,,,,,,0,12,12,42,1,5,1,,,,,,,,,,,,,,,,,,,,,,,,,,,,,,,,,,,,,,,,,,,,,,,,,,,,,,,,,,,,,,,,,,,,,,,,,,,
,,,,,,,,,,stimuli/images/PICTURE_203.png,NIGHT,5f5023517ef2f019cf3ebb57,10/01/1953,2020-09-12_00h11.59.251,proactive3.2,2020.1.2,Win32,60,5f5adea66120081ea0f57a61,5f5c4a0ea9ba1143b5c08c65,4,,,,,,cap,,,,,,0,13,13,2,1,1,1,,,,,,,,,,,,,,,,,,,,,,,,,,,,,,,,,,,,,,,,,,,,,,,,,,,,,,,,,,,,,,,,,,,,,,,,,,,
,,,,,,,,,,stimuli/images/PICTURE_685.png,PENNY,5f5023517ef2f019cf3ebb57,10/01/1953,2020-09-12_00h11.59.251,proactive3.2,2020.1.2,Win32,60,5f5adea66120081ea0f57a61,5f5c4a0ea9ba1143b5c08c65,4,,,,,,goose,,,,,,0,14,14,4,1,1,1,,,,,,,,,,,,,,,,,,,,,,,,,,,,,,,,,,,,,,,,,,,,,,,,,,,,,,,,,,,,,,,,,,,,,,,,,,,
,,,,,,,,,,stimuli/images/PICTURE_491.png,RIVER,5f5023517ef2f019cf3ebb57,10/01/1953,2020-09-12_00h11.59.251,proactive3.2,2020.1.2,Win32,60,5f5adea66120081ea0f57a61,5f5c4a0ea9ba1143b5c08c65,4,,,,,,rug,,,,,,0,15,15,6,1,1,1,,,,,,,,,,,,,,,,,,,,,,,,,,,,,,,,,,,,,,,,,,,,,,,,,,,,,,,,,,,,,,,,,,,,,,,,,,,
,,,,,,,,,,stimuli/images/PICTURE_655.png,TOILET,5f5023517ef2f019cf3ebb57,10/01/1953,2020-09-12_00h11.59.251,proactive3.2,2020.1.2,Win32,60,5f5adea66120081ea0f57a61,5f5c4a0ea9ba1143b5c08c65,4,,,,,,megaphone,,,,,,0,16,16,12,1,2,1,,,,,,,,,,,,,,,,,,,,,,,,,,,,,,,,,,,,,,,,,,,,,,,,,,,,,,,,,,,,,,,,,,,,,,,,,,,
,,,,,,,,,,stimuli/images/PICTURE_68.png,ROOF,5f5023517ef2f019cf3ebb57,10/01/1953,2020-09-12_00h11.59.251,proactive3.2,2020.1.2,Win32,60,5f5adea66120081ea0f57a61,5f5c4a0ea9ba1143b5c08c65,4,,,,,,candle,,,,,,0,17,17,38,1,4,1,,,,,,,,,,,,,,,,,,,,,,,,,,,,,,,,,,,,,,,,,,,,,,,,,,,,,,,,,,,,,,,,,,,,,,,,,,,
,,,,,,,,,,stimuli/images/PICTURE_677.png,APPLE,5f5023517ef2f019cf3ebb57,10/01/1953,2020-09-12_00h11.59.251,proactive3.2,2020.1.2,Win32,60,5f5adea66120081ea0f57a61,5f5c4a0ea9ba1143b5c08c65,4,,,,,,map,,,,,,0,18,18,43,1,5,1,,,,,,,,,,,,,,,,,,,,,,,,,,,,,,,,,,,,,,,,,,,,,,,,,,,,,,,,,,,,,,,,,,,,,,,,,,,
,,,,,,,,,,stimuli/images/PICTURE_296.png,LIFE,5f5023517ef2f019cf3ebb57,10/01/1953,2020-09-12_00h11.59.251,proactive3.2,2020.1.2,Win32,60,5f5adea66120081ea0f57a61,5f5c4a0ea9ba1143b5c08c65,4,,,,,,bolt,,,,,,0,19,19,57,1,6,1,,,,,,,,,,,,,,,,,,,,,,,,,,,,,,,,,,,,,,,,,,,,,,,,,,,,,,,,,,,,,,,,,,,,,,,,,,,
,,,,,,,,,,stimuli/images/PICTURE_504.png,ARTIST,5f5023517ef2f019cf3ebb57,10/01/1953,2020-09-12_00h11.59.251,proactive3.2,2020.1.2,Win32,60,5f5adea66120081ea0f57a61,5f5c4a0ea9ba1143b5c08c65,4,,,,,,wheel,,,,,,0,20,20,49,1,5,1,,,,,,,,,,,,,,,,,,,,,,,,,,,,,,,,,,,,,,,,,,,,,,,,,,,,,,,,,,,,,,,,,,,,,,,,,,,
,,,,,,,,,,stimuli/images/PICTURE_85.png,NATION,5f5023517ef2f019cf3ebb57,10/01/1953,2020-09-12_00h11.59.251,proactive3.2,2020.1.2,Win32,60,5f5adea66120081ea0f57a61,5f5c4a0ea9ba1143b5c08c65,4,,,,,,diamond,,,,,,0,21,21,5,1,1,1,,,,,,,,,,,,,,,,,,,,,,,,,,,,,,,,,,,,,,,,,,,,,,,,,,,,,,,,,,,,,,,,,,,,,,,,,,,
,,,,,,,,,,stimuli/images/PICTURE_208.png,SYSTEM,5f5023517ef2f019cf3ebb57,10/01/1953,2020-09-12_00h11.59.251,proactive3.2,2020.1.2,Win32,60,5f5adea66120081ea0f57a61,5f5c4a0ea9ba1143b5c08c65,4,,,,,,microphone,,,,,,0,22,22,32,1,4,1,,,,,,,,,,,,,,,,,,,,,,,,,,,,,,,,,,,,,,,,,,,,,,,,,,,,,,,,,,,,,,,,,,,,,,,,,,,
,,,,,,,,,,stimuli/images/PICTURE_108.png,FLIGHT,5f5023517ef2f019cf3ebb57,10/01/1953,2020-09-12_00h11.59.251,proactive3.2,2020.1.2,Win32,60,5f5adea66120081ea0f57a61,5f5c4a0ea9ba1143b5c08c65,4,,,,,,calendar,,,,,,0,23,23,59,1,6,1,,,,,,,,,,,,,,,,,,,,,,,,,,,,,,,,,,,,,,,,,,,,,,,,,,,,,,,,,,,,,,,,,,,,,,,,,,,
,,,,,,,,,,stimuli/images/PICTURE_327.png,CASINO,5f5023517ef2f019cf3ebb57,10/01/1953,2020-09-12_00h11.59.251,proactive3.2,2020.1.2,Win32,60,5f5adea66120081ea0f57a61,5f5c4a0ea9ba1143b5c08c65,4,,,,,,helmet,,,,,,0,24,24,20,1,3,1,,,,,,,,,,,,,,,,,,,,,,,,,,,,,,,,,,,,,,,,,,,,,,,,,,,,,,,,,,,,,,,,,,,,,,,,,,,
,,,,,,,,,,stimuli/images/PICTURE_675.png,SALE,5f5023517ef2f019cf3ebb57,10/01/1953,2020-09-12_00h11.59.251,proactive3.2,2020.1.2,Win32,60,5f5adea66120081ea0f57a61,5f5c4a0ea9ba1143b5c08c65,4,,,,,,windmill,,,,,,0,25,25,47,1,5,1,,,,,,,,,,,,,,,,,,,,,,,,,,,,,,,,,,,,,,,,,,,,,,,,,,,,,,,,,,,,,,,,,,,,,,,,,,,
,,,,,,,,,,stimuli/images/PICTURE_467.png,POLICY,5f5023517ef2f019cf3ebb57,10/01/1953,2020-09-12_00h11.59.251,proactive3.2,2020.1.2,Win32,60,5f5adea66120081ea0f57a61,5f5c4a0ea9ba1143b5c08c65,4,,,,,,peg,,,,,,0,26,26,53,1,6,1,,,,,,,,,,,,,,,,,,,,,,,,,,,,,,,,,,,,,,,,,,,,,,,,,,,,,,,,,,,,,,,,,,,,,,,,,,,
,,,,,,,,,,stimuli/images/PICTURE_2.png,FLIGHT,5f5023517ef2f019cf3ebb57,10/01/1953,2020-09-12_00h11.59.251,proactive3.2,2020.1.2,Win32,60,5f5adea66120081ea0f57a61,5f5c4a0ea9ba1143b5c08c65,4,,,,,,tyre,,,,,,0,27,27,15,1,2,1,,,,,,,,,,,,,,,,,,,,,,,,,,,,,,,,,,,,,,,,,,,,,,,,,,,,,,,,,,,,,,,,,,,,,,,,,,,
,,,,,,,,,,stimuli/images/PICTURE_469.png,AGENT,5f5023517ef2f019cf3ebb57,10/01/1953,2020-09-12_00h11.59.251,proactive3.2,2020.1.2,Win32,60,5f5adea66120081ea0f57a61,5f5c4a0ea9ba1143b5c08c65,4,,,,,,stool,,,,,,0,28,28,16,1,2,1,,,,,,,,,,,,,,,,,,,,,,,,,,,,,,,,,,,,,,,,,,,,,,,,,,,,,,,,,,,,,,,,,,,,,,,,,,,
,,,,,,,,,,stimuli/images/PICTURE_42.png,BOYS,5f5023517ef2f019cf3ebb57,10/01/1953,2020-09-12_00h11.59.251,proactive3.2,2020.1.2,Win32,60,5f5adea66120081ea0f57a61,5f5c4a0ea9ba1143b5c08c65,4,,,,,,pear,,,,,,0,29,29,55,1,6,1,,,,,,,,,,,,,,,,,,,,,,,,,,,,,,,,,,,,,,,,,,,,,,,,,,,,,,,,,,,,,,,,,,,,,,,,,,,
,,,,,,,,,,stimuli/images/PICTURE_403.png,WRITER,5f5023517ef2f019cf3ebb57,10/01/1953,2020-09-12_00h11.59.251,proactive3.2,2020.1.2,Win32,60,5f5adea66120081ea0f57a61,5f5c4a0ea9ba1143b5c08c65,4,,,,,,cathedral,,,,,,0,30,30,31,1,4,1,,,,,,,,,,,,,,,,,,,,,,,,,,,,,,,,,,,,,,,,,,,,,,,,,,,,,,,,,,,,,,,,,,,,,,,,,,,
,,,,,,,,,,stimuli/images/PICTURE_564.png,BATH,5f5023517ef2f019cf3ebb57,10/01/1953,2020-09-12_00h11.59.251,proactive3.2,2020.1.2,Win32,60,5f5adea66120081ea0f57a61,5f5c4a0ea9ba1143b5c08c65,4,,,,,,spoon,,,,,,0,31,31,26,1,3,1,,,,,,,,,,,,,,,,,,,,,,,,,,,,,,,,,,,,,,,,,,,,,,,,,,,,,,,,,,,,,,,,,,,,,,,,,,,
,,,,,,,,,,stimuli/images/PICTURE_449.png,DUDE,5f5023517ef2f019cf3ebb57,10/01/1953,2020-09-12_00h11.59.251,proactive3.2,2020.1.2,Win32,60,5f5adea66120081ea0f57a61,5f5c4a0ea9ba1143b5c08c65,4,,,,,,bench,,,,,,0,32,32,17,1,2,1,,,,,,,,,,,,,,,,,,,,,,,,,,,,,,,,,,,,,,,,,,,,,,,,,,,,,,,,,,,,,,,,,,,,,,,,,,,
,,,,,,,,,,stimuli/images/PICTURE_308.png,FAMILY,5f5023517ef2f019cf3ebb57,10/01/1953,2020-09-12_00h11.59.251,proactive3.2,2020.1.2,Win32,60,5f5adea66120081ea0f57a61,5f5c4a0ea9ba1143b5c08c65,4,,,,,,dice,,,,,,0,33,33,36,1,4,1,,,,,,,,,,,,,,,,,,,,,,,,,,,,,,,,,,,,,,,,,,,,,,,,,,,,,,,,,,,,,,,,,,,,,,,,,,,
,,,,,,,,,,stimuli/images/PICTURE_32.png,KIND,5f5023517ef2f019cf3ebb57,10/01/1953,2020-09-12_00h11.59.251,proactive3.2,2020.1.2,Win32,60,5f5adea66120081ea0f57a61,5f5c4a0ea9ba1143b5c08c65,4,,,,,,crown,,,,,,0,34,34,35,1,4,1,,,,,,,,,,,,,,,,,,,,,,,,,,,,,,,,,,,,,,,,,,,,,,,,,,,,,,,,,,,,,,,,,,,,,,,,,,,
,,,,,,,,,,stimuli/images/PICTURE_297.png,RIVER,5f5023517ef2f019cf3ebb57,10/01/1953,2020-09-12_00h11.59.251,proactive3.2,2020.1.2,Win32,60,5f5adea66120081ea0f57a61,5f5c4a0ea9ba1143b5c08c65,4,,,,,,aeroplane,,,,,,0,35,35,39,1,4,1,,,,,,,,,,,,,,,,,,,,,,,,,,,,,,,,,,,,,,,,,,,,,,,,,,,,,,,,,,,,,,,,,,,,,,,,,,,
,,,,,,,,,,stimuli/images/PICTURE_340.png,LETTER,5f5023517ef2f019cf3ebb57,10/01/1953,2020-09-12_00h11.59.251,proactive3.2,2020.1.2,Win32,60,5f5adea66120081ea0f57a61,5f5c4a0ea9ba1143b5c08c65,4,,,,,,mirror,,,,,,0,36,36,24,1,3,1,,,,,,,,,,,,,,,,,,,,,,,,,,,,,,,,,,,,,,,,,,,,,,,,,,,,,,,,,,,,,,,,,,,,,,,,,,,
,,,,,,,,,,stimuli/images/PICTURE_654.png,MONTH,5f5023517ef2f019cf3ebb57,10/01/1953,2020-09-12_00h11.59.251,proactive3.2,2020.1.2,Win32,60,5f5adea66120081ea0f57a61,5f5c4a0ea9ba1143b5c08c65,4,,,,,,pencil,,,,,,0,37,37,29,1,3,1,,,,,,,,,,,,,,,,,,,,,,,,,,,,,,,,,,,,,,,,,,,,,,,,,,,,,,,,,,,,,,,,,,,,,,,,,,,
,,,,,,,,,,stimuli/images/PICTURE_296.png,LOTS,5f5023517ef2f019cf3ebb57,10/01/1953,2020-09-12_00h11.59.251,proactive3.2,2020.1.2,Win32,60,5f5adea66120081ea0f57a61,5f5c4a0ea9ba1143b5c08c65,4,,,,,,bolt,,,,,,0,38,38,9,1,1,1,,,,,,,,,,,,,,,,,,,,,,,,,,,,,,,,,,,,,,,,,,,,,,,,,,,,,,,,,,,,,,,,,,,,,,,,,,,
,,,,,,,,,,stimuli/images/PICTURE_147.png,WOMEN,5f5023517ef2f019cf3ebb57,10/01/1953,2020-09-12_00h11.59.251,proactive3.2,2020.1.2,Win32,60,5f5adea66120081ea0f57a61,5f5c4a0ea9ba1143b5c08c65,4,,,,,,hanger,,,,,,0,39,39,7,1,1,1,,,,,,,,,,,,,,,,,,,,,,,,,,,,,,,,,,,,,,,,,,,,,,,,,,,,,,,,,,,,,,,,,,,,,,,,,,,
,,,,,,,,,,stimuli/images/PICTURE_339.png,CLIENT,5f5023517ef2f019cf3ebb57,10/01/1953,2020-09-12_00h11.59.251,proactive3.2,2020.1.2,Win32,60,5f5adea66120081ea0f57a61,5f5c4a0ea9ba1143b5c08c65,4,,,,,,backpack,,,,,,0,40,40,11,1,2,1,,,,,,,,,,,,,,,,,,,,,,,,,,,,,,,,,,,,,,,,,,,,,,,,,,,,,,,,,,,,,,,,,,,,,,,,,,,
,,,,,,,,,,stimuli/images/PICTURE_85.png,TOILET,5f5023517ef2f019cf3ebb57,10/01/1953,2020-09-12_00h11.59.251,proactive3.2,2020.1.2,Win32,60,5f5adea66120081ea0f57a61,5f5c4a0ea9ba1143b5c08c65,4,,,,,,diamond,,,,,,0,41,41,48,1,5,1,,,,,,,,,,,,,,,,,,,,,,,,,,,,,,,,,,,,,,,,,,,,,,,,,,,,,,,,,,,,,,,,,,,,,,,,,,,
,,,,,,,,,,stimuli/images/PICTURE_95.png,BOYS,5f5023517ef2f019cf3ebb57,10/01/1953,2020-09-12_00h11.59.251,proactive3.2,2020.1.2,Win32,60,5f5adea66120081ea0f57a61,5f5c4a0ea9ba1143b5c08c65,4,,,,,,suitcase,,,,,,0,42,42,1,1,1,1,,,,,,,,,,,,,,,,,,,,,,,,,,,,,,,,,,,,,,,,,,,,,,,,,,,,,,,,,,,,,,,,,,,,,,,,,,,
,,,,,,,,,,stimuli/images/PICTURE_403.png,TOILET,5f5023517ef2f019cf3ebb57,10/01/1953,2020-09-12_00h11.59.251,proactive3.2,2020.1.2,Win32,60,5f5adea66120081ea0f57a61,5f5c4a0ea9ba1143b5c08c65,4,,,,,,cathedral,,,,,,0,43,43,25,1,3,1,,,,,,,,,,,,,,,,,,,,,,,,,,,,,,,,,,,,,,,,,,,,,,,,,,,,,,,,,,,,,,,,,,,,,,,,,,,
,,,,,,,,,,stimuli/images/PICTURE_405.png,YEAR,5f5023517ef2f019cf3ebb57,10/01/1953,2020-09-12_00h11.59.251,proactive3.2,2020.1.2,Win32,60,5f5adea66120081ea0f57a61,5f5c4a0ea9ba1143b5c08c65,4,,,,,,anchor,,,,,,0,44,44,34,1,4,1,,,,,,,,,,,,,,,,,,,,,,,,,,,,,,,,,,,,,,,,,,,,,,,,,,,,,,,,,,,,,,,,,,,,,,,,,,,
,,,,,,,,,,stimuli/images/PICTURE_57.png,MOMENT,5f5023517ef2f019cf3ebb57,10/01/1953,2020-09-12_00h11.59.251,proactive3.2,2020.1.2,Win32,60,5f5adea66120081ea0f57a61,5f5c4a0ea9ba1143b5c08c65,4,,,,,,stamp,,,,,,0,45,45,37,1,4,1,,,,,,,,,,,,,,,,,,,,,,,,,,,,,,,,,,,,,,,,,,,,,,,,,,,,,,,,,,,,,,,,,,,,,,,,,,,
,,,,,,,,,,stimuli/images/PICTURE_504.png,YEAR,5f5023517ef2f019cf3ebb57,10/01/1953,2020-09-12_00h11.59.251,proactive3.2,2020.1.2,Win32,60,5f5adea66120081ea0f57a61,5f5c4a0ea9ba1143b5c08c65,4,,,,,,wheel,,,,,,0,46,46,13,1,2,1,,,,,,,,,,,,,,,,,,,,,,,,,,,,,,,,,,,,,,,,,,,,,,,,,,,,,,,,,,,,,,,,,,,,,,,,,,,
,,,,,,,,,,stimuli/images/PICTURE_147.png,YEAR,5f5023517ef2f019cf3ebb57,10/01/1953,2020-09-12_00h11.59.251,proactive3.2,2020.1.2,Win32,60,5f5adea66120081ea0f57a61,5f5c4a0ea9ba1143b5c08c65,4,,,,,,hanger,,,,,,0,47,47,21,1,3,1,,,,,,,,,,,,,,,,,,,,,,,,,,,,,,,,,,,,,,,,,,,,,,,,,,,,,,,,,,,,,,,,,,,,,,,,,,,
,,,,,,,,,,stimuli/images/PICTURE_380.png,HONEY,5f5023517ef2f019cf3ebb57,10/01/1953,2020-09-12_00h11.59.251,proactive3.2,2020.1.2,Win32,60,5f5adea66120081ea0f57a61,5f5c4a0ea9ba1143b5c08c65,4,,,,,,gorilla,,,,,,0,48,48,19,1,2,1,,,,,,,,,,,,,,,,,,,,,,,,,,,,,,,,,,,,,,,,,,,,,,,,,,,,,,,,,,,,,,,,,,,,,,,,,,,
,,,,,,,,,,stimuli/images/PICTURE_504.png,COPS,5f5023517ef2f019cf3ebb57,10/01/1953,2020-09-12_00h11.59.251,proactive3.2,2020.1.2,Win32,60,5f5adea66120081ea0f57a61,5f5c4a0ea9ba1143b5c08c65,4,,,,,,wheel,,,,,,0,49,49,52,1,6,1,,,,,,,,,,,,,,,,,,,,,,,,,,,,,,,,,,,,,,,,,,,,,,,,,,,,,,,,,,,,,,,,,,,,,,,,,,,
,,,,,,,,,,stimuli/images/PICTURE_491.png,GLASS,5f5023517ef2f019cf3ebb57,10/01/1953,2020-09-12_00h11.59.251,proactive3.2,2020.1.2,Win32,60,5f5adea66120081ea0f57a61,5f5c4a0ea9ba1143b5c08c65,4,,,,,,rug,,,,,,0,50,50,14,1,2,1,,,,,,,,,,,,,,,,,,,,,,,,,,,,,,,,,,,,,,,,,,,,,,,,,,,,,,,,,,,,,,,,,,,,,,,,,,,
,,,,,,,,,,stimuli/images/PICTURE_708.png,RECORD,5f5023517ef2f019cf3ebb57,10/01/1953,2020-09-12_00h11.59.251,proactive3.2,2020.1.2,Win32,60,5f5adea66120081ea0f57a61,5f5c4a0ea9ba1143b5c08c65,4,,,,,,monkey,,,,,,0,51,51,58,1,6,1,,,,,,,,,,,,,,,,,,,,,,,,,,,,,,,,,,,,,,,,,,,,,,,,,,,,,,,,,,,,,,,,,,,,,,,,,,,
,,,,,,,,,,stimuli/images/PICTURE_177.png,WRITER,5f5023517ef2f019cf3ebb57,10/01/1953,2020-09-12_00h11.59.251,proactive3.2,2020.1.2,Win32,60,5f5adea66120081ea0f57a61,5f5c4a0ea9ba1143b5c08c65,4,,,,,,mushroom,,,,,,0,52,52,41,1,5,1,,,,,,,,,,,,,,,,,,,,,,,,,,,,,,,,,,,,,,,,,,,,,,,,,,,,,,,,,,,,,,,,,,,,,,,,,,,
,,,,,,,,,,stimuli/images/PICTURE_95.png,HONEY,5f5023517ef2f019cf3ebb57,10/01/1953,2020-09-12_00h11.59.251,proactive3.2,2020.1.2,Win32,60,5f5adea66120081ea0f57a61,5f5c4a0ea9ba1143b5c08c65,4,,,,,,suitcase,,,,,,0,53,53,44,1,5,1,,,,,,,,,,,,,,,,,,,,,,,,,,,,,,,,,,,,,,,,,,,,,,,,,,,,,,,,,,,,,,,,,,,,,,,,,,,
,,,,,,,,,,stimuli/images/PICTURE_95.png,MILLER,5f5023517ef2f019cf3ebb57,10/01/1953,2020-09-12_00h11.59.251,proactive3.2,2020.1.2,Win32,60,5f5adea66120081ea0f57a61,5f5c4a0ea9ba1143b5c08c65,4,,,,,,suitcase,,,,,,0,54,54,56,1,6,1,,,,,,,,,,,,,,,,,,,,,,,,,,,,,,,,,,,,,,,,,,,,,,,,,,,,,,,,,,,,,,,,,,,,,,,,,,,
,,,,,,,,,,stimuli/images/PICTURE_380.png,CANDY,5f5023517ef2f019cf3ebb57,10/01/1953,2020-09-12_00h11.59.251,proactive3.2,2020.1.2,Win32,60,5f5adea66120081ea0f57a61,5f5c4a0ea9ba1143b5c08c65,4,,,,,,gorilla,,,,,,0,55,55,0,1,1,1,,,,,,,,,,,,,,,,,,,,,,,,,,,,,,,,,,,,,,,,,,,,,,,,,,,,,,,,,,,,,,,,,,,,,,,,,,,
,,,,,,,,,,stimuli/images/PICTURE_327.png,SERIES,5f5023517ef2f019cf3ebb57,10/01/1953,2020-09-12_00h11.59.251,proactive3.2,2020.1.2,Win32,60,5f5adea66120081ea0f57a61,5f5c4a0ea9ba1143b5c08c65,4,,,,,,helmet,,,,,,0,56,56,3,1,1,1,,,,,,,,,,,,,,,,,,,,,,,,,,,,,,,,,,,,,,,,,,,,,,,,,,,,,,,,,,,,,,,,,,,,,,,,,,,
,,,,,,,,,,stimuli/images/PICTURE_285.png,LIFE,5f5023517ef2f019cf3ebb57,10/01/1953,2020-09-12_00h11.59.251,proactive3.2,2020.1.2,Win32,60,5f5adea66120081ea0f57a61,5f5c4a0ea9ba1143b5c08c65,4,,,,,,carrot,,,,,,0,57,57,33,1,4,1,,,,,,,,,,,,,,,,,,,,,,,,,,,,,,,,,,,,,,,,,,,,,,,,,,,,,,,,,,,,,,,,,,,,,,,,,,,
,,,,,,,,,,stimuli/images/PICTURE_405.png,PLENTY,5f5023517ef2f019cf3ebb57,10/01/1953,2020-09-12_00h11.59.251,proactive3.2,2020.1.2,Win32,60,5f5adea66120081ea0f57a61,5f5c4a0ea9ba1143b5c08c65,4,,,,,,anchor,,,,,,0,58,58,23,1,3,1,,,,,,,,,,,,,,,,,,,,,,,,,,,,,,,,,,,,,,,,,,,,,,,,,,,,,,,,,,,,,,,,,,,,,,,,,,,
,,?,0.002185,0,,,,,,stimuli/images/PICTURE_95.png,HONEY,5f5023517ef2f019cf3ebb57,10/01/1953,2020-09-12_00h11.59.251,proactive3.2,2020.1.2,Win32,60,5f5adea66120081ea0f57a61,5f5c4a0ea9ba1143b5c08c65,4,,,,,,suitcase,,,,,,,,,,,5,1,0,0,0,44,1,,,,,,,,,,,,,,,,,,,,,,,,,,,,,,,,,,,,,,,,,,,,,,,,,,,,,,,,,,,,,,,,,,,,,,
,,?,0.00203,0,,,,,,stimuli/images/PICTURE_68.png,MILE,5f5023517ef2f019cf3ebb57,10/01/1953,2020-09-12_00h11.59.251,proactive3.2,2020.1.2,Win32,60,5f5adea66120081ea0f57a61,5f5c4a0ea9ba1143b5c08c65,4,,,,,,candle,,,,,,,,,,,6,1,0,1,1,51,1,,,,,,,,,,,,,,,,,,,,,,,,,,,,,,,,,,,,,,,,,,,,,,,,,,,,,,,,,,,,,,,,,,,,,,
,,?,0.002075,0,,,,,,stimuli/images/PICTURE_467.png,POLICY,5f5023517ef2f019cf3ebb57,10/01/1953,2020-09-12_00h11.59.251,proactive3.2,2020.1.2,Win32,60,5f5adea66120081ea0f57a61,5f5c4a0ea9ba1143b5c08c65,4,,,,,,peg,,,,,,,,,,,6,1,0,2,2,53,1,,,,,,,,,,,,,,,,,,,,,,,,,,,,,,,,,,,,,,,,,,,,,,,,,,,,,,,,,,,,,,,,,,,,,,
,,?,0.00228,0,,,,,,stimuli/images/PICTURE_296.png,LOTS,5f5023517ef2f019cf3ebb57,10/01/1953,2020-09-12_00h11.59.251,proactive3.2,2020.1.2,Win32,60,5f5adea66120081ea0f57a61,5f5c4a0ea9ba1143b5c08c65,4,,,,,,bolt,,,,,,,,,,,1,1,0,3,3,9,1,,,,,,,,,,,,,,,,,,,,,,,,,,,,,,,,,,,,,,,,,,,,,,,,,,,,,,,,,,,,,,,,,,,,,,
,,?,0.00208,0,,,,,,stimuli/images/PICTURE_403.png,RIVER,5f5023517ef2f019cf3ebb57,10/01/1953,2020-09-12_00h11.59.251,proactive3.2,2020.1.2,Win32,60,5f5adea66120081ea0f57a61,5f5c4a0ea9ba1143b5c08c65,4,,,,,,cathedral,,,,,,,,,,,5,1,0,4,4,40,1,,,,,,,,,,,,,,,,,,,,,,,,,,,,,,,,,,,,,,,,,,,,,,,,,,,,,,,,,,,,,,,,,,,,,,
,,?,0.002745,0,,,,,,stimuli/images/PICTURE_147.png,YEAR,5f5023517ef2f019cf3ebb57,10/01/1953,2020-09-12_00h11.59.251,proactive3.2,2020.1.2,Win32,60,5f5adea66120081ea0f57a61,5f5c4a0ea9ba1143b5c08c65,4,,,,,,hanger,,,,,,,,,,,3,1,0,5,5,21,1,,,,,,,,,,,,,,,,,,,,,,,,,,,,,,,,,,,,,,,,,,,,,,,,,,,,,,,,,,,,,,,,,,,,,,
,,RIVER,8.473245,1,,,,,,stimuli/images/PICTURE_297.png,RIVER,5f5023517ef2f019cf3ebb57,10/01/1953,2020-09-12_00h11.59.251,proactive3.2,2020.1.2,Win32,60,5f5adea66120081ea0f57a61,5f5c4a0ea9ba1143b5c08c65,4,,,,,,aeroplane,,,,,,,,,,,4,1,0,6,6,39,1,,,,,,,,,,,,,,,,,,,,,,,,,,,,,,,,,,,,,,,,,,,,,,,,,,,,,,,,,,,,,,,,,,,,,,
,,?,0.002295,0,,,,,,stimuli/images/PICTURE_667.png,RIVER,5f5023517ef2f019cf3ebb57,10/01/1953,2020-09-12_00h11.59.251,proactive3.2,2020.1.2,Win32,60,5f5adea66120081ea0f57a61,5f5c4a0ea9ba1143b5c08c65,4,,,,,,daisy,,,,,,,,,,,2,1,0,7,7,10,1,,,,,,,,,,,,,,,,,,,,,,,,,,,,,,,,,,,,,,,,,,,,,,,,,,,,,,,,,,,,,,,,,,,,,,
,,?,0.00202,0,,,,,,stimuli/images/PICTURE_108.png,FLIGHT,5f5023517ef2f019cf3ebb57,10/01/1953,2020-09-12_00h11.59.251,proactive3.2,2020.1.2,Win32,60,5f5adea66120081ea0f57a61,5f5c4a0ea9ba1143b5c08c65,4,,,,,,calendar,,,,,,,,,,,6,1,0,8,8,59,1,,,,,,,,,,,,,,,,,,,,,,,,,,,,,,,,,,,,,,,,,,,,,,,,,,,,,,,,,,,,,,,,,,,,,,
,,?,0.003435,0,,,,,,stimuli/images/PICTURE_177.png,WRITER,5f5023517ef2f019cf3ebb57,10/01/1953,2020-09-12_00h11.59.251,proactive3.2,2020.1.2,Win32,60,5f5adea66120081ea0f57a61,5f5c4a0ea9ba1143b5c08c65,4,,,,,,mushroom,,,,,,,,,,,5,1,0,9,9,41,1,,,,,,,,,,,,,,,,,,,,,,,,,,,,,,,,,,,,,,,,,,,,,,,,,,,,,,,,,,,,,,,,,,,,,,
,,?,8.1493,0,,,,,,stimuli/images/PICTURE_57.png,MOMENT,5f5023517ef2f019cf3ebb57,10/01/1953,2020-09-12_00h11.59.251,proactive3.2,2020.1.2,Win32,60,5f5adea66120081ea0f57a61,5f5c4a0ea9ba1143b5c08c65,4,,,,,,stamp,,,,,,,,,,,4,1,0,10,10,37,1,,,,,,,,,,,,,,,,,,,,,,,,,,,,,,,,,,,,,,,,,,,,,,,,,,,,,,,,,,,,,,,,,,,,,,
,,?,0.002555,0,,,,,,stimuli/images/PICTURE_203.png,NIGHT,5f5023517ef2f019cf3ebb57,10/01/1953,2020-09-12_00h11.59.251,proactive3.2,2020.1.2,Win32,60,5f5adea66120081ea0f57a61,5f5c4a0ea9ba1143b5c08c65,4,,,,,,cap,,,,,,,,,,,1,1,0,11,11,2,1,,,,,,,,,,,,,,,,,,,,,,,,,,,,,,,,,,,,,,,,,,,,,,,,,,,,,,,,,,,,,,,,,,,,,,
,,?,0.00201,0,,,,,,stimuli/images/PICTURE_654.png,MONTH,5f5023517ef2f019cf3ebb57,10/01/1953,2020-09-12_00h11.59.251,proactive3.2,2020.1.2,Win32,60,5f5adea66120081ea0f57a61,5f5c4a0ea9ba1143b5c08c65,4,,,,,,pencil,,,,,,,,,,,3,1,0,12,12,29,1,,,,,,,,,,,,,,,,,,,,,,,,,,,,,,,,,,,,,,,,,,,,,,,,,,,,,,,,,,,,,,,,,,,,,,
,,?,0.0026,0,,,,,,stimuli/images/PICTURE_380.png,HONEY,5f5023517ef2f019cf3ebb57,10/01/1953,2020-09-12_00h11.59.251,proactive3.2,2020.1.2,Win32,60,5f5adea66120081ea0f57a61,5f5c4a0ea9ba1143b5c08c65,4,,,,,,gorilla,,,,,,,,,,,2,1,0,13,13,19,1,,,,,,,,,,,,,,,,,,,,,,,,,,,,,,,,,,,,,,,,,,,,,,,,,,,,,,,,,,,,,,,,,,,,,,
