consent_key.keys,consent_key.rt,recalled,recalled_rt,recall_acc,example_recall.thisRepN,example_recall.thisTrialN,example_recall.thisN,example_recall.thisIndex,example_recall.ran,file,word,participant,please enter your date of birth (dd/mm/yyyy),date,expName,psychopyVersion,OS,frameRate,STUDY_ID,SESSION_ID,list,prac_learn_study_loop.thisRepN,prac_learn_study_loop.thisTrialN,prac_learn_study_loop.thisN,prac_learn_study_loop.thisIndex,prac_learn_study_loop.ran,image,prac_learn_test_loop.thisRepN,prac_learn_test_loop.thisTrialN,prac_learn_test_loop.thisN,prac_learn_test_loop.thisIndex,prac_learn_test_loop.ran,learn_study_loop.thisRepN,learn_study_loop.thisTrialN,learn_study_loop.thisN,learn_study_loop.thisIndex,learn_study_loop.ran,list_no,block_no,learn_test_loop.thisRepN,learn_test_loop.thisTrialN,learn_test_loop.thisN,learn_test_loop.thisIndex,learn_test_loop.ran,learn_blocks.thisRepN,learn_blocks.thisTrialN,learn_blocks.thisN,learn_blocks.thisIndex,learn_blocks.ran,block_csv,key_resp_13.keys,key_resp_13.rt,learn_blocks_loop.thisRepN,learn_blocks_loop.thisTrialN,learn_blocks_loop.thisN,learn_blocks_loop.thisIndex,learn_blocks_loop.ran,final_learn_test.thisRepN,final_learn_test.thisTrialN,final_learn_test.thisN,final_learn_test.thisIndex,final_learn_test.ran,prac_wm_test_loop.thisRepN,prac_wm_test_loop.thisTrialN,prac_wm_test_loop.thisN,prac_wm_test_loop.thisIndex,prac_wm_test_loop.ran,wm_recalled1,wm_recall_rt1,wm_probed1,wm_recall_acc1,wm_recalled2,wm_recall_rt2,wm_probed2,wm_recall_acc2,wm_recalled3,wm_recall_rt3,wm_probed3,wm_recall_acc3,wm_recalled4,wm_recall_rt4,wm_probed4,wm_recall_acc4,prac_wm_trial_loop.thisRepN,prac_wm_trial_loop.thisTrialN,prac_wm_trial_loop.thisN,prac_wm_trial_loop.thisIndex,prac_wm_trial_loop.ran,word1,image1,file1,item_type1,word2,image2,file2,item_type2,word4,image4,file4,item_type4,word3,image3,file3,item_type3,wm_test_loop.thisRepN,wm_test_loop.thisTrialN,wm_test_loop.thisN,wm_test_loop.thisIndex,wm_test_loop.ran,wm_trial_loop.thisRepN,wm_trial_loop.thisTrialN,wm_trial_loop.thisN,wm_trial_loop.thisIndex,wm_trial_loop.ran
y,30.41835,TOUGH,4.152175,1,0,0,0,0,1,stimuli/images/PICTURE_747.png,TOUGH,559d9916fdf99b1e2b2dc6b8,10/17/1953,2020-07-09_16h07.36.650,proactive,2020.1.2,Win32,60,5f073de81c76c3308c0e4fb3,5f0778cd07ad2338697f37db,2,,,,,,,,,,,,,,,,,,,,,,,,,,,,,,,,,,,,,,,,,,,,,,,,,,,,,,,,,,,,,,,,,,,,,,,,,,,,,,,,,,,,,,,,,,,,,
,,,,,,,,,,stimuli/images/PICTURE_727.png,CELL,559d9916fdf99b1e2b2dc6b8,10/17/1953,2020-07-09_16h07.36.650,proactive,2020.1.2,Win32,60,5f073de81c76c3308c0e4fb3,5f0778cd07ad2338697f37db,2,0,0,0,1,1,hose,,,,,,,,,,,,,,,,,,,,,,,,,,,,,,,,,,,,,,,,,,,,,,,,,,,,,,,,,,,,,,,,,,,,,,,,,,,,,,,,,,,,,,,
,,,,,,,,,,stimuli/images/PICTURE_658.png,DEVIL,559d9916fdf99b1e2b2dc6b8,10/17/1953,2020-07-09_16h07.36.650,proactive,2020.1.2,Win32,60,5f073de81c76c3308c0e4fb3,5f0778cd07ad2338697f37db,2,0,1,1,3,1,crow,,,,,,,,,,,,,,,,,,,,,,,,,,,,,,,,,,,,,,,,,,,,,,,,,,,,,,,,,,,,,,,,,,,,,,,,,,,,,,,,,,,,,,,
,,,,,,,,,,stimuli/images/PICTURE_378.png,LOSS,559d9916fdf99b1e2b2dc6b8,10/17/1953,2020-07-09_16h07.36.650,proactive,2020.1.2,Win32,60,5f073de81c76c3308c0e4fb3,5f0778cd07ad2338697f37db,2,0,2,2,2,1,lobster,,,,,,,,,,,,,,,,,,,,,,,,,,,,,,,,,,,,,,,,,,,,,,,,,,,,,,,,,,,,,,,,,,,,,,,,,,,,,,,,,,,,,,,
,,,,,,,,,,stimuli/images/PICTURE_269.png,GENIUS,559d9916fdf99b1e2b2dc6b8,10/17/1953,2020-07-09_16h07.36.650,proactive,2020.1.2,Win32,60,5f073de81c76c3308c0e4fb3,5f0778cd07ad2338697f37db,2,0,3,3,0,1,chameleon,,,,,,,,,,,,,,,,,,,,,,,,,,,,,,,,,,,,,,,,,,,,,,,,,,,,,,,,,,,,,,,,,,,,,,,,,,,,,,,,,,,,,,,
,,EVIL,9.147035,0,,,,,,stimuli/images/PICTURE_658.png,DEVIL,559d9916fdf99b1e2b2dc6b8,10/17/1953,2020-07-09_16h07.36.650,proactive,2020.1.2,Win32,60,5f073de81c76c3308c0e4fb3,5f0778cd07ad2338697f37db,2,,,,,,crow,0,0,0,3,1,,,,,,,,,,,,,,,,,,,,,,,,,,,,,,,,,,,,,,,,,,,,,,,,,,,,,,,,,,,,,,,,,,,,,,,,,,,,,,,,,,
,,?,4.38473,0,,,,,,stimuli/images/PICTURE_727.png,CELL,559d9916fdf99b1e2b2dc6b8,10/17/1953,2020-07-09_16h07.36.650,proactive,2020.1.2,Win32,60,5f073de81c76c3308c0e4fb3,5f0778cd07ad2338697f37db,2,,,,,,hose,0,1,1,1,1,,,,,,,,,,,,,,,,,,,,,,,,,,,,,,,,,,,,,,,,,,,,,,,,,,,,,,,,,,,,,,,,,,,,,,,,,,,,,,,,,,
,,NOIDEA,4.852645,0,,,,,,stimuli/images/PICTURE_269.png,GENIUS,559d9916fdf99b1e2b2dc6b8,10/17/1953,2020-07-09_16h07.36.650,proactive,2020.1.2,Win32,60,5f073de81c76c3308c0e4fb3,5f0778cd07ad2338697f37db,2,,,,,,chameleon,0,2,2,0,1,,,,,,,,,,,,,,,,,,,,,,,,,,,,,,,,,,,,,,,,,,,,,,,,,,,,,,,,,,,,,,,,,,,,,,,,,,,,,,,,,,
,,LOSS,2.134075,1,,,,,,stimuli/images/PICTURE_378.png,LOSS,559d9916fdf99b1e2b2dc6b8,10/17/1953,2020-07-09_16h07.36.650,proactive,2020.1.2,Win32,60,5f073de81c76c3308c0e4fb3,5f0778cd07ad2338697f37db,2,,,,,,lobster,0,3,3,2,1,,,,,,,,,,,,,,,,,,,,,,,,,,,,,,,,,,,,,,,,,,,,,,,,,,,,,,,,,,,,,,,,,,,,,,,,,,,,,,,,,,
,,AVOCADE,2.418015,0,,,,,,stimuli/images/PICTURE_697.png,KILLER,559d9916fdf99b1e2b2dc6b8,10/17/1953,2020-07-09_16h07.36.650,proactive,2020.1.2,Win32,60,5f073de81c76c3308c0e4fb3,5f0778cd07ad2338697f37db,2,,,,,,peach,0,4,4,4,1,,,,,,,,,,,,,,,,,,,,,,,,,,,,,,,,,,,,,,,,,,,,,,,,,,,,,,,,,,,,,,,,,,,,,,,,,,,,,,,,,,
,,,,,,,,,,stimuli/images/PICTURE_380.png,PHOTO,559d9916fdf99b1e2b2dc6b8,10/17/1953,2020-07-09_16h07.36.650,proactive,2020.1.2,Win32,60,5f073de81c76c3308c0e4fb3,5f0778cd07ad2338697f37db,2,,,,,,gorilla,,,,,,0,0,0,52,1,6,0,,,,,,,,,,,,,,,,,,,,,,,,,,,,,,,,,,,,,,,,,,,,,,,,,,,,,,,,,,,,,,,,,,,,,,,,,,,
,,,,,,,,,,stimuli/images/PICTURE_487.png,FLIGHT,559d9916fdf99b1e2b2dc6b8,10/17/1953,2020-07-09_16h07.36.650,proactive,2020.1.2,Win32,60,5f073de81c76c3308c0e4fb3,5f0778cd07ad2338697f37db,2,,,,,,basket,,,,,,0,1,1,9,1,1,0,,,,,,,,,,,,,,,,,,,,,,,,,,,,,,,,,,,,,,,,,,,,,,,,,,,,,,,,,,,,,,,,,,,,,,,,,,,
,,,,,,,,,,stimuli/images/PICTURE_314.png,SAKE,559d9916fdf99b1e2b2dc6b8,10/17/1953,2020-07-09_16h07.36.650,proactive,2020.1.2,Win32,60,5f073de81c76c3308c0e4fb3,5f0778cd07ad2338697f37db,2,,,,,,perfume,,,,,,0,2,2,7,1,1,0,,,,,,,,,,,,,,,,,,,,,,,,,,,,,,,,,,,,,,,,,,,,,,,,,,,,,,,,,,,,,,,,,,,,,,,,,,,
,,,,,,,,,,stimuli/images/PICTURE_147.png,MOMENT,559d9916fdf99b1e2b2dc6b8,10/17/1953,2020-07-09_16h07.36.650,proactive,2020.1.2,Win32,60,5f073de81c76c3308c0e4fb3,5f0778cd07ad2338697f37db,2,,,,,,hanger,,,,,,0,3,3,51,1,6,0,,,,,,,,,,,,,,,,,,,,,,,,,,,,,,,,,,,,,,,,,,,,,,,,,,,,,,,,,,,,,,,,,,,,,,,,,,,
,,,,,,,,,,stimuli/images/PICTURE_356.png,DANGER,559d9916fdf99b1e2b2dc6b8,10/17/1953,2020-07-09_16h07.36.650,proactive,2020.1.2,Win32,60,5f073de81c76c3308c0e4fb3,5f0778cd07ad2338697f37db,2,,,,,,pawn,,,,,,0,4,4,55,1,6,0,,,,,,,,,,,,,,,,,,,,,,,,,,,,,,,,,,,,,,,,,,,,,,,,,,,,,,,,,,,,,,,,,,,,,,,,,,,
,,,,,,,,,,stimuli/images/PICTURE_467.png,DEMON,559d9916fdf99b1e2b2dc6b8,10/17/1953,2020-07-09_16h07.36.650,proactive,2020.1.2,Win32,60,5f073de81c76c3308c0e4fb3,5f0778cd07ad2338697f37db,2,,,,,,peg,,,,,,0,5,5,23,1,3,0,,,,,,,,,,,,,,,,,,,,,,,,,,,,,,,,,,,,,,,,,,,,,,,,,,,,,,,,,,,,,,,,,,,,,,,,,,,
,,,,,,,,,,stimuli/images/PICTURE_654.png,VALLEY,559d9916fdf99b1e2b2dc6b8,10/17/1953,2020-07-09_16h07.36.650,proactive,2020.1.2,Win32,60,5f073de81c76c3308c0e4fb3,5f0778cd07ad2338697f37db,2,,,,,,pencil,,,,,,0,6,6,1,1,1,0,,,,,,,,,,,,,,,,,,,,,,,,,,,,,,,,,,,,,,,,,,,,,,,,,,,,,,,,,,,,,,,,,,,,,,,,,,,
,,,,,,,,,,stimuli/images/PICTURE_708.png,PENNY,559d9916fdf99b1e2b2dc6b8,10/17/1953,2020-07-09_16h07.36.650,proactive,2020.1.2,Win32,60,5f073de81c76c3308c0e4fb3,5f0778cd07ad2338697f37db,2,,,,,,monkey,,,,,,0,7,7,31,1,4,0,,,,,,,,,,,,,,,,,,,,,,,,,,,,,,,,,,,,,,,,,,,,,,,,,,,,,,,,,,,,,,,,,,,,,,,,,,,
,,,,,,,,,,stimuli/images/PICTURE_208.png,LOTS,559d9916fdf99b1e2b2dc6b8,10/17/1953,2020-07-09_16h07.36.650,proactive,2020.1.2,Win32,60,5f073de81c76c3308c0e4fb3,5f0778cd07ad2338697f37db,2,,,,,,microphone,,,,,,0,8,8,10,1,2,0,,,,,,,,,,,,,,,,,,,,,,,,,,,,,,,,,,,,,,,,,,,,,,,,,,,,,,,,,,,,,,,,,,,,,,,,,,,
,,,,,,,,,,stimuli/images/PICTURE_453.png,DUDE,559d9916fdf99b1e2b2dc6b8,10/17/1953,2020-07-09_16h07.36.650,proactive,2020.1.2,Win32,60,5f073de81c76c3308c0e4fb3,5f0778cd07ad2338697f37db,2,,,,,,scissors,,,,,,0,9,9,27,1,3,0,,,,,,,,,,,,,,,,,,,,,,,,,,,,,,,,,,,,,,,,,,,,,,,,,,,,,,,,,,,,,,,,,,,,,,,,,,,
,,,,,,,,,,stimuli/images/PICTURE_123.png,ADVICE,559d9916fdf99b1e2b2dc6b8,10/17/1953,2020-07-09_16h07.36.650,proactive,2020.1.2,Win32,60,5f073de81c76c3308c0e4fb3,5f0778cd07ad2338697f37db,2,,,,,,dart,,,,,,0,10,10,40,1,5,0,,,,,,,,,,,,,,,,,,,,,,,,,,,,,,,,,,,,,,,,,,,,,,,,,,,,,,,,,,,,,,,,,,,,,,,,,,,
,,,,,,,,,,stimuli/images/PICTURE_667.png,BATH,559d9916fdf99b1e2b2dc6b8,10/17/1953,2020-07-09_16h07.36.650,proactive,2020.1.2,Win32,60,5f073de81c76c3308c0e4fb3,5f0778cd07ad2338697f37db,2,,,,,,daisy,,,,,,0,11,11,4,1,1,0,,,,,,,,,,,,,,,,,,,,,,,,,,,,,,,,,,,,,,,,,,,,,,,,,,,,,,,,,,,,,,,,,,,,,,,,,,,
,,,,,,,,,,stimuli/images/PICTURE_744.png,SAKE,559d9916fdf99b1e2b2dc6b8,10/17/1953,2020-07-09_16h07.36.650,proactive,2020.1.2,Win32,60,5f073de81c76c3308c0e4fb3,5f0778cd07ad2338697f37db,2,,,,,,ring,,,,,,0,12,12,17,1,2,0,,,,,,,,,,,,,,,,,,,,,,,,,,,,,,,,,,,,,,,,,,,,,,,,,,,,,,,,,,,,,,,,,,,,,,,,,,,
,,,,,,,,,,stimuli/images/PICTURE_32.png,JUNGLE,559d9916fdf99b1e2b2dc6b8,10/17/1953,2020-07-09_16h07.36.650,proactive,2020.1.2,Win32,60,5f073de81c76c3308c0e4fb3,5f0778cd07ad2338697f37db,2,,,,,,crown,,,,,,0,13,13,45,1,5,0,,,,,,,,,,,,,,,,,,,,,,,,,,,,,,,,,,,,,,,,,,,,,,,,,,,,,,,,,,,,,,,,,,,,,,,,,,,
,,,,,,,,,,stimuli/images/PICTURE_692.png,MONTH,559d9916fdf99b1e2b2dc6b8,10/17/1953,2020-07-09_16h07.36.650,proactive,2020.1.2,Win32,60,5f073de81c76c3308c0e4fb3,5f0778cd07ad2338697f37db,2,,,,,,cherry,,,,,,0,14,14,16,1,2,0,,,,,,,,,,,,,,,,,,,,,,,,,,,,,,,,,,,,,,,,,,,,,,,,,,,,,,,,,,,,,,,,,,,,,,,,,,,
,,,,,,,,,,stimuli/images/PICTURE_470.png,CASINO,559d9916fdf99b1e2b2dc6b8,10/17/1953,2020-07-09_16h07.36.650,proactive,2020.1.2,Win32,60,5f073de81c76c3308c0e4fb3,5f0778cd07ad2338697f37db,2,,,,,,motorbike,,,,,,0,15,15,36,1,4,0,,,,,,,,,,,,,,,,,,,,,,,,,,,,,,,,,,,,,,,,,,,,,,,,,,,,,,,,,,,,,,,,,,,,,,,,,,,
,,,,,,,,,,stimuli/images/PICTURE_314.png,GODS,559d9916fdf99b1e2b2dc6b8,10/17/1953,2020-07-09_16h07.36.650,proactive,2020.1.2,Win32,60,5f073de81c76c3308c0e4fb3,5f0778cd07ad2338697f37db,2,,,,,,perfume,,,,,,0,16,16,11,1,2,0,,,,,,,,,,,,,,,,,,,,,,,,,,,,,,,,,,,,,,,,,,,,,,,,,,,,,,,,,,,,,,,,,,,,,,,,,,,
,,,,,,,,,,stimuli/images/PICTURE_208.png,MONTH,559d9916fdf99b1e2b2dc6b8,10/17/1953,2020-07-09_16h07.36.650,proactive,2020.1.2,Win32,60,5f073de81c76c3308c0e4fb3,5f0778cd07ad2338697f37db,2,,,,,,microphone,,,,,,0,17,17,53,1,6,0,,,,,,,,,,,,,,,,,,,,,,,,,,,,,,,,,,,,,,,,,,,,,,,,,,,,,,,,,,,,,,,,,,,,,,,,,,,
,,,,,,,,,,stimuli/images/PICTURE_215.png,PLENTY,559d9916fdf99b1e2b2dc6b8,10/17/1953,2020-07-09_16h07.36.650,proactive,2020.1.2,Win32,60,5f073de81c76c3308c0e4fb3,5f0778cd07ad2338697f37db,2,,,,,,boot,,,,,,0,18,18,37,1,4,0,,,,,,,,,,,,,,,,,,,,,,,,,,,,,,,,,,,,,,,,,,,,,,,,,,,,,,,,,,,,,,,,,,,,,,,,,,,
,,,,,,,,,,stimuli/images/PICTURE_488.png,STYLE,559d9916fdf99b1e2b2dc6b8,10/17/1953,2020-07-09_16h07.36.650,proactive,2020.1.2,Win32,60,5f073de81c76c3308c0e4fb3,5f0778cd07ad2338697f37db,2,,,,,,sun,,,,,,0,19,19,33,1,4,0,,,,,,,,,,,,,,,,,,,,,,,,,,,,,,,,,,,,,,,,,,,,,,,,,,,,,,,,,,,,,,,,,,,,,,,,,,,
,,,,,,,,,,stimuli/images/PICTURE_233.png,IDEAS,559d9916fdf99b1e2b2dc6b8,10/17/1953,2020-07-09_16h07.36.650,proactive,2020.1.2,Win32,60,5f073de81c76c3308c0e4fb3,5f0778cd07ad2338697f37db,2,,,,,,salt,,,,,,0,20,20,28,1,3,0,,,,,,,,,,,,,,,,,,,,,,,,,,,,,,,,,,,,,,,,,,,,,,,,,,,,,,,,,,,,,,,,,,,,,,,,,,,
,,,,,,,,,,stimuli/images/PICTURE_85.png,THING,559d9916fdf99b1e2b2dc6b8,10/17/1953,2020-07-09_16h07.36.650,proactive,2020.1.2,Win32,60,5f073de81c76c3308c0e4fb3,5f0778cd07ad2338697f37db,2,,,,,,diamond,,,,,,0,21,21,15,1,2,0,,,,,,,,,,,,,,,,,,,,,,,,,,,,,,,,,,,,,,,,,,,,,,,,,,,,,,,,,,,,,,,,,,,,,,,,,,,
,,,,,,,,,,stimuli/images/PICTURE_509.png,PHOTO,559d9916fdf99b1e2b2dc6b8,10/17/1953,2020-07-09_16h07.36.650,proactive,2020.1.2,Win32,60,5f073de81c76c3308c0e4fb3,5f0778cd07ad2338697f37db,2,,,,,,telephone,,,,,,0,22,22,21,1,3,0,,,,,,,,,,,,,,,,,,,,,,,,,,,,,,,,,,,,,,,,,,,,,,,,,,,,,,,,,,,,,,,,,,,,,,,,,,,
,,,,,,,,,,stimuli/images/PICTURE_177.png,CARS,559d9916fdf99b1e2b2dc6b8,10/17/1953,2020-07-09_16h07.36.650,proactive,2020.1.2,Win32,60,5f073de81c76c3308c0e4fb3,5f0778cd07ad2338697f37db,2,,,,,,mushroom,,,,,,0,23,23,35,1,4,0,,,,,,,,,,,,,,,,,,,,,,,,,,,,,,,,,,,,,,,,,,,,,,,,,,,,,,,,,,,,,,,,,,,,,,,,,,,
,,,,,,,,,,stimuli/images/PICTURE_327.png,BEAUTY,559d9916fdf99b1e2b2dc6b8,10/17/1953,2020-07-09_16h07.36.650,proactive,2020.1.2,Win32,60,5f073de81c76c3308c0e4fb3,5f0778cd07ad2338697f37db,2,,,,,,helmet,,,,,,0,24,24,48,1,5,0,,,,,,,,,,,,,,,,,,,,,,,,,,,,,,,,,,,,,,,,,,,,,,,,,,,,,,,,,,,,,,,,,,,,,,,,,,,
,,,,,,,,,,stimuli/images/PICTURE_491.png,ROOF,559d9916fdf99b1e2b2dc6b8,10/17/1953,2020-07-09_16h07.36.650,proactive,2020.1.2,Win32,60,5f073de81c76c3308c0e4fb3,5f0778cd07ad2338697f37db,2,,,,,,rug,,,,,,0,25,25,24,1,3,0,,,,,,,,,,,,,,,,,,,,,,,,,,,,,,,,,,,,,,,,,,,,,,,,,,,,,,,,,,,,,,,,,,,,,,,,,,,
,,,,,,,,,,stimuli/images/PICTURE_339.png,PLENTY,559d9916fdf99b1e2b2dc6b8,10/17/1953,2020-07-09_16h07.36.650,proactive,2020.1.2,Win32,60,5f073de81c76c3308c0e4fb3,5f0778cd07ad2338697f37db,2,,,,,,backpack,,,,,,0,26,26,0,1,1,0,,,,,,,,,,,,,,,,,,,,,,,,,,,,,,,,,,,,,,,,,,,,,,,,,,,,,,,,,,,,,,,,,,,,,,,,,,,
,,,,,,,,,,stimuli/images/PICTURE_469.png,LETTER,559d9916fdf99b1e2b2dc6b8,10/17/1953,2020-07-09_16h07.36.650,proactive,2020.1.2,Win32,60,5f073de81c76c3308c0e4fb3,5f0778cd07ad2338697f37db,2,,,,,,stool,,,,,,0,27,27,42,1,5,0,,,,,,,,,,,,,,,,,,,,,,,,,,,,,,,,,,,,,,,,,,,,,,,,,,,,,,,,,,,,,,,,,,,,,,,,,,,
,,,,,,,,,,stimuli/images/PICTURE_285.png,ADVICE,559d9916fdf99b1e2b2dc6b8,10/17/1953,2020-07-09_16h07.36.650,proactive,2020.1.2,Win32,60,5f073de81c76c3308c0e4fb3,5f0778cd07ad2338697f37db,2,,,,,,carrot,,,,,,0,28,28,12,1,2,0,,,,,,,,,,,,,,,,,,,,,,,,,,,,,,,,,,,,,,,,,,,,,,,,,,,,,,,,,,,,,,,,,,,,,,,,,,,
,,,,,,,,,,stimuli/images/PICTURE_68.png,MILE,559d9916fdf99b1e2b2dc6b8,10/17/1953,2020-07-09_16h07.36.650,proactive,2020.1.2,Win32,60,5f073de81c76c3308c0e4fb3,5f0778cd07ad2338697f37db,2,,,,,,candle,,,,,,0,29,29,44,1,5,0,,,,,,,,,,,,,,,,,,,,,,,,,,,,,,,,,,,,,,,,,,,,,,,,,,,,,,,,,,,,,,,,,,,,,,,,,,,
,,,,,,,,,,stimuli/images/PICTURE_744.png,SYSTEM,559d9916fdf99b1e2b2dc6b8,10/17/1953,2020-07-09_16h07.36.650,proactive,2020.1.2,Win32,60,5f073de81c76c3308c0e4fb3,5f0778cd07ad2338697f37db,2,,,,,,ring,,,,,,0,30,30,43,1,5,0,,,,,,,,,,,,,,,,,,,,,,,,,,,,,,,,,,,,,,,,,,,,,,,,,,,,,,,,,,,,,,,,,,,,,,,,,,,
,,,,,,,,,,stimuli/images/PICTURE_248.png,DOZEN,559d9916fdf99b1e2b2dc6b8,10/17/1953,2020-07-09_16h07.36.650,proactive,2020.1.2,Win32,60,5f073de81c76c3308c0e4fb3,5f0778cd07ad2338697f37db,2,,,,,,cart,,,,,,0,31,31,39,1,4,0,,,,,,,,,,,,,,,,,,,,,,,,,,,,,,,,,,,,,,,,,,,,,,,,,,,,,,,,,,,,,,,,,,,,,,,,,,,
,,,,,,,,,,stimuli/images/PICTURE_667.png,PLENTY,559d9916fdf99b1e2b2dc6b8,10/17/1953,2020-07-09_16h07.36.650,proactive,2020.1.2,Win32,60,5f073de81c76c3308c0e4fb3,5f0778cd07ad2338697f37db,2,,,,,,daisy,,,,,,0,32,32,41,1,5,0,,,,,,,,,,,,,,,,,,,,,,,,,,,,,,,,,,,,,,,,,,,,,,,,,,,,,,,,,,,,,,,,,,,,,,,,,,,
,,,,,,,,,,stimuli/images/PICTURE_302.png,FAMILY,559d9916fdf99b1e2b2dc6b8,10/17/1953,2020-07-09_16h07.36.650,proactive,2020.1.2,Win32,60,5f073de81c76c3308c0e4fb3,5f0778cd07ad2338697f37db,2,,,,,,taxi,,,,,,0,33,33,18,1,2,0,,,,,,,,,,,,,,,,,,,,,,,,,,,,,,,,,,,,,,,,,,,,,,,,,,,,,,,,,,,,,,,,,,,,,,,,,,,
,,,,,,,,,,stimuli/images/PICTURE_675.png,WEAPON,559d9916fdf99b1e2b2dc6b8,10/17/1953,2020-07-09_16h07.36.650,proactive,2020.1.2,Win32,60,5f073de81c76c3308c0e4fb3,5f0778cd07ad2338697f37db,2,,,,,,windmill,,,,,,0,34,34,32,1,4,0,,,,,,,,,,,,,,,,,,,,,,,,,,,,,,,,,,,,,,,,,,,,,,,,,,,,,,,,,,,,,,,,,,,,,,,,,,,
,,,,,,,,,,stimuli/images/PICTURE_380.png,DEATH,559d9916fdf99b1e2b2dc6b8,10/17/1953,2020-07-09_16h07.36.650,proactive,2020.1.2,Win32,60,5f073de81c76c3308c0e4fb3,5f0778cd07ad2338697f37db,2,,,,,,gorilla,,,,,,0,35,35,49,1,5,0,,,,,,,,,,,,,,,,,,,,,,,,,,,,,,,,,,,,,,,,,,,,,,,,,,,,,,,,,,,,,,,,,,,,,,,,,,,
,,,,,,,,,,stimuli/images/PICTURE_208.png,THING,559d9916fdf99b1e2b2dc6b8,10/17/1953,2020-07-09_16h07.36.650,proactive,2020.1.2,Win32,60,5f073de81c76c3308c0e4fb3,5f0778cd07ad2338697f37db,2,,,,,,microphone,,,,,,0,36,36,47,1,5,0,,,,,,,,,,,,,,,,,,,,,,,,,,,,,,,,,,,,,,,,,,,,,,,,,,,,,,,,,,,,,,,,,,,,,,,,,,,
,,,,,,,,,,stimuli/images/PICTURE_308.png,ESTATE,559d9916fdf99b1e2b2dc6b8,10/17/1953,2020-07-09_16h07.36.650,proactive,2020.1.2,Win32,60,5f073de81c76c3308c0e4fb3,5f0778cd07ad2338697f37db,2,,,,,,dice,,,,,,0,37,37,46,1,5,0,,,,,,,,,,,,,,,,,,,,,,,,,,,,,,,,,,,,,,,,,,,,,,,,,,,,,,,,,,,,,,,,,,,,,,,,,,,
,,,,,,,,,,stimuli/images/PICTURE_95.png,STYLE,559d9916fdf99b1e2b2dc6b8,10/17/1953,2020-07-09_16h07.36.650,proactive,2020.1.2,Win32,60,5f073de81c76c3308c0e4fb3,5f0778cd07ad2338697f37db,2,,,,,,suitcase,,,,,,0,38,38,25,1,3,0,,,,,,,,,,,,,,,,,,,,,,,,,,,,,,,,,,,,,,,,,,,,,,,,,,,,,,,,,,,,,,,,,,,,,,,,,,,
,,,,,,,,,,stimuli/images/PICTURE_311.png,BEAUTY,559d9916fdf99b1e2b2dc6b8,10/17/1953,2020-07-09_16h07.36.650,proactive,2020.1.2,Win32,60,5f073de81c76c3308c0e4fb3,5f0778cd07ad2338697f37db,2,,,,,,razor,,,,,,0,39,39,13,1,2,0,,,,,,,,,,,,,,,,,,,,,,,,,,,,,,,,,,,,,,,,,,,,,,,,,,,,,,,,,,,,,,,,,,,,,,,,,,,
,,,,,,,,,,stimuli/images/PICTURE_151.png,GIRL,559d9916fdf99b1e2b2dc6b8,10/17/1953,2020-07-09_16h07.36.650,proactive,2020.1.2,Win32,60,5f073de81c76c3308c0e4fb3,5f0778cd07ad2338697f37db,2,,,,,,tray,,,,,,0,40,40,19,1,2,0,,,,,,,,,,,,,,,,,,,,,,,,,,,,,,,,,,,,,,,,,,,,,,,,,,,,,,,,,,,,,,,,,,,,,,,,,,,
,,,,,,,,,,stimuli/images/PICTURE_453.png,PLENTY,559d9916fdf99b1e2b2dc6b8,10/17/1953,2020-07-09_16h07.36.650,proactive,2020.1.2,Win32,60,5f073de81c76c3308c0e4fb3,5f0778cd07ad2338697f37db,2,,,,,,scissors,,,,,,0,41,41,56,1,6,0,,,,,,,,,,,,,,,,,,,,,,,,,,,,,,,,,,,,,,,,,,,,,,,,,,,,,,,,,,,,,,,,,,,,,,,,,,,
,,,,,,,,,,stimuli/images/PICTURE_708.png,CLIENT,559d9916fdf99b1e2b2dc6b8,10/17/1953,2020-07-09_16h07.36.650,proactive,2020.1.2,Win32,60,5f073de81c76c3308c0e4fb3,5f0778cd07ad2338697f37db,2,,,,,,monkey,,,,,,0,42,42,5,1,1,0,,,,,,,,,,,,,,,,,,,,,,,,,,,,,,,,,,,,,,,,,,,,,,,,,,,,,,,,,,,,,,,,,,,,,,,,,,,
,,,,,,,,,,stimuli/images/PICTURE_203.png,ARTIST,559d9916fdf99b1e2b2dc6b8,10/17/1953,2020-07-09_16h07.36.650,proactive,2020.1.2,Win32,60,5f073de81c76c3308c0e4fb3,5f0778cd07ad2338697f37db,2,,,,,,cap,,,,,,0,43,43,26,1,3,0,,,,,,,,,,,,,,,,,,,,,,,,,,,,,,,,,,,,,,,,,,,,,,,,,,,,,,,,,,,,,,,,,,,,,,,,,,,
,,,,,,,,,,stimuli/images/PICTURE_308.png,KIND,559d9916fdf99b1e2b2dc6b8,10/17/1953,2020-07-09_16h07.36.650,proactive,2020.1.2,Win32,60,5f073de81c76c3308c0e4fb3,5f0778cd07ad2338697f37db,2,,,,,,dice,,,,,,0,44,44,54,1,6,0,,,,,,,,,,,,,,,,,,,,,,,,,,,,,,,,,,,,,,,,,,,,,,,,,,,,,,,,,,,,,,,,,,,,,,,,,,,
,,,,,,,,,,stimuli/images/PICTURE_160.png,LEADER,559d9916fdf99b1e2b2dc6b8,10/17/1953,2020-07-09_16h07.36.650,proactive,2020.1.2,Win32,60,5f073de81c76c3308c0e4fb3,5f0778cd07ad2338697f37db,2,,,,,,wheelbarrow,,,,,,0,45,45,3,1,1,0,,,,,,,,,,,,,,,,,,,,,,,,,,,,,,,,,,,,,,,,,,,,,,,,,,,,,,,,,,,,,,,,,,,,,,,,,,,
,,,,,,,,,,stimuli/images/PICTURE_491.png,WRITER,559d9916fdf99b1e2b2dc6b8,10/17/1953,2020-07-09_16h07.36.650,proactive,2020.1.2,Win32,60,5f073de81c76c3308c0e4fb3,5f0778cd07ad2338697f37db,2,,,,,,rug,,,,,,0,46,46,57,1,6,0,,,,,,,,,,,,,,,,,,,,,,,,,,,,,,,,,,,,,,,,,,,,,,,,,,,,,,,,,,,,,,,,,,,,,,,,,,,
,,,,,,,,,,stimuli/images/PICTURE_449.png,THING,559d9916fdf99b1e2b2dc6b8,10/17/1953,2020-07-09_16h07.36.650,proactive,2020.1.2,Win32,60,5f073de81c76c3308c0e4fb3,5f0778cd07ad2338697f37db,2,,,,,,bench,,,,,,0,47,47,59,1,6,0,,,,,,,,,,,,,,,,,,,,,,,,,,,,,,,,,,,,,,,,,,,,,,,,,,,,,,,,,,,,,,,,,,,,,,,,,,,
,,,,,,,,,,stimuli/images/PICTURE_311.png,FRIEND,559d9916fdf99b1e2b2dc6b8,10/17/1953,2020-07-09_16h07.36.650,proactive,2020.1.2,Win32,60,5f073de81c76c3308c0e4fb3,5f0778cd07ad2338697f37db,2,,,,,,razor,,,,,,0,48,48,34,1,4,0,,,,,,,,,,,,,,,,,,,,,,,,,,,,,,,,,,,,,,,,,,,,,,,,,,,,,,,,,,,,,,,,,,,,,,,,,,,
,,,,,,,,,,stimuli/images/PICTURE_469.png,ARTIST,559d9916fdf99b1e2b2dc6b8,10/17/1953,2020-07-09_16h07.36.650,proactive,2020.1.2,Win32,60,5f073de81c76c3308c0e4fb3,5f0778cd07ad2338697f37db,2,,,,,,stool,,,,,,0,49,49,6,1,1,0,,,,,,,,,,,,,,,,,,,,,,,,,,,,,,,,,,,,,,,,,,,,,,,,,,,,,,,,,,,,,,,,,,,,,,,,,,,
,,,,,,,,,,stimuli/images/PICTURE_688.png,CASINO,559d9916fdf99b1e2b2dc6b8,10/17/1953,2020-07-09_16h07.36.650,proactive,2020.1.2,Win32,60,5f073de81c76c3308c0e4fb3,5f0778cd07ad2338697f37db,2,,,,,,runner,,,,,,0,50,50,2,1,1,0,,,,,,,,,,,,,,,,,,,,,,,,,,,,,,,,,,,,,,,,,,,,,,,,,,,,,,,,,,,,,,,,,,,,,,,,,,,
,,,,,,,,,,stimuli/images/PICTURE_123.png,ADVICE,559d9916fdf99b1e2b2dc6b8,10/17/1953,2020-07-09_16h07.36.650,proactive,2020.1.2,Win32,60,5f073de81c76c3308c0e4fb3,5f0778cd07ad2338697f37db,2,,,,,,dart,,,,,,0,51,51,50,1,6,0,,,,,,,,,,,,,,,,,,,,,,,,,,,,,,,,,,,,,,,,,,,,,,,,,,,,,,,,,,,,,,,,,,,,,,,,,,,
,,,,,,,,,,stimuli/images/PICTURE_708.png,YARD,559d9916fdf99b1e2b2dc6b8,10/17/1953,2020-07-09_16h07.36.650,proactive,2020.1.2,Win32,60,5f073de81c76c3308c0e4fb3,5f0778cd07ad2338697f37db,2,,,,,,monkey,,,,,,0,52,52,29,1,3,0,,,,,,,,,,,,,,,,,,,,,,,,,,,,,,,,,,,,,,,,,,,,,,,,,,,,,,,,,,,,,,,,,,,,,,,,,,,
,,,,,,,,,,stimuli/images/PICTURE_688.png,WOMEN,559d9916fdf99b1e2b2dc6b8,10/17/1953,2020-07-09_16h07.36.650,proactive,2020.1.2,Win32,60,5f073de81c76c3308c0e4fb3,5f0778cd07ad2338697f37db,2,,,,,,runner,,,,,,0,53,53,14,1,2,0,,,,,,,,,,,,,,,,,,,,,,,,,,,,,,,,,,,,,,,,,,,,,,,,,,,,,,,,,,,,,,,,,,,,,,,,,,,
,,,,,,,,,,stimuli/images/PICTURE_233.png,WOMEN,559d9916fdf99b1e2b2dc6b8,10/17/1953,2020-07-09_16h07.36.650,proactive,2020.1.2,Win32,60,5f073de81c76c3308c0e4fb3,5f0778cd07ad2338697f37db,2,,,,,,salt,,,,,,0,54,54,38,1,4,0,,,,,,,,,,,,,,,,,,,,,,,,,,,,,,,,,,,,,,,,,,,,,,,,,,,,,,,,,,,,,,,,,,,,,,,,,,,
,,,,,,,,,,stimuli/images/PICTURE_160.png,FEET,559d9916fdf99b1e2b2dc6b8,10/17/1953,2020-07-09_16h07.36.650,proactive,2020.1.2,Win32,60,5f073de81c76c3308c0e4fb3,5f0778cd07ad2338697f37db,2,,,,,,wheelbarrow,,,,,,0,55,55,58,1,6,0,,,,,,,,,,,,,,,,,,,,,,,,,,,,,,,,,,,,,,,,,,,,,,,,,,,,,,,,,,,,,,,,,,,,,,,,,,,
,,,,,,,,,,stimuli/images/PICTURE_677.png,MILE,559d9916fdf99b1e2b2dc6b8,10/17/1953,2020-07-09_16h07.36.650,proactive,2020.1.2,Win32,60,5f073de81c76c3308c0e4fb3,5f0778cd07ad2338697f37db,2,,,,,,map,,,,,,0,56,56,30,1,4,0,,,,,,,,,,,,,,,,,,,,,,,,,,,,,,,,,,,,,,,,,,,,,,,,,,,,,,,,,,,,,,,,,,,,,,,,,,,
,,,,,,,,,,stimuli/images/PICTURE_255.png,AREA,559d9916fdf99b1e2b2dc6b8,10/17/1953,2020-07-09_16h07.36.650,proactive,2020.1.2,Win32,60,5f073de81c76c3308c0e4fb3,5f0778cd07ad2338697f37db,2,,,,,,shovel,,,,,,0,57,57,22,1,3,0,,,,,,,,,,,,,,,,,,,,,,,,,,,,,,,,,,,,,,,,,,,,,,,,,,,,,,,,,,,,,,,,,,,,,,,,,,,
,,,,,,,,,,stimuli/images/PICTURE_504.png,BODY,559d9916fdf99b1e2b2dc6b8,10/17/1953,2020-07-09_16h07.36.650,proactive,2020.1.2,Win32,60,5f073de81c76c3308c0e4fb3,5f0778cd07ad2338697f37db,2,,,,,,wheel,,,,,,0,58,58,8,1,1,0,,,,,,,,,,,,,,,,,,,,,,,,,,,,,,,,,,,,,,,,,,,,,,,,,,,,,,,,,,,,,,,,,,,,,,,,,,,
,,BEAUTY,3.742185,1,,,,,,stimuli/images/PICTURE_311.png,BEAUTY,559d9916fdf99b1e2b2dc6b8,10/17/1953,2020-07-09_16h07.36.650,proactive,2020.1.2,Win32,60,5f073de81c76c3308c0e4fb3,5f0778cd07ad2338697f37db,2,,,,,,razor,,,,,,,,,,,2,0,0,0,0,13,1,,,,,,,,,,,,,,,,,,,,,,,,,,,,,,,,,,,,,,,,,,,,,,,,,,,,,,,,,,,,,,,,,,,,,,
,,?,0.00277,0,,,,,,stimuli/images/PICTURE_380.png,PHOTO,559d9916fdf99b1e2b2dc6b8,10/17/1953,2020-07-09_16h07.36.650,proactive,2020.1.2,Win32,60,5f073de81c76c3308c0e4fb3,5f0778cd07ad2338697f37db,2,,,,,,gorilla,,,,,,,,,,,6,0,0,1,1,52,1,,,,,,,,,,,,,,,,,,,,,,,,,,,,,,,,,,,,,,,,,,,,,,,,,,,,,,,,,,,,,,,,,,,,,,
,,?,0.00392,0,,,,,,stimuli/images/PICTURE_504.png,BODY,559d9916fdf99b1e2b2dc6b8,10/17/1953,2020-07-09_16h07.36.650,proactive,2020.1.2,Win32,60,5f073de81c76c3308c0e4fb3,5f0778cd07ad2338697f37db,2,,,,,,wheel,,,,,,,,,,,1,0,0,2,2,8,1,,,,,,,,,,,,,,,,,,,,,,,,,,,,,,,,,,,,,,,,,,,,,,,,,,,,,,,,,,,,,,,,,,,,,,
,,?,0.00287,0,,,,,,stimuli/images/PICTURE_339.png,PLENTY,559d9916fdf99b1e2b2dc6b8,10/17/1953,2020-07-09_16h07.36.650,proactive,2020.1.2,Win32,60,5f073de81c76c3308c0e4fb3,5f0778cd07ad2338697f37db,2,,,,,,backpack,,,,,,,,,,,1,0,0,3,3,0,1,,,,,,,,,,,,,,,,,,,,,,,,,,,,,,,,,,,,,,,,,,,,,,,,,,,,,,,,,,,,,,,,,,,,,,
,,?,0.00256,0,,,,,,stimuli/images/PICTURE_708.png,YARD,559d9916fdf99b1e2b2dc6b8,10/17/1953,2020-07-09_16h07.36.650,proactive,2020.1.2,Win32,60,5f073de81c76c3308c0e4fb3,5f0778cd07ad2338697f37db,2,,,,,,monkey,,,,,,,,,,,3,0,0,4,4,29,1,,,,,,,,,,,,,,,,,,,,,,,,,,,,,,,,,,,,,,,,,,,,,,,,,,,,,,,,,,,,,,,,,,,,,,
,,?,0.002645,0,,,,,,stimuli/images/PICTURE_68.png,MILE,559d9916fdf99b1e2b2dc6b8,10/17/1953,2020-07-09_16h07.36.650,proactive,2020.1.2,Win32,60,5f073de81c76c3308c0e4fb3,5f0778cd07ad2338697f37db,2,,,,,,candle,,,,,,,,,,,5,0,0,5,5,44,1,,,,,,,,,,,,,,,,,,,,,,,,,,,,,,,,,,,,,,,,,,,,,,,,,,,,,,,,,,,,,,,,,,,,,,
,,?,0.001295,0,,,,,,stimuli/images/PICTURE_509.png,PHOTO,559d9916fdf99b1e2b2dc6b8,10/17/1953,2020-07-09_16h07.36.650,proactive,2020.1.2,Win32,60,5f073de81c76c3308c0e4fb3,5f0778cd07ad2338697f37db,2,,,,,,telephone,,,,,,,,,,,3,0,0,6,6,21,1,,,,,,,,,,,,,,,,,,,,,,,,,,,,,,,,,,,,,,,,,,,,,,,,,,,,,,,,,,,,,,,,,,,,,,
,,?,0.002465,0,,,,,,stimuli/images/PICTURE_208.png,MONTH,559d9916fdf99b1e2b2dc6b8,10/17/1953,2020-07-09_16h07.36.650,proactive,2020.1.2,Win32,60,5f073de81c76c3308c0e4fb3,5f0778cd07ad2338697f37db,2,,,,,,microphone,,,,,,,,,,,6,0,0,7,7,53,1,,,,,,,,,,,,,,,,,,,,,,,,,,,,,,,,,,,,,,,,,,,,,,,,,,,,,,,,,,,,,,,,,,,,,,
,,?,0.00184,0,,,,,,stimuli/images/PICTURE_32.png,JUNGLE,559d9916fdf99b1e2b2dc6b8,10/17/1953,2020-07-09_16h07.36.650,proactive,2020.1.2,Win32,60,5f073de81c76c3308c0e4fb3,5f0778cd07ad2338697f37db,2,,,,,,crown,,,,,,,,,,,5,0,0,8,8,45,1,,,,,,,,,,,,,,,,,,,,,,,,,,,,,,,,,,,,,,,,,,,,,,,,,,,,,,,,,,,,,,,,,,,,,,
,,?,0.003445,0,,,,,,stimuli/images/PICTURE_380.png,DEATH,559d9916fdf99b1e2b2dc6b8,10/17/1953,2020-07-09_16h07.36.650,proactive,2020.1.2,Win32,60,5f073de81c76c3308c0e4fb3,5f0778cd07ad2338697f37db,2,,,,,,gorilla,,,,,,,,,,,5,0,0,9,9,49,1,,,,,,,,,,,,,,,,,,,,,,,,,,,,,,,,,,,,,,,,,,,,,,,,,,,,,,,,,,,,,,,,,,,,,,
,,?,0.002105,0,,,,,,stimuli/images/PICTURE_470.png,CASINO,559d9916fdf99b1e2b2dc6b8,10/17/1953,2020-07-09_16h07.36.650,proactive,2020.1.2,Win32,60,5f073de81c76c3308c0e4fb3,5f0778cd07ad2338697f37db,2,,,,,,motorbike,,,,,,,,,,,4,0,0,10,10,36,1,,,,,,,,,,,,,,,,,,,,,,,,,,,,,,,,,,,,,,,,,,,,,,,,,,,,,,,,,,,,,,,,,,,,,,
,,?,0.001265,0,,,,,,stimuli/images/PICTURE_688.png,CASINO,559d9916fdf99b1e2b2dc6b8,10/17/1953,2020-07-09_16h07.36.650,proactive,2020.1.2,Win32,60,5f073de81c76c3308c0e4fb3,5f0778cd07ad2338697f37db,2,,,,,,runner,,,,,,,,,,,1,0,0,11,11,2,1,,,,,,,,,,,,,,,,,,,,,,,,,,,,,,,,,,,,,,,,,,,,,,,,,,,,,,,,,,,,,,,,,,,,,,
,,?,0.00139,0,,,,,,stimuli/images/PICTURE_215.png,PLENTY,559d9916fdf99b1e2b2dc6b8,10/17/1953,2020-07-09_16h07.36.650,proactive,2020.1.2,Win32,60,5f073de81c76c3308c0e4fb3,5f0778cd07ad2338697f37db,2,,,,,,boot,,,,,,,,,,,4,0,0,12,12,37,1,,,,,,,,,,,,,,,,,,,,,,,,,,,,,,,,,,,,,,,,,,,,,,,,,,,,,,,,,,,,,,,,,,,,,,
,,?,0.00098,0,,,,,,stimuli/images/PICTURE_453.png,PLENTY,559d9916fdf99b1e2b2dc6b8,10/17/1953,2020-07-09_16h07.36.650,proactive,2020.1.2,Win32,60,5f073de81c76c3308c0e4fb3,5f0778cd07ad2338697f37db,2,,,,,,scissors,,,,,,,,,,,6,0,0,13,13,56,1,,,,,,,,,,,,,,,,,,,,,,,,,,,,,,,,,,,,,,,,,,,,,,,,,,,,,,,,,,,,,,,,,,,,,,
,,?,0.000885,0,,,,,,stimuli/images/PICTURE_160.png,LEADER,559d9916fdf99b1e2b2dc6b8,10/17/1953,2020-07-09_16h07.36.650,proactive,2020.1.2,Win32,60,5f073de81c76c3308c0e4fb3,5f0778cd07ad2338697f37db,2,,,,,,wheelbarrow,,,,,,,,,,,1,0,0,14,14,3,1,,,,,,,,,,,,,,,,,,,,,,,,,,,,,,,,,,,,,,,,,,,,,,,,,,,,,,,,,,,,,,,,,,,,,,
,,?,0.000925,0,,,,,,stimuli/images/PICTURE_311.png,FRIEND,559d9916fdf99b1e2b2dc6b8,10/17/1953,2020-07-09_16h07.36.650,proactive,2020.1.2,Win32,60,5f073de81c76c3308c0e4fb3,5f0778cd07ad2338697f37db,2,,,,,,razor,,,,,,,,,,,4,0,0,15,15,34,1,,,,,,,,,,,,,,,,,,,,,,,,,,,,,,,,,,,,,,,,,,,,,,,,,,,,,,,,,,,,,,,,,,,,,,
,,?,1.75294,0,,,,,,stimuli/images/PICTURE_208.png,LOTS,559d9916fdf99b1e2b2dc6b8,10/17/1953,2020-07-09_16h07.36.650,proactive,2020.1.2,Win32,60,5f073de81c76c3308c0e4fb3,5f0778cd07ad2338697f37db,2,,,,,,microphone,,,,,,,,,,,2,0,0,16,16,10,1,,,,,,,,,,,,,,,,,,,,,,,,,,,,,,,,,,,,,,,,,,,,,,,,,,,,,,,,,,,,,,,,,,,,,,
,,?,0.002345,0,,,,,,stimuli/images/PICTURE_177.png,CARS,559d9916fdf99b1e2b2dc6b8,10/17/1953,2020-07-09_16h07.36.650,proactive,2020.1.2,Win32,60,5f073de81c76c3308c0e4fb3,5f0778cd07ad2338697f37db,2,,,,,,mushroom,,,,,,,,,,,4,0,0,17,17,35,1,,,,,,,,,,,,,,,,,,,,,,,,,,,,,,,,,,,,,,,,,,,,,,,,,,,,,,,,,,,,,,,,,,,,,,
,,?,0.00151,0,,,,,,stimuli/images/PICTURE_348.png,SPEECH,559d9916fdf99b1e2b2dc6b8,10/17/1953,2020-07-09_16h07.36.650,proactive,2020.1.2,Win32,60,5f073de81c76c3308c0e4fb3,5f0778cd07ad2338697f37db,2,,,,,,pepper,,,,,,,,,,,3,0,0,18,18,20,1,,,,,,,,,,,,,,,,,,,,,,,,,,,,,,,,,,,,,,,,,,,,,,,,,,,,,,,,,,,,,,,,,,,,,,
,,CARROT,3.14096,0,,,,,,stimuli/images/PICTURE_285.png,ADVICE,559d9916fdf99b1e2b2dc6b8,10/17/1953,2020-07-09_16h07.36.650,proactive,2020.1.2,Win32,60,5f073de81c76c3308c0e4fb3,5f0778cd07ad2338697f37db,2,,,,,,carrot,,,,,,,,,,,2,0,0,19,19,12,1,,,,,,,,,,,,,,,,,,,,,,,,,,,,,,,,,,,,,,,,,,,,,,,,,,,,,,,,,,,,,,,,,,,,,,
,,?,0.00146,0,,,,,,stimuli/images/PICTURE_147.png,MOMENT,559d9916fdf99b1e2b2dc6b8,10/17/1953,2020-07-09_16h07.36.650,proactive,2020.1.2,Win32,60,5f073de81c76c3308c0e4fb3,5f0778cd07ad2338697f37db,2,,,,,,hanger,,,,,,,,,,,6,0,0,20,20,51,1,,,,,,,,,,,,,,,,,,,,,,,,,,,,,,,,,,,,,,,,,,,,,,,,,,,,,,,,,,,,,,,,,,,,,,
,,?,0.001645,0,,,,,,stimuli/images/PICTURE_123.png,ADVICE,559d9916fdf99b1e2b2dc6b8,10/17/1953,2020-07-09_16h07.36.650,proactive,2020.1.2,Win32,60,5f073de81c76c3308c0e4fb3,5f0778cd07ad2338697f37db,2,,,,,,dart,,,,,,,,,,,5,0,0,21,21,40,1,,,,,,,,,,,,,,,,,,,,,,,,,,,,,,,,,,,,,,,,,,,,,,,,,,,,,,,,,,,,,,,,,,,,,,
,,?,0.00143,0,,,,,,stimuli/images/PICTURE_203.png,ARTIST,559d9916fdf99b1e2b2dc6b8,10/17/1953,2020-07-09_16h07.36.650,proactive,2020.1.2,Win32,60,5f073de81c76c3308c0e4fb3,5f0778cd07ad2338697f37db,2,,,,,,cap,,,,,,,,,,,3,0,0,22,22,26,1,,,,,,,,,,,,,,,,,,,,,,,,,,,,,,,,,,,,,,,,,,,,,,,,,,,,,,,,,,,,,,,,,,,,,,
,,?,0.001295,0,,,,,,stimuli/images/PICTURE_675.png,WEAPON,559d9916fdf99b1e2b2dc6b8,10/17/1953,2020-07-09_16h07.36.650,proactive,2020.1.2,Win32,60,5f073de81c76c3308c0e4fb3,5f0778cd07ad2338697f37db,2,,,,,,windmill,,,,,,,,,,,4,0,0,23,23,32,1,,,,,,,,,,,,,,,,,,,,,,,,,,,,,,,,,,,,,,,,,,,,,,,,,,,,,,,,,,,,,,,,,,,,,,
,,?,0.001725,0,,,,,,stimuli/images/PICTURE_491.png,ROOF,559d9916fdf99b1e2b2dc6b8,10/17/1953,2020-07-09_16h07.36.650,proactive,2020.1.2,Win32,60,5f073de81c76c3308c0e4fb3,5f0778cd07ad2338697f37db,2,,,,,,rug,,,,,,,,,,,3,0,0,24,24,24,1,,,,,,,,,,,,,,,,,,,,,,,,,,,,,,,,,,,,,,,,,,,,,,,,,,,,,,,,,,,,,,,,,,,,,,
,,?,0.00146,0,,,,,,stimuli/images/PICTURE_487.png,FLIGHT,559d9916fdf99b1e2b2dc6b8,10/17/1953,2020-07-09_16h07.36.650,proactive,2020.1.2,Win32,60,5f073de81c76c3308c0e4fb3,5f0778cd07ad2338697f37db,2,,,,,,basket,,,,,,,,,,,1,0,0,25,25,9,1,,,,,,,,,,,,,,,,,,,,,,,,,,,,,,,,,,,,,,,,,,,,,,,,,,,,,,,,,,,,,,,,,,,,,,
,,?,0.002175,0,,,,,,stimuli/images/PICTURE_488.png,STYLE,559d9916fdf99b1e2b2dc6b8,10/17/1953,2020-07-09_16h07.36.650,proactive,2020.1.2,Win32,60,5f073de81c76c3308c0e4fb3,5f0778cd07ad2338697f37db,2,,,,,,sun,,,,,,,,,,,4,0,0,26,26,33,1,,,,,,,,,,,,,,,,,,,,,,,,,,,,,,,,,,,,,,,,,,,,,,,,,,,,,,,,,,,,,,,,,,,,,,
,,?,0.001785,0,,,,,,stimuli/images/PICTURE_123.png,ADVICE,559d9916fdf99b1e2b2dc6b8,10/17/1953,2020-07-09_16h07.36.650,proactive,2020.1.2,Win32,60,5f073de81c76c3308c0e4fb3,5f0778cd07ad2338697f37db,2,,,,,,dart,,,,,,,,,,,6,0,0,27,27,50,1,,,,,,,,,,,,,,,,,,,,,,,,,,,,,,,,,,,,,,,,,,,,,,,,,,,,,,,,,,,,,,,,,,,,,,
,,WOMAN,2.3503,0,,,,,,stimuli/images/PICTURE_688.png,WOMEN,559d9916fdf99b1e2b2dc6b8,10/17/1953,2020-07-09_16h07.36.650,proactive,2020.1.2,Win32,60,5f073de81c76c3308c0e4fb3,5f0778cd07ad2338697f37db,2,,,,,,runner,,,,,,,,,,,2,0,0,28,28,14,1,,,,,,,,,,,,,,,,,,,,,,,,,,,,,,,,,,,,,,,,,,,,,,,,,,,,,,,,,,,,,,,,,,,,,,
,,?,0.001745,0,,,,,,stimuli/images/PICTURE_308.png,ESTATE,559d9916fdf99b1e2b2dc6b8,10/17/1953,2020-07-09_16h07.36.650,proactive,2020.1.2,Win32,60,5f073de81c76c3308c0e4fb3,5f0778cd07ad2338697f37db,2,,,,,,dice,,,,,,,,,,,5,0,0,29,29,46,1,,,,,,,,,,,,,,,,,,,,,,,,,,,,,,,,,,,,,,,,,,,,,,,,,,,,,,,,,,,,,,,,,,,,,,
,,?,0.00164,0,,,,,,stimuli/images/PICTURE_453.png,DUDE,559d9916fdf99b1e2b2dc6b8,10/17/1953,2020-07-09_16h07.36.650,proactive,2020.1.2,Win32,60,5f073de81c76c3308c0e4fb3,5f0778cd07ad2338697f37db,2,,,,,,scissors,,,,,,,,,,,3,0,0,30,30,27,1,,,,,,,,,,,,,,,,,,,,,,,,,,,,,,,,,,,,,,,,,,,,,,,,,,,,,,,,,,,,,,,,,,,,,,
,,?,0.00194,0,,,,,,stimuli/images/PICTURE_744.png,SYSTEM,559d9916fdf99b1e2b2dc6b8,10/17/1953,2020-07-09_16h07.36.650,proactive,2020.1.2,Win32,60,5f073de81c76c3308c0e4fb3,5f0778cd07ad2338697f37db,2,,,,,,ring,,,,,,,,,,,5,0,0,31,31,43,1,,,,,,,,,,,,,,,,,,,,,,,,,,,,,,,,,,,,,,,,,,,,,,,,,,,,,,,,,,,,,,,,,,,,,,
,,?,0.00266,0,,,,,,stimuli/images/PICTURE_95.png,STYLE,559d9916fdf99b1e2b2dc6b8,10/17/1953,2020-07-09_16h07.36.650,proactive,2020.1.2,Win32,60,5f073de81c76c3308c0e4fb3,5f0778cd07ad2338697f37db,2,,,,,,suitcase,,,,,,,,,,,3,0,0,32,32,25,1,,,,,,,,,,,,,,,,,,,,,,,,,,,,,,,,,,,,,,,,,,,,,,,,,,,,,,,,,,,,,,,,,,,,,,
,,?,0.001265,0,,,,,,stimuli/images/PICTURE_469.png,LETTER,559d9916fdf99b1e2b2dc6b8,10/17/1953,2020-07-09_16h07.36.650,proactive,2020.1.2,Win32,60,5f073de81c76c3308c0e4fb3,5f0778cd07ad2338697f37db,2,,,,,,stool,,,,,,,,,,,5,0,0,33,33,42,1,,,,,,,,,,,,,,,,,,,,,,,,,,,,,,,,,,,,,,,,,,,,,,,,,,,,,,,,,,,,,,,,,,,,,,
,,?,0.001125,0,,,,,,stimuli/images/PICTURE_248.png,DOZEN,559d9916fdf99b1e2b2dc6b8,10/17/1953,2020-07-09_16h07.36.650,proactive,2020.1.2,Win32,60,5f073de81c76c3308c0e4fb3,5f0778cd07ad2338697f37db,2,,,,,,cart,,,,,,,,,,,4,0,0,34,34,39,1,,,,,,,,,,,,,,,,,,,,,,,,,,,,,,,,,,,,,,,,,,,,,,,,,,,,,,,,,,,,,,,,,,,,,,
,,?,0.001095,0,,,,,,stimuli/images/PICTURE_327.png,BEAUTY,559d9916fdf99b1e2b2dc6b8,10/17/1953,2020-07-09_16h07.36.650,proactive,2020.1.2,Win32,60,5f073de81c76c3308c0e4fb3,5f0778cd07ad2338697f37db,2,,,,,,helmet,,,,,,,,,,,5,0,0,35,35,48,1,,,,,,,,,,,,,,,,,,,,,,,,,,,,,,,,,,,,,,,,,,,,,,,,,,,,,,,,,,,,,,,,,,,,,,
,,?,0.00113,0,,,,,,stimuli/images/PICTURE_491.png,WRITER,559d9916fdf99b1e2b2dc6b8,10/17/1953,2020-07-09_16h07.36.650,proactive,2020.1.2,Win32,60,5f073de81c76c3308c0e4fb3,5f0778cd07ad2338697f37db,2,,,,,,rug,,,,,,,,,,,6,0,0,36,36,57,1,,,,,,,,,,,,,,,,,,,,,,,,,,,,,,,,,,,,,,,,,,,,,,,,,,,,,,,,,,,,,,,,,,,,,,
,,?,0.001635,0,,,,,,stimuli/images/PICTURE_654.png,VALLEY,559d9916fdf99b1e2b2dc6b8,10/17/1953,2020-07-09_16h07.36.650,proactive,2020.1.2,Win32,60,5f073de81c76c3308c0e4fb3,5f0778cd07ad2338697f37db,2,,,,,,pencil,,,,,,,,,,,1,0,0,37,37,1,1,,,,,,,,,,,,,,,,,,,,,,,,,,,,,,,,,,,,,,,,,,,,,,,,,,,,,,,,,,,,,,,,,,,,,,
,,?,0.001355,0,,,,,,stimuli/images/PICTURE_233.png,WOMEN,559d9916fdf99b1e2b2dc6b8,10/17/1953,2020-07-09_16h07.36.650,proactive,2020.1.2,Win32,60,5f073de81c76c3308c0e4fb3,5f0778cd07ad2338697f37db,2,,,,,,salt,,,,,,,,,,,4,0,0,38,38,38,1,,,,,,,,,,,,,,,,,,,,,,,,,,,,,,,,,,,,,,,,,,,,,,,,,,,,,,,,,,,,,,,,,,,,,,
,,?,0.00119,0,,,,,,stimuli/images/PICTURE_677.png,MILE,559d9916fdf99b1e2b2dc6b8,10/17/1953,2020-07-09_16h07.36.650,proactive,2020.1.2,Win32,60,5f073de81c76c3308c0e4fb3,5f0778cd07ad2338697f37db,2,,,,,,map,,,,,,,,,,,4,0,0,39,39,30,1,,,,,,,,,,,,,,,,,,,,,,,,,,,,,,,,,,,,,,,,,,,,,,,,,,,,,,,,,,,,,,,,,,,,,,
,,?,0.00195,0,,,,,,stimuli/images/PICTURE_308.png,KIND,559d9916fdf99b1e2b2dc6b8,10/17/1953,2020-07-09_16h07.36.650,proactive,2020.1.2,Win32,60,5f073de81c76c3308c0e4fb3,5f0778cd07ad2338697f37db,2,,,,,,dice,,,,,,,,,,,6,0,0,40,40,54,1,,,,,,,,,,,,,,,,,,,,,,,,,,,,,,,,,,,,,,,,,,,,,,,,,,,,,,,,,,,,,,,,,,,,,,
,,?,0.001485,0,,,,,,stimuli/images/PICTURE_449.png,THING,559d9916fdf99b1e2b2dc6b8,10/17/1953,2020-07-09_16h07.36.650,proactive,2020.1.2,Win32,60,5f073de81c76c3308c0e4fb3,5f0778cd07ad2338697f37db,2,,,,,,bench,,,,,,,,,,,6,0,0,41,41,59,1,,,,,,,,,,,,,,,,,,,,,,,,,,,,,,,,,,,,,,,,,,,,,,,,,,,,,,,,,,,,,,,,,,,,,,
,,?,4.04636,0,,,,,,stimuli/images/PICTURE_744.png,SAKE,559d9916fdf99b1e2b2dc6b8,10/17/1953,2020-07-09_16h07.36.650,proactive,2020.1.2,Win32,60,5f073de81c76c3308c0e4fb3,5f0778cd07ad2338697f37db,2,,,,,,ring,,,,,,,,,,,2,0,0,42,42,17,1,,,,,,,,,,,,,,,,,,,,,,,,,,,,,,,,,,,,,,,,,,,,,,,,,,,,,,,,,,,,,,,,,,,,,,
,,FAMILY,2.984015,1,,,,,,stimuli/images/PICTURE_302.png,FAMILY,559d9916fdf99b1e2b2dc6b8,10/17/1953,2020-07-09_16h07.36.650,proactive,2020.1.2,Win32,60,5f073de81c76c3308c0e4fb3,5f0778cd07ad2338697f37db,2,,,,,,taxi,,,,,,,,,,,2,0,0,43,43,18,1,,,,,,,,,,,,,,,,,,,,,,,,,,,,,,,,,,,,,,,,,,,,,,,,,,,,,,,,,,,,,,,,,,,,,,
,,?,0.001685,0,,,,,,stimuli/images/PICTURE_233.png,IDEAS,559d9916fdf99b1e2b2dc6b8,10/17/1953,2020-07-09_16h07.36.650,proactive,2020.1.2,Win32,60,5f073de81c76c3308c0e4fb3,5f0778cd07ad2338697f37db,2,,,,,,salt,,,,,,,,,,,3,0,0,44,44,28,1,,,,,,,,,,,,,,,,,,,,,,,,,,,,,,,,,,,,,,,,,,,,,,,,,,,,,,,,,,,,,,,,,,,,,,
,,GIRL,2.7633,1,,,,,,stimuli/images/PICTURE_151.png,GIRL,559d9916fdf99b1e2b2dc6b8,10/17/1953,2020-07-09_16h07.36.650,proactive,2020.1.2,Win32,60,5f073de81c76c3308c0e4fb3,5f0778cd07ad2338697f37db,2,,,,,,tray,,,,,,,,,,,2,0,0,45,45,19,1,,,,,,,,,,,,,,,,,,,,,,,,,,,,,,,,,,,,,,,,,,,,,,,,,,,,,,,,,,,,,,,,,,,,,,
,,?,0.00155,0,,,,,,stimuli/images/PICTURE_667.png,PLENTY,559d9916fdf99b1e2b2dc6b8,10/17/1953,2020-07-09_16h07.36.650,proactive,2020.1.2,Win32,60,5f073de81c76c3308c0e4fb3,5f0778cd07ad2338697f37db,2,,,,,,daisy,,,,,,,,,,,5,0,0,46,46,41,1,,,,,,,,,,,,,,,,,,,,,,,,,,,,,,,,,,,,,,,,,,,,,,,,,,,,,,,,,,,,,,,,,,,,,,
,,?,0.0014,0,,,,,,stimuli/images/PICTURE_208.png,THING,559d9916fdf99b1e2b2dc6b8,10/17/1953,2020-07-09_16h07.36.650,proactive,2020.1.2,Win32,60,5f073de81c76c3308c0e4fb3,5f0778cd07ad2338697f37db,2,,,,,,microphone,,,,,,,,,,,5,0,0,47,47,47,1,,,,,,,,,,,,,,,,,,,,,,,,,,,,,,,,,,,,,,,,,,,,,,,,,,,,,,,,,,,,,,,,,,,,,,
,,?,0.001435,0,,,,,,stimuli/images/PICTURE_160.png,FEET,559d9916fdf99b1e2b2dc6b8,10/17/1953,2020-07-09_16h07.36.650,proactive,2020.1.2,Win32,60,5f073de81c76c3308c0e4fb3,5f0778cd07ad2338697f37db,2,,,,,,wheelbarrow,,,,,,,,,,,6,0,0,48,48,58,1,,,,,,,,,,,,,,,,,,,,,,,,,,,,,,,,,,,,,,,,,,,,,,,,,,,,,,,,,,,,,,,,,,,,,,
,,?,0.00139,0,,,,,,stimuli/images/PICTURE_255.png,AREA,559d9916fdf99b1e2b2dc6b8,10/17/1953,2020-07-09_16h07.36.650,proactive,2020.1.2,Win32,60,5f073de81c76c3308c0e4fb3,5f0778cd07ad2338697f37db,2,,,,,,shovel,,,,,,,,,,,3,0,0,49,49,22,1,,,,,,,,,,,,,,,,,,,,,,,,,,,,,,,,,,,,,,,,,,,,,,,,,,,,,,,,,,,,,,,,,,,,,,
,,?,0.00177,0,,,,,,stimuli/images/PICTURE_356.png,DANGER,559d9916fdf99b1e2b2dc6b8,10/17/1953,2020-07-09_16h07.36.650,proactive,2020.1.2,Win32,60,5f073de81c76c3308c0e4fb3,5f0778cd07ad2338697f37db,2,,,,,,pawn,,,,,,,,,,,6,0,0,50,50,55,1,,,,,,,,,,,,,,,,,,,,,,,,,,,,,,,,,,,,,,,,,,,,,,,,,,,,,,,,,,,,,,,,,,,,,,
,,?,0.001625,0,,,,,,stimuli/images/PICTURE_708.png,PENNY,559d9916fdf99b1e2b2dc6b8,10/17/1953,2020-07-09_16h07.36.650,proactive,2020.1.2,Win32,60,5f073de81c76c3308c0e4fb3,5f0778cd07ad2338697f37db,2,,,,,,monkey,,,,,,,,,,,4,0,0,51,51,31,1,,,,,,,,,,,,,,,,,,,,,,,,,,,,,,,,,,,,,,,,,,,,,,,,,,,,,,,,,,,,,,,,,,,,,,
,,?,0.00189,0,,,,,,stimuli/images/PICTURE_314.png,SAKE,559d9916fdf99b1e2b2dc6b8,10/17/1953,2020-07-09_16h07.36.650,proactive,2020.1.2,Win32,60,5f073de81c76c3308c0e4fb3,5f0778cd07ad2338697f37db,2,,,,,,perfume,,,,,,,,,,,1,0,0,52,52,7,1,,,,,,,,,,,,,,,,,,,,,,,,,,,,,,,,,,,,,,,,,,,,,,,,,,,,,,,,,,,,,,,,,,,,,,
,,THING,2.17306,1,,,,,,stimuli/images/PICTURE_85.png,THING,559d9916fdf99b1e2b2dc6b8,10/17/1953,2020-07-09_16h07.36.650,proactive,2020.1.2,Win32,60,5f073de81c76c3308c0e4fb3,5f0778cd07ad2338697f37db,2,,,,,,diamond,,,,,,,,,,,2,0,0,53,53,15,1,,,,,,,,,,,,,,,,,,,,,,,,,,,,,,,,,,,,,,,,,,,,,,,,,,,,,,,,,,,,,,,,,,,,,,
,,?,1.83425,0,,,,,,stimuli/images/PICTURE_692.png,MONTH,559d9916fdf99b1e2b2dc6b8,10/17/1953,2020-07-09_16h07.36.650,proactive,2020.1.2,Win32,60,5f073de81c76c3308c0e4fb3,5f0778cd07ad2338697f37db,2,,,,,,cherry,,,,,,,,,,,2,0,0,54,54,16,1,,,,,,,,,,,,,,,,,,,,,,,,,,,,,,,,,,,,,,,,,,,,,,,,,,,,,,,,,,,,,,,,,,,,,,
,,?,0.00219,0,,,,,,stimuli/images/PICTURE_708.png,CLIENT,559d9916fdf99b1e2b2dc6b8,10/17/1953,2020-07-09_16h07.36.650,proactive,2020.1.2,Win32,60,5f073de81c76c3308c0e4fb3,5f0778cd07ad2338697f37db,2,,,,,,monkey,,,,,,,,,,,1,0,0,55,55,5,1,,,,,,,,,,,,,,,,,,,,,,,,,,,,,,,,,,,,,,,,,,,,,,,,,,,,,,,,,,,,,,,,,,,,,,
,,?,0.79253,0,,,,,,stimuli/images/PICTURE_314.png,GODS,559d9916fdf99b1e2b2dc6b8,10/17/1953,2020-07-09_16h07.36.650,proactive,2020.1.2,Win32,60,5f073de81c76c3308c0e4fb3,5f0778cd07ad2338697f37db,2,,,,,,perfume,,,,,,,,,,,2,0,0,56,56,11,1,,,,,,,,,,,,,,,,,,,,,,,,,,,,,,,,,,,,,,,,,,,,,,,,,,,,,,,,,,,,,,,,,,,,,,
,,?,0.00172,0,,,,,,stimuli/images/PICTURE_667.png,BATH,559d9916fdf99b1e2b2dc6b8,10/17/1953,2020-07-09_16h07.36.650,proactive,2020.1.2,Win32,60,5f073de81c76c3308c0e4fb3,5f0778cd07ad2338697f37db,2,,,,,,daisy,,,,,,,,,,,1,0,0,57,57,4,1,,,,,,,,,,,,,,,,,,,,,,,,,,,,,,,,,,,,,,,,,,,,,,,,,,,,,,,,,,,,,,,,,,,,,,
,,?,0.00128,0,,,,,,stimuli/images/PICTURE_467.png,DEMON,559d9916fdf99b1e2b2dc6b8,10/17/1953,2020-07-09_16h07.36.650,proactive,2020.1.2,Win32,60,5f073de81c76c3308c0e4fb3,5f0778cd07ad2338697f37db,2,,,,,,peg,,,,,,,,,,,3,0,0,58,58,23,1,,,,,,,,,,,,,,,,,,,,,,,,,,,,,,,,,,,,,,,,,,,,,,,,,,,,,,,,,,,,,,,,,,,,,,
,,?,0.0013,0,,,,,,stimuli/images/PICTURE_469.png,ARTIST,559d9916fdf99b1e2b2dc6b8,10/17/1953,2020-07-09_16h07.36.650,proactive,2020.1.2,Win32,60,5f073de81c76c3308c0e4fb3,5f0778cd07ad2338697f37db,2,,,,,,stool,,,,,,,,,,,1,0,0,59,59,6,1,,,,,,,,,,,,,,,,,,,,,,,,,,,,,,,,,,,,,,,,,,,,,,,,,,,,,,,,,,,,,,,,,,,,,,
,,,,,,,,,,,,559d9916fdf99b1e2b2dc6b8,10/17/1953,2020-07-09_16h07.36.650,proactive,2020.1.2,Win32,60,5f073de81c76c3308c0e4fb3,5f0778cd07ad2338697f37db,2,,,,,,,,,,,,,,,,,,,,,,,,0,0,0,0,1,stimuli/learn-block1.csv,,,,,,,,,,,,,,,,,,,,,,,,,,,,,,,,,,,,,,,,,,,,,,,,,,,,,,,,,,,,,,,,
,,,,,,,,,,stimuli/images/PICTURE_147.png,LEADER,559d9916fdf99b1e2b2dc6b8,10/17/1953,2020-07-09_16h07.36.650,proactive,2020.1.2,Win32,60,5f073de81c76c3308c0e4fb3,5f0778cd07ad2338697f37db,2,,,,,,hanger,,,,,,0,0,0,33,1,4,2,,,,,,,,,,,,,,,,,,,,,,,,,,,,,,,,,,,,,,,,,,,,,,,,,,,,,,,,,,,,,,,,,,,,,,,,,,,
,,,,,,,,,,stimuli/images/PICTURE_95.png,NIGHT,559d9916fdf99b1e2b2dc6b8,10/17/1953,2020-07-09_16h07.36.650,proactive,2020.1.2,Win32,60,5f073de81c76c3308c0e4fb3,5f0778cd07ad2338697f37db,2,,,,,,suitcase,,,,,,0,1,1,37,1,4,2,,,,,,,,,,,,,,,,,,,,,,,,,,,,,,,,,,,,,,,,,,,,,,,,,,,,,,,,,,,,,,,,,,,,,,,,,,,
,,,,,,,,,,stimuli/images/PICTURE_297.png,BODY,559d9916fdf99b1e2b2dc6b8,10/17/1953,2020-07-09_16h07.36.650,proactive,2020.1.2,Win32,60,5f073de81c76c3308c0e4fb3,5f0778cd07ad2338697f37db,2,,,,,,aeroplane,,,,,,0,2,2,51,1,6,2,,,,,,,,,,,,,,,,,,,,,,,,,,,,,,,,,,,,,,,,,,,,,,,,,,,,,,,,,,,,,,,,,,,,,,,,,,,
,,,,,,,,,,stimuli/images/PICTURE_403.png,FAMILY,559d9916fdf99b1e2b2dc6b8,10/17/1953,2020-07-09_16h07.36.650,proactive,2020.1.2,Win32,60,5f073de81c76c3308c0e4fb3,5f0778cd07ad2338697f37db,2,,,,,,cathedral,,,,,,0,3,3,9,1,1,2,,,,,,,,,,,,,,,,,,,,,,,,,,,,,,,,,,,,,,,,,,,,,,,,,,,,,,,,,,,,,,,,,,,,,,,,,,,
,,,,,,,,,,stimuli/images/PICTURE_57.png,NATION,559d9916fdf99b1e2b2dc6b8,10/17/1953,2020-07-09_16h07.36.650,proactive,2020.1.2,Win32,60,5f073de81c76c3308c0e4fb3,5f0778cd07ad2338697f37db,2,,,,,,stamp,,,,,,0,4,4,21,1,3,2,,,,,,,,,,,,,,,,,,,,,,,,,,,,,,,,,,,,,,,,,,,,,,,,,,,,,,,,,,,,,,,,,,,,,,,,,,,
,,,,,,,,,,stimuli/images/PICTURE_452.png,COPS,559d9916fdf99b1e2b2dc6b8,10/17/1953,2020-07-09_16h07.36.650,proactive,2020.1.2,Win32,60,5f073de81c76c3308c0e4fb3,5f0778cd07ad2338697f37db,2,,,,,,watch,,,,,,0,5,5,0,1,1,2,,,,,,,,,,,,,,,,,,,,,,,,,,,,,,,,,,,,,,,,,,,,,,,,,,,,,,,,,,,,,,,,,,,,,,,,,,,
,,,,,,,,,,stimuli/images/PICTURE_356.png,CANDY,559d9916fdf99b1e2b2dc6b8,10/17/1953,2020-07-09_16h07.36.650,proactive,2020.1.2,Win32,60,5f073de81c76c3308c0e4fb3,5f0778cd07ad2338697f37db,2,,,,,,pawn,,,,,,0,6,6,46,1,5,2,,,,,,,,,,,,,,,,,,,,,,,,,,,,,,,,,,,,,,,,,,,,,,,,,,,,,,,,,,,,,,,,,,,,,,,,,,,
,,,,,,,,,,stimuli/images/PICTURE_348.png,TOILET,559d9916fdf99b1e2b2dc6b8,10/17/1953,2020-07-09_16h07.36.650,proactive,2020.1.2,Win32,60,5f073de81c76c3308c0e4fb3,5f0778cd07ad2338697f37db,2,,,,,,pepper,,,,,,0,7,7,4,1,1,2,,,,,,,,,,,,,,,,,,,,,,,,,,,,,,,,,,,,,,,,,,,,,,,,,,,,,,,,,,,,,,,,,,,,,,,,,,,
,,,,,,,,,,stimuli/images/PICTURE_453.png,FAMILY,559d9916fdf99b1e2b2dc6b8,10/17/1953,2020-07-09_16h07.36.650,proactive,2020.1.2,Win32,60,5f073de81c76c3308c0e4fb3,5f0778cd07ad2338697f37db,2,,,,,,scissors,,,,,,0,8,8,48,1,5,2,,,,,,,,,,,,,,,,,,,,,,,,,,,,,,,,,,,,,,,,,,,,,,,,,,,,,,,,,,,,,,,,,,,,,,,,,,,
,,,,,,,,,,stimuli/images/PICTURE_311.png,TOILET,559d9916fdf99b1e2b2dc6b8,10/17/1953,2020-07-09_16h07.36.650,proactive,2020.1.2,Win32,60,5f073de81c76c3308c0e4fb3,5f0778cd07ad2338697f37db,2,,,,,,razor,,,,,,0,9,9,54,1,6,2,,,,,,,,,,,,,,,,,,,,,,,,,,,,,,,,,,,,,,,,,,,,,,,,,,,,,,,,,,,,,,,,,,,,,,,,,,,
,,,,,,,,,,stimuli/images/PICTURE_405.png,HOUSE,559d9916fdf99b1e2b2dc6b8,10/17/1953,2020-07-09_16h07.36.650,proactive,2020.1.2,Win32,60,5f073de81c76c3308c0e4fb3,5f0778cd07ad2338697f37db,2,,,,,,anchor,,,,,,0,10,10,2,1,1,2,,,,,,,,,,,,,,,,,,,,,,,,,,,,,,,,,,,,,,,,,,,,,,,,,,,,,,,,,,,,,,,,,,,,,,,,,,,
,,,,,,,,,,stimuli/images/PICTURE_68.png,KIND,559d9916fdf99b1e2b2dc6b8,10/17/1953,2020-07-09_16h07.36.650,proactive,2020.1.2,Win32,60,5f073de81c76c3308c0e4fb3,5f0778cd07ad2338697f37db,2,,,,,,candle,,,,,,0,11,11,23,1,3,2,,,,,,,,,,,,,,,,,,,,,,,,,,,,,,,,,,,,,,,,,,,,,,,,,,,,,,,,,,,,,,,,,,,,,,,,,,,
,,,,,,,,,,stimuli/images/PICTURE_327.png,LEADER,559d9916fdf99b1e2b2dc6b8,10/17/1953,2020-07-09_16h07.36.650,proactive,2020.1.2,Win32,60,5f073de81c76c3308c0e4fb3,5f0778cd07ad2338697f37db,2,,,,,,helmet,,,,,,0,12,12,17,1,2,2,,,,,,,,,,,,,,,,,,,,,,,,,,,,,,,,,,,,,,,,,,,,,,,,,,,,,,,,,,,,,,,,,,,,,,,,,,,
,,,,,,,,,,stimuli/images/PICTURE_509.png,SHOTS,559d9916fdf99b1e2b2dc6b8,10/17/1953,2020-07-09_16h07.36.650,proactive,2020.1.2,Win32,60,5f073de81c76c3308c0e4fb3,5f0778cd07ad2338697f37db,2,,,,,,telephone,,,,,,0,13,13,7,1,1,2,,,,,,,,,,,,,,,,,,,,,,,,,,,,,,,,,,,,,,,,,,,,,,,,,,,,,,,,,,,,,,,,,,,,,,,,,,,
,,,,,,,,,,stimuli/images/PICTURE_141.png,CLIENT,559d9916fdf99b1e2b2dc6b8,10/17/1953,2020-07-09_16h07.36.650,proactive,2020.1.2,Win32,60,5f073de81c76c3308c0e4fb3,5f0778cd07ad2338697f37db,2,,,,,,sunflower,,,,,,0,14,14,30,1,4,2,,,,,,,,,,,,,,,,,,,,,,,,,,,,,,,,,,,,,,,,,,,,,,,,,,,,,,,,,,,,,,,,,,,,,,,,,,,
,,,,,,,,,,stimuli/images/PICTURE_677.png,PHOTO,559d9916fdf99b1e2b2dc6b8,10/17/1953,2020-07-09_16h07.36.650,proactive,2020.1.2,Win32,60,5f073de81c76c3308c0e4fb3,5f0778cd07ad2338697f37db,2,,,,,,map,,,,,,0,15,15,14,1,2,2,,,,,,,,,,,,,,,,,,,,,,,,,,,,,,,,,,,,,,,,,,,,,,,,,,,,,,,,,,,,,,,,,,,,,,,,,,,
,,,,,,,,,,stimuli/images/PICTURE_348.png,DUDE,559d9916fdf99b1e2b2dc6b8,10/17/1953,2020-07-09_16h07.36.650,proactive,2020.1.2,Win32,60,5f073de81c76c3308c0e4fb3,5f0778cd07ad2338697f37db,2,,,,,,pepper,,,,,,0,16,16,59,1,6,2,,,,,,,,,,,,,,,,,,,,,,,,,,,,,,,,,,,,,,,,,,,,,,,,,,,,,,,,,,,,,,,,,,,,,,,,,,,
,,,,,,,,,,stimuli/images/PICTURE_215.png,LEADER,559d9916fdf99b1e2b2dc6b8,10/17/1953,2020-07-09_16h07.36.650,proactive,2020.1.2,Win32,60,5f073de81c76c3308c0e4fb3,5f0778cd07ad2338697f37db,2,,,,,,boot,,,,,,0,17,17,43,1,5,2,,,,,,,,,,,,,,,,,,,,,,,,,,,,,,,,,,,,,,,,,,,,,,,,,,,,,,,,,,,,,,,,,,,,,,,,,,,
,,,,,,,,,,stimuli/images/PICTURE_509.png,BATH,559d9916fdf99b1e2b2dc6b8,10/17/1953,2020-07-09_16h07.36.650,proactive,2020.1.2,Win32,60,5f073de81c76c3308c0e4fb3,5f0778cd07ad2338697f37db,2,,,,,,telephone,,,,,,0,18,18,15,1,2,2,,,,,,,,,,,,,,,,,,,,,,,,,,,,,,,,,,,,,,,,,,,,,,,,,,,,,,,,,,,,,,,,,,,,,,,,,,,
,,,,,,,,,,stimuli/images/PICTURE_215.png,BOYS,559d9916fdf99b1e2b2dc6b8,10/17/1953,2020-07-09_16h07.36.650,proactive,2020.1.2,Win32,60,5f073de81c76c3308c0e4fb3,5f0778cd07ad2338697f37db,2,,,,,,boot,,,,,,0,19,19,24,1,3,2,,,,,,,,,,,,,,,,,,,,,,,,,,,,,,,,,,,,,,,,,,,,,,,,,,,,,,,,,,,,,,,,,,,,,,,,,,,
,,,,,,,,,,stimuli/images/PICTURE_160.png,HOTEL,559d9916fdf99b1e2b2dc6b8,10/17/1953,2020-07-09_16h07.36.650,proactive,2020.1.2,Win32,60,5f073de81c76c3308c0e4fb3,5f0778cd07ad2338697f37db,2,,,,,,wheelbarrow,,,,,,0,20,20,16,1,2,2,,,,,,,,,,,,,,,,,,,,,,,,,,,,,,,,,,,,,,,,,,,,,,,,,,,,,,,,,,,,,,,,,,,,,,,,,,,
,,,,,,,,,,stimuli/images/PICTURE_208.png,SPIRIT,559d9916fdf99b1e2b2dc6b8,10/17/1953,2020-07-09_16h07.36.650,proactive,2020.1.2,Win32,60,5f073de81c76c3308c0e4fb3,5f0778cd07ad2338697f37db,2,,,,,,microphone,,,,,,0,21,21,28,1,3,2,,,,,,,,,,,,,,,,,,,,,,,,,,,,,,,,,,,,,,,,,,,,,,,,,,,,,,,,,,,,,,,,,,,,,,,,,,,
,,,,,,,,,,stimuli/images/PICTURE_123.png,SALE,559d9916fdf99b1e2b2dc6b8,10/17/1953,2020-07-09_16h07.36.650,proactive,2020.1.2,Win32,60,5f073de81c76c3308c0e4fb3,5f0778cd07ad2338697f37db,2,,,,,,dart,,,,,,0,22,22,8,1,1,2,,,,,,,,,,,,,,,,,,,,,,,,,,,,,,,,,,,,,,,,,,,,,,,,,,,,,,,,,,,,,,,,,,,,,,,,,,,
,,,,,,,,,,stimuli/images/PICTURE_470.png,MOMENT,559d9916fdf99b1e2b2dc6b8,10/17/1953,2020-07-09_16h07.36.650,proactive,2020.1.2,Win32,60,5f073de81c76c3308c0e4fb3,5f0778cd07ad2338697f37db,2,,,,,,motorbike,,,,,,0,23,23,40,1,5,2,,,,,,,,,,,,,,,,,,,,,,,,,,,,,,,,,,,,,,,,,,,,,,,,,,,,,,,,,,,,,,,,,,,,,,,,,,,
,,,,,,,,,,stimuli/images/PICTURE_57.png,CASINO,559d9916fdf99b1e2b2dc6b8,10/17/1953,2020-07-09_16h07.36.650,proactive,2020.1.2,Win32,60,5f073de81c76c3308c0e4fb3,5f0778cd07ad2338697f37db,2,,,,,,stamp,,,,,,0,24,24,12,1,2,2,,,,,,,,,,,,,,,,,,,,,,,,,,,,,,,,,,,,,,,,,,,,,,,,,,,,,,,,,,,,,,,,,,,,,,,,,,,
,,,,,,,,,,stimuli/images/PICTURE_285.png,PRINCE,559d9916fdf99b1e2b2dc6b8,10/17/1953,2020-07-09_16h07.36.650,proactive,2020.1.2,Win32,60,5f073de81c76c3308c0e4fb3,5f0778cd07ad2338697f37db,2,,,,,,carrot,,,,,,0,25,25,20,1,3,2,,,,,,,,,,,,,,,,,,,,,,,,,,,,,,,,,,,,,,,,,,,,,,,,,,,,,,,,,,,,,,,,,,,,,,,,,,,
,,,,,,,,,,stimuli/images/PICTURE_2.png,JUNGLE,559d9916fdf99b1e2b2dc6b8,10/17/1953,2020-07-09_16h07.36.650,proactive,2020.1.2,Win32,60,5f073de81c76c3308c0e4fb3,5f0778cd07ad2338697f37db,2,,,,,,tyre,,,,,,0,26,26,1,1,1,2,,,,,,,,,,,,,,,,,,,,,,,,,,,,,,,,,,,,,,,,,,,,,,,,,,,,,,,,,,,,,,,,,,,,,,,,,,,
,,,,,,,,,,stimuli/images/PICTURE_18.png,RIVER,559d9916fdf99b1e2b2dc6b8,10/17/1953,2020-07-09_16h07.36.650,proactive,2020.1.2,Win32,60,5f073de81c76c3308c0e4fb3,5f0778cd07ad2338697f37db,2,,,,,,planet,,,,,,0,27,27,22,1,3,2,,,,,,,,,,,,,,,,,,,,,,,,,,,,,,,,,,,,,,,,,,,,,,,,,,,,,,,,,,,,,,,,,,,,,,,,,,,
,,,,,,,,,,stimuli/images/PICTURE_667.png,GLASS,559d9916fdf99b1e2b2dc6b8,10/17/1953,2020-07-09_16h07.36.650,proactive,2020.1.2,Win32,60,5f073de81c76c3308c0e4fb3,5f0778cd07ad2338697f37db,2,,,,,,daisy,,,,,,0,28,28,27,1,3,2,,,,,,,,,,,,,,,,,,,,,,,,,,,,,,,,,,,,,,,,,,,,,,,,,,,,,,,,,,,,,,,,,,,,,,,,,,,
,,,,,,,,,,stimuli/images/PICTURE_677.png,FAMILY,559d9916fdf99b1e2b2dc6b8,10/17/1953,2020-07-09_16h07.36.650,proactive,2020.1.2,Win32,60,5f073de81c76c3308c0e4fb3,5f0778cd07ad2338697f37db,2,,,,,,map,,,,,,0,29,29,53,1,6,2,,,,,,,,,,,,,,,,,,,,,,,,,,,,,,,,,,,,,,,,,,,,,,,,,,,,,,,,,,,,,,,,,,,,,,,,,,,
,,,,,,,,,,stimuli/images/PICTURE_487.png,ROOF,559d9916fdf99b1e2b2dc6b8,10/17/1953,2020-07-09_16h07.36.650,proactive,2020.1.2,Win32,60,5f073de81c76c3308c0e4fb3,5f0778cd07ad2338697f37db,2,,,,,,basket,,,,,,0,30,30,50,1,6,2,,,,,,,,,,,,,,,,,,,,,,,,,,,,,,,,,,,,,,,,,,,,,,,,,,,,,,,,,,,,,,,,,,,,,,,,,,,
,,,,,,,,,,stimuli/images/PICTURE_2.png,YARD,559d9916fdf99b1e2b2dc6b8,10/17/1953,2020-07-09_16h07.36.650,proactive,2020.1.2,Win32,60,5f073de81c76c3308c0e4fb3,5f0778cd07ad2338697f37db,2,,,,,,tyre,,,,,,0,31,31,55,1,6,2,,,,,,,,,,,,,,,,,,,,,,,,,,,,,,,,,,,,,,,,,,,,,,,,,,,,,,,,,,,,,,,,,,,,,,,,,,,
,,,,,,,,,,stimuli/images/PICTURE_314.png,SPEECH,559d9916fdf99b1e2b2dc6b8,10/17/1953,2020-07-09_16h07.36.650,proactive,2020.1.2,Win32,60,5f073de81c76c3308c0e4fb3,5f0778cd07ad2338697f37db,2,,,,,,perfume,,,,,,0,32,32,35,1,4,2,,,,,,,,,,,,,,,,,,,,,,,,,,,,,,,,,,,,,,,,,,,,,,,,,,,,,,,,,,,,,,,,,,,,,,,,,,,
,,,,,,,,,,stimuli/images/PICTURE_708.png,VALLEY,559d9916fdf99b1e2b2dc6b8,10/17/1953,2020-07-09_16h07.36.650,proactive,2020.1.2,Win32,60,5f073de81c76c3308c0e4fb3,5f0778cd07ad2338697f37db,2,,,,,,monkey,,,,,,0,33,33,45,1,5,2,,,,,,,,,,,,,,,,,,,,,,,,,,,,,,,,,,,,,,,,,,,,,,,,,,,,,,,,,,,,,,,,,,,,,,,,,,,
,,,,,,,,,,stimuli/images/PICTURE_487.png,POLICY,559d9916fdf99b1e2b2dc6b8,10/17/1953,2020-07-09_16h07.36.650,proactive,2020.1.2,Win32,60,5f073de81c76c3308c0e4fb3,5f0778cd07ad2338697f37db,2,,,,,,basket,,,,,,0,34,34,34,1,4,2,,,,,,,,,,,,,,,,,,,,,,,,,,,,,,,,,,,,,,,,,,,,,,,,,,,,,,,,,,,,,,,,,,,,,,,,,,,
,,,,,,,,,,stimuli/images/PICTURE_654.png,YEAR,559d9916fdf99b1e2b2dc6b8,10/17/1953,2020-07-09_16h07.36.650,proactive,2020.1.2,Win32,60,5f073de81c76c3308c0e4fb3,5f0778cd07ad2338697f37db,2,,,,,,pencil,,,,,,0,35,35,41,1,5,2,,,,,,,,,,,,,,,,,,,,,,,,,,,,,,,,,,,,,,,,,,,,,,,,,,,,,,,,,,,,,,,,,,,,,,,,,,,
,,,,,,,,,,stimuli/images/PICTURE_311.png,FLESH,559d9916fdf99b1e2b2dc6b8,10/17/1953,2020-07-09_16h07.36.650,proactive,2020.1.2,Win32,60,5f073de81c76c3308c0e4fb3,5f0778cd07ad2338697f37db,2,,,,,,razor,,,,,,0,36,36,3,1,1,2,,,,,,,,,,,,,,,,,,,,,,,,,,,,,,,,,,,,,,,,,,,,,,,,,,,,,,,,,,,,,,,,,,,,,,,,,,,
,,,,,,,,,,stimuli/images/PICTURE_692.png,DUDE,559d9916fdf99b1e2b2dc6b8,10/17/1953,2020-07-09_16h07.36.650,proactive,2020.1.2,Win32,60,5f073de81c76c3308c0e4fb3,5f0778cd07ad2338697f37db,2,,,,,,cherry,,,,,,0,37,37,47,1,5,2,,,,,,,,,,,,,,,,,,,,,,,,,,,,,,,,,,,,,,,,,,,,,,,,,,,,,,,,,,,,,,,,,,,,,,,,,,,
,,,,,,,,,,stimuli/images/PICTURE_57.png,CANDY,559d9916fdf99b1e2b2dc6b8,10/17/1953,2020-07-09_16h07.36.650,proactive,2020.1.2,Win32,60,5f073de81c76c3308c0e4fb3,5f0778cd07ad2338697f37db,2,,,,,,stamp,,,,,,0,38,38,52,1,6,2,,,,,,,,,,,,,,,,,,,,,,,,,,,,,,,,,,,,,,,,,,,,,,,,,,,,,,,,,,,,,,,,,,,,,,,,,,,
,,,,,,,,,,stimuli/images/PICTURE_177.png,HOUSE,559d9916fdf99b1e2b2dc6b8,10/17/1953,2020-07-09_16h07.36.650,proactive,2020.1.2,Win32,60,5f073de81c76c3308c0e4fb3,5f0778cd07ad2338697f37db,2,,,,,,mushroom,,,,,,0,39,39,25,1,3,2,,,,,,,,,,,,,,,,,,,,,,,,,,,,,,,,,,,,,,,,,,,,,,,,,,,,,,,,,,,,,,,,,,,,,,,,,,,
,,,,,,,,,,stimuli/images/PICTURE_405.png,JUNGLE,559d9916fdf99b1e2b2dc6b8,10/17/1953,2020-07-09_16h07.36.650,proactive,2020.1.2,Win32,60,5f073de81c76c3308c0e4fb3,5f0778cd07ad2338697f37db,2,,,,,,anchor,,,,,,0,40,40,58,1,6,2,,,,,,,,,,,,,,,,,,,,,,,,,,,,,,,,,,,,,,,,,,,,,,,,,,,,,,,,,,,,,,,,,,,,,,,,,,,
,,,,,,,,,,stimuli/images/PICTURE_215.png,FOOD,559d9916fdf99b1e2b2dc6b8,10/17/1953,2020-07-09_16h07.36.650,proactive,2020.1.2,Win32,60,5f073de81c76c3308c0e4fb3,5f0778cd07ad2338697f37db,2,,,,,,boot,,,,,,0,41,41,5,1,1,2,,,,,,,,,,,,,,,,,,,,,,,,,,,,,,,,,,,,,,,,,,,,,,,,,,,,,,,,,,,,,,,,,,,,,,,,,,,
,,,,,,,,,,stimuli/images/PICTURE_504.png,HOUSE,559d9916fdf99b1e2b2dc6b8,10/17/1953,2020-07-09_16h07.36.650,proactive,2020.1.2,Win32,60,5f073de81c76c3308c0e4fb3,5f0778cd07ad2338697f37db,2,,,,,,wheel,,,,,,0,42,42,36,1,4,2,,,,,,,,,,,,,,,,,,,,,,,,,,,,,,,,,,,,,,,,,,,,,,,,,,,,,,,,,,,,,,,,,,,,,,,,,,,
,,,,,,,,,,stimuli/images/PICTURE_509.png,MILLER,559d9916fdf99b1e2b2dc6b8,10/17/1953,2020-07-09_16h07.36.650,proactive,2020.1.2,Win32,60,5f073de81c76c3308c0e4fb3,5f0778cd07ad2338697f37db,2,,,,,,telephone,,,,,,0,43,43,49,1,5,2,,,,,,,,,,,,,,,,,,,,,,,,,,,,,,,,,,,,,,,,,,,,,,,,,,,,,,,,,,,,,,,,,,,,,,,,,,,
,,,,,,,,,,stimuli/images/PICTURE_93.png,GIRL,559d9916fdf99b1e2b2dc6b8,10/17/1953,2020-07-09_16h07.36.650,proactive,2020.1.2,Win32,60,5f073de81c76c3308c0e4fb3,5f0778cd07ad2338697f37db,2,,,,,,skateboard,,,,,,0,44,44,31,1,4,2,,,,,,,,,,,,,,,,,,,,,,,,,,,,,,,,,,,,,,,,,,,,,,,,,,,,,,,,,,,,,,,,,,,,,,,,,,,
,,,,,,,,,,stimuli/images/PICTURE_688.png,CLOCK,559d9916fdf99b1e2b2dc6b8,10/17/1953,2020-07-09_16h07.36.650,proactive,2020.1.2,Win32,60,5f073de81c76c3308c0e4fb3,5f0778cd07ad2338697f37db,2,,,,,,runner,,,,,,0,45,45,42,1,5,2,,,,,,,,,,,,,,,,,,,,,,,,,,,,,,,,,,,,,,,,,,,,,,,,,,,,,,,,,,,,,,,,,,,,,,,,,,,
,,,,,,,,,,stimuli/images/PICTURE_564.png,PLENTY,559d9916fdf99b1e2b2dc6b8,10/17/1953,2020-07-09_16h07.36.650,proactive,2020.1.2,Win32,60,5f073de81c76c3308c0e4fb3,5f0778cd07ad2338697f37db,2,,,,,,spoon,,,,,,0,46,46,11,1,2,2,,,,,,,,,,,,,,,,,,,,,,,,,,,,,,,,,,,,,,,,,,,,,,,,,,,,,,,,,,,,,,,,,,,,,,,,,,,
,,,,,,,,,,stimuli/images/PICTURE_255.png,PENNY,559d9916fdf99b1e2b2dc6b8,10/17/1953,2020-07-09_16h07.36.650,proactive,2020.1.2,Win32,60,5f073de81c76c3308c0e4fb3,5f0778cd07ad2338697f37db,2,,,,,,shovel,,,,,,0,47,47,19,1,2,2,,,,,,,,,,,,,,,,,,,,,,,,,,,,,,,,,,,,,,,,,,,,,,,,,,,,,,,,,,,,,,,,,,,,,,,,,,,
,,,,,,,,,,stimuli/images/PICTURE_32.png,LETTER,559d9916fdf99b1e2b2dc6b8,10/17/1953,2020-07-09_16h07.36.650,proactive,2020.1.2,Win32,60,5f073de81c76c3308c0e4fb3,5f0778cd07ad2338697f37db,2,,,,,,crown,,,,,,0,48,48,56,1,6,2,,,,,,,,,,,,,,,,,,,,,,,,,,,,,,,,,,,,,,,,,,,,,,,,,,,,,,,,,,,,,,,,,,,,,,,,,,,
,,,,,,,,,,stimuli/images/PICTURE_509.png,APPLE,559d9916fdf99b1e2b2dc6b8,10/17/1953,2020-07-09_16h07.36.650,proactive,2020.1.2,Win32,60,5f073de81c76c3308c0e4fb3,5f0778cd07ad2338697f37db,2,,,,,,telephone,,,,,,0,49,49,38,1,4,2,,,,,,,,,,,,,,,,,,,,,,,,,,,,,,,,,,,,,,,,,,,,,,,,,,,,,,,,,,,,,,,,,,,,,,,,,,,
,,,,,,,,,,stimuli/images/PICTURE_2.png,AREA,559d9916fdf99b1e2b2dc6b8,10/17/1953,2020-07-09_16h07.36.650,proactive,2020.1.2,Win32,60,5f073de81c76c3308c0e4fb3,5f0778cd07ad2338697f37db,2,,,,,,tyre,,,,,,0,50,50,32,1,4,2,,,,,,,,,,,,,,,,,,,,,,,,,,,,,,,,,,,,,,,,,,,,,,,,,,,,,,,,,,,,,,,,,,,,,,,,,,,
,,,,,,,,,,stimuli/images/PICTURE_33.png,COPS,559d9916fdf99b1e2b2dc6b8,10/17/1953,2020-07-09_16h07.36.650,proactive,2020.1.2,Win32,60,5f073de81c76c3308c0e4fb3,5f0778cd07ad2338697f37db,2,,,,,,frame,,,,,,0,51,51,29,1,3,2,,,,,,,,,,,,,,,,,,,,,,,,,,,,,,,,,,,,,,,,,,,,,,,,,,,,,,,,,,,,,,,,,,,,,,,,,,,
,,,,,,,,,,stimuli/images/PICTURE_750.png,POLICY,559d9916fdf99b1e2b2dc6b8,10/17/1953,2020-07-09_16h07.36.650,proactive,2020.1.2,Win32,60,5f073de81c76c3308c0e4fb3,5f0778cd07ad2338697f37db,2,,,,,,kettle,,,,,,0,52,52,44,1,5,2,,,,,,,,,,,,,,,,,,,,,,,,,,,,,,,,,,,,,,,,,,,,,,,,,,,,,,,,,,,,,,,,,,,,,,,,,,,
,,,,,,,,,,stimuli/images/PICTURE_491.png,SERIES,559d9916fdf99b1e2b2dc6b8,10/17/1953,2020-07-09_16h07.36.650,proactive,2020.1.2,Win32,60,5f073de81c76c3308c0e4fb3,5f0778cd07ad2338697f37db,2,,,,,,rug,,,,,,0,53,53,39,1,4,2,,,,,,,,,,,,,,,,,,,,,,,,,,,,,,,,,,,,,,,,,,,,,,,,,,,,,,,,,,,,,,,,,,,,,,,,,,,
,,,,,,,,,,stimuli/images/PICTURE_285.png,WRITER,559d9916fdf99b1e2b2dc6b8,10/17/1953,2020-07-09_16h07.36.650,proactive,2020.1.2,Win32,60,5f073de81c76c3308c0e4fb3,5f0778cd07ad2338697f37db,2,,,,,,carrot,,,,,,0,54,54,6,1,1,2,,,,,,,,,,,,,,,,,,,,,,,,,,,,,,,,,,,,,,,,,,,,,,,,,,,,,,,,,,,,,,,,,,,,,,,,,,,
,,,,,,,,,,stimuli/images/PICTURE_655.png,SALE,559d9916fdf99b1e2b2dc6b8,10/17/1953,2020-07-09_16h07.36.650,proactive,2020.1.2,Win32,60,5f073de81c76c3308c0e4fb3,5f0778cd07ad2338697f37db,2,,,,,,megaphone,,,,,,0,55,55,57,1,6,2,,,,,,,,,,,,,,,,,,,,,,,,,,,,,,,,,,,,,,,,,,,,,,,,,,,,,,,,,,,,,,,,,,,,,,,,,,,
,,,,,,,,,,stimuli/images/PICTURE_405.png,JUNGLE,559d9916fdf99b1e2b2dc6b8,10/17/1953,2020-07-09_16h07.36.650,proactive,2020.1.2,Win32,60,5f073de81c76c3308c0e4fb3,5f0778cd07ad2338697f37db,2,,,,,,anchor,,,,,,0,56,56,13,1,2,2,,,,,,,,,,,,,,,,,,,,,,,,,,,,,,,,,,,,,,,,,,,,,,,,,,,,,,,,,,,,,,,,,,,,,,,,,,,
,,,,,,,,,,stimuli/images/PICTURE_654.png,COPS,559d9916fdf99b1e2b2dc6b8,10/17/1953,2020-07-09_16h07.36.650,proactive,2020.1.2,Win32,60,5f073de81c76c3308c0e4fb3,5f0778cd07ad2338697f37db,2,,,,,,pencil,,,,,,0,57,57,10,1,2,2,,,,,,,,,,,,,,,,,,,,,,,,,,,,,,,,,,,,,,,,,,,,,,,,,,,,,,,,,,,,,,,,,,,,,,,,,,,
,,,,,,,,,,stimuli/images/PICTURE_296.png,CLOCK,559d9916fdf99b1e2b2dc6b8,10/17/1953,2020-07-09_16h07.36.650,proactive,2020.1.2,Win32,60,5f073de81c76c3308c0e4fb3,5f0778cd07ad2338697f37db,2,,,,,,bolt,,,,,,0,58,58,18,1,2,2,,,,,,,,,,,,,,,,,,,,,,,,,,,,,,,,,,,,,,,,,,,,,,,,,,,,,,,,,,,,,,,,,,,,,,,,,,,
,,?,0.00278,0,,,,,,stimuli/images/PICTURE_215.png,LEADER,559d9916fdf99b1e2b2dc6b8,10/17/1953,2020-07-09_16h07.36.650,proactive,2020.1.2,Win32,60,5f073de81c76c3308c0e4fb3,5f0778cd07ad2338697f37db,2,,,,,,boot,,,,,,,,,,,5,2,0,0,0,43,1,,,,,,,,,,,,,,,,,,,,,,,,,,,,,,,,,,,,,,,,,,,,,,,,,,,,,,,,,,,,,,,,,,,,,,
,,?,15.01165,0,,,,,,stimuli/images/PICTURE_160.png,HOTEL,559d9916fdf99b1e2b2dc6b8,10/17/1953,2020-07-09_16h07.36.650,proactive,2020.1.2,Win32,60,5f073de81c76c3308c0e4fb3,5f0778cd07ad2338697f37db,2,,,,,,wheelbarrow,,,,,,,,,,,2,2,0,1,1,16,1,,,,,,,,,,,,,,,,,,,,,,,,,,,,,,,,,,,,,,,,,,,,,,,,,,,,,,,,,,,,,,,,,,,,,,
,,?,0.001285,0,,,,,,stimuli/images/PICTURE_57.png,NATION,559d9916fdf99b1e2b2dc6b8,10/17/1953,2020-07-09_16h07.36.650,proactive,2020.1.2,Win32,60,5f073de81c76c3308c0e4fb3,5f0778cd07ad2338697f37db,2,,,,,,stamp,,,,,,,,,,,3,2,0,2,2,21,1,,,,,,,,,,,,,,,,,,,,,,,,,,,,,,,,,,,,,,,,,,,,,,,,,,,,,,,,,,,,,,,,,,,,,,
,,?,2.163655,0,,,,,,stimuli/images/PICTURE_296.png,CLOCK,559d9916fdf99b1e2b2dc6b8,10/17/1953,2020-07-09_16h07.36.650,proactive,2020.1.2,Win32,60,5f073de81c76c3308c0e4fb3,5f0778cd07ad2338697f37db,2,,,,,,bolt,,,,,,,,,,,2,2,0,3,3,18,1,,,,,,,,,,,,,,,,,,,,,,,,,,,,,,,,,,,,,,,,,,,,,,,,,,,,,,,,,,,,,,,,,,,,,,
,,?,0.001815,0,,,,,,stimuli/images/PICTURE_311.png,TOILET,559d9916fdf99b1e2b2dc6b8,10/17/1953,2020-07-09_16h07.36.650,proactive,2020.1.2,Win32,60,5f073de81c76c3308c0e4fb3,5f0778cd07ad2338697f37db,2,,,,,,razor,,,,,,,,,,,6,2,0,4,4,54,1,,,,,,,,,,,,,,,,,,,,,,,,,,,,,,,,,,,,,,,,,,,,,,,,,,,,,,,,,,,,,,,,,,,,,,
,,?,0.79256,0,,,,,,stimuli/images/PICTURE_654.png,COPS,559d9916fdf99b1e2b2dc6b8,10/17/1953,2020-07-09_16h07.36.650,proactive,2020.1.2,Win32,60,5f073de81c76c3308c0e4fb3,5f0778cd07ad2338697f37db,2,,,,,,pencil,,,,,,,,,,,2,2,0,5,5,10,1,,,,,,,,,,,,,,,,,,,,,,,,,,,,,,,,,,,,,,,,,,,,,,,,,,,,,,,,,,,,,,,,,,,,,,
,,?,2.4166,0,,,,,,stimuli/images/PICTURE_509.png,BATH,559d9916fdf99b1e2b2dc6b8,10/17/1953,2020-07-09_16h07.36.650,proactive,2020.1.2,Win32,60,5f073de81c76c3308c0e4fb3,5f0778cd07ad2338697f37db,2,,,,,,telephone,,,,,,,,,,,2,2,0,6,6,15,1,,,,,,,,,,,,,,,,,,,,,,,,,,,,,,,,,,,,,,,,,,,,,,,,,,,,,,,,,,,,,,,,,,,,,,
,,?,0.00171,0,,,,,,stimuli/images/PICTURE_285.png,PRINCE,559d9916fdf99b1e2b2dc6b8,10/17/1953,2020-07-09_16h07.36.650,proactive,2020.1.2,Win32,60,5f073de81c76c3308c0e4fb3,5f0778cd07ad2338697f37db,2,,,,,,carrot,,,,,,,,,,,3,2,0,7,7,20,1,,,,,,,,,,,,,,,,,,,,,,,,,,,,,,,,,,,,,,,,,,,,,,,,,,,,,,,,,,,,,,,,,,,,,,
,,?,0.001445,0,,,,,,stimuli/images/PICTURE_348.png,TOILET,559d9916fdf99b1e2b2dc6b8,10/17/1953,2020-07-09_16h07.36.650,proactive,2020.1.2,Win32,60,5f073de81c76c3308c0e4fb3,5f0778cd07ad2338697f37db,2,,,,,,pepper,,,,,,,,,,,1,2,0,8,8,4,1,,,,,,,,,,,,,,,,,,,,,,,,,,,,,,,,,,,,,,,,,,,,,,,,,,,,,,,,,,,,,,,,,,,,,,
,,?,0.00136,0,,,,,,stimuli/images/PICTURE_32.png,LETTER,559d9916fdf99b1e2b2dc6b8,10/17/1953,2020-07-09_16h07.36.650,proactive,2020.1.2,Win32,60,5f073de81c76c3308c0e4fb3,5f0778cd07ad2338697f37db,2,,,,,,crown,,,,,,,,,,,6,2,0,9,9,56,1,,,,,,,,,,,,,,,,,,,,,,,,,,,,,,,,,,,,,,,,,,,,,,,,,,,,,,,,,,,,,,,,,,,,,,
,,PHOTO,3.4559,1,,,,,,stimuli/images/PICTURE_677.png,PHOTO,559d9916fdf99b1e2b2dc6b8,10/17/1953,2020-07-09_16h07.36.650,proactive,2020.1.2,Win32,60,5f073de81c76c3308c0e4fb3,5f0778cd07ad2338697f37db,2,,,,,,map,,,,,,,,,,,2,2,0,10,10,14,1,,,,,,,,,,,,,,,,,,,,,,,,,,,,,,,,,,,,,,,,,,,,,,,,,,,,,,,,,,,,,,,,,,,,,,
,,?,0.001785,0,,,,,,stimuli/images/PICTURE_141.png,CLIENT,559d9916fdf99b1e2b2dc6b8,10/17/1953,2020-07-09_16h07.36.650,proactive,2020.1.2,Win32,60,5f073de81c76c3308c0e4fb3,5f0778cd07ad2338697f37db,2,,,,,,sunflower,,,,,,,,,,,4,2,0,11,11,30,1,,,,,,,,,,,,,,,,,,,,,,,,,,,,,,,,,,,,,,,,,,,,,,,,,,,,,,,,,,,,,,,,,,,,,,
,,?,0.00179,0,,,,,,stimuli/images/PICTURE_470.png,MOMENT,559d9916fdf99b1e2b2dc6b8,10/17/1953,2020-07-09_16h07.36.650,proactive,2020.1.2,Win32,60,5f073de81c76c3308c0e4fb3,5f0778cd07ad2338697f37db,2,,,,,,motorbike,,,,,,,,,,,5,2,0,12,12,40,1,,,,,,,,,,,,,,,,,,,,,,,,,,,,,,,,,,,,,,,,,,,,,,,,,,,,,,,,,,,,,,,,,,,,,,
,,?,0.004615,0,,,,,,stimuli/images/PICTURE_215.png,BOYS,559d9916fdf99b1e2b2dc6b8,10/17/1953,2020-07-09_16h07.36.650,proactive,2020.1.2,Win32,60,5f073de81c76c3308c0e4fb3,5f0778cd07ad2338697f37db,2,,,,,,boot,,,,,,,,,,,3,2,0,13,13,24,1,,,,,,,,,,,,,,,,,,,,,,,,,,,,,,,,,,,,,,,,,,,,,,,,,,,,,,,,,,,,,,,,,,,,,,
,,?,2.582155,0,,,,,,stimuli/images/PICTURE_57.png,CASINO,559d9916fdf99b1e2b2dc6b8,10/17/1953,2020-07-09_16h07.36.650,proactive,2020.1.2,Win32,60,5f073de81c76c3308c0e4fb3,5f0778cd07ad2338697f37db,2,,,,,,stamp,,,,,,,,,,,2,2,0,14,14,12,1,,,,,,,,,,,,,,,,,,,,,,,,,,,,,,,,,,,,,,,,,,,,,,,,,,,,,,,,,,,,,,,,,,,,,,
,,?,0.00166,0,,,,,,stimuli/images/PICTURE_285.png,WRITER,559d9916fdf99b1e2b2dc6b8,10/17/1953,2020-07-09_16h07.36.650,proactive,2020.1.2,Win32,60,5f073de81c76c3308c0e4fb3,5f0778cd07ad2338697f37db,2,,,,,,carrot,,,,,,,,,,,1,2,0,15,15,6,1,,,,,,,,,,,,,,,,,,,,,,,,,,,,,,,,,,,,,,,,,,,,,,,,,,,,,,,,,,,,,,,,,,,,,,
,,?,0.00143,0,,,,,,stimuli/images/PICTURE_33.png,COPS,559d9916fdf99b1e2b2dc6b8,10/17/1953,2020-07-09_16h07.36.650,proactive,2020.1.2,Win32,60,5f073de81c76c3308c0e4fb3,5f0778cd07ad2338697f37db,2,,,,,,frame,,,,,,,,,,,3,2,0,16,16,29,1,,,,,,,,,,,,,,,,,,,,,,,,,,,,,,,,,,,,,,,,,,,,,,,,,,,,,,,,,,,,,,,,,,,,,,
,,?,0.57418,0,,,,,,stimuli/images/PICTURE_255.png,PENNY,559d9916fdf99b1e2b2dc6b8,10/17/1953,2020-07-09_16h07.36.650,proactive,2020.1.2,Win32,60,5f073de81c76c3308c0e4fb3,5f0778cd07ad2338697f37db,2,,,,,,shovel,,,,,,,,,,,2,2,0,17,17,19,1,,,,,,,,,,,,,,,,,,,,,,,,,,,,,,,,,,,,,,,,,,,,,,,,,,,,,,,,,,,,,,,,,,,,,,
,,?,0.001895,0,,,,,,stimuli/images/PICTURE_405.png,HOUSE,559d9916fdf99b1e2b2dc6b8,10/17/1953,2020-07-09_16h07.36.650,proactive,2020.1.2,Win32,60,5f073de81c76c3308c0e4fb3,5f0778cd07ad2338697f37db,2,,,,,,anchor,,,,,,,,,,,1,2,0,18,18,2,1,,,,,,,,,,,,,,,,,,,,,,,,,,,,,,,,,,,,,,,,,,,,,,,,,,,,,,,,,,,,,,,,,,,,,,
,,?,0.001655,0,,,,,,stimuli/images/PICTURE_655.png,SALE,559d9916fdf99b1e2b2dc6b8,10/17/1953,2020-07-09_16h07.36.650,proactive,2020.1.2,Win32,60,5f073de81c76c3308c0e4fb3,5f0778cd07ad2338697f37db,2,,,,,,megaphone,,,,,,,,,,,6,2,0,19,19,57,1,,,,,,,,,,,,,,,,,,,,,,,,,,,,,,,,,,,,,,,,,,,,,,,,,,,,,,,,,,,,,,,,,,,,,,
,,?,0.00168,0,,,,,,stimuli/images/PICTURE_68.png,KIND,559d9916fdf99b1e2b2dc6b8,10/17/1953,2020-07-09_16h07.36.650,proactive,2020.1.2,Win32,60,5f073de81c76c3308c0e4fb3,5f0778cd07ad2338697f37db,2,,,,,,candle,,,,,,,,,,,3,2,0,20,20,23,1,,,,,,,,,,,,,,,,,,,,,,,,,,,,,,,,,,,,,,,,,,,,,,,,,,,,,,,,,,,,,,,,,,,,,,
,,?,0.0024,0,,,,,,stimuli/images/PICTURE_487.png,POLICY,559d9916fdf99b1e2b2dc6b8,10/17/1953,2020-07-09_16h07.36.650,proactive,2020.1.2,Win32,60,5f073de81c76c3308c0e4fb3,5f0778cd07ad2338697f37db,2,,,,,,basket,,,,,,,,,,,4,2,0,21,21,34,1,,,,,,,,,,,,,,,,,,,,,,,,,,,,,,,,,,,,,,,,,,,,,,,,,,,,,,,,,,,,,,,,,,,,,,
,,?,0.002965,0,,,,,,stimuli/images/PICTURE_708.png,VALLEY,559d9916fdf99b1e2b2dc6b8,10/17/1953,2020-07-09_16h07.36.650,proactive,2020.1.2,Win32,60,5f073de81c76c3308c0e4fb3,5f0778cd07ad2338697f37db,2,,,,,,monkey,,,,,,,,,,,5,2,0,22,22,45,1,,,,,,,,,,,,,,,,,,,,,,,,,,,,,,,,,,,,,,,,,,,,,,,,,,,,,,,,,,,,,,,,,,,,,,
,,?,0.002,0,,,,,,stimuli/images/PICTURE_487.png,ROOF,559d9916fdf99b1e2b2dc6b8,10/17/1953,2020-07-09_16h07.36.650,proactive,2020.1.2,Win32,60,5f073de81c76c3308c0e4fb3,5f0778cd07ad2338697f37db,2,,,,,,basket,,,,,,,,,,,6,2,0,23,23,50,1,,,,,,,,,,,,,,,,,,,,,,,,,,,,,,,,,,,,,,,,,,,,,,,,,,,,,,,,,,,,,,,,,,,,,,
,,?,0.00181,0,,,,,,stimuli/images/PICTURE_750.png,POLICY,559d9916fdf99b1e2b2dc6b8,10/17/1953,2020-07-09_16h07.36.650,proactive,2020.1.2,Win32,60,5f073de81c76c3308c0e4fb3,5f0778cd07ad2338697f37db,2,,,,,,kettle,,,,,,,,,,,5,2,0,24,24,44,1,,,,,,,,,,,,,,,,,,,,,,,,,,,,,,,,,,,,,,,,,,,,,,,,,,,,,,,,,,,,,,,,,,,,,,
,,?,0.00103,0,,,,,,stimuli/images/PICTURE_123.png,SALE,559d9916fdf99b1e2b2dc6b8,10/17/1953,2020-07-09_16h07.36.650,proactive,2020.1.2,Win32,60,5f073de81c76c3308c0e4fb3,5f0778cd07ad2338697f37db,2,,,,,,dart,,,,,,,,,,,1,2,0,25,25,8,1,,,,,,,,,,,,,,,,,,,,,,,,,,,,,,,,,,,,,,,,,,,,,,,,,,,,,,,,,,,,,,,,,,,,,,
,,?,0.000875,0,,,,,,stimuli/images/PICTURE_654.png,YEAR,559d9916fdf99b1e2b2dc6b8,10/17/1953,2020-07-09_16h07.36.650,proactive,2020.1.2,Win32,60,5f073de81c76c3308c0e4fb3,5f0778cd07ad2338697f37db,2,,,,,,pencil,,,,,,,,,,,5,2,0,26,26,41,1,,,,,,,,,,,,,,,,,,,,,,,,,,,,,,,,,,,,,,,,,,,,,,,,,,,,,,,,,,,,,,,,,,,,,,
,,?,0.000805,0,,,,,,stimuli/images/PICTURE_2.png,JUNGLE,559d9916fdf99b1e2b2dc6b8,10/17/1953,2020-07-09_16h07.36.650,proactive,2020.1.2,Win32,60,5f073de81c76c3308c0e4fb3,5f0778cd07ad2338697f37db,2,,,,,,tyre,,,,,,,,,,,1,2,0,27,27,1,1,,,,,,,,,,,,,,,,,,,,,,,,,,,,,,,,,,,,,,,,,,,,,,,,,,,,,,,,,,,,,,,,,,,,,,
,,?,0.000855,0,,,,,,stimuli/images/PICTURE_405.png,JUNGLE,559d9916fdf99b1e2b2dc6b8,10/17/1953,2020-07-09_16h07.36.650,proactive,2020.1.2,Win32,60,5f073de81c76c3308c0e4fb3,5f0778cd07ad2338697f37db,2,,,,,,anchor,,,,,,,,,,,6,2,0,28,28,58,1,,,,,,,,,,,,,,,,,,,,,,,,,,,,,,,,,,,,,,,,,,,,,,,,,,,,,,,,,,,,,,,,,,,,,,
,,?,0.000805,0,,,,,,stimuli/images/PICTURE_356.png,CANDY,559d9916fdf99b1e2b2dc6b8,10/17/1953,2020-07-09_16h07.36.650,proactive,2020.1.2,Win32,60,5f073de81c76c3308c0e4fb3,5f0778cd07ad2338697f37db,2,,,,,,pawn,,,,,,,,,,,5,2,0,29,29,46,1,,,,,,,,,,,,,,,,,,,,,,,,,,,,,,,,,,,,,,,,,,,,,,,,,,,,,,,,,,,,,,,,,,,,,,
,,?,0.001245,0,,,,,,stimuli/images/PICTURE_688.png,CLOCK,559d9916fdf99b1e2b2dc6b8,10/17/1953,2020-07-09_16h07.36.650,proactive,2020.1.2,Win32,60,5f073de81c76c3308c0e4fb3,5f0778cd07ad2338697f37db,2,,,,,,runner,,,,,,,,,,,5,2,0,30,30,42,1,,,,,,,,,,,,,,,,,,,,,,,,,,,,,,,,,,,,,,,,,,,,,,,,,,,,,,,,,,,,,,,,,,,,,,
,,?,0.00085,0,,,,,,stimuli/images/PICTURE_348.png,DUDE,559d9916fdf99b1e2b2dc6b8,10/17/1953,2020-07-09_16h07.36.650,proactive,2020.1.2,Win32,60,5f073de81c76c3308c0e4fb3,5f0778cd07ad2338697f37db,2,,,,,,pepper,,,,,,,,,,,6,2,0,31,31,59,1,,,,,,,,,,,,,,,,,,,,,,,,,,,,,,,,,,,,,,,,,,,,,,,,,,,,,,,,,,,,,,,,,,,,,,
,,?,0.00085,0,,,,,,stimuli/images/PICTURE_147.png,LEADER,559d9916fdf99b1e2b2dc6b8,10/17/1953,2020-07-09_16h07.36.650,proactive,2020.1.2,Win32,60,5f073de81c76c3308c0e4fb3,5f0778cd07ad2338697f37db,2,,,,,,hanger,,,,,,,,,,,4,2,0,32,32,33,1,,,,,,,,,,,,,,,,,,,,,,,,,,,,,,,,,,,,,,,,,,,,,,,,,,,,,,,,,,,,,,,,,,,,,,
,,?,0.00083,0,,,,,,stimuli/images/PICTURE_470.png,BEAUTY,559d9916fdf99b1e2b2dc6b8,10/17/1953,2020-07-09_16h07.36.650,proactive,2020.1.2,Win32,60,5f073de81c76c3308c0e4fb3,5f0778cd07ad2338697f37db,2,,,,,,motorbike,,,,,,,,,,,3,2,0,33,33,26,1,,,,,,,,,,,,,,,,,,,,,,,,,,,,,,,,,,,,,,,,,,,,,,,,,,,,,,,,,,,,,,,,,,,,,,
,,?,0.000945,0,,,,,,stimuli/images/PICTURE_509.png,SHOTS,559d9916fdf99b1e2b2dc6b8,10/17/1953,2020-07-09_16h07.36.650,proactive,2020.1.2,Win32,60,5f073de81c76c3308c0e4fb3,5f0778cd07ad2338697f37db,2,,,,,,telephone,,,,,,,,,,,1,2,0,34,34,7,1,,,,,,,,,,,,,,,,,,,,,,,,,,,,,,,,,,,,,,,,,,,,,,,,,,,,,,,,,,,,,,,,,,,,,,
,,?,0.002315,0,,,,,,stimuli/images/PICTURE_297.png,BODY,559d9916fdf99b1e2b2dc6b8,10/17/1953,2020-07-09_16h07.36.650,proactive,2020.1.2,Win32,60,5f073de81c76c3308c0e4fb3,5f0778cd07ad2338697f37db,2,,,,,,aeroplane,,,,,,,,,,,6,2,0,35,35,51,1,,,,,,,,,,,,,,,,,,,,,,,,,,,,,,,,,,,,,,,,,,,,,,,,,,,,,,,,,,,,,,,,,,,,,,
,,?,0.001255,0,,,,,,stimuli/images/PICTURE_2.png,AREA,559d9916fdf99b1e2b2dc6b8,10/17/1953,2020-07-09_16h07.36.650,proactive,2020.1.2,Win32,60,5f073de81c76c3308c0e4fb3,5f0778cd07ad2338697f37db,2,,,,,,tyre,,,,,,,,,,,4,2,0,36,36,32,1,,,,,,,,,,,,,,,,,,,,,,,,,,,,,,,,,,,,,,,,,,,,,,,,,,,,,,,,,,,,,,,,,,,,,,
,,?,0.00066,0,,,,,,stimuli/images/PICTURE_509.png,MILLER,559d9916fdf99b1e2b2dc6b8,10/17/1953,2020-07-09_16h07.36.650,proactive,2020.1.2,Win32,60,5f073de81c76c3308c0e4fb3,5f0778cd07ad2338697f37db,2,,,,,,telephone,,,,,,,,,,,5,2,0,37,37,49,1,,,,,,,,,,,,,,,,,,,,,,,,,,,,,,,,,,,,,,,,,,,,,,,,,,,,,,,,,,,,,,,,,,,,,,
,,LEADER,2.114975,1,,,,,,stimuli/images/PICTURE_327.png,LEADER,559d9916fdf99b1e2b2dc6b8,10/17/1953,2020-07-09_16h07.36.650,proactive,2020.1.2,Win32,60,5f073de81c76c3308c0e4fb3,5f0778cd07ad2338697f37db,2,,,,,,helmet,,,,,,,,,,,2,2,0,38,38,17,1,,,,,,,,,,,,,,,,,,,,,,,,,,,,,,,,,,,,,,,,,,,,,,,,,,,,,,,,,,,,,,,,,,,,,,
,,?,0.0014,0,,,,,,stimuli/images/PICTURE_692.png,DUDE,559d9916fdf99b1e2b2dc6b8,10/17/1953,2020-07-09_16h07.36.650,proactive,2020.1.2,Win32,60,5f073de81c76c3308c0e4fb3,5f0778cd07ad2338697f37db,2,,,,,,cherry,,,,,,,,,,,5,2,0,39,39,47,1,,,,,,,,,,,,,,,,,,,,,,,,,,,,,,,,,,,,,,,,,,,,,,,,,,,,,,,,,,,,,,,,,,,,,,
,,?,3.464105,0,,,,,,stimuli/images/PICTURE_405.png,JUNGLE,559d9916fdf99b1e2b2dc6b8,10/17/1953,2020-07-09_16h07.36.650,proactive,2020.1.2,Win32,60,5f073de81c76c3308c0e4fb3,5f0778cd07ad2338697f37db,2,,,,,,anchor,,,,,,,,,,,2,2,0,40,40,13,1,,,,,,,,,,,,,,,,,,,,,,,,,,,,,,,,,,,,,,,,,,,,,,,,,,,,,,,,,,,,,,,,,,,,,,
,,PLENTY,3.50053,1,,,,,,stimuli/images/PICTURE_564.png,PLENTY,559d9916fdf99b1e2b2dc6b8,10/17/1953,2020-07-09_16h07.36.650,proactive,2020.1.2,Win32,60,5f073de81c76c3308c0e4fb3,5f0778cd07ad2338697f37db,2,,,,,,spoon,,,,,,,,,,,2,2,0,41,41,11,1,,,,,,,,,,,,,,,,,,,,,,,,,,,,,,,,,,,,,,,,,,,,,,,,,,,,,,,,,,,,,,,,,,,,,,
,,?,0.000705,0,,,,,,stimuli/images/PICTURE_491.png,SERIES,559d9916fdf99b1e2b2dc6b8,10/17/1953,2020-07-09_16h07.36.650,proactive,2020.1.2,Win32,60,5f073de81c76c3308c0e4fb3,5f0778cd07ad2338697f37db,2,,,,,,rug,,,,,,,,,,,4,2,0,42,42,39,1,,,,,,,,,,,,,,,,,,,,,,,,,,,,,,,,,,,,,,,,,,,,,,,,,,,,,,,,,,,,,,,,,,,,,,
,,?,0.000675,0,,,,,,stimuli/images/PICTURE_18.png,RIVER,559d9916fdf99b1e2b2dc6b8,10/17/1953,2020-07-09_16h07.36.650,proactive,2020.1.2,Win32,60,5f073de81c76c3308c0e4fb3,5f0778cd07ad2338697f37db,2,,,,,,planet,,,,,,,,,,,3,2,0,43,43,22,1,,,,,,,,,,,,,,,,,,,,,,,,,,,,,,,,,,,,,,,,,,,,,,,,,,,,,,,,,,,,,,,,,,,,,,
,,?,0.000675,0,,,,,,stimuli/images/PICTURE_667.png,GLASS,559d9916fdf99b1e2b2dc6b8,10/17/1953,2020-07-09_16h07.36.650,proactive,2020.1.2,Win32,60,5f073de81c76c3308c0e4fb3,5f0778cd07ad2338697f37db,2,,,,,,daisy,,,,,,,,,,,3,2,0,44,44,27,1,,,,,,,,,,,,,,,,,,,,,,,,,,,,,,,,,,,,,,,,,,,,,,,,,,,,,,,,,,,,,,,,,,,,,,
,,?,0.000695,0,,,,,,stimuli/images/PICTURE_95.png,NIGHT,559d9916fdf99b1e2b2dc6b8,10/17/1953,2020-07-09_16h07.36.650,proactive,2020.1.2,Win32,60,5f073de81c76c3308c0e4fb3,5f0778cd07ad2338697f37db,2,,,,,,suitcase,,,,,,,,,,,4,2,0,45,45,37,1,,,,,,,,,,,,,,,,,,,,,,,,,,,,,,,,,,,,,,,,,,,,,,,,,,,,,,,,,,,,,,,,,,,,,,
,,?,0.000675,0,,,,,,stimuli/images/PICTURE_452.png,COPS,559d9916fdf99b1e2b2dc6b8,10/17/1953,2020-07-09_16h07.36.650,proactive,2020.1.2,Win32,60,5f073de81c76c3308c0e4fb3,5f0778cd07ad2338697f37db,2,,,,,,watch,,,,,,,,,,,1,2,0,46,46,0,1,,,,,,,,,,,,,,,,,,,,,,,,,,,,,,,,,,,,,,,,,,,,,,,,,,,,,,,,,,,,,,,,,,,,,,
,,?,0.000645,0,,,,,,stimuli/images/PICTURE_208.png,SPIRIT,559d9916fdf99b1e2b2dc6b8,10/17/1953,2020-07-09_16h07.36.650,proactive,2020.1.2,Win32,60,5f073de81c76c3308c0e4fb3,5f0778cd07ad2338697f37db,2,,,,,,microphone,,,,,,,,,,,3,2,0,47,47,28,1,,,,,,,,,,,,,,,,,,,,,,,,,,,,,,,,,,,,,,,,,,,,,,,,,,,,,,,,,,,,,,,,,,,,,,
,,?,0.00075,0,,,,,,stimuli/images/PICTURE_314.png,SPEECH,559d9916fdf99b1e2b2dc6b8,10/17/1953,2020-07-09_16h07.36.650,proactive,2020.1.2,Win32,60,5f073de81c76c3308c0e4fb3,5f0778cd07ad2338697f37db,2,,,,,,perfume,,,,,,,,,,,4,2,0,48,48,35,1,,,,,,,,,,,,,,,,,,,,,,,,,,,,,,,,,,,,,,,,,,,,,,,,,,,,,,,,,,,,,,,,,,,,,,
,,?,0.000675,0,,,,,,stimuli/images/PICTURE_403.png,FAMILY,559d9916fdf99b1e2b2dc6b8,10/17/1953,2020-07-09_16h07.36.650,proactive,2020.1.2,Win32,60,5f073de81c76c3308c0e4fb3,5f0778cd07ad2338697f37db,2,,,,,,cathedral,,,,,,,,,,,1,2,0,49,49,9,1,,,,,,,,,,,,,,,,,,,,,,,,,,,,,,,,,,,,,,,,,,,,,,,,,,,,,,,,,,,,,,,,,,,,,,
,,?,0.00064,0,,,,,,stimuli/images/PICTURE_504.png,HOUSE,559d9916fdf99b1e2b2dc6b8,10/17/1953,2020-07-09_16h07.36.650,proactive,2020.1.2,Win32,60,5f073de81c76c3308c0e4fb3,5f0778cd07ad2338697f37db,2,,,,,,wheel,,,,,,,,,,,4,2,0,50,50,36,1,,,,,,,,,,,,,,,,,,,,,,,,,,,,,,,,,,,,,,,,,,,,,,,,,,,,,,,,,,,,,,,,,,,,,,
,,?,0.001165,0,,,,,,stimuli/images/PICTURE_93.png,GIRL,559d9916fdf99b1e2b2dc6b8,10/17/1953,2020-07-09_16h07.36.650,proactive,2020.1.2,Win32,60,5f073de81c76c3308c0e4fb3,5f0778cd07ad2338697f37db,2,,,,,,skateboard,,,,,,,,,,,4,2,0,51,51,31,1,,,,,,,,,,,,,,,,,,,,,,,,,,,,,,,,,,,,,,,,,,,,,,,,,,,,,,,,,,,,,,,,,,,,,,
,,?,0.002125,0,,,,,,stimuli/images/PICTURE_677.png,FAMILY,559d9916fdf99b1e2b2dc6b8,10/17/1953,2020-07-09_16h07.36.650,proactive,2020.1.2,Win32,60,5f073de81c76c3308c0e4fb3,5f0778cd07ad2338697f37db,2,,,,,,map,,,,,,,,,,,6,2,0,52,52,53,1,,,,,,,,,,,,,,,,,,,,,,,,,,,,,,,,,,,,,,,,,,,,,,,,,,,,,,,,,,,,,,,,,,,,,,
,,?,0.000735,0,,,,,,stimuli/images/PICTURE_311.png,FLESH,559d9916fdf99b1e2b2dc6b8,10/17/1953,2020-07-09_16h07.36.650,proactive,2020.1.2,Win32,60,5f073de81c76c3308c0e4fb3,5f0778cd07ad2338697f37db,2,,,,,,razor,,,,,,,,,,,1,2,0,53,53,3,1,,,,,,,,,,,,,,,,,,,,,,,,,,,,,,,,,,,,,,,,,,,,,,,,,,,,,,,,,,,,,,,,,,,,,,
,,?,0.00065,0,,,,,,stimuli/images/PICTURE_509.png,APPLE,559d9916fdf99b1e2b2dc6b8,10/17/1953,2020-07-09_16h07.36.650,proactive,2020.1.2,Win32,60,5f073de81c76c3308c0e4fb3,5f0778cd07ad2338697f37db,2,,,,,,telephone,,,,,,,,,,,4,2,0,54,54,38,1,,,,,,,,,,,,,,,,,,,,,,,,,,,,,,,,,,,,,,,,,,,,,,,,,,,,,,,,,,,,,,,,,,,,,,
,,?,0.001225,0,,,,,,stimuli/images/PICTURE_57.png,CANDY,559d9916fdf99b1e2b2dc6b8,10/17/1953,2020-07-09_16h07.36.650,proactive,2020.1.2,Win32,60,5f073de81c76c3308c0e4fb3,5f0778cd07ad2338697f37db,2,,,,,,stamp,,,,,,,,,,,6,2,0,55,55,52,1,,,,,,,,,,,,,,,,,,,,,,,,,,,,,,,,,,,,,,,,,,,,,,,,,,,,,,,,,,,,,,,,,,,,,,
,,?,0.001065,0,,,,,,stimuli/images/PICTURE_177.png,HOUSE,559d9916fdf99b1e2b2dc6b8,10/17/1953,2020-07-09_16h07.36.650,proactive,2020.1.2,Win32,60,5f073de81c76c3308c0e4fb3,5f0778cd07ad2338697f37db,2,,,,,,mushroom,,,,,,,,,,,3,2,0,56,56,25,1,,,,,,,,,,,,,,,,,,,,,,,,,,,,,,,,,,,,,,,,,,,,,,,,,,,,,,,,,,,,,,,,,,,,,,
,,?,0.001605,0,,,,,,stimuli/images/PICTURE_2.png,YARD,559d9916fdf99b1e2b2dc6b8,10/17/1953,2020-07-09_16h07.36.650,proactive,2020.1.2,Win32,60,5f073de81c76c3308c0e4fb3,5f0778cd07ad2338697f37db,2,,,,,,tyre,,,,,,,,,,,6,2,0,57,57,55,1,,,,,,,,,,,,,,,,,,,,,,,,,,,,,,,,,,,,,,,,,,,,,,,,,,,,,,,,,,,,,,,,,,,,,,
,,?,0.00107,0,,,,,,stimuli/images/PICTURE_453.png,FAMILY,559d9916fdf99b1e2b2dc6b8,10/17/1953,2020-07-09_16h07.36.650,proactive,2020.1.2,Win32,60,5f073de81c76c3308c0e4fb3,5f0778cd07ad2338697f37db,2,,,,,,scissors,,,,,,,,,,,5,2,0,58,58,48,1,,,,,,,,,,,,,,,,,,,,,,,,,,,,,,,,,,,,,,,,,,,,,,,,,,,,,,,,,,,,,,,,,,,,,,
,,?,0.000925,0,,,,,,stimuli/images/PICTURE_215.png,FOOD,559d9916fdf99b1e2b2dc6b8,10/17/1953,2020-07-09_16h07.36.650,proactive,2020.1.2,Win32,60,5f073de81c76c3308c0e4fb3,5f0778cd07ad2338697f37db,2,,,,,,boot,,,,,,,,,,,1,2,0,59,59,5,1,,,,,,,,,,,,,,,,,,,,,,,,,,,,,,,,,,,,,,,,,,,,,,,,,,,,,,,,,,,,,,,,,,,,,,
,,,,,,,,,,,,559d9916fdf99b1e2b2dc6b8,10/17/1953,2020-07-09_16h07.36.650,proactive,2020.1.2,Win32,60,5f073de81c76c3308c0e4fb3,5f0778cd07ad2338697f37db,2,,,,,,,,,,,,,,,,,,,,,,,,0,1,1,2,1,stimuli/learn-block3.csv,,,,,,,,,,,,,,,,,,,,,,,,,,,,,,,,,,,,,,,,,,,,,,,,,,,,,,,,,,,,,,,,
,,,,,,,,,,stimuli/images/PICTURE_327.png,SERIES,559d9916fdf99b1e2b2dc6b8,10/17/1953,2020-07-09_16h07.36.650,proactive,2020.1.2,Win32,60,5f073de81c76c3308c0e4fb3,5f0778cd07ad2338697f37db,2,,,,,,helmet,,,,,,0,0,0,3,1,1,1,,,,,,,,,,,,,,,,,,,,,,,,,,,,,,,,,,,,,,,,,,,,,,,,,,,,,,,,,,,,,,,,,,,,,,,,,,,
,,,,,,,,,,stimuli/images/PICTURE_203.png,NIGHT,559d9916fdf99b1e2b2dc6b8,10/17/1953,2020-07-09_16h07.36.650,proactive,2020.1.2,Win32,60,5f073de81c76c3308c0e4fb3,5f0778cd07ad2338697f37db,2,,,,,,cap,,,,,,0,1,1,2,1,1,1,,,,,,,,,,,,,,,,,,,,,,,,,,,,,,,,,,,,,,,,,,,,,,,,,,,,,,,,,,,,,,,,,,,,,,,,,,,
,,,,,,,,,,stimuli/images/PICTURE_108.png,POLICY,559d9916fdf99b1e2b2dc6b8,10/17/1953,2020-07-09_16h07.36.650,proactive,2020.1.2,Win32,60,5f073de81c76c3308c0e4fb3,5f0778cd07ad2338697f37db,2,,,,,,calendar,,,,,,0,2,2,22,1,3,1,,,,,,,,,,,,,,,,,,,,,,,,,,,,,,,,,,,,,,,,,,,,,,,,,,,,,,,,,,,,,,,,,,,,,,,,,,,
,,,,,,,,,,stimuli/images/PICTURE_405.png,PLENTY,559d9916fdf99b1e2b2dc6b8,10/17/1953,2020-07-09_16h07.36.650,proactive,2020.1.2,Win32,60,5f073de81c76c3308c0e4fb3,5f0778cd07ad2338697f37db,2,,,,,,anchor,,,,,,0,3,3,23,1,3,1,,,,,,,,,,,,,,,,,,,,,,,,,,,,,,,,,,,,,,,,,,,,,,,,,,,,,,,,,,,,,,,,,,,,,,,,,,,
,,,,,,,,,,stimuli/images/PICTURE_95.png,BOYS,559d9916fdf99b1e2b2dc6b8,10/17/1953,2020-07-09_16h07.36.650,proactive,2020.1.2,Win32,60,5f073de81c76c3308c0e4fb3,5f0778cd07ad2338697f37db,2,,,,,,suitcase,,,,,,0,4,4,1,1,1,1,,,,,,,,,,,,,,,,,,,,,,,,,,,,,,,,,,,,,,,,,,,,,,,,,,,,,,,,,,,,,,,,,,,,,,,,,,,
,,,,,,,,,,stimuli/images/PICTURE_564.png,BATH,559d9916fdf99b1e2b2dc6b8,10/17/1953,2020-07-09_16h07.36.650,proactive,2020.1.2,Win32,60,5f073de81c76c3308c0e4fb3,5f0778cd07ad2338697f37db,2,,,,,,spoon,,,,,,0,5,5,26,1,3,1,,,,,,,,,,,,,,,,,,,,,,,,,,,,,,,,,,,,,,,,,,,,,,,,,,,,,,,,,,,,,,,,,,,,,,,,,,,
,,,,,,,,,,stimuli/images/PICTURE_68.png,ROOF,559d9916fdf99b1e2b2dc6b8,10/17/1953,2020-07-09_16h07.36.650,proactive,2020.1.2,Win32,60,5f073de81c76c3308c0e4fb3,5f0778cd07ad2338697f37db,2,,,,,,candle,,,,,,0,6,6,38,1,4,1,,,,,,,,,,,,,,,,,,,,,,,,,,,,,,,,,,,,,,,,,,,,,,,,,,,,,,,,,,,,,,,,,,,,,,,,,,,
,,,,,,,,,,stimuli/images/PICTURE_32.png,KIND,559d9916fdf99b1e2b2dc6b8,10/17/1953,2020-07-09_16h07.36.650,proactive,2020.1.2,Win32,60,5f073de81c76c3308c0e4fb3,5f0778cd07ad2338697f37db,2,,,,,,crown,,,,,,0,7,7,35,1,4,1,,,,,,,,,,,,,,,,,,,,,,,,,,,,,,,,,,,,,,,,,,,,,,,,,,,,,,,,,,,,,,,,,,,,,,,,,,,
,,,,,,,,,,stimuli/images/PICTURE_491.png,GLASS,559d9916fdf99b1e2b2dc6b8,10/17/1953,2020-07-09_16h07.36.650,proactive,2020.1.2,Win32,60,5f073de81c76c3308c0e4fb3,5f0778cd07ad2338697f37db,2,,,,,,rug,,,,,,0,8,8,14,1,2,1,,,,,,,,,,,,,,,,,,,,,,,,,,,,,,,,,,,,,,,,,,,,,,,,,,,,,,,,,,,,,,,,,,,,,,,,,,,
,,,,,,,,,,stimuli/images/PICTURE_340.png,LETTER,559d9916fdf99b1e2b2dc6b8,10/17/1953,2020-07-09_16h07.36.650,proactive,2020.1.2,Win32,60,5f073de81c76c3308c0e4fb3,5f0778cd07ad2338697f37db,2,,,,,,mirror,,,,,,0,9,9,24,1,3,1,,,,,,,,,,,,,,,,,,,,,,,,,,,,,,,,,,,,,,,,,,,,,,,,,,,,,,,,,,,,,,,,,,,,,,,,,,,
,,,,,,,,,,stimuli/images/PICTURE_285.png,LIFE,559d9916fdf99b1e2b2dc6b8,10/17/1953,2020-07-09_16h07.36.650,proactive,2020.1.2,Win32,60,5f073de81c76c3308c0e4fb3,5f0778cd07ad2338697f37db,2,,,,,,carrot,,,,,,0,10,10,33,1,4,1,,,,,,,,,,,,,,,,,,,,,,,,,,,,,,,,,,,,,,,,,,,,,,,,,,,,,,,,,,,,,,,,,,,,,,,,,,,
,,,,,,,,,,stimuli/images/PICTURE_308.png,FAMILY,559d9916fdf99b1e2b2dc6b8,10/17/1953,2020-07-09_16h07.36.650,proactive,2020.1.2,Win32,60,5f073de81c76c3308c0e4fb3,5f0778cd07ad2338697f37db,2,,,,,,dice,,,,,,0,11,11,36,1,4,1,,,,,,,,,,,,,,,,,,,,,,,,,,,,,,,,,,,,,,,,,,,,,,,,,,,,,,,,,,,,,,,,,,,,,,,,,,,
,,,,,,,,,,stimuli/images/PICTURE_677.png,APPLE,559d9916fdf99b1e2b2dc6b8,10/17/1953,2020-07-09_16h07.36.650,proactive,2020.1.2,Win32,60,5f073de81c76c3308c0e4fb3,5f0778cd07ad2338697f37db,2,,,,,,map,,,,,,0,12,12,43,1,5,1,,,,,,,,,,,,,,,,,,,,,,,,,,,,,,,,,,,,,,,,,,,,,,,,,,,,,,,,,,,,,,,,,,,,,,,,,,,
,,,,,,,,,,stimuli/images/PICTURE_147.png,WOMEN,559d9916fdf99b1e2b2dc6b8,10/17/1953,2020-07-09_16h07.36.650,proactive,2020.1.2,Win32,60,5f073de81c76c3308c0e4fb3,5f0778cd07ad2338697f37db,2,,,,,,hanger,,,,,,0,13,13,7,1,1,1,,,,,,,,,,,,,,,,,,,,,,,,,,,,,,,,,,,,,,,,,,,,,,,,,,,,,,,,,,,,,,,,,,,,,,,,,,,
,,,,,,,,,,stimuli/images/PICTURE_380.png,HONEY,559d9916fdf99b1e2b2dc6b8,10/17/1953,2020-07-09_16h07.36.650,proactive,2020.1.2,Win32,60,5f073de81c76c3308c0e4fb3,5f0778cd07ad2338697f37db,2,,,,,,gorilla,,,,,,0,14,14,19,1,2,1,,,,,,,,,,,,,,,,,,,,,,,,,,,,,,,,,,,,,,,,,,,,,,,,,,,,,,,,,,,,,,,,,,,,,,,,,,,
,,,,,,,,,,stimuli/images/PICTURE_108.png,FLIGHT,559d9916fdf99b1e2b2dc6b8,10/17/1953,2020-07-09_16h07.36.650,proactive,2020.1.2,Win32,60,5f073de81c76c3308c0e4fb3,5f0778cd07ad2338697f37db,2,,,,,,calendar,,,,,,0,15,15,59,1,6,1,,,,,,,,,,,,,,,,,,,,,,,,,,,,,,,,,,,,,,,,,,,,,,,,,,,,,,,,,,,,,,,,,,,,,,,,,,,
,,,,,,,,,,stimuli/images/PICTURE_383.png,WRITER,559d9916fdf99b1e2b2dc6b8,10/17/1953,2020-07-09_16h07.36.650,proactive,2020.1.2,Win32,60,5f073de81c76c3308c0e4fb3,5f0778cd07ad2338697f37db,2,,,,,,coin,,,,,,0,16,16,28,1,3,1,,,,,,,,,,,,,,,,,,,,,,,,,,,,,,,,,,,,,,,,,,,,,,,,,,,,,,,,,,,,,,,,,,,,,,,,,,,
,,,,,,,,,,stimuli/images/PICTURE_85.png,NATION,559d9916fdf99b1e2b2dc6b8,10/17/1953,2020-07-09_16h07.36.650,proactive,2020.1.2,Win32,60,5f073de81c76c3308c0e4fb3,5f0778cd07ad2338697f37db,2,,,,,,diamond,,,,,,0,17,17,5,1,1,1,,,,,,,,,,,,,,,,,,,,,,,,,,,,,,,,,,,,,,,,,,,,,,,,,,,,,,,,,,,,,,,,,,,,,,,,,,,
,,,,,,,,,,stimuli/images/PICTURE_57.png,MOMENT,559d9916fdf99b1e2b2dc6b8,10/17/1953,2020-07-09_16h07.36.650,proactive,2020.1.2,Win32,60,5f073de81c76c3308c0e4fb3,5f0778cd07ad2338697f37db,2,,,,,,stamp,,,,,,0,18,18,37,1,4,1,,,,,,,,,,,,,,,,,,,,,,,,,,,,,,,,,,,,,,,,,,,,,,,,,,,,,,,,,,,,,,,,,,,,,,,,,,,
,,,,,,,,,,stimuli/images/PICTURE_383.png,SERIES,559d9916fdf99b1e2b2dc6b8,10/17/1953,2020-07-09_16h07.36.650,proactive,2020.1.2,Win32,60,5f073de81c76c3308c0e4fb3,5f0778cd07ad2338697f37db,2,,,,,,coin,,,,,,0,19,19,46,1,5,1,,,,,,,,,,,,,,,,,,,,,,,,,,,,,,,,,,,,,,,,,,,,,,,,,,,,,,,,,,,,,,,,,,,,,,,,,,,
,,,,,,,,,,stimuli/images/PICTURE_95.png,MILLER,559d9916fdf99b1e2b2dc6b8,10/17/1953,2020-07-09_16h07.36.650,proactive,2020.1.2,Win32,60,5f073de81c76c3308c0e4fb3,5f0778cd07ad2338697f37db,2,,,,,,suitcase,,,,,,0,20,20,56,1,6,1,,,,,,,,,,,,,,,,,,,,,,,,,,,,,,,,,,,,,,,,,,,,,,,,,,,,,,,,,,,,,,,,,,,,,,,,,,,
,,,,,,,,,,stimuli/images/PICTURE_177.png,WRITER,559d9916fdf99b1e2b2dc6b8,10/17/1953,2020-07-09_16h07.36.650,proactive,2020.1.2,Win32,60,5f073de81c76c3308c0e4fb3,5f0778cd07ad2338697f37db,2,,,,,,mushroom,,,,,,0,21,21,41,1,5,1,,,,,,,,,,,,,,,,,,,,,,,,,,,,,,,,,,,,,,,,,,,,,,,,,,,,,,,,,,,,,,,,,,,,,,,,,,,
,,,,,,,,,,stimuli/images/PICTURE_403.png,RIVER,559d9916fdf99b1e2b2dc6b8,10/17/1953,2020-07-09_16h07.36.650,proactive,2020.1.2,Win32,60,5f073de81c76c3308c0e4fb3,5f0778cd07ad2338697f37db,2,,,,,,cathedral,,,,,,0,22,22,40,1,5,1,,,,,,,,,,,,,,,,,,,,,,,,,,,,,,,,,,,,,,,,,,,,,,,,,,,,,,,,,,,,,,,,,,,,,,,,,,,
,,,,,,,,,,stimuli/images/PICTURE_68.png,MILE,559d9916fdf99b1e2b2dc6b8,10/17/1953,2020-07-09_16h07.36.650,proactive,2020.1.2,Win32,60,5f073de81c76c3308c0e4fb3,5f0778cd07ad2338697f37db,2,,,,,,candle,,,,,,0,23,23,51,1,6,1,,,,,,,,,,,,,,,,,,,,,,,,,,,,,,,,,,,,,,,,,,,,,,,,,,,,,,,,,,,,,,,,,,,,,,,,,,,
,,,,,,,,,,stimuli/images/PICTURE_504.png,COPS,559d9916fdf99b1e2b2dc6b8,10/17/1953,2020-07-09_16h07.36.650,proactive,2020.1.2,Win32,60,5f073de81c76c3308c0e4fb3,5f0778cd07ad2338697f37db,2,,,,,,wheel,,,,,,0,24,24,52,1,6,1,,,,,,,,,,,,,,,,,,,,,,,,,,,,,,,,,,,,,,,,,,,,,,,,,,,,,,,,,,,,,,,,,,,,,,,,,,,
,,,,,,,,,,stimuli/images/PICTURE_85.png,TOILET,559d9916fdf99b1e2b2dc6b8,10/17/1953,2020-07-09_16h07.36.650,proactive,2020.1.2,Win32,60,5f073de81c76c3308c0e4fb3,5f0778cd07ad2338697f37db,2,,,,,,diamond,,,,,,0,25,25,48,1,5,1,,,,,,,,,,,,,,,,,,,,,,,,,,,,,,,,,,,,,,,,,,,,,,,,,,,,,,,,,,,,,,,,,,,,,,,,,,,
,,,,,,,,,,stimuli/images/PICTURE_487.png,GIRL,559d9916fdf99b1e2b2dc6b8,10/17/1953,2020-07-09_16h07.36.650,proactive,2020.1.2,Win32,60,5f073de81c76c3308c0e4fb3,5f0778cd07ad2338697f37db,2,,,,,,basket,,,,,,0,26,26,45,1,5,1,,,,,,,,,,,,,,,,,,,,,,,,,,,,,,,,,,,,,,,,,,,,,,,,,,,,,,,,,,,,,,,,,,,,,,,,,,,
,,,,,,,,,,stimuli/images/PICTURE_203.png,GODS,559d9916fdf99b1e2b2dc6b8,10/17/1953,2020-07-09_16h07.36.650,proactive,2020.1.2,Win32,60,5f073de81c76c3308c0e4fb3,5f0778cd07ad2338697f37db,2,,,,,,cap,,,,,,0,27,27,30,1,4,1,,,,,,,,,,,,,,,,,,,,,,,,,,,,,,,,,,,,,,,,,,,,,,,,,,,,,,,,,,,,,,,,,,,,,,,,,,,
,,,,,,,,,,stimuli/images/PICTURE_655.png,TOILET,559d9916fdf99b1e2b2dc6b8,10/17/1953,2020-07-09_16h07.36.650,proactive,2020.1.2,Win32,60,5f073de81c76c3308c0e4fb3,5f0778cd07ad2338697f37db,2,,,,,,megaphone,,,,,,0,28,28,12,1,2,1,,,,,,,,,,,,,,,,,,,,,,,,,,,,,,,,,,,,,,,,,,,,,,,,,,,,,,,,,,,,,,,,,,,,,,,,,,,
,,,,,,,,,,stimuli/images/PICTURE_339.png,CLIENT,559d9916fdf99b1e2b2dc6b8,10/17/1953,2020-07-09_16h07.36.650,proactive,2020.1.2,Win32,60,5f073de81c76c3308c0e4fb3,5f0778cd07ad2338697f37db,2,,,,,,backpack,,,,,,0,29,29,11,1,2,1,,,,,,,,,,,,,,,,,,,,,,,,,,,,,,,,,,,,,,,,,,,,,,,,,,,,,,,,,,,,,,,,,,,,,,,,,,,
,,,,,,,,,,stimuli/images/PICTURE_667.png,RIVER,559d9916fdf99b1e2b2dc6b8,10/17/1953,2020-07-09_16h07.36.650,proactive,2020.1.2,Win32,60,5f073de81c76c3308c0e4fb3,5f0778cd07ad2338697f37db,2,,,,,,daisy,,,,,,0,30,30,10,1,2,1,,,,,,,,,,,,,,,,,,,,,,,,,,,,,,,,,,,,,,,,,,,,,,,,,,,,,,,,,,,,,,,,,,,,,,,,,,,
,,,,,,,,,,stimuli/images/PICTURE_491.png,RIVER,559d9916fdf99b1e2b2dc6b8,10/17/1953,2020-07-09_16h07.36.650,proactive,2020.1.2,Win32,60,5f073de81c76c3308c0e4fb3,5f0778cd07ad2338697f37db,2,,,,,,rug,,,,,,0,31,31,6,1,1,1,,,,,,,,,,,,,,,,,,,,,,,,,,,,,,,,,,,,,,,,,,,,,,,,,,,,,,,,,,,,,,,,,,,,,,,,,,,
,,,,,,,,,,stimuli/images/PICTURE_296.png,LOTS,559d9916fdf99b1e2b2dc6b8,10/17/1953,2020-07-09_16h07.36.650,proactive,2020.1.2,Win32,60,5f073de81c76c3308c0e4fb3,5f0778cd07ad2338697f37db,2,,,,,,bolt,,,,,,0,32,32,9,1,1,1,,,,,,,,,,,,,,,,,,,,,,,,,,,,,,,,,,,,,,,,,,,,,,,,,,,,,,,,,,,,,,,,,,,,,,,,,,,
,,,,,,,,,,stimuli/images/PICTURE_467.png,POLICY,559d9916fdf99b1e2b2dc6b8,10/17/1953,2020-07-09_16h07.36.650,proactive,2020.1.2,Win32,60,5f073de81c76c3308c0e4fb3,5f0778cd07ad2338697f37db,2,,,,,,peg,,,,,,0,33,33,53,1,6,1,,,,,,,,,,,,,,,,,,,,,,,,,,,,,,,,,,,,,,,,,,,,,,,,,,,,,,,,,,,,,,,,,,,,,,,,,,,
,,,,,,,,,,stimuli/images/PICTURE_296.png,LIFE,559d9916fdf99b1e2b2dc6b8,10/17/1953,2020-07-09_16h07.36.650,proactive,2020.1.2,Win32,60,5f073de81c76c3308c0e4fb3,5f0778cd07ad2338697f37db,2,,,,,,bolt,,,,,,0,34,34,57,1,6,1,,,,,,,,,,,,,,,,,,,,,,,,,,,,,,,,,,,,,,,,,,,,,,,,,,,,,,,,,,,,,,,,,,,,,,,,,,,
,,,,,,,,,,stimuli/images/PICTURE_95.png,HONEY,559d9916fdf99b1e2b2dc6b8,10/17/1953,2020-07-09_16h07.36.650,proactive,2020.1.2,Win32,60,5f073de81c76c3308c0e4fb3,5f0778cd07ad2338697f37db,2,,,,,,suitcase,,,,,,0,35,35,44,1,5,1,,,,,,,,,,,,,,,,,,,,,,,,,,,,,,,,,,,,,,,,,,,,,,,,,,,,,,,,,,,,,,,,,,,,,,,,,,,
,,,,,,,,,,stimuli/images/PICTURE_147.png,YEAR,559d9916fdf99b1e2b2dc6b8,10/17/1953,2020-07-09_16h07.36.650,proactive,2020.1.2,Win32,60,5f073de81c76c3308c0e4fb3,5f0778cd07ad2338697f37db,2,,,,,,hanger,,,,,,0,36,36,21,1,3,1,,,,,,,,,,,,,,,,,,,,,,,,,,,,,,,,,,,,,,,,,,,,,,,,,,,,,,,,,,,,,,,,,,,,,,,,,,,
,,,,,,,,,,stimuli/images/PICTURE_469.png,AGENT,559d9916fdf99b1e2b2dc6b8,10/17/1953,2020-07-09_16h07.36.650,proactive,2020.1.2,Win32,60,5f073de81c76c3308c0e4fb3,5f0778cd07ad2338697f37db,2,,,,,,stool,,,,,,0,37,37,16,1,2,1,,,,,,,,,,,,,,,,,,,,,,,,,,,,,,,,,,,,,,,,,,,,,,,,,,,,,,,,,,,,,,,,,,,,,,,,,,,
,,,,,,,,,,stimuli/images/PICTURE_449.png,DUDE,559d9916fdf99b1e2b2dc6b8,10/17/1953,2020-07-09_16h07.36.650,proactive,2020.1.2,Win32,60,5f073de81c76c3308c0e4fb3,5f0778cd07ad2338697f37db,2,,,,,,bench,,,,,,0,38,38,17,1,2,1,,,,,,,,,,,,,,,,,,,,,,,,,,,,,,,,,,,,,,,,,,,,,,,,,,,,,,,,,,,,,,,,,,,,,,,,,,,
,,,,,,,,,,stimuli/images/PICTURE_675.png,SALE,559d9916fdf99b1e2b2dc6b8,10/17/1953,2020-07-09_16h07.36.650,proactive,2020.1.2,Win32,60,5f073de81c76c3308c0e4fb3,5f0778cd07ad2338697f37db,2,,,,,,windmill,,,,,,0,39,39,47,1,5,1,,,,,,,,,,,,,,,,,,,,,,,,,,,,,,,,,,,,,,,,,,,,,,,,,,,,,,,,,,,,,,,,,,,,,,,,,,,
,,,,,,,,,,stimuli/images/PICTURE_42.png,BOYS,559d9916fdf99b1e2b2dc6b8,10/17/1953,2020-07-09_16h07.36.650,proactive,2020.1.2,Win32,60,5f073de81c76c3308c0e4fb3,5f0778cd07ad2338697f37db,2,,,,,,pear,,,,,,0,40,40,55,1,6,1,,,,,,,,,,,,,,,,,,,,,,,,,,,,,,,,,,,,,,,,,,,,,,,,,,,,,,,,,,,,,,,,,,,,,,,,,,,
,,,,,,,,,,stimuli/images/PICTURE_504.png,YEAR,559d9916fdf99b1e2b2dc6b8,10/17/1953,2020-07-09_16h07.36.650,proactive,2020.1.2,Win32,60,5f073de81c76c3308c0e4fb3,5f0778cd07ad2338697f37db,2,,,,,,wheel,,,,,,0,41,41,13,1,2,1,,,,,,,,,,,,,,,,,,,,,,,,,,,,,,,,,,,,,,,,,,,,,,,,,,,,,,,,,,,,,,,,,,,,,,,,,,,
,,,,,,,,,,stimuli/images/PICTURE_744.png,WEAPON,559d9916fdf99b1e2b2dc6b8,10/17/1953,2020-07-09_16h07.36.650,proactive,2020.1.2,Win32,60,5f073de81c76c3308c0e4fb3,5f0778cd07ad2338697f37db,2,,,,,,ring,,,,,,0,42,42,50,1,6,1,,,,,,,,,,,,,,,,,,,,,,,,,,,,,,,,,,,,,,,,,,,,,,,,,,,,,,,,,,,,,,,,,,,,,,,,,,,
,,,,,,,,,,stimuli/images/PICTURE_2.png,FLIGHT,559d9916fdf99b1e2b2dc6b8,10/17/1953,2020-07-09_16h07.36.650,proactive,2020.1.2,Win32,60,5f073de81c76c3308c0e4fb3,5f0778cd07ad2338697f37db,2,,,,,,tyre,,,,,,0,43,43,15,1,2,1,,,,,,,,,,,,,,,,,,,,,,,,,,,,,,,,,,,,,,,,,,,,,,,,,,,,,,,,,,,,,,,,,,,,,,,,,,,
,,,,,,,,,,stimuli/images/PICTURE_380.png,CANDY,559d9916fdf99b1e2b2dc6b8,10/17/1953,2020-07-09_16h07.36.650,proactive,2020.1.2,Win32,60,5f073de81c76c3308c0e4fb3,5f0778cd07ad2338697f37db,2,,,,,,gorilla,,,,,,0,44,44,0,1,1,1,,,,,,,,,,,,,,,,,,,,,,,,,,,,,,,,,,,,,,,,,,,,,,,,,,,,,,,,,,,,,,,,,,,,,,,,,,,
,,,,,,,,,,stimuli/images/PICTURE_708.png,RECORD,559d9916fdf99b1e2b2dc6b8,10/17/1953,2020-07-09_16h07.36.650,proactive,2020.1.2,Win32,60,5f073de81c76c3308c0e4fb3,5f0778cd07ad2338697f37db,2,,,,,,monkey,,,,,,0,45,45,58,1,6,1,,,,,,,,,,,,,,,,,,,,,,,,,,,,,,,,,,,,,,,,,,,,,,,,,,,,,,,,,,,,,,,,,,,,,,,,,,,
,,,,,,,,,,stimuli/images/PICTURE_340.png,VALLEY,559d9916fdf99b1e2b2dc6b8,10/17/1953,2020-07-09_16h07.36.650,proactive,2020.1.2,Win32,60,5f073de81c76c3308c0e4fb3,5f0778cd07ad2338697f37db,2,,,,,,mirror,,,,,,0,46,46,54,1,6,1,,,,,,,,,,,,,,,,,,,,,,,,,,,,,,,,,,,,,,,,,,,,,,,,,,,,,,,,,,,,,,,,,,,,,,,,,,,
,,,,,,,,,,stimuli/images/PICTURE_405.png,YEAR,559d9916fdf99b1e2b2dc6b8,10/17/1953,2020-07-09_16h07.36.650,proactive,2020.1.2,Win32,60,5f073de81c76c3308c0e4fb3,5f0778cd07ad2338697f37db,2,,,,,,anchor,,,,,,0,47,47,34,1,4,1,,,,,,,,,,,,,,,,,,,,,,,,,,,,,,,,,,,,,,,,,,,,,,,,,,,,,,,,,,,,,,,,,,,,,,,,,,,
,,,,,,,,,,stimuli/images/PICTURE_208.png,SYSTEM,559d9916fdf99b1e2b2dc6b8,10/17/1953,2020-07-09_16h07.36.650,proactive,2020.1.2,Win32,60,5f073de81c76c3308c0e4fb3,5f0778cd07ad2338697f37db,2,,,,,,microphone,,,,,,0,48,48,32,1,4,1,,,,,,,,,,,,,,,,,,,,,,,,,,,,,,,,,,,,,,,,,,,,,,,,,,,,,,,,,,,,,,,,,,,,,,,,,,,
,,,,,,,,,,stimuli/images/PICTURE_685.png,PENNY,559d9916fdf99b1e2b2dc6b8,10/17/1953,2020-07-09_16h07.36.650,proactive,2020.1.2,Win32,60,5f073de81c76c3308c0e4fb3,5f0778cd07ad2338697f37db,2,,,,,,goose,,,,,,0,49,49,4,1,1,1,,,,,,,,,,,,,,,,,,,,,,,,,,,,,,,,,,,,,,,,,,,,,,,,,,,,,,,,,,,,,,,,,,,,,,,,,,,
,,,,,,,,,,stimuli/images/PICTURE_504.png,ARTIST,559d9916fdf99b1e2b2dc6b8,10/17/1953,2020-07-09_16h07.36.650,proactive,2020.1.2,Win32,60,5f073de81c76c3308c0e4fb3,5f0778cd07ad2338697f37db,2,,,,,,wheel,,,,,,0,50,50,49,1,5,1,,,,,,,,,,,,,,,,,,,,,,,,,,,,,,,,,,,,,,,,,,,,,,,,,,,,,,,,,,,,,,,,,,,,,,,,,,,
,,,,,,,,,,stimuli/images/PICTURE_403.png,TOILET,559d9916fdf99b1e2b2dc6b8,10/17/1953,2020-07-09_16h07.36.650,proactive,2020.1.2,Win32,60,5f073de81c76c3308c0e4fb3,5f0778cd07ad2338697f37db,2,,,,,,cathedral,,,,,,0,51,51,25,1,3,1,,,,,,,,,,,,,,,,,,,,,,,,,,,,,,,,,,,,,,,,,,,,,,,,,,,,,,,,,,,,,,,,,,,,,,,,,,,
,,,,,,,,,,stimuli/images/PICTURE_297.png,RIVER,559d9916fdf99b1e2b2dc6b8,10/17/1953,2020-07-09_16h07.36.650,proactive,2020.1.2,Win32,60,5f073de81c76c3308c0e4fb3,5f0778cd07ad2338697f37db,2,,,,,,aeroplane,,,,,,0,52,52,39,1,4,1,,,,,,,,,,,,,,,,,,,,,,,,,,,,,,,,,,,,,,,,,,,,,,,,,,,,,,,,,,,,,,,,,,,,,,,,,,,
,,,,,,,,,,stimuli/images/PICTURE_750.png,HOTEL,559d9916fdf99b1e2b2dc6b8,10/17/1953,2020-07-09_16h07.36.650,proactive,2020.1.2,Win32,60,5f073de81c76c3308c0e4fb3,5f0778cd07ad2338697f37db,2,,,,,,kettle,,,,,,0,53,53,27,1,3,1,,,,,,,,,,,,,,,,,,,,,,,,,,,,,,,,,,,,,,,,,,,,,,,,,,,,,,,,,,,,,,,,,,,,,,,,,,,
,,,,,,,,,,stimuli/images/PICTURE_327.png,CASINO,559d9916fdf99b1e2b2dc6b8,10/17/1953,2020-07-09_16h07.36.650,proactive,2020.1.2,Win32,60,5f073de81c76c3308c0e4fb3,5f0778cd07ad2338697f37db,2,,,,,,helmet,,,,,,0,54,54,20,1,3,1,,,,,,,,,,,,,,,,,,,,,,,,,,,,,,,,,,,,,,,,,,,,,,,,,,,,,,,,,,,,,,,,,,,,,,,,,,,
,,,,,,,,,,stimuli/images/PICTURE_654.png,MONTH,559d9916fdf99b1e2b2dc6b8,10/17/1953,2020-07-09_16h07.36.650,proactive,2020.1.2,Win32,60,5f073de81c76c3308c0e4fb3,5f0778cd07ad2338697f37db,2,,,,,,pencil,,,,,,0,55,55,29,1,3,1,,,,,,,,,,,,,,,,,,,,,,,,,,,,,,,,,,,,,,,,,,,,,,,,,,,,,,,,,,,,,,,,,,,,,,,,,,,
,,,,,,,,,,stimuli/images/PICTURE_33.png,FRIEND,559d9916fdf99b1e2b2dc6b8,10/17/1953,2020-07-09_16h07.36.650,proactive,2020.1.2,Win32,60,5f073de81c76c3308c0e4fb3,5f0778cd07ad2338697f37db,2,,,,,,frame,,,,,,0,56,56,8,1,1,1,,,,,,,,,,,,,,,,,,,,,,,,,,,,,,,,,,,,,,,,,,,,,,,,,,,,,,,,,,,,,,,,,,,,,,,,,,,
,,,,,,,,,,stimuli/images/PICTURE_233.png,LOTS,559d9916fdf99b1e2b2dc6b8,10/17/1953,2020-07-09_16h07.36.650,proactive,2020.1.2,Win32,60,5f073de81c76c3308c0e4fb3,5f0778cd07ad2338697f37db,2,,,,,,salt,,,,,,0,57,57,42,1,5,1,,,,,,,,,,,,,,,,,,,,,,,,,,,,,,,,,,,,,,,,,,,,,,,,,,,,,,,,,,,,,,,,,,,,,,,,,,,
,,,,,,,,,,stimuli/images/PICTURE_403.png,WRITER,559d9916fdf99b1e2b2dc6b8,10/17/1953,2020-07-09_16h07.36.650,proactive,2020.1.2,Win32,60,5f073de81c76c3308c0e4fb3,5f0778cd07ad2338697f37db,2,,,,,,cathedral,,,,,,0,58,58,31,1,4,1,,,,,,,,,,,,,,,,,,,,,,,,,,,,,,,,,,,,,,,,,,,,,,,,,,,,,,,,,,,,,,,,,,,,,,,,,,,
,,?,0.001855,0,,,,,,stimuli/images/PICTURE_108.png,FLIGHT,559d9916fdf99b1e2b2dc6b8,10/17/1953,2020-07-09_16h07.36.650,proactive,2020.1.2,Win32,60,5f073de81c76c3308c0e4fb3,5f0778cd07ad2338697f37db,2,,,,,,calendar,,,,,,,,,,,6,1,0,0,0,59,1,,,,,,,,,,,,,,,,,,,,,,,,,,,,,,,,,,,,,,,,,,,,,,,,,,,,,,,,,,,,,,,,,,,,,,
,,?,0.00486,0,,,,,,stimuli/images/PICTURE_42.png,BOYS,559d9916fdf99b1e2b2dc6b8,10/17/1953,2020-07-09_16h07.36.650,proactive,2020.1.2,Win32,60,5f073de81c76c3308c0e4fb3,5f0778cd07ad2338697f37db,2,,,,,,pear,,,,,,,,,,,6,1,0,1,1,55,1,,,,,,,,,,,,,,,,,,,,,,,,,,,,,,,,,,,,,,,,,,,,,,,,,,,,,,,,,,,,,,,,,,,,,,
,,?,0.001795,0,,,,,,stimuli/images/PICTURE_68.png,ROOF,559d9916fdf99b1e2b2dc6b8,10/17/1953,2020-07-09_16h07.36.650,proactive,2020.1.2,Win32,60,5f073de81c76c3308c0e4fb3,5f0778cd07ad2338697f37db,2,,,,,,candle,,,,,,,,,,,4,1,0,2,2,38,1,,,,,,,,,,,,,,,,,,,,,,,,,,,,,,,,,,,,,,,,,,,,,,,,,,,,,,,,,,,,,,,,,,,,,,
,,?,0.001335,0,,,,,,stimuli/images/PICTURE_208.png,SYSTEM,559d9916fdf99b1e2b2dc6b8,10/17/1953,2020-07-09_16h07.36.650,proactive,2020.1.2,Win32,60,5f073de81c76c3308c0e4fb3,5f0778cd07ad2338697f37db,2,,,,,,microphone,,,,,,,,,,,4,1,0,3,3,32,1,,,,,,,,,,,,,,,,,,,,,,,,,,,,,,,,,,,,,,,,,,,,,,,,,,,,,,,,,,,,,,,,,,,,,,
,,?,0.001415,0,,,,,,stimuli/images/PICTURE_327.png,SERIES,559d9916fdf99b1e2b2dc6b8,10/17/1953,2020-07-09_16h07.36.650,proactive,2020.1.2,Win32,60,5f073de81c76c3308c0e4fb3,5f0778cd07ad2338697f37db,2,,,,,,helmet,,,,,,,,,,,1,1,0,4,4,3,1,,,,,,,,,,,,,,,,,,,,,,,,,,,,,,,,,,,,,,,,,,,,,,,,,,,,,,,,,,,,,,,,,,,,,,
,,?,0.001355,0,,,,,,stimuli/images/PICTURE_57.png,MOMENT,559d9916fdf99b1e2b2dc6b8,10/17/1953,2020-07-09_16h07.36.650,proactive,2020.1.2,Win32,60,5f073de81c76c3308c0e4fb3,5f0778cd07ad2338697f37db,2,,,,,,stamp,,,,,,,,,,,4,1,0,5,5,37,1,,,,,,,,,,,,,,,,,,,,,,,,,,,,,,,,,,,,,,,,,,,,,,,,,,,,,,,,,,,,,,,,,,,,,,
,,?,0.001125,0,,,,,,stimuli/images/PICTURE_108.png,POLICY,559d9916fdf99b1e2b2dc6b8,10/17/1953,2020-07-09_16h07.36.650,proactive,2020.1.2,Win32,60,5f073de81c76c3308c0e4fb3,5f0778cd07ad2338697f37db,2,,,,,,calendar,,,,,,,,,,,3,1,0,6,6,22,1,,,,,,,,,,,,,,,,,,,,,,,,,,,,,,,,,,,,,,,,,,,,,,,,,,,,,,,,,,,,,,,,,,,,,,
,,?,0.001875,0,,,,,,stimuli/images/PICTURE_95.png,BOYS,559d9916fdf99b1e2b2dc6b8,10/17/1953,2020-07-09_16h07.36.650,proactive,2020.1.2,Win32,60,5f073de81c76c3308c0e4fb3,5f0778cd07ad2338697f37db,2,,,,,,suitcase,,,,,,,,,,,1,1,0,7,7,1,1,,,,,,,,,,,,,,,,,,,,,,,,,,,,,,,,,,,,,,,,,,,,,,,,,,,,,,,,,,,,,,,,,,,,,,
,,?,0.001125,0,,,,,,stimuli/images/PICTURE_654.png,MONTH,559d9916fdf99b1e2b2dc6b8,10/17/1953,2020-07-09_16h07.36.650,proactive,2020.1.2,Win32,60,5f073de81c76c3308c0e4fb3,5f0778cd07ad2338697f37db,2,,,,,,pencil,,,,,,,,,,,3,1,0,8,8,29,1,,,,,,,,,,,,,,,,,,,,,,,,,,,,,,,,,,,,,,,,,,,,,,,,,,,,,,,,,,,,,,,,,,,,,,
,,?,0.001405,0,,,,,,stimuli/images/PICTURE_675.png,SALE,559d9916fdf99b1e2b2dc6b8,10/17/1953,2020-07-09_16h07.36.650,proactive,2020.1.2,Win32,60,5f073de81c76c3308c0e4fb3,5f0778cd07ad2338697f37db,2,,,,,,windmill,,,,,,,,,,,5,1,0,9,9,47,1,,,,,,,,,,,,,,,,,,,,,,,,,,,,,,,,,,,,,,,,,,,,,,,,,,,,,,,,,,,,,,,,,,,,,,
,,?,2.77697,0,,,,,,stimuli/images/PICTURE_339.png,CLIENT,559d9916fdf99b1e2b2dc6b8,10/17/1953,2020-07-09_16h07.36.650,proactive,2020.1.2,Win32,60,5f073de81c76c3308c0e4fb3,5f0778cd07ad2338697f37db,2,,,,,,backpack,,,,,,,,,,,2,1,0,10,10,11,1,,,,,,,,,,,,,,,,,,,,,,,,,,,,,,,,,,,,,,,,,,,,,,,,,,,,,,,,,,,,,,,,,,,,,,
,,?,0.001085,0,,,,,,stimuli/images/PICTURE_95.png,MILLER,559d9916fdf99b1e2b2dc6b8,10/17/1953,2020-07-09_16h07.36.650,proactive,2020.1.2,Win32,60,5f073de81c76c3308c0e4fb3,5f0778cd07ad2338697f37db,2,,,,,,suitcase,,,,,,,,,,,6,1,0,11,11,56,1,,,,,,,,,,,,,,,,,,,,,,,,,,,,,,,,,,,,,,,,,,,,,,,,,,,,,,,,,,,,,,,,,,,,,,
,,?,0.00093,0,,,,,,stimuli/images/PICTURE_147.png,WOMEN,559d9916fdf99b1e2b2dc6b8,10/17/1953,2020-07-09_16h07.36.650,proactive,2020.1.2,Win32,60,5f073de81c76c3308c0e4fb3,5f0778cd07ad2338697f37db,2,,,,,,hanger,,,,,,,,,,,1,1,0,12,12,7,1,,,,,,,,,,,,,,,,,,,,,,,,,,,,,,,,,,,,,,,,,,,,,,,,,,,,,,,,,,,,,,,,,,,,,,
,,?,0.000885,0,,,,,,stimuli/images/PICTURE_383.png,WRITER,559d9916fdf99b1e2b2dc6b8,10/17/1953,2020-07-09_16h07.36.650,proactive,2020.1.2,Win32,60,5f073de81c76c3308c0e4fb3,5f0778cd07ad2338697f37db,2,,,,,,coin,,,,,,,,,,,3,1,0,13,13,28,1,,,,,,,,,,,,,,,,,,,,,,,,,,,,,,,,,,,,,,,,,,,,,,,,,,,,,,,,,,,,,,,,,,,,,,
,,?,0.000965,0,,,,,,stimuli/images/PICTURE_487.png,GIRL,559d9916fdf99b1e2b2dc6b8,10/17/1953,2020-07-09_16h07.36.650,proactive,2020.1.2,Win32,60,5f073de81c76c3308c0e4fb3,5f0778cd07ad2338697f37db,2,,,,,,basket,,,,,,,,,,,5,1,0,14,14,45,1,,,,,,,,,,,,,,,,,,,,,,,,,,,,,,,,,,,,,,,,,,,,,,,,,,,,,,,,,,,,,,,,,,,,,,
,,?,0.00093,0,,,,,,stimuli/images/PICTURE_85.png,NATION,559d9916fdf99b1e2b2dc6b8,10/17/1953,2020-07-09_16h07.36.650,proactive,2020.1.2,Win32,60,5f073de81c76c3308c0e4fb3,5f0778cd07ad2338697f37db,2,,,,,,diamond,,,,,,,,,,,1,1,0,15,15,5,1,,,,,,,,,,,,,,,,,,,,,,,,,,,,,,,,,,,,,,,,,,,,,,,,,,,,,,,,,,,,,,,,,,,,,,
,,?,1.003405,0,,,,,,stimuli/images/PICTURE_504.png,YEAR,559d9916fdf99b1e2b2dc6b8,10/17/1953,2020-07-09_16h07.36.650,proactive,2020.1.2,Win32,60,5f073de81c76c3308c0e4fb3,5f0778cd07ad2338697f37db,2,,,,,,wheel,,,,,,,,,,,2,1,0,16,16,13,1,,,,,,,,,,,,,,,,,,,,,,,,,,,,,,,,,,,,,,,,,,,,,,,,,,,,,,,,,,,,,,,,,,,,,,
