consent_key.keys,consent_key.rt,recalled,recalled_rt,recall_acc,example_recall.thisRepN,example_recall.thisTrialN,example_recall.thisN,example_recall.thisIndex,example_recall.ran,file,word,participant,please enter your date of birth (dd/mm/yyyy),date,expName,psychopyVersion,OS,frameRate,STUDY_ID,SESSION_ID,list,prac_learn_study_loop.thisRepN,prac_learn_study_loop.thisTrialN,prac_learn_study_loop.thisN,prac_learn_study_loop.thisIndex,prac_learn_study_loop.ran,image,prac_learn_test_loop.thisRepN,prac_learn_test_loop.thisTrialN,prac_learn_test_loop.thisN,prac_learn_test_loop.thisIndex,prac_learn_test_loop.ran,learn_study_loop.thisRepN,learn_study_loop.thisTrialN,learn_study_loop.thisN,learn_study_loop.thisIndex,learn_study_loop.ran,list_no,block_no,learn_test_loop.thisRepN,learn_test_loop.thisTrialN,learn_test_loop.thisN,learn_test_loop.thisIndex,learn_test_loop.ran,learn_blocks.thisRepN,learn_blocks.thisTrialN,learn_blocks.thisN,learn_blocks.thisIndex,learn_blocks.ran,block_csv,key_resp_13.keys,key_resp_13.rt,learn_blocks_loop.thisRepN,learn_blocks_loop.thisTrialN,learn_blocks_loop.thisN,learn_blocks_loop.thisIndex,learn_blocks_loop.ran,final_learn_test.thisRepN,final_learn_test.thisTrialN,final_learn_test.thisN,final_learn_test.thisIndex,final_learn_test.ran,prac_wm_test_loop.thisRepN,prac_wm_test_loop.thisTrialN,prac_wm_test_loop.thisN,prac_wm_test_loop.thisIndex,prac_wm_test_loop.ran,wm_recalled1,wm_recall_rt1,wm_probed1,wm_recall_acc1,wm_recalled2,wm_recall_rt2,wm_probed2,wm_recall_acc2,wm_recalled3,wm_recall_rt3,wm_probed3,wm_recall_acc3,wm_recalled4,wm_recall_rt4,wm_probed4,wm_recall_acc4,prac_wm_trial_loop.thisRepN,prac_wm_trial_loop.thisTrialN,prac_wm_trial_loop.thisN,prac_wm_trial_loop.thisIndex,prac_wm_trial_loop.ran,word1,image1,file1,item_type1,word2,image2,file2,item_type2,word4,image4,file4,item_type4,word3,image3,file3,item_type3,wm_test_loop.thisRepN,wm_test_loop.thisTrialN,wm_test_loop.thisN,wm_test_loop.thisIndex,wm_test_loop.ran,wm_trial_loop.thisRepN,wm_trial_loop.thisTrialN,wm_trial_loop.thisN,wm_trial_loop.thisIndex,wm_trial_loop.ran
y,12.197685,TOUGH,2.095255,1,0,0,0,0,1,stimuli/images/PICTURE_747.png,TOUGH,56f55bc0736c79000c223b3d,01/04/1988,2020-07-08_11h09.02.703,proactive,2020.1.2,Win32,60,5f035e5afe130c270d6ae6dd,5f05e165646b9a0c2b942c9b,2,,,,,,,,,,,,,,,,,,,,,,,,,,,,,,,,,,,,,,,,,,,,,,,,,,,,,,,,,,,,,,,,,,,,,,,,,,,,,,,,,,,,,,,,,,,,,
,,,,,,,,,,stimuli/images/PICTURE_697.png,KILLER,56f55bc0736c79000c223b3d,01/04/1988,2020-07-08_11h09.02.703,proactive,2020.1.2,Win32,60,5f035e5afe130c270d6ae6dd,5f05e165646b9a0c2b942c9b,2,0,0,0,4,1,peach,,,,,,,,,,,,,,,,,,,,,,,,,,,,,,,,,,,,,,,,,,,,,,,,,,,,,,,,,,,,,,,,,,,,,,,,,,,,,,,,,,,,,,,
,,,,,,,,,,stimuli/images/PICTURE_727.png,CELL,56f55bc0736c79000c223b3d,01/04/1988,2020-07-08_11h09.02.703,proactive,2020.1.2,Win32,60,5f035e5afe130c270d6ae6dd,5f05e165646b9a0c2b942c9b,2,0,1,1,1,1,hose,,,,,,,,,,,,,,,,,,,,,,,,,,,,,,,,,,,,,,,,,,,,,,,,,,,,,,,,,,,,,,,,,,,,,,,,,,,,,,,,,,,,,,,
,,,,,,,,,,stimuli/images/PICTURE_378.png,LOSS,56f55bc0736c79000c223b3d,01/04/1988,2020-07-08_11h09.02.703,proactive,2020.1.2,Win32,60,5f035e5afe130c270d6ae6dd,5f05e165646b9a0c2b942c9b,2,0,2,2,2,1,lobster,,,,,,,,,,,,,,,,,,,,,,,,,,,,,,,,,,,,,,,,,,,,,,,,,,,,,,,,,,,,,,,,,,,,,,,,,,,,,,,,,,,,,,,
,,,,,,,,,,stimuli/images/PICTURE_658.png,DEVIL,56f55bc0736c79000c223b3d,01/04/1988,2020-07-08_11h09.02.703,proactive,2020.1.2,Win32,60,5f035e5afe130c270d6ae6dd,5f05e165646b9a0c2b942c9b,2,0,3,3,3,1,crow,,,,,,,,,,,,,,,,,,,,,,,,,,,,,,,,,,,,,,,,,,,,,,,,,,,,,,,,,,,,,,,,,,,,,,,,,,,,,,,,,,,,,,,
,,KILLER,2.177515,1,,,,,,stimuli/images/PICTURE_697.png,KILLER,56f55bc0736c79000c223b3d,01/04/1988,2020-07-08_11h09.02.703,proactive,2020.1.2,Win32,60,5f035e5afe130c270d6ae6dd,5f05e165646b9a0c2b942c9b,2,,,,,,peach,0,0,0,4,1,,,,,,,,,,,,,,,,,,,,,,,,,,,,,,,,,,,,,,,,,,,,,,,,,,,,,,,,,,,,,,,,,,,,,,,,,,,,,,,,,,
,,DEVIL,1.764195,1,,,,,,stimuli/images/PICTURE_658.png,DEVIL,56f55bc0736c79000c223b3d,01/04/1988,2020-07-08_11h09.02.703,proactive,2020.1.2,Win32,60,5f035e5afe130c270d6ae6dd,5f05e165646b9a0c2b942c9b,2,,,,,,crow,0,1,1,3,1,,,,,,,,,,,,,,,,,,,,,,,,,,,,,,,,,,,,,,,,,,,,,,,,,,,,,,,,,,,,,,,,,,,,,,,,,,,,,,,,,,
,,CELL,2.030955,1,,,,,,stimuli/images/PICTURE_727.png,CELL,56f55bc0736c79000c223b3d,01/04/1988,2020-07-08_11h09.02.703,proactive,2020.1.2,Win32,60,5f035e5afe130c270d6ae6dd,5f05e165646b9a0c2b942c9b,2,,,,,,hose,0,2,2,1,1,,,,,,,,,,,,,,,,,,,,,,,,,,,,,,,,,,,,,,,,,,,,,,,,,,,,,,,,,,,,,,,,,,,,,,,,,,,,,,,,,,
,,HOSE,2.1133,0,,,,,,stimuli/images/PICTURE_378.png,LOSS,56f55bc0736c79000c223b3d,01/04/1988,2020-07-08_11h09.02.703,proactive,2020.1.2,Win32,60,5f035e5afe130c270d6ae6dd,5f05e165646b9a0c2b942c9b,2,,,,,,lobster,0,3,3,2,1,,,,,,,,,,,,,,,,,,,,,,,,,,,,,,,,,,,,,,,,,,,,,,,,,,,,,,,,,,,,,,,,,,,,,,,,,,,,,,,,,,
,,GENIUS,2.21375,1,,,,,,stimuli/images/PICTURE_269.png,GENIUS,56f55bc0736c79000c223b3d,01/04/1988,2020-07-08_11h09.02.703,proactive,2020.1.2,Win32,60,5f035e5afe130c270d6ae6dd,5f05e165646b9a0c2b942c9b,2,,,,,,chameleon,0,4,4,0,1,,,,,,,,,,,,,,,,,,,,,,,,,,,,,,,,,,,,,,,,,,,,,,,,,,,,,,,,,,,,,,,,,,,,,,,,,,,,,,,,,,
,,,,,,,,,,stimuli/images/PICTURE_487.png,GIRL,56f55bc0736c79000c223b3d,01/04/1988,2020-07-08_11h09.02.703,proactive,2020.1.2,Win32,60,5f035e5afe130c270d6ae6dd,5f05e165646b9a0c2b942c9b,2,,,,,,basket,,,,,,0,0,0,45,1,5,1,,,,,,,,,,,,,,,,,,,,,,,,,,,,,,,,,,,,,,,,,,,,,,,,,,,,,,,,,,,,,,,,,,,,,,,,,,,
,,,,,,,,,,stimuli/images/PICTURE_383.png,WRITER,56f55bc0736c79000c223b3d,01/04/1988,2020-07-08_11h09.02.703,proactive,2020.1.2,Win32,60,5f035e5afe130c270d6ae6dd,5f05e165646b9a0c2b942c9b,2,,,,,,coin,,,,,,0,1,1,28,1,3,1,,,,,,,,,,,,,,,,,,,,,,,,,,,,,,,,,,,,,,,,,,,,,,,,,,,,,,,,,,,,,,,,,,,,,,,,,,,
,,,,,,,,,,stimuli/images/PICTURE_85.png,NATION,56f55bc0736c79000c223b3d,01/04/1988,2020-07-08_11h09.02.703,proactive,2020.1.2,Win32,60,5f035e5afe130c270d6ae6dd,5f05e165646b9a0c2b942c9b,2,,,,,,diamond,,,,,,0,2,2,5,1,1,1,,,,,,,,,,,,,,,,,,,,,,,,,,,,,,,,,,,,,,,,,,,,,,,,,,,,,,,,,,,,,,,,,,,,,,,,,,,
,,,,,,,,,,stimuli/images/PICTURE_469.png,AGENT,56f55bc0736c79000c223b3d,01/04/1988,2020-07-08_11h09.02.703,proactive,2020.1.2,Win32,60,5f035e5afe130c270d6ae6dd,5f05e165646b9a0c2b942c9b,2,,,,,,stool,,,,,,0,3,3,16,1,2,1,,,,,,,,,,,,,,,,,,,,,,,,,,,,,,,,,,,,,,,,,,,,,,,,,,,,,,,,,,,,,,,,,,,,,,,,,,,
,,,,,,,,,,stimuli/images/PICTURE_405.png,YEAR,56f55bc0736c79000c223b3d,01/04/1988,2020-07-08_11h09.02.703,proactive,2020.1.2,Win32,60,5f035e5afe130c270d6ae6dd,5f05e165646b9a0c2b942c9b,2,,,,,,anchor,,,,,,0,4,4,34,1,4,1,,,,,,,,,,,,,,,,,,,,,,,,,,,,,,,,,,,,,,,,,,,,,,,,,,,,,,,,,,,,,,,,,,,,,,,,,,,
,,,,,,,,,,stimuli/images/PICTURE_297.png,RIVER,56f55bc0736c79000c223b3d,01/04/1988,2020-07-08_11h09.02.703,proactive,2020.1.2,Win32,60,5f035e5afe130c270d6ae6dd,5f05e165646b9a0c2b942c9b,2,,,,,,aeroplane,,,,,,0,5,5,39,1,4,1,,,,,,,,,,,,,,,,,,,,,,,,,,,,,,,,,,,,,,,,,,,,,,,,,,,,,,,,,,,,,,,,,,,,,,,,,,,
,,,,,,,,,,stimuli/images/PICTURE_68.png,MILE,56f55bc0736c79000c223b3d,01/04/1988,2020-07-08_11h09.02.703,proactive,2020.1.2,Win32,60,5f035e5afe130c270d6ae6dd,5f05e165646b9a0c2b942c9b,2,,,,,,candle,,,,,,0,6,6,51,1,6,1,,,,,,,,,,,,,,,,,,,,,,,,,,,,,,,,,,,,,,,,,,,,,,,,,,,,,,,,,,,,,,,,,,,,,,,,,,,
,,,,,,,,,,stimuli/images/PICTURE_403.png,TOILET,56f55bc0736c79000c223b3d,01/04/1988,2020-07-08_11h09.02.703,proactive,2020.1.2,Win32,60,5f035e5afe130c270d6ae6dd,5f05e165646b9a0c2b942c9b,2,,,,,,cathedral,,,,,,0,7,7,25,1,3,1,,,,,,,,,,,,,,,,,,,,,,,,,,,,,,,,,,,,,,,,,,,,,,,,,,,,,,,,,,,,,,,,,,,,,,,,,,,
,,,,,,,,,,stimuli/images/PICTURE_667.png,RIVER,56f55bc0736c79000c223b3d,01/04/1988,2020-07-08_11h09.02.703,proactive,2020.1.2,Win32,60,5f035e5afe130c270d6ae6dd,5f05e165646b9a0c2b942c9b,2,,,,,,daisy,,,,,,0,8,8,10,1,2,1,,,,,,,,,,,,,,,,,,,,,,,,,,,,,,,,,,,,,,,,,,,,,,,,,,,,,,,,,,,,,,,,,,,,,,,,,,,
,,,,,,,,,,stimuli/images/PICTURE_685.png,PENNY,56f55bc0736c79000c223b3d,01/04/1988,2020-07-08_11h09.02.703,proactive,2020.1.2,Win32,60,5f035e5afe130c270d6ae6dd,5f05e165646b9a0c2b942c9b,2,,,,,,goose,,,,,,0,9,9,4,1,1,1,,,,,,,,,,,,,,,,,,,,,,,,,,,,,,,,,,,,,,,,,,,,,,,,,,,,,,,,,,,,,,,,,,,,,,,,,,,
,,,,,,,,,,stimuli/images/PICTURE_327.png,SERIES,56f55bc0736c79000c223b3d,01/04/1988,2020-07-08_11h09.02.703,proactive,2020.1.2,Win32,60,5f035e5afe130c270d6ae6dd,5f05e165646b9a0c2b942c9b,2,,,,,,helmet,,,,,,0,10,10,3,1,1,1,,,,,,,,,,,,,,,,,,,,,,,,,,,,,,,,,,,,,,,,,,,,,,,,,,,,,,,,,,,,,,,,,,,,,,,,,,,
,,,,,,,,,,stimuli/images/PICTURE_380.png,HONEY,56f55bc0736c79000c223b3d,01/04/1988,2020-07-08_11h09.02.703,proactive,2020.1.2,Win32,60,5f035e5afe130c270d6ae6dd,5f05e165646b9a0c2b942c9b,2,,,,,,gorilla,,,,,,0,11,11,19,1,2,1,,,,,,,,,,,,,,,,,,,,,,,,,,,,,,,,,,,,,,,,,,,,,,,,,,,,,,,,,,,,,,,,,,,,,,,,,,,
,,,,,,,,,,stimuli/images/PICTURE_340.png,LETTER,56f55bc0736c79000c223b3d,01/04/1988,2020-07-08_11h09.02.703,proactive,2020.1.2,Win32,60,5f035e5afe130c270d6ae6dd,5f05e165646b9a0c2b942c9b,2,,,,,,mirror,,,,,,0,12,12,24,1,3,1,,,,,,,,,,,,,,,,,,,,,,,,,,,,,,,,,,,,,,,,,,,,,,,,,,,,,,,,,,,,,,,,,,,,,,,,,,,
,,,,,,,,,,stimuli/images/PICTURE_177.png,WRITER,56f55bc0736c79000c223b3d,01/04/1988,2020-07-08_11h09.02.703,proactive,2020.1.2,Win32,60,5f035e5afe130c270d6ae6dd,5f05e165646b9a0c2b942c9b,2,,,,,,mushroom,,,,,,0,13,13,41,1,5,1,,,,,,,,,,,,,,,,,,,,,,,,,,,,,,,,,,,,,,,,,,,,,,,,,,,,,,,,,,,,,,,,,,,,,,,,,,,
,,,,,,,,,,stimuli/images/PICTURE_208.png,SYSTEM,56f55bc0736c79000c223b3d,01/04/1988,2020-07-08_11h09.02.703,proactive,2020.1.2,Win32,60,5f035e5afe130c270d6ae6dd,5f05e165646b9a0c2b942c9b,2,,,,,,microphone,,,,,,0,14,14,32,1,4,1,,,,,,,,,,,,,,,,,,,,,,,,,,,,,,,,,,,,,,,,,,,,,,,,,,,,,,,,,,,,,,,,,,,,,,,,,,,
,,,,,,,,,,stimuli/images/PICTURE_108.png,FLIGHT,56f55bc0736c79000c223b3d,01/04/1988,2020-07-08_11h09.02.703,proactive,2020.1.2,Win32,60,5f035e5afe130c270d6ae6dd,5f05e165646b9a0c2b942c9b,2,,,,,,calendar,,,,,,0,15,15,59,1,6,1,,,,,,,,,,,,,,,,,,,,,,,,,,,,,,,,,,,,,,,,,,,,,,,,,,,,,,,,,,,,,,,,,,,,,,,,,,,
,,,,,,,,,,stimuli/images/PICTURE_675.png,SALE,56f55bc0736c79000c223b3d,01/04/1988,2020-07-08_11h09.02.703,proactive,2020.1.2,Win32,60,5f035e5afe130c270d6ae6dd,5f05e165646b9a0c2b942c9b,2,,,,,,windmill,,,,,,0,16,16,47,1,5,1,,,,,,,,,,,,,,,,,,,,,,,,,,,,,,,,,,,,,,,,,,,,,,,,,,,,,,,,,,,,,,,,,,,,,,,,,,,
,,,,,,,,,,stimuli/images/PICTURE_42.png,BOYS,56f55bc0736c79000c223b3d,01/04/1988,2020-07-08_11h09.02.703,proactive,2020.1.2,Win32,60,5f035e5afe130c270d6ae6dd,5f05e165646b9a0c2b942c9b,2,,,,,,pear,,,,,,0,17,17,55,1,6,1,,,,,,,,,,,,,,,,,,,,,,,,,,,,,,,,,,,,,,,,,,,,,,,,,,,,,,,,,,,,,,,,,,,,,,,,,,,
,,,,,,,,,,stimuli/images/PICTURE_405.png,PLENTY,56f55bc0736c79000c223b3d,01/04/1988,2020-07-08_11h09.02.703,proactive,2020.1.2,Win32,60,5f035e5afe130c270d6ae6dd,5f05e165646b9a0c2b942c9b,2,,,,,,anchor,,,,,,0,18,18,23,1,3,1,,,,,,,,,,,,,,,,,,,,,,,,,,,,,,,,,,,,,,,,,,,,,,,,,,,,,,,,,,,,,,,,,,,,,,,,,,,
,,,,,,,,,,stimuli/images/PICTURE_380.png,CANDY,56f55bc0736c79000c223b3d,01/04/1988,2020-07-08_11h09.02.703,proactive,2020.1.2,Win32,60,5f035e5afe130c270d6ae6dd,5f05e165646b9a0c2b942c9b,2,,,,,,gorilla,,,,,,0,19,19,0,1,1,1,,,,,,,,,,,,,,,,,,,,,,,,,,,,,,,,,,,,,,,,,,,,,,,,,,,,,,,,,,,,,,,,,,,,,,,,,,,
,,,,,,,,,,stimuli/images/PICTURE_504.png,COPS,56f55bc0736c79000c223b3d,01/04/1988,2020-07-08_11h09.02.703,proactive,2020.1.2,Win32,60,5f035e5afe130c270d6ae6dd,5f05e165646b9a0c2b942c9b,2,,,,,,wheel,,,,,,0,20,20,52,1,6,1,,,,,,,,,,,,,,,,,,,,,,,,,,,,,,,,,,,,,,,,,,,,,,,,,,,,,,,,,,,,,,,,,,,,,,,,,,,
,,,,,,,,,,stimuli/images/PICTURE_33.png,FRIEND,56f55bc0736c79000c223b3d,01/04/1988,2020-07-08_11h09.02.703,proactive,2020.1.2,Win32,60,5f035e5afe130c270d6ae6dd,5f05e165646b9a0c2b942c9b,2,,,,,,frame,,,,,,0,21,21,8,1,1,1,,,,,,,,,,,,,,,,,,,,,,,,,,,,,,,,,,,,,,,,,,,,,,,,,,,,,,,,,,,,,,,,,,,,,,,,,,,
,,,,,,,,,,stimuli/images/PICTURE_147.png,WOMEN,56f55bc0736c79000c223b3d,01/04/1988,2020-07-08_11h09.02.703,proactive,2020.1.2,Win32,60,5f035e5afe130c270d6ae6dd,5f05e165646b9a0c2b942c9b,2,,,,,,hanger,,,,,,0,22,22,7,1,1,1,,,,,,,,,,,,,,,,,,,,,,,,,,,,,,,,,,,,,,,,,,,,,,,,,,,,,,,,,,,,,,,,,,,,,,,,,,,
,,,,,,,,,,stimuli/images/PICTURE_308.png,FAMILY,56f55bc0736c79000c223b3d,01/04/1988,2020-07-08_11h09.02.703,proactive,2020.1.2,Win32,60,5f035e5afe130c270d6ae6dd,5f05e165646b9a0c2b942c9b,2,,,,,,dice,,,,,,0,23,23,36,1,4,1,,,,,,,,,,,,,,,,,,,,,,,,,,,,,,,,,,,,,,,,,,,,,,,,,,,,,,,,,,,,,,,,,,,,,,,,,,,
,,,,,,,,,,stimuli/images/PICTURE_203.png,NIGHT,56f55bc0736c79000c223b3d,01/04/1988,2020-07-08_11h09.02.703,proactive,2020.1.2,Win32,60,5f035e5afe130c270d6ae6dd,5f05e165646b9a0c2b942c9b,2,,,,,,cap,,,,,,0,24,24,2,1,1,1,,,,,,,,,,,,,,,,,,,,,,,,,,,,,,,,,,,,,,,,,,,,,,,,,,,,,,,,,,,,,,,,,,,,,,,,,,,
,,,,,,,,,,stimuli/images/PICTURE_32.png,PILLS,56f55bc0736c79000c223b3d,01/04/1988,2020-07-08_11h09.02.703,proactive,2020.1.2,Win32,60,5f035e5afe130c270d6ae6dd,5f05e165646b9a0c2b942c9b,2,,,,,,crown,,,,,,0,25,25,18,1,2,1,,,,,,,,,,,,,,,,,,,,,,,,,,,,,,,,,,,,,,,,,,,,,,,,,,,,,,,,,,,,,,,,,,,,,,,,,,,
,,,,,,,,,,stimuli/images/PICTURE_296.png,LIFE,56f55bc0736c79000c223b3d,01/04/1988,2020-07-08_11h09.02.703,proactive,2020.1.2,Win32,60,5f035e5afe130c270d6ae6dd,5f05e165646b9a0c2b942c9b,2,,,,,,bolt,,,,,,0,26,26,57,1,6,1,,,,,,,,,,,,,,,,,,,,,,,,,,,,,,,,,,,,,,,,,,,,,,,,,,,,,,,,,,,,,,,,,,,,,,,,,,,
,,,,,,,,,,stimuli/images/PICTURE_95.png,MILLER,56f55bc0736c79000c223b3d,01/04/1988,2020-07-08_11h09.02.703,proactive,2020.1.2,Win32,60,5f035e5afe130c270d6ae6dd,5f05e165646b9a0c2b942c9b,2,,,,,,suitcase,,,,,,0,27,27,56,1,6,1,,,,,,,,,,,,,,,,,,,,,,,,,,,,,,,,,,,,,,,,,,,,,,,,,,,,,,,,,,,,,,,,,,,,,,,,,,,
,,,,,,,,,,stimuli/images/PICTURE_327.png,CASINO,56f55bc0736c79000c223b3d,01/04/1988,2020-07-08_11h09.02.703,proactive,2020.1.2,Win32,60,5f035e5afe130c270d6ae6dd,5f05e165646b9a0c2b942c9b,2,,,,,,helmet,,,,,,0,28,28,20,1,3,1,,,,,,,,,,,,,,,,,,,,,,,,,,,,,,,,,,,,,,,,,,,,,,,,,,,,,,,,,,,,,,,,,,,,,,,,,,,
,,,,,,,,,,stimuli/images/PICTURE_744.png,WEAPON,56f55bc0736c79000c223b3d,01/04/1988,2020-07-08_11h09.02.703,proactive,2020.1.2,Win32,60,5f035e5afe130c270d6ae6dd,5f05e165646b9a0c2b942c9b,2,,,,,,ring,,,,,,0,29,29,50,1,6,1,,,,,,,,,,,,,,,,,,,,,,,,,,,,,,,,,,,,,,,,,,,,,,,,,,,,,,,,,,,,,,,,,,,,,,,,,,,
,,,,,,,,,,stimuli/images/PICTURE_340.png,VALLEY,56f55bc0736c79000c223b3d,01/04/1988,2020-07-08_11h09.02.703,proactive,2020.1.2,Win32,60,5f035e5afe130c270d6ae6dd,5f05e165646b9a0c2b942c9b,2,,,,,,mirror,,,,,,0,30,30,54,1,6,1,,,,,,,,,,,,,,,,,,,,,,,,,,,,,,,,,,,,,,,,,,,,,,,,,,,,,,,,,,,,,,,,,,,,,,,,,,,
,,,,,,,,,,stimuli/images/PICTURE_504.png,YEAR,56f55bc0736c79000c223b3d,01/04/1988,2020-07-08_11h09.02.703,proactive,2020.1.2,Win32,60,5f035e5afe130c270d6ae6dd,5f05e165646b9a0c2b942c9b,2,,,,,,wheel,,,,,,0,31,31,13,1,2,1,,,,,,,,,,,,,,,,,,,,,,,,,,,,,,,,,,,,,,,,,,,,,,,,,,,,,,,,,,,,,,,,,,,,,,,,,,,
,,,,,,,,,,stimuli/images/PICTURE_491.png,RIVER,56f55bc0736c79000c223b3d,01/04/1988,2020-07-08_11h09.02.703,proactive,2020.1.2,Win32,60,5f035e5afe130c270d6ae6dd,5f05e165646b9a0c2b942c9b,2,,,,,,rug,,,,,,0,32,32,6,1,1,1,,,,,,,,,,,,,,,,,,,,,,,,,,,,,,,,,,,,,,,,,,,,,,,,,,,,,,,,,,,,,,,,,,,,,,,,,,,
,,,,,,,,,,stimuli/images/PICTURE_564.png,BATH,56f55bc0736c79000c223b3d,01/04/1988,2020-07-08_11h09.02.703,proactive,2020.1.2,Win32,60,5f035e5afe130c270d6ae6dd,5f05e165646b9a0c2b942c9b,2,,,,,,spoon,,,,,,0,33,33,26,1,3,1,,,,,,,,,,,,,,,,,,,,,,,,,,,,,,,,,,,,,,,,,,,,,,,,,,,,,,,,,,,,,,,,,,,,,,,,,,,
,,,,,,,,,,stimuli/images/PICTURE_654.png,MONTH,56f55bc0736c79000c223b3d,01/04/1988,2020-07-08_11h09.02.703,proactive,2020.1.2,Win32,60,5f035e5afe130c270d6ae6dd,5f05e165646b9a0c2b942c9b,2,,,,,,pencil,,,,,,0,34,34,29,1,3,1,,,,,,,,,,,,,,,,,,,,,,,,,,,,,,,,,,,,,,,,,,,,,,,,,,,,,,,,,,,,,,,,,,,,,,,,,,,
,,,,,,,,,,stimuli/images/PICTURE_32.png,KIND,56f55bc0736c79000c223b3d,01/04/1988,2020-07-08_11h09.02.703,proactive,2020.1.2,Win32,60,5f035e5afe130c270d6ae6dd,5f05e165646b9a0c2b942c9b,2,,,,,,crown,,,,,,0,35,35,35,1,4,1,,,,,,,,,,,,,,,,,,,,,,,,,,,,,,,,,,,,,,,,,,,,,,,,,,,,,,,,,,,,,,,,,,,,,,,,,,,
,,,,,,,,,,stimuli/images/PICTURE_233.png,LOTS,56f55bc0736c79000c223b3d,01/04/1988,2020-07-08_11h09.02.703,proactive,2020.1.2,Win32,60,5f035e5afe130c270d6ae6dd,5f05e165646b9a0c2b942c9b,2,,,,,,salt,,,,,,0,36,36,42,1,5,1,,,,,,,,,,,,,,,,,,,,,,,,,,,,,,,,,,,,,,,,,,,,,,,,,,,,,,,,,,,,,,,,,,,,,,,,,,,
,,,,,,,,,,stimuli/images/PICTURE_95.png,HONEY,56f55bc0736c79000c223b3d,01/04/1988,2020-07-08_11h09.02.703,proactive,2020.1.2,Win32,60,5f035e5afe130c270d6ae6dd,5f05e165646b9a0c2b942c9b,2,,,,,,suitcase,,,,,,0,37,37,44,1,5,1,,,,,,,,,,,,,,,,,,,,,,,,,,,,,,,,,,,,,,,,,,,,,,,,,,,,,,,,,,,,,,,,,,,,,,,,,,,
,,,,,,,,,,stimuli/images/PICTURE_403.png,WRITER,56f55bc0736c79000c223b3d,01/04/1988,2020-07-08_11h09.02.703,proactive,2020.1.2,Win32,60,5f035e5afe130c270d6ae6dd,5f05e165646b9a0c2b942c9b,2,,,,,,cathedral,,,,,,0,38,38,31,1,4,1,,,,,,,,,,,,,,,,,,,,,,,,,,,,,,,,,,,,,,,,,,,,,,,,,,,,,,,,,,,,,,,,,,,,,,,,,,,
,,,,,,,,,,stimuli/images/PICTURE_203.png,GODS,56f55bc0736c79000c223b3d,01/04/1988,2020-07-08_11h09.02.703,proactive,2020.1.2,Win32,60,5f035e5afe130c270d6ae6dd,5f05e165646b9a0c2b942c9b,2,,,,,,cap,,,,,,0,39,39,30,1,4,1,,,,,,,,,,,,,,,,,,,,,,,,,,,,,,,,,,,,,,,,,,,,,,,,,,,,,,,,,,,,,,,,,,,,,,,,,,,
,,,,,,,,,,stimuli/images/PICTURE_677.png,APPLE,56f55bc0736c79000c223b3d,01/04/1988,2020-07-08_11h09.02.703,proactive,2020.1.2,Win32,60,5f035e5afe130c270d6ae6dd,5f05e165646b9a0c2b942c9b,2,,,,,,map,,,,,,0,40,40,43,1,5,1,,,,,,,,,,,,,,,,,,,,,,,,,,,,,,,,,,,,,,,,,,,,,,,,,,,,,,,,,,,,,,,,,,,,,,,,,,,
,,,,,,,,,,stimuli/images/PICTURE_2.png,FLIGHT,56f55bc0736c79000c223b3d,01/04/1988,2020-07-08_11h09.02.703,proactive,2020.1.2,Win32,60,5f035e5afe130c270d6ae6dd,5f05e165646b9a0c2b942c9b,2,,,,,,tyre,,,,,,0,41,41,15,1,2,1,,,,,,,,,,,,,,,,,,,,,,,,,,,,,,,,,,,,,,,,,,,,,,,,,,,,,,,,,,,,,,,,,,,,,,,,,,,
,,,,,,,,,,stimuli/images/PICTURE_296.png,LOTS,56f55bc0736c79000c223b3d,01/04/1988,2020-07-08_11h09.02.703,proactive,2020.1.2,Win32,60,5f035e5afe130c270d6ae6dd,5f05e165646b9a0c2b942c9b,2,,,,,,bolt,,,,,,0,42,42,9,1,1,1,,,,,,,,,,,,,,,,,,,,,,,,,,,,,,,,,,,,,,,,,,,,,,,,,,,,,,,,,,,,,,,,,,,,,,,,,,,
,,,,,,,,,,stimuli/images/PICTURE_491.png,GLASS,56f55bc0736c79000c223b3d,01/04/1988,2020-07-08_11h09.02.703,proactive,2020.1.2,Win32,60,5f035e5afe130c270d6ae6dd,5f05e165646b9a0c2b942c9b,2,,,,,,rug,,,,,,0,43,43,14,1,2,1,,,,,,,,,,,,,,,,,,,,,,,,,,,,,,,,,,,,,,,,,,,,,,,,,,,,,,,,,,,,,,,,,,,,,,,,,,,
,,,,,,,,,,stimuli/images/PICTURE_85.png,TOILET,56f55bc0736c79000c223b3d,01/04/1988,2020-07-08_11h09.02.703,proactive,2020.1.2,Win32,60,5f035e5afe130c270d6ae6dd,5f05e165646b9a0c2b942c9b,2,,,,,,diamond,,,,,,0,44,44,48,1,5,1,,,,,,,,,,,,,,,,,,,,,,,,,,,,,,,,,,,,,,,,,,,,,,,,,,,,,,,,,,,,,,,,,,,,,,,,,,,
,,,,,,,,,,stimuli/images/PICTURE_95.png,BOYS,56f55bc0736c79000c223b3d,01/04/1988,2020-07-08_11h09.02.703,proactive,2020.1.2,Win32,60,5f035e5afe130c270d6ae6dd,5f05e165646b9a0c2b942c9b,2,,,,,,suitcase,,,,,,0,45,45,1,1,1,1,,,,,,,,,,,,,,,,,,,,,,,,,,,,,,,,,,,,,,,,,,,,,,,,,,,,,,,,,,,,,,,,,,,,,,,,,,,
,,,,,,,,,,stimuli/images/PICTURE_339.png,CLIENT,56f55bc0736c79000c223b3d,01/04/1988,2020-07-08_11h09.02.703,proactive,2020.1.2,Win32,60,5f035e5afe130c270d6ae6dd,5f05e165646b9a0c2b942c9b,2,,,,,,backpack,,,,,,0,46,46,11,1,2,1,,,,,,,,,,,,,,,,,,,,,,,,,,,,,,,,,,,,,,,,,,,,,,,,,,,,,,,,,,,,,,,,,,,,,,,,,,,
,,,,,,,,,,stimuli/images/PICTURE_383.png,SERIES,56f55bc0736c79000c223b3d,01/04/1988,2020-07-08_11h09.02.703,proactive,2020.1.2,Win32,60,5f035e5afe130c270d6ae6dd,5f05e165646b9a0c2b942c9b,2,,,,,,coin,,,,,,0,47,47,46,1,5,1,,,,,,,,,,,,,,,,,,,,,,,,,,,,,,,,,,,,,,,,,,,,,,,,,,,,,,,,,,,,,,,,,,,,,,,,,,,
,,,,,,,,,,stimuli/images/PICTURE_108.png,POLICY,56f55bc0736c79000c223b3d,01/04/1988,2020-07-08_11h09.02.703,proactive,2020.1.2,Win32,60,5f035e5afe130c270d6ae6dd,5f05e165646b9a0c2b942c9b,2,,,,,,calendar,,,,,,0,48,48,22,1,3,1,,,,,,,,,,,,,,,,,,,,,,,,,,,,,,,,,,,,,,,,,,,,,,,,,,,,,,,,,,,,,,,,,,,,,,,,,,,
,,,,,,,,,,stimuli/images/PICTURE_68.png,ROOF,56f55bc0736c79000c223b3d,01/04/1988,2020-07-08_11h09.02.703,proactive,2020.1.2,Win32,60,5f035e5afe130c270d6ae6dd,5f05e165646b9a0c2b942c9b,2,,,,,,candle,,,,,,0,49,49,38,1,4,1,,,,,,,,,,,,,,,,,,,,,,,,,,,,,,,,,,,,,,,,,,,,,,,,,,,,,,,,,,,,,,,,,,,,,,,,,,,
,,,,,,,,,,stimuli/images/PICTURE_708.png,RECORD,56f55bc0736c79000c223b3d,01/04/1988,2020-07-08_11h09.02.703,proactive,2020.1.2,Win32,60,5f035e5afe130c270d6ae6dd,5f05e165646b9a0c2b942c9b,2,,,,,,monkey,,,,,,0,50,50,58,1,6,1,,,,,,,,,,,,,,,,,,,,,,,,,,,,,,,,,,,,,,,,,,,,,,,,,,,,,,,,,,,,,,,,,,,,,,,,,,,
,,,,,,,,,,stimuli/images/PICTURE_449.png,DUDE,56f55bc0736c79000c223b3d,01/04/1988,2020-07-08_11h09.02.703,proactive,2020.1.2,Win32,60,5f035e5afe130c270d6ae6dd,5f05e165646b9a0c2b942c9b,2,,,,,,bench,,,,,,0,51,51,17,1,2,1,,,,,,,,,,,,,,,,,,,,,,,,,,,,,,,,,,,,,,,,,,,,,,,,,,,,,,,,,,,,,,,,,,,,,,,,,,,
,,,,,,,,,,stimuli/images/PICTURE_147.png,YEAR,56f55bc0736c79000c223b3d,01/04/1988,2020-07-08_11h09.02.703,proactive,2020.1.2,Win32,60,5f035e5afe130c270d6ae6dd,5f05e165646b9a0c2b942c9b,2,,,,,,hanger,,,,,,0,52,52,21,1,3,1,,,,,,,,,,,,,,,,,,,,,,,,,,,,,,,,,,,,,,,,,,,,,,,,,,,,,,,,,,,,,,,,,,,,,,,,,,,
,,,,,,,,,,stimuli/images/PICTURE_285.png,LIFE,56f55bc0736c79000c223b3d,01/04/1988,2020-07-08_11h09.02.703,proactive,2020.1.2,Win32,60,5f035e5afe130c270d6ae6dd,5f05e165646b9a0c2b942c9b,2,,,,,,carrot,,,,,,0,53,53,33,1,4,1,,,,,,,,,,,,,,,,,,,,,,,,,,,,,,,,,,,,,,,,,,,,,,,,,,,,,,,,,,,,,,,,,,,,,,,,,,,
,,,,,,,,,,stimuli/images/PICTURE_57.png,MOMENT,56f55bc0736c79000c223b3d,01/04/1988,2020-07-08_11h09.02.703,proactive,2020.1.2,Win32,60,5f035e5afe130c270d6ae6dd,5f05e165646b9a0c2b942c9b,2,,,,,,stamp,,,,,,0,54,54,37,1,4,1,,,,,,,,,,,,,,,,,,,,,,,,,,,,,,,,,,,,,,,,,,,,,,,,,,,,,,,,,,,,,,,,,,,,,,,,,,,
,,,,,,,,,,stimuli/images/PICTURE_504.png,ARTIST,56f55bc0736c79000c223b3d,01/04/1988,2020-07-08_11h09.02.703,proactive,2020.1.2,Win32,60,5f035e5afe130c270d6ae6dd,5f05e165646b9a0c2b942c9b,2,,,,,,wheel,,,,,,0,55,55,49,1,5,1,,,,,,,,,,,,,,,,,,,,,,,,,,,,,,,,,,,,,,,,,,,,,,,,,,,,,,,,,,,,,,,,,,,,,,,,,,,
,,,,,,,,,,stimuli/images/PICTURE_467.png,POLICY,56f55bc0736c79000c223b3d,01/04/1988,2020-07-08_11h09.02.703,proactive,2020.1.2,Win32,60,5f035e5afe130c270d6ae6dd,5f05e165646b9a0c2b942c9b,2,,,,,,peg,,,,,,0,56,56,53,1,6,1,,,,,,,,,,,,,,,,,,,,,,,,,,,,,,,,,,,,,,,,,,,,,,,,,,,,,,,,,,,,,,,,,,,,,,,,,,,
,,,,,,,,,,stimuli/images/PICTURE_403.png,RIVER,56f55bc0736c79000c223b3d,01/04/1988,2020-07-08_11h09.02.703,proactive,2020.1.2,Win32,60,5f035e5afe130c270d6ae6dd,5f05e165646b9a0c2b942c9b,2,,,,,,cathedral,,,,,,0,57,57,40,1,5,1,,,,,,,,,,,,,,,,,,,,,,,,,,,,,,,,,,,,,,,,,,,,,,,,,,,,,,,,,,,,,,,,,,,,,,,,,,,
,,,,,,,,,,stimuli/images/PICTURE_750.png,HOTEL,56f55bc0736c79000c223b3d,01/04/1988,2020-07-08_11h09.02.703,proactive,2020.1.2,Win32,60,5f035e5afe130c270d6ae6dd,5f05e165646b9a0c2b942c9b,2,,,,,,kettle,,,,,,0,58,58,27,1,3,1,,,,,,,,,,,,,,,,,,,,,,,,,,,,,,,,,,,,,,,,,,,,,,,,,,,,,,,,,,,,,,,,,,,,,,,,,,,
,,?,0.00153,0,,,,,,stimuli/images/PICTURE_750.png,HOTEL,56f55bc0736c79000c223b3d,01/04/1988,2020-07-08_11h09.02.703,proactive,2020.1.2,Win32,60,5f035e5afe130c270d6ae6dd,5f05e165646b9a0c2b942c9b,2,,,,,,kettle,,,,,,,,,,,3,1,0,0,0,27,1,,,,,,,,,,,,,,,,,,,,,,,,,,,,,,,,,,,,,,,,,,,,,,,,,,,,,,,,,,,,,,,,,,,,,,
,,?,0.000885,0,,,,,,stimuli/images/PICTURE_380.png,CANDY,56f55bc0736c79000c223b3d,01/04/1988,2020-07-08_11h09.02.703,proactive,2020.1.2,Win32,60,5f035e5afe130c270d6ae6dd,5f05e165646b9a0c2b942c9b,2,,,,,,gorilla,,,,,,,,,,,1,1,0,1,1,0,1,,,,,,,,,,,,,,,,,,,,,,,,,,,,,,,,,,,,,,,,,,,,,,,,,,,,,,,,,,,,,,,,,,,,,,
,,?,0.000905,0,,,,,,stimuli/images/PICTURE_504.png,ARTIST,56f55bc0736c79000c223b3d,01/04/1988,2020-07-08_11h09.02.703,proactive,2020.1.2,Win32,60,5f035e5afe130c270d6ae6dd,5f05e165646b9a0c2b942c9b,2,,,,,,wheel,,,,,,,,,,,5,1,0,2,2,49,1,,,,,,,,,,,,,,,,,,,,,,,,,,,,,,,,,,,,,,,,,,,,,,,,,,,,,,,,,,,,,,,,,,,,,,
,,?,0.0007,0,,,,,,stimuli/images/PICTURE_744.png,WEAPON,56f55bc0736c79000c223b3d,01/04/1988,2020-07-08_11h09.02.703,proactive,2020.1.2,Win32,60,5f035e5afe130c270d6ae6dd,5f05e165646b9a0c2b942c9b,2,,,,,,ring,,,,,,,,,,,6,1,0,3,3,50,1,,,,,,,,,,,,,,,,,,,,,,,,,,,,,,,,,,,,,,,,,,,,,,,,,,,,,,,,,,,,,,,,,,,,,,
,,?,4.677585,0,,,,,,stimuli/images/PICTURE_667.png,RIVER,56f55bc0736c79000c223b3d,01/04/1988,2020-07-08_11h09.02.703,proactive,2020.1.2,Win32,60,5f035e5afe130c270d6ae6dd,5f05e165646b9a0c2b942c9b,2,,,,,,daisy,,,,,,,,,,,2,1,0,4,4,10,1,,,,,,,,,,,,,,,,,,,,,,,,,,,,,,,,,,,,,,,,,,,,,,,,,,,,,,,,,,,,,,,,,,,,,,
,,?,0.00123,0,,,,,,stimuli/images/PICTURE_685.png,PENNY,56f55bc0736c79000c223b3d,01/04/1988,2020-07-08_11h09.02.703,proactive,2020.1.2,Win32,60,5f035e5afe130c270d6ae6dd,5f05e165646b9a0c2b942c9b,2,,,,,,goose,,,,,,,,,,,1,1,0,5,5,4,1,,,,,,,,,,,,,,,,,,,,,,,,,,,,,,,,,,,,,,,,,,,,,,,,,,,,,,,,,,,,,,,,,,,,,,
,,FLIGHT,1.61143,1,,,,,,stimuli/images/PICTURE_2.png,FLIGHT,56f55bc0736c79000c223b3d,01/04/1988,2020-07-08_11h09.02.703,proactive,2020.1.2,Win32,60,5f035e5afe130c270d6ae6dd,5f05e165646b9a0c2b942c9b,2,,,,,,tyre,,,,,,,,,,,2,1,0,6,6,15,1,,,,,,,,,,,,,,,,,,,,,,,,,,,,,,,,,,,,,,,,,,,,,,,,,,,,,,,,,,,,,,,,,,,,,,
,,?,0.00066,0,,,,,,stimuli/images/PICTURE_383.png,SERIES,56f55bc0736c79000c223b3d,01/04/1988,2020-07-08_11h09.02.703,proactive,2020.1.2,Win32,60,5f035e5afe130c270d6ae6dd,5f05e165646b9a0c2b942c9b,2,,,,,,coin,,,,,,,,,,,5,1,0,7,7,46,1,,,,,,,,,,,,,,,,,,,,,,,,,,,,,,,,,,,,,,,,,,,,,,,,,,,,,,,,,,,,,,,,,,,,,,
,,?,0.000425,0,,,,,,stimuli/images/PICTURE_504.png,COPS,56f55bc0736c79000c223b3d,01/04/1988,2020-07-08_11h09.02.703,proactive,2020.1.2,Win32,60,5f035e5afe130c270d6ae6dd,5f05e165646b9a0c2b942c9b,2,,,,,,wheel,,,,,,,,,,,6,1,0,8,8,52,1,,,,,,,,,,,,,,,,,,,,,,,,,,,,,,,,,,,,,,,,,,,,,,,,,,,,,,,,,,,,,,,,,,,,,,
,,?,0.00036,0,,,,,,stimuli/images/PICTURE_340.png,VALLEY,56f55bc0736c79000c223b3d,01/04/1988,2020-07-08_11h09.02.703,proactive,2020.1.2,Win32,60,5f035e5afe130c270d6ae6dd,5f05e165646b9a0c2b942c9b,2,,,,,,mirror,,,,,,,,,,,6,1,0,9,9,54,1,,,,,,,,,,,,,,,,,,,,,,,,,,,,,,,,,,,,,,,,,,,,,,,,,,,,,,,,,,,,,,,,,,,,,,
,,?,0.000335,0,,,,,,stimuli/images/PICTURE_327.png,SERIES,56f55bc0736c79000c223b3d,01/04/1988,2020-07-08_11h09.02.703,proactive,2020.1.2,Win32,60,5f035e5afe130c270d6ae6dd,5f05e165646b9a0c2b942c9b,2,,,,,,helmet,,,,,,,,,,,1,1,0,10,10,3,1,,,,,,,,,,,,,,,,,,,,,,,,,,,,,,,,,,,,,,,,,,,,,,,,,,,,,,,,,,,,,,,,,,,,,,
,,HONEY,2.209965,1,,,,,,stimuli/images/PICTURE_380.png,HONEY,56f55bc0736c79000c223b3d,01/04/1988,2020-07-08_11h09.02.703,proactive,2020.1.2,Win32,60,5f035e5afe130c270d6ae6dd,5f05e165646b9a0c2b942c9b,2,,,,,,gorilla,,,,,,,,,,,2,1,0,11,11,19,1,,,,,,,,,,,,,,,,,,,,,,,,,,,,,,,,,,,,,,,,,,,,,,,,,,,,,,,,,,,,,,,,,,,,,,
,,?,0.00103,0,,,,,,stimuli/images/PICTURE_487.png,GIRL,56f55bc0736c79000c223b3d,01/04/1988,2020-07-08_11h09.02.703,proactive,2020.1.2,Win32,60,5f035e5afe130c270d6ae6dd,5f05e165646b9a0c2b942c9b,2,,,,,,basket,,,,,,,,,,,5,1,0,12,12,45,1,,,,,,,,,,,,,,,,,,,,,,,,,,,,,,,,,,,,,,,,,,,,,,,,,,,,,,,,,,,,,,,,,,,,,,
,,?,0.000835,0,,,,,,stimuli/images/PICTURE_108.png,FLIGHT,56f55bc0736c79000c223b3d,01/04/1988,2020-07-08_11h09.02.703,proactive,2020.1.2,Win32,60,5f035e5afe130c270d6ae6dd,5f05e165646b9a0c2b942c9b,2,,,,,,calendar,,,,,,,,,,,6,1,0,13,13,59,1,,,,,,,,,,,,,,,,,,,,,,,,,,,,,,,,,,,,,,,,,,,,,,,,,,,,,,,,,,,,,,,,,,,,,,
,,?,0.000865,0,,,,,,stimuli/images/PICTURE_403.png,TOILET,56f55bc0736c79000c223b3d,01/04/1988,2020-07-08_11h09.02.703,proactive,2020.1.2,Win32,60,5f035e5afe130c270d6ae6dd,5f05e165646b9a0c2b942c9b,2,,,,,,cathedral,,,,,,,,,,,3,1,0,14,14,25,1,,,,,,,,,,,,,,,,,,,,,,,,,,,,,,,,,,,,,,,,,,,,,,,,,,,,,,,,,,,,,,,,,,,,,,
,,?,0.00087,0,,,,,,stimuli/images/PICTURE_203.png,GODS,56f55bc0736c79000c223b3d,01/04/1988,2020-07-08_11h09.02.703,proactive,2020.1.2,Win32,60,5f035e5afe130c270d6ae6dd,5f05e165646b9a0c2b942c9b,2,,,,,,cap,,,,,,,,,,,4,1,0,15,15,30,1,,,,,,,,,,,,,,,,,,,,,,,,,,,,,,,,,,,,,,,,,,,,,,,,,,,,,,,,,,,,,,,,,,,,,,
,,?,0.000825,0,,,,,,stimuli/images/PICTURE_177.png,WRITER,56f55bc0736c79000c223b3d,01/04/1988,2020-07-08_11h09.02.703,proactive,2020.1.2,Win32,60,5f035e5afe130c270d6ae6dd,5f05e165646b9a0c2b942c9b,2,,,,,,mushroom,,,,,,,,,,,5,1,0,16,16,41,1,,,,,,,,,,,,,,,,,,,,,,,,,,,,,,,,,,,,,,,,,,,,,,,,,,,,,,,,,,,,,,,,,,,,,,
,,?,0.00083,0,,,,,,stimuli/images/PICTURE_491.png,RIVER,56f55bc0736c79000c223b3d,01/04/1988,2020-07-08_11h09.02.703,proactive,2020.1.2,Win32,60,5f035e5afe130c270d6ae6dd,5f05e165646b9a0c2b942c9b,2,,,,,,rug,,,,,,,,,,,1,1,0,17,17,6,1,,,,,,,,,,,,,,,,,,,,,,,,,,,,,,,,,,,,,,,,,,,,,,,,,,,,,,,,,,,,,,,,,,,,,,
,,TOILET,4.199825,1,,,,,,stimuli/images/PICTURE_655.png,TOILET,56f55bc0736c79000c223b3d,01/04/1988,2020-07-08_11h09.02.703,proactive,2020.1.2,Win32,60,5f035e5afe130c270d6ae6dd,5f05e165646b9a0c2b942c9b,2,,,,,,megaphone,,,,,,,,,,,2,1,0,18,18,12,1,,,,,,,,,,,,,,,,,,,,,,,,,,,,,,,,,,,,,,,,,,,,,,,,,,,,,,,,,,,,,,,,,,,,,,
,,?,0.00087,0,,,,,,stimuli/images/PICTURE_677.png,APPLE,56f55bc0736c79000c223b3d,01/04/1988,2020-07-08_11h09.02.703,proactive,2020.1.2,Win32,60,5f035e5afe130c270d6ae6dd,5f05e165646b9a0c2b942c9b,2,,,,,,map,,,,,,,,,,,5,1,0,19,19,43,1,,,,,,,,,,,,,,,,,,,,,,,,,,,,,,,,,,,,,,,,,,,,,,,,,,,,,,,,,,,,,,,,,,,,,,
,,?,0.000645,0,,,,,,stimuli/images/PICTURE_405.png,YEAR,56f55bc0736c79000c223b3d,01/04/1988,2020-07-08_11h09.02.703,proactive,2020.1.2,Win32,60,5f035e5afe130c270d6ae6dd,5f05e165646b9a0c2b942c9b,2,,,,,,anchor,,,,,,,,,,,4,1,0,20,20,34,1,,,,,,,,,,,,,,,,,,,,,,,,,,,,,,,,,,,,,,,,,,,,,,,,,,,,,,,,,,,,,,,,,,,,,,
,,?,0.00066,0,,,,,,stimuli/images/PICTURE_297.png,RIVER,56f55bc0736c79000c223b3d,01/04/1988,2020-07-08_11h09.02.703,proactive,2020.1.2,Win32,60,5f035e5afe130c270d6ae6dd,5f05e165646b9a0c2b942c9b,2,,,,,,aeroplane,,,,,,,,,,,4,1,0,21,21,39,1,,,,,,,,,,,,,,,,,,,,,,,,,,,,,,,,,,,,,,,,,,,,,,,,,,,,,,,,,,,,,,,,,,,,,,
,,?,0.00187,0,,,,,,stimuli/images/PICTURE_340.png,LETTER,56f55bc0736c79000c223b3d,01/04/1988,2020-07-08_11h09.02.703,proactive,2020.1.2,Win32,60,5f035e5afe130c270d6ae6dd,5f05e165646b9a0c2b942c9b,2,,,,,,mirror,,,,,,,,,,,3,1,0,22,22,24,1,,,,,,,,,,,,,,,,,,,,,,,,,,,,,,,,,,,,,,,,,,,,,,,,,,,,,,,,,,,,,,,,,,,,,,
,,?,0.00064,0,,,,,,stimuli/images/PICTURE_33.png,FRIEND,56f55bc0736c79000c223b3d,01/04/1988,2020-07-08_11h09.02.703,proactive,2020.1.2,Win32,60,5f035e5afe130c270d6ae6dd,5f05e165646b9a0c2b942c9b,2,,,,,,frame,,,,,,,,,,,1,1,0,23,23,8,1,,,,,,,,,,,,,,,,,,,,,,,,,,,,,,,,,,,,,,,,,,,,,,,,,,,,,,,,,,,,,,,,,,,,,,
,,?,0.00299,0,,,,,,stimuli/images/PICTURE_32.png,KIND,56f55bc0736c79000c223b3d,01/04/1988,2020-07-08_11h09.02.703,proactive,2020.1.2,Win32,60,5f035e5afe130c270d6ae6dd,5f05e165646b9a0c2b942c9b,2,,,,,,crown,,,,,,,,,,,4,1,0,24,24,35,1,,,,,,,,,,,,,,,,,,,,,,,,,,,,,,,,,,,,,,,,,,,,,,,,,,,,,,,,,,,,,,,,,,,,,,
,,?,0.00068,0,,,,,,stimuli/images/PICTURE_708.png,RECORD,56f55bc0736c79000c223b3d,01/04/1988,2020-07-08_11h09.02.703,proactive,2020.1.2,Win32,60,5f035e5afe130c270d6ae6dd,5f05e165646b9a0c2b942c9b,2,,,,,,monkey,,,,,,,,,,,6,1,0,25,25,58,1,,,,,,,,,,,,,,,,,,,,,,,,,,,,,,,,,,,,,,,,,,,,,,,,,,,,,,,,,,,,,,,,,,,,,,
,,?,0.000665,0,,,,,,stimuli/images/PICTURE_467.png,POLICY,56f55bc0736c79000c223b3d,01/04/1988,2020-07-08_11h09.02.703,proactive,2020.1.2,Win32,60,5f035e5afe130c270d6ae6dd,5f05e165646b9a0c2b942c9b,2,,,,,,peg,,,,,,,,,,,6,1,0,26,26,53,1,,,,,,,,,,,,,,,,,,,,,,,,,,,,,,,,,,,,,,,,,,,,,,,,,,,,,,,,,,,,,,,,,,,,,,
,,?,0.00053,0,,,,,,stimuli/images/PICTURE_42.png,BOYS,56f55bc0736c79000c223b3d,01/04/1988,2020-07-08_11h09.02.703,proactive,2020.1.2,Win32,60,5f035e5afe130c270d6ae6dd,5f05e165646b9a0c2b942c9b,2,,,,,,pear,,,,,,,,,,,6,1,0,27,27,55,1,,,,,,,,,,,,,,,,,,,,,,,,,,,,,,,,,,,,,,,,,,,,,,,,,,,,,,,,,,,,,,,,,,,,,,
,,?,0.000545,0,,,,,,stimuli/images/PICTURE_233.png,LOTS,56f55bc0736c79000c223b3d,01/04/1988,2020-07-08_11h09.02.703,proactive,2020.1.2,Win32,60,5f035e5afe130c270d6ae6dd,5f05e165646b9a0c2b942c9b,2,,,,,,salt,,,,,,,,,,,5,1,0,28,28,42,1,,,,,,,,,,,,,,,,,,,,,,,,,,,,,,,,,,,,,,,,,,,,,,,,,,,,,,,,,,,,,,,,,,,,,,
,,?,0.000455,0,,,,,,stimuli/images/PICTURE_85.png,NATION,56f55bc0736c79000c223b3d,01/04/1988,2020-07-08_11h09.02.703,proactive,2020.1.2,Win32,60,5f035e5afe130c270d6ae6dd,5f05e165646b9a0c2b942c9b,2,,,,,,diamond,,,,,,,,,,,1,1,0,29,29,5,1,,,,,,,,,,,,,,,,,,,,,,,,,,,,,,,,,,,,,,,,,,,,,,,,,,,,,,,,,,,,,,,,,,,,,,
,,DUDE,1.32757,1,,,,,,stimuli/images/PICTURE_449.png,DUDE,56f55bc0736c79000c223b3d,01/04/1988,2020-07-08_11h09.02.703,proactive,2020.1.2,Win32,60,5f035e5afe130c270d6ae6dd,5f05e165646b9a0c2b942c9b,2,,,,,,bench,,,,,,,,,,,2,1,0,30,30,17,1,,,,,,,,,,,,,,,,,,,,,,,,,,,,,,,,,,,,,,,,,,,,,,,,,,,,,,,,,,,,,,,,,,,,,,
,,?,0.00132,0,,,,,,stimuli/images/PICTURE_147.png,YEAR,56f55bc0736c79000c223b3d,01/04/1988,2020-07-08_11h09.02.703,proactive,2020.1.2,Win32,60,5f035e5afe130c270d6ae6dd,5f05e165646b9a0c2b942c9b,2,,,,,,hanger,,,,,,,,,,,3,1,0,31,31,21,1,,,,,,,,,,,,,,,,,,,,,,,,,,,,,,,,,,,,,,,,,,,,,,,,,,,,,,,,,,,,,,,,,,,,,,
,,GLASS,1.66143,1,,,,,,stimuli/images/PICTURE_491.png,GLASS,56f55bc0736c79000c223b3d,01/04/1988,2020-07-08_11h09.02.703,proactive,2020.1.2,Win32,60,5f035e5afe130c270d6ae6dd,5f05e165646b9a0c2b942c9b,2,,,,,,rug,,,,,,,,,,,2,1,0,32,32,14,1,,,,,,,,,,,,,,,,,,,,,,,,,,,,,,,,,,,,,,,,,,,,,,,,,,,,,,,,,,,,,,,,,,,,,,
,,?,0.001335,0,,,,,,stimuli/images/PICTURE_85.png,TOILET,56f55bc0736c79000c223b3d,01/04/1988,2020-07-08_11h09.02.703,proactive,2020.1.2,Win32,60,5f035e5afe130c270d6ae6dd,5f05e165646b9a0c2b942c9b,2,,,,,,diamond,,,,,,,,,,,5,1,0,33,33,48,1,,,,,,,,,,,,,,,,,,,,,,,,,,,,,,,,,,,,,,,,,,,,,,,,,,,,,,,,,,,,,,,,,,,,,,
,,CLIENT,1.661505,1,,,,,,stimuli/images/PICTURE_339.png,CLIENT,56f55bc0736c79000c223b3d,01/04/1988,2020-07-08_11h09.02.703,proactive,2020.1.2,Win32,60,5f035e5afe130c270d6ae6dd,5f05e165646b9a0c2b942c9b,2,,,,,,backpack,,,,,,,,,,,2,1,0,34,34,11,1,,,,,,,,,,,,,,,,,,,,,,,,,,,,,,,,,,,,,,,,,,,,,,,,,,,,,,,,,,,,,,,,,,,,,,
,,?,5.24526,0,,,,,,stimuli/images/PICTURE_469.png,AGENT,56f55bc0736c79000c223b3d,01/04/1988,2020-07-08_11h09.02.703,proactive,2020.1.2,Win32,60,5f035e5afe130c270d6ae6dd,5f05e165646b9a0c2b942c9b,2,,,,,,stool,,,,,,,,,,,2,1,0,35,35,16,1,,,,,,,,,,,,,,,,,,,,,,,,,,,,,,,,,,,,,,,,,,,,,,,,,,,,,,,,,,,,,,,,,,,,,,
,,?,0.001695,0,,,,,,stimuli/images/PICTURE_147.png,WOMEN,56f55bc0736c79000c223b3d,01/04/1988,2020-07-08_11h09.02.703,proactive,2020.1.2,Win32,60,5f035e5afe130c270d6ae6dd,5f05e165646b9a0c2b942c9b,2,,,,,,hanger,,,,,,,,,,,1,1,0,36,36,7,1,,,,,,,,,,,,,,,,,,,,,,,,,,,,,,,,,,,,,,,,,,,,,,,,,,,,,,,,,,,,,,,,,,,,,,
,,?,0.00132,0,,,,,,stimuli/images/PICTURE_405.png,PLENTY,56f55bc0736c79000c223b3d,01/04/1988,2020-07-08_11h09.02.703,proactive,2020.1.2,Win32,60,5f035e5afe130c270d6ae6dd,5f05e165646b9a0c2b942c9b,2,,,,,,anchor,,,,,,,,,,,3,1,0,37,37,23,1,,,,,,,,,,,,,,,,,,,,,,,,,,,,,,,,,,,,,,,,,,,,,,,,,,,,,,,,,,,,,,,,,,,,,,
,,?,0.00097,0,,,,,,stimuli/images/PICTURE_403.png,WRITER,56f55bc0736c79000c223b3d,01/04/1988,2020-07-08_11h09.02.703,proactive,2020.1.2,Win32,60,5f035e5afe130c270d6ae6dd,5f05e165646b9a0c2b942c9b,2,,,,,,cathedral,,,,,,,,,,,4,1,0,38,38,31,1,,,,,,,,,,,,,,,,,,,,,,,,,,,,,,,,,,,,,,,,,,,,,,,,,,,,,,,,,,,,,,,,,,,,,,
,,?,0.000935,0,,,,,,stimuli/images/PICTURE_95.png,HONEY,56f55bc0736c79000c223b3d,01/04/1988,2020-07-08_11h09.02.703,proactive,2020.1.2,Win32,60,5f035e5afe130c270d6ae6dd,5f05e165646b9a0c2b942c9b,2,,,,,,suitcase,,,,,,,,,,,5,1,0,39,39,44,1,,,,,,,,,,,,,,,,,,,,,,,,,,,,,,,,,,,,,,,,,,,,,,,,,,,,,,,,,,,,,,,,,,,,,,
,,?,0.000695,0,,,,,,stimuli/images/PICTURE_296.png,LOTS,56f55bc0736c79000c223b3d,01/04/1988,2020-07-08_11h09.02.703,proactive,2020.1.2,Win32,60,5f035e5afe130c270d6ae6dd,5f05e165646b9a0c2b942c9b,2,,,,,,bolt,,,,,,,,,,,1,1,0,40,40,9,1,,,,,,,,,,,,,,,,,,,,,,,,,,,,,,,,,,,,,,,,,,,,,,,,,,,,,,,,,,,,,,,,,,,,,,
,,?,0.0007,0,,,,,,stimuli/images/PICTURE_108.png,POLICY,56f55bc0736c79000c223b3d,01/04/1988,2020-07-08_11h09.02.703,proactive,2020.1.2,Win32,60,5f035e5afe130c270d6ae6dd,5f05e165646b9a0c2b942c9b,2,,,,,,calendar,,,,,,,,,,,3,1,0,41,41,22,1,,,,,,,,,,,,,,,,,,,,,,,,,,,,,,,,,,,,,,,,,,,,,,,,,,,,,,,,,,,,,,,,,,,,,,
,,?,0.00064,0,,,,,,stimuli/images/PICTURE_95.png,BOYS,56f55bc0736c79000c223b3d,01/04/1988,2020-07-08_11h09.02.703,proactive,2020.1.2,Win32,60,5f035e5afe130c270d6ae6dd,5f05e165646b9a0c2b942c9b,2,,,,,,suitcase,,,,,,,,,,,1,1,0,42,42,1,1,,,,,,,,,,,,,,,,,,,,,,,,,,,,,,,,,,,,,,,,,,,,,,,,,,,,,,,,,,,,,,,,,,,,,,
,,YEAR,1.579755,1,,,,,,stimuli/images/PICTURE_504.png,YEAR,56f55bc0736c79000c223b3d,01/04/1988,2020-07-08_11h09.02.703,proactive,2020.1.2,Win32,60,5f035e5afe130c270d6ae6dd,5f05e165646b9a0c2b942c9b,2,,,,,,wheel,,,,,,,,,,,2,1,0,43,43,13,1,,,,,,,,,,,,,,,,,,,,,,,,,,,,,,,,,,,,,,,,,,,,,,,,,,,,,,,,,,,,,,,,,,,,,,
,,?,0.000535,0,,,,,,stimuli/images/PICTURE_68.png,MILE,56f55bc0736c79000c223b3d,01/04/1988,2020-07-08_11h09.02.703,proactive,2020.1.2,Win32,60,5f035e5afe130c270d6ae6dd,5f05e165646b9a0c2b942c9b,2,,,,,,candle,,,,,,,,,,,6,1,0,44,44,51,1,,,,,,,,,,,,,,,,,,,,,,,,,,,,,,,,,,,,,,,,,,,,,,,,,,,,,,,,,,,,,,,,,,,,,,
,,?,0.00028,0,,,,,,stimuli/images/PICTURE_208.png,SYSTEM,56f55bc0736c79000c223b3d,01/04/1988,2020-07-08_11h09.02.703,proactive,2020.1.2,Win32,60,5f035e5afe130c270d6ae6dd,5f05e165646b9a0c2b942c9b,2,,,,,,microphone,,,,,,,,,,,4,1,0,45,45,32,1,,,,,,,,,,,,,,,,,,,,,,,,,,,,,,,,,,,,,,,,,,,,,,,,,,,,,,,,,,,,,,,,,,,,,,
,,?,0.00028,0,,,,,,stimuli/images/PICTURE_327.png,CASINO,56f55bc0736c79000c223b3d,01/04/1988,2020-07-08_11h09.02.703,proactive,2020.1.2,Win32,60,5f035e5afe130c270d6ae6dd,5f05e165646b9a0c2b942c9b,2,,,,,,helmet,,,,,,,,,,,3,1,0,46,46,20,1,,,,,,,,,,,,,,,,,,,,,,,,,,,,,,,,,,,,,,,,,,,,,,,,,,,,,,,,,,,,,,,,,,,,,,
,,?,0.000265,0,,,,,,stimuli/images/PICTURE_203.png,NIGHT,56f55bc0736c79000c223b3d,01/04/1988,2020-07-08_11h09.02.703,proactive,2020.1.2,Win32,60,5f035e5afe130c270d6ae6dd,5f05e165646b9a0c2b942c9b,2,,,,,,cap,,,,,,,,,,,1,1,0,47,47,2,1,,,,,,,,,,,,,,,,,,,,,,,,,,,,,,,,,,,,,,,,,,,,,,,,,,,,,,,,,,,,,,,,,,,,,,
,,?,0.00027,0,,,,,,stimuli/images/PICTURE_57.png,MOMENT,56f55bc0736c79000c223b3d,01/04/1988,2020-07-08_11h09.02.703,proactive,2020.1.2,Win32,60,5f035e5afe130c270d6ae6dd,5f05e165646b9a0c2b942c9b,2,,,,,,stamp,,,,,,,,,,,4,1,0,48,48,37,1,,,,,,,,,,,,,,,,,,,,,,,,,,,,,,,,,,,,,,,,,,,,,,,,,,,,,,,,,,,,,,,,,,,,,,
,,?,0.00027,0,,,,,,stimuli/images/PICTURE_403.png,RIVER,56f55bc0736c79000c223b3d,01/04/1988,2020-07-08_11h09.02.703,proactive,2020.1.2,Win32,60,5f035e5afe130c270d6ae6dd,5f05e165646b9a0c2b942c9b,2,,,,,,cathedral,,,,,,,,,,,5,1,0,49,49,40,1,,,,,,,,,,,,,,,,,,,,,,,,,,,,,,,,,,,,,,,,,,,,,,,,,,,,,,,,,,,,,,,,,,,,,,
,,?,0.00027,0,,,,,,stimuli/images/PICTURE_383.png,WRITER,56f55bc0736c79000c223b3d,01/04/1988,2020-07-08_11h09.02.703,proactive,2020.1.2,Win32,60,5f035e5afe130c270d6ae6dd,5f05e165646b9a0c2b942c9b,2,,,,,,coin,,,,,,,,,,,3,1,0,50,50,28,1,,,,,,,,,,,,,,,,,,,,,,,,,,,,,,,,,,,,,,,,,,,,,,,,,,,,,,,,,,,,,,,,,,,,,,
,,PILL,2.05934,0,,,,,,stimuli/images/PICTURE_32.png,PILLS,56f55bc0736c79000c223b3d,01/04/1988,2020-07-08_11h09.02.703,proactive,2020.1.2,Win32,60,5f035e5afe130c270d6ae6dd,5f05e165646b9a0c2b942c9b,2,,,,,,crown,,,,,,,,,,,2,1,0,51,51,18,1,,,,,,,,,,,,,,,,,,,,,,,,,,,,,,,,,,,,,,,,,,,,,,,,,,,,,,,,,,,,,,,,,,,,,,
,,?,0.00092,0,,,,,,stimuli/images/PICTURE_296.png,LIFE,56f55bc0736c79000c223b3d,01/04/1988,2020-07-08_11h09.02.703,proactive,2020.1.2,Win32,60,5f035e5afe130c270d6ae6dd,5f05e165646b9a0c2b942c9b,2,,,,,,bolt,,,,,,,,,,,6,1,0,52,52,57,1,,,,,,,,,,,,,,,,,,,,,,,,,,,,,,,,,,,,,,,,,,,,,,,,,,,,,,,,,,,,,,,,,,,,,,
,,?,0.000625,0,,,,,,stimuli/images/PICTURE_95.png,MILLER,56f55bc0736c79000c223b3d,01/04/1988,2020-07-08_11h09.02.703,proactive,2020.1.2,Win32,60,5f035e5afe130c270d6ae6dd,5f05e165646b9a0c2b942c9b,2,,,,,,suitcase,,,,,,,,,,,6,1,0,53,53,56,1,,,,,,,,,,,,,,,,,,,,,,,,,,,,,,,,,,,,,,,,,,,,,,,,,,,,,,,,,,,,,,,,,,,,,,
,,?,0.000625,0,,,,,,stimuli/images/PICTURE_675.png,SALE,56f55bc0736c79000c223b3d,01/04/1988,2020-07-08_11h09.02.703,proactive,2020.1.2,Win32,60,5f035e5afe130c270d6ae6dd,5f05e165646b9a0c2b942c9b,2,,,,,,windmill,,,,,,,,,,,5,1,0,54,54,47,1,,,,,,,,,,,,,,,,,,,,,,,,,,,,,,,,,,,,,,,,,,,,,,,,,,,,,,,,,,,,,,,,,,,,,,
,,?,0.000645,0,,,,,,stimuli/images/PICTURE_564.png,BATH,56f55bc0736c79000c223b3d,01/04/1988,2020-07-08_11h09.02.703,proactive,2020.1.2,Win32,60,5f035e5afe130c270d6ae6dd,5f05e165646b9a0c2b942c9b,2,,,,,,spoon,,,,,,,,,,,3,1,0,55,55,26,1,,,,,,,,,,,,,,,,,,,,,,,,,,,,,,,,,,,,,,,,,,,,,,,,,,,,,,,,,,,,,,,,,,,,,,
,,?,0.00062,0,,,,,,stimuli/images/PICTURE_285.png,LIFE,56f55bc0736c79000c223b3d,01/04/1988,2020-07-08_11h09.02.703,proactive,2020.1.2,Win32,60,5f035e5afe130c270d6ae6dd,5f05e165646b9a0c2b942c9b,2,,,,,,carrot,,,,,,,,,,,4,1,0,56,56,33,1,,,,,,,,,,,,,,,,,,,,,,,,,,,,,,,,,,,,,,,,,,,,,,,,,,,,,,,,,,,,,,,,,,,,,,
,,?,0.000655,0,,,,,,stimuli/images/PICTURE_308.png,FAMILY,56f55bc0736c79000c223b3d,01/04/1988,2020-07-08_11h09.02.703,proactive,2020.1.2,Win32,60,5f035e5afe130c270d6ae6dd,5f05e165646b9a0c2b942c9b,2,,,,,,dice,,,,,,,,,,,4,1,0,57,57,36,1,,,,,,,,,,,,,,,,,,,,,,,,,,,,,,,,,,,,,,,,,,,,,,,,,,,,,,,,,,,,,,,,,,,,,,
,,?,0.000595,0,,,,,,stimuli/images/PICTURE_68.png,ROOF,56f55bc0736c79000c223b3d,01/04/1988,2020-07-08_11h09.02.703,proactive,2020.1.2,Win32,60,5f035e5afe130c270d6ae6dd,5f05e165646b9a0c2b942c9b,2,,,,,,candle,,,,,,,,,,,4,1,0,58,58,38,1,,,,,,,,,,,,,,,,,,,,,,,,,,,,,,,,,,,,,,,,,,,,,,,,,,,,,,,,,,,,,,,,,,,,,,
,,?,0.000265,0,,,,,,stimuli/images/PICTURE_654.png,MONTH,56f55bc0736c79000c223b3d,01/04/1988,2020-07-08_11h09.02.703,proactive,2020.1.2,Win32,60,5f035e5afe130c270d6ae6dd,5f05e165646b9a0c2b942c9b,2,,,,,,pencil,,,,,,,,,,,3,1,0,59,59,29,1,,,,,,,,,,,,,,,,,,,,,,,,,,,,,,,,,,,,,,,,,,,,,,,,,,,,,,,,,,,,,,,,,,,,,,
,,,,,,,,,,,,56f55bc0736c79000c223b3d,01/04/1988,2020-07-08_11h09.02.703,proactive,2020.1.2,Win32,60,5f035e5afe130c270d6ae6dd,5f05e165646b9a0c2b942c9b,2,,,,,,,,,,,,,,,,,,,,,,,,0,0,0,1,1,stimuli/learn-block2.csv,,,,,,,,,,,,,,,,,,,,,,,,,,,,,,,,,,,,,,,,,,,,,,,,,,,,,,,,,,,,,,,,
,,,,,,,,,,stimuli/images/PICTURE_215.png,FOOD,56f55bc0736c79000c223b3d,01/04/1988,2020-07-08_11h09.02.703,proactive,2020.1.2,Win32,60,5f035e5afe130c270d6ae6dd,5f05e165646b9a0c2b942c9b,2,,,,,,boot,,,,,,0,0,0,5,1,1,2,,,,,,,,,,,,,,,,,,,,,,,,,,,,,,,,,,,,,,,,,,,,,,,,,,,,,,,,,,,,,,,,,,,,,,,,,,,
,,,,,,,,,,stimuli/images/PICTURE_57.png,CANDY,56f55bc0736c79000c223b3d,01/04/1988,2020-07-08_11h09.02.703,proactive,2020.1.2,Win32,60,5f035e5afe130c270d6ae6dd,5f05e165646b9a0c2b942c9b,2,,,,,,stamp,,,,,,0,1,1,52,1,6,2,,,,,,,,,,,,,,,,,,,,,,,,,,,,,,,,,,,,,,,,,,,,,,,,,,,,,,,,,,,,,,,,,,,,,,,,,,,
,,,,,,,,,,stimuli/images/PICTURE_509.png,MILLER,56f55bc0736c79000c223b3d,01/04/1988,2020-07-08_11h09.02.703,proactive,2020.1.2,Win32,60,5f035e5afe130c270d6ae6dd,5f05e165646b9a0c2b942c9b,2,,,,,,telephone,,,,,,0,2,2,49,1,5,2,,,,,,,,,,,,,,,,,,,,,,,,,,,,,,,,,,,,,,,,,,,,,,,,,,,,,,,,,,,,,,,,,,,,,,,,,,,
,,,,,,,,,,stimuli/images/PICTURE_356.png,CANDY,56f55bc0736c79000c223b3d,01/04/1988,2020-07-08_11h09.02.703,proactive,2020.1.2,Win32,60,5f035e5afe130c270d6ae6dd,5f05e165646b9a0c2b942c9b,2,,,,,,pawn,,,,,,0,3,3,46,1,5,2,,,,,,,,,,,,,,,,,,,,,,,,,,,,,,,,,,,,,,,,,,,,,,,,,,,,,,,,,,,,,,,,,,,,,,,,,,,
,,,,,,,,,,stimuli/images/PICTURE_470.png,MOMENT,56f55bc0736c79000c223b3d,01/04/1988,2020-07-08_11h09.02.703,proactive,2020.1.2,Win32,60,5f035e5afe130c270d6ae6dd,5f05e165646b9a0c2b942c9b,2,,,,,,motorbike,,,,,,0,4,4,40,1,5,2,,,,,,,,,,,,,,,,,,,,,,,,,,,,,,,,,,,,,,,,,,,,,,,,,,,,,,,,,,,,,,,,,,,,,,,,,,,
,,,,,,,,,,stimuli/images/PICTURE_654.png,COPS,56f55bc0736c79000c223b3d,01/04/1988,2020-07-08_11h09.02.703,proactive,2020.1.2,Win32,60,5f035e5afe130c270d6ae6dd,5f05e165646b9a0c2b942c9b,2,,,,,,pencil,,,,,,0,5,5,10,1,2,2,,,,,,,,,,,,,,,,,,,,,,,,,,,,,,,,,,,,,,,,,,,,,,,,,,,,,,,,,,,,,,,,,,,,,,,,,,,
,,,,,,,,,,stimuli/images/PICTURE_487.png,ROOF,56f55bc0736c79000c223b3d,01/04/1988,2020-07-08_11h09.02.703,proactive,2020.1.2,Win32,60,5f035e5afe130c270d6ae6dd,5f05e165646b9a0c2b942c9b,2,,,,,,basket,,,,,,0,6,6,50,1,6,2,,,,,,,,,,,,,,,,,,,,,,,,,,,,,,,,,,,,,,,,,,,,,,,,,,,,,,,,,,,,,,,,,,,,,,,,,,,
,,,,,,,,,,stimuli/images/PICTURE_2.png,YARD,56f55bc0736c79000c223b3d,01/04/1988,2020-07-08_11h09.02.703,proactive,2020.1.2,Win32,60,5f035e5afe130c270d6ae6dd,5f05e165646b9a0c2b942c9b,2,,,,,,tyre,,,,,,0,7,7,55,1,6,2,,,,,,,,,,,,,,,,,,,,,,,,,,,,,,,,,,,,,,,,,,,,,,,,,,,,,,,,,,,,,,,,,,,,,,,,,,,
,,,,,,,,,,stimuli/images/PICTURE_708.png,VALLEY,56f55bc0736c79000c223b3d,01/04/1988,2020-07-08_11h09.02.703,proactive,2020.1.2,Win32,60,5f035e5afe130c270d6ae6dd,5f05e165646b9a0c2b942c9b,2,,,,,,monkey,,,,,,0,8,8,45,1,5,2,,,,,,,,,,,,,,,,,,,,,,,,,,,,,,,,,,,,,,,,,,,,,,,,,,,,,,,,,,,,,,,,,,,,,,,,,,,
,,,,,,,,,,stimuli/images/PICTURE_405.png,HOUSE,56f55bc0736c79000c223b3d,01/04/1988,2020-07-08_11h09.02.703,proactive,2020.1.2,Win32,60,5f035e5afe130c270d6ae6dd,5f05e165646b9a0c2b942c9b,2,,,,,,anchor,,,,,,0,9,9,2,1,1,2,,,,,,,,,,,,,,,,,,,,,,,,,,,,,,,,,,,,,,,,,,,,,,,,,,,,,,,,,,,,,,,,,,,,,,,,,,,
,,,,,,,,,,stimuli/images/PICTURE_141.png,CLIENT,56f55bc0736c79000c223b3d,01/04/1988,2020-07-08_11h09.02.703,proactive,2020.1.2,Win32,60,5f035e5afe130c270d6ae6dd,5f05e165646b9a0c2b942c9b,2,,,,,,sunflower,,,,,,0,10,10,30,1,4,2,,,,,,,,,,,,,,,,,,,,,,,,,,,,,,,,,,,,,,,,,,,,,,,,,,,,,,,,,,,,,,,,,,,,,,,,,,,
,,,,,,,,,,stimuli/images/PICTURE_452.png,COPS,56f55bc0736c79000c223b3d,01/04/1988,2020-07-08_11h09.02.703,proactive,2020.1.2,Win32,60,5f035e5afe130c270d6ae6dd,5f05e165646b9a0c2b942c9b,2,,,,,,watch,,,,,,0,11,11,0,1,1,2,,,,,,,,,,,,,,,,,,,,,,,,,,,,,,,,,,,,,,,,,,,,,,,,,,,,,,,,,,,,,,,,,,,,,,,,,,,
,,,,,,,,,,stimuli/images/PICTURE_160.png,HOTEL,56f55bc0736c79000c223b3d,01/04/1988,2020-07-08_11h09.02.703,proactive,2020.1.2,Win32,60,5f035e5afe130c270d6ae6dd,5f05e165646b9a0c2b942c9b,2,,,,,,wheelbarrow,,,,,,0,12,12,16,1,2,2,,,,,,,,,,,,,,,,,,,,,,,,,,,,,,,,,,,,,,,,,,,,,,,,,,,,,,,,,,,,,,,,,,,,,,,,,,,
,,,,,,,,,,stimuli/images/PICTURE_93.png,GIRL,56f55bc0736c79000c223b3d,01/04/1988,2020-07-08_11h09.02.703,proactive,2020.1.2,Win32,60,5f035e5afe130c270d6ae6dd,5f05e165646b9a0c2b942c9b,2,,,,,,skateboard,,,,,,0,13,13,31,1,4,2,,,,,,,,,,,,,,,,,,,,,,,,,,,,,,,,,,,,,,,,,,,,,,,,,,,,,,,,,,,,,,,,,,,,,,,,,,,
,,,,,,,,,,stimuli/images/PICTURE_405.png,JUNGLE,56f55bc0736c79000c223b3d,01/04/1988,2020-07-08_11h09.02.703,proactive,2020.1.2,Win32,60,5f035e5afe130c270d6ae6dd,5f05e165646b9a0c2b942c9b,2,,,,,,anchor,,,,,,0,14,14,58,1,6,2,,,,,,,,,,,,,,,,,,,,,,,,,,,,,,,,,,,,,,,,,,,,,,,,,,,,,,,,,,,,,,,,,,,,,,,,,,,
,,,,,,,,,,stimuli/images/PICTURE_296.png,CLOCK,56f55bc0736c79000c223b3d,01/04/1988,2020-07-08_11h09.02.703,proactive,2020.1.2,Win32,60,5f035e5afe130c270d6ae6dd,5f05e165646b9a0c2b942c9b,2,,,,,,bolt,,,,,,0,15,15,18,1,2,2,,,,,,,,,,,,,,,,,,,,,,,,,,,,,,,,,,,,,,,,,,,,,,,,,,,,,,,,,,,,,,,,,,,,,,,,,,,
,,,,,,,,,,stimuli/images/PICTURE_564.png,PLENTY,56f55bc0736c79000c223b3d,01/04/1988,2020-07-08_11h09.02.703,proactive,2020.1.2,Win32,60,5f035e5afe130c270d6ae6dd,5f05e165646b9a0c2b942c9b,2,,,,,,spoon,,,,,,0,16,16,11,1,2,2,,,,,,,,,,,,,,,,,,,,,,,,,,,,,,,,,,,,,,,,,,,,,,,,,,,,,,,,,,,,,,,,,,,,,,,,,,,
,,,,,,,,,,stimuli/images/PICTURE_348.png,TOILET,56f55bc0736c79000c223b3d,01/04/1988,2020-07-08_11h09.02.703,proactive,2020.1.2,Win32,60,5f035e5afe130c270d6ae6dd,5f05e165646b9a0c2b942c9b,2,,,,,,pepper,,,,,,0,17,17,4,1,1,2,,,,,,,,,,,,,,,,,,,,,,,,,,,,,,,,,,,,,,,,,,,,,,,,,,,,,,,,,,,,,,,,,,,,,,,,,,,
,,,,,,,,,,stimuli/images/PICTURE_215.png,BOYS,56f55bc0736c79000c223b3d,01/04/1988,2020-07-08_11h09.02.703,proactive,2020.1.2,Win32,60,5f035e5afe130c270d6ae6dd,5f05e165646b9a0c2b942c9b,2,,,,,,boot,,,,,,0,18,18,24,1,3,2,,,,,,,,,,,,,,,,,,,,,,,,,,,,,,,,,,,,,,,,,,,,,,,,,,,,,,,,,,,,,,,,,,,,,,,,,,,
,,,,,,,,,,stimuli/images/PICTURE_487.png,POLICY,56f55bc0736c79000c223b3d,01/04/1988,2020-07-08_11h09.02.703,proactive,2020.1.2,Win32,60,5f035e5afe130c270d6ae6dd,5f05e165646b9a0c2b942c9b,2,,,,,,basket,,,,,,0,19,19,34,1,4,2,,,,,,,,,,,,,,,,,,,,,,,,,,,,,,,,,,,,,,,,,,,,,,,,,,,,,,,,,,,,,,,,,,,,,,,,,,,
,,,,,,,,,,stimuli/images/PICTURE_255.png,PENNY,56f55bc0736c79000c223b3d,01/04/1988,2020-07-08_11h09.02.703,proactive,2020.1.2,Win32,60,5f035e5afe130c270d6ae6dd,5f05e165646b9a0c2b942c9b,2,,,,,,shovel,,,,,,0,20,20,19,1,2,2,,,,,,,,,,,,,,,,,,,,,,,,,,,,,,,,,,,,,,,,,,,,,,,,,,,,,,,,,,,,,,,,,,,,,,,,,,,
,,,,,,,,,,stimuli/images/PICTURE_215.png,LEADER,56f55bc0736c79000c223b3d,01/04/1988,2020-07-08_11h09.02.703,proactive,2020.1.2,Win32,60,5f035e5afe130c270d6ae6dd,5f05e165646b9a0c2b942c9b,2,,,,,,boot,,,,,,0,21,21,43,1,5,2,,,,,,,,,,,,,,,,,,,,,,,,,,,,,,,,,,,,,,,,,,,,,,,,,,,,,,,,,,,,,,,,,,,,,,,,,,,
,,,,,,,,,,stimuli/images/PICTURE_750.png,POLICY,56f55bc0736c79000c223b3d,01/04/1988,2020-07-08_11h09.02.703,proactive,2020.1.2,Win32,60,5f035e5afe130c270d6ae6dd,5f05e165646b9a0c2b942c9b,2,,,,,,kettle,,,,,,0,22,22,44,1,5,2,,,,,,,,,,,,,,,,,,,,,,,,,,,,,,,,,,,,,,,,,,,,,,,,,,,,,,,,,,,,,,,,,,,,,,,,,,,
,,,,,,,,,,stimuli/images/PICTURE_403.png,FAMILY,56f55bc0736c79000c223b3d,01/04/1988,2020-07-08_11h09.02.703,proactive,2020.1.2,Win32,60,5f035e5afe130c270d6ae6dd,5f05e165646b9a0c2b942c9b,2,,,,,,cathedral,,,,,,0,23,23,9,1,1,2,,,,,,,,,,,,,,,,,,,,,,,,,,,,,,,,,,,,,,,,,,,,,,,,,,,,,,,,,,,,,,,,,,,,,,,,,,,
,,,,,,,,,,stimuli/images/PICTURE_285.png,WRITER,56f55bc0736c79000c223b3d,01/04/1988,2020-07-08_11h09.02.703,proactive,2020.1.2,Win32,60,5f035e5afe130c270d6ae6dd,5f05e165646b9a0c2b942c9b,2,,,,,,carrot,,,,,,0,24,24,6,1,1,2,,,,,,,,,,,,,,,,,,,,,,,,,,,,,,,,,,,,,,,,,,,,,,,,,,,,,,,,,,,,,,,,,,,,,,,,,,,
,,,,,,,,,,stimuli/images/PICTURE_311.png,TOILET,56f55bc0736c79000c223b3d,01/04/1988,2020-07-08_11h09.02.703,proactive,2020.1.2,Win32,60,5f035e5afe130c270d6ae6dd,5f05e165646b9a0c2b942c9b,2,,,,,,razor,,,,,,0,25,25,54,1,6,2,,,,,,,,,,,,,,,,,,,,,,,,,,,,,,,,,,,,,,,,,,,,,,,,,,,,,,,,,,,,,,,,,,,,,,,,,,,
,,,,,,,,,,stimuli/images/PICTURE_509.png,BATH,56f55bc0736c79000c223b3d,01/04/1988,2020-07-08_11h09.02.703,proactive,2020.1.2,Win32,60,5f035e5afe130c270d6ae6dd,5f05e165646b9a0c2b942c9b,2,,,,,,telephone,,,,,,0,26,26,15,1,2,2,,,,,,,,,,,,,,,,,,,,,,,,,,,,,,,,,,,,,,,,,,,,,,,,,,,,,,,,,,,,,,,,,,,,,,,,,,,
,,,,,,,,,,stimuli/images/PICTURE_95.png,NIGHT,56f55bc0736c79000c223b3d,01/04/1988,2020-07-08_11h09.02.703,proactive,2020.1.2,Win32,60,5f035e5afe130c270d6ae6dd,5f05e165646b9a0c2b942c9b,2,,,,,,suitcase,,,,,,0,27,27,37,1,4,2,,,,,,,,,,,,,,,,,,,,,,,,,,,,,,,,,,,,,,,,,,,,,,,,,,,,,,,,,,,,,,,,,,,,,,,,,,,
,,,,,,,,,,stimuli/images/PICTURE_68.png,KIND,56f55bc0736c79000c223b3d,01/04/1988,2020-07-08_11h09.02.703,proactive,2020.1.2,Win32,60,5f035e5afe130c270d6ae6dd,5f05e165646b9a0c2b942c9b,2,,,,,,candle,,,,,,0,28,28,23,1,3,2,,,,,,,,,,,,,,,,,,,,,,,,,,,,,,,,,,,,,,,,,,,,,,,,,,,,,,,,,,,,,,,,,,,,,,,,,,,
,,,,,,,,,,stimuli/images/PICTURE_2.png,AREA,56f55bc0736c79000c223b3d,01/04/1988,2020-07-08_11h09.02.703,proactive,2020.1.2,Win32,60,5f035e5afe130c270d6ae6dd,5f05e165646b9a0c2b942c9b,2,,,,,,tyre,,,,,,0,29,29,32,1,4,2,,,,,,,,,,,,,,,,,,,,,,,,,,,,,,,,,,,,,,,,,,,,,,,,,,,,,,,,,,,,,,,,,,,,,,,,,,,
,,,,,,,,,,stimuli/images/PICTURE_327.png,LEADER,56f55bc0736c79000c223b3d,01/04/1988,2020-07-08_11h09.02.703,proactive,2020.1.2,Win32,60,5f035e5afe130c270d6ae6dd,5f05e165646b9a0c2b942c9b,2,,,,,,helmet,,,,,,0,30,30,17,1,2,2,,,,,,,,,,,,,,,,,,,,,,,,,,,,,,,,,,,,,,,,,,,,,,,,,,,,,,,,,,,,,,,,,,,,,,,,,,,
,,,,,,,,,,stimuli/images/PICTURE_57.png,CASINO,56f55bc0736c79000c223b3d,01/04/1988,2020-07-08_11h09.02.703,proactive,2020.1.2,Win32,60,5f035e5afe130c270d6ae6dd,5f05e165646b9a0c2b942c9b,2,,,,,,stamp,,,,,,0,31,31,12,1,2,2,,,,,,,,,,,,,,,,,,,,,,,,,,,,,,,,,,,,,,,,,,,,,,,,,,,,,,,,,,,,,,,,,,,,,,,,,,,
,,,,,,,,,,stimuli/images/PICTURE_504.png,HOUSE,56f55bc0736c79000c223b3d,01/04/1988,2020-07-08_11h09.02.703,proactive,2020.1.2,Win32,60,5f035e5afe130c270d6ae6dd,5f05e165646b9a0c2b942c9b,2,,,,,,wheel,,,,,,0,32,32,36,1,4,2,,,,,,,,,,,,,,,,,,,,,,,,,,,,,,,,,,,,,,,,,,,,,,,,,,,,,,,,,,,,,,,,,,,,,,,,,,,
,,,,,,,,,,stimuli/images/PICTURE_297.png,BODY,56f55bc0736c79000c223b3d,01/04/1988,2020-07-08_11h09.02.703,proactive,2020.1.2,Win32,60,5f035e5afe130c270d6ae6dd,5f05e165646b9a0c2b942c9b,2,,,,,,aeroplane,,,,,,0,33,33,51,1,6,2,,,,,,,,,,,,,,,,,,,,,,,,,,,,,,,,,,,,,,,,,,,,,,,,,,,,,,,,,,,,,,,,,,,,,,,,,,,
,,,,,,,,,,stimuli/images/PICTURE_285.png,PRINCE,56f55bc0736c79000c223b3d,01/04/1988,2020-07-08_11h09.02.703,proactive,2020.1.2,Win32,60,5f035e5afe130c270d6ae6dd,5f05e165646b9a0c2b942c9b,2,,,,,,carrot,,,,,,0,34,34,20,1,3,2,,,,,,,,,,,,,,,,,,,,,,,,,,,,,,,,,,,,,,,,,,,,,,,,,,,,,,,,,,,,,,,,,,,,,,,,,,,
,,,,,,,,,,stimuli/images/PICTURE_692.png,DUDE,56f55bc0736c79000c223b3d,01/04/1988,2020-07-08_11h09.02.703,proactive,2020.1.2,Win32,60,5f035e5afe130c270d6ae6dd,5f05e165646b9a0c2b942c9b,2,,,,,,cherry,,,,,,0,35,35,47,1,5,2,,,,,,,,,,,,,,,,,,,,,,,,,,,,,,,,,,,,,,,,,,,,,,,,,,,,,,,,,,,,,,,,,,,,,,,,,,,
,,,,,,,,,,stimuli/images/PICTURE_208.png,SPIRIT,56f55bc0736c79000c223b3d,01/04/1988,2020-07-08_11h09.02.703,proactive,2020.1.2,Win32,60,5f035e5afe130c270d6ae6dd,5f05e165646b9a0c2b942c9b,2,,,,,,microphone,,,,,,0,36,36,28,1,3,2,,,,,,,,,,,,,,,,,,,,,,,,,,,,,,,,,,,,,,,,,,,,,,,,,,,,,,,,,,,,,,,,,,,,,,,,,,,
,,,,,,,,,,stimuli/images/PICTURE_123.png,SALE,56f55bc0736c79000c223b3d,01/04/1988,2020-07-08_11h09.02.703,proactive,2020.1.2,Win32,60,5f035e5afe130c270d6ae6dd,5f05e165646b9a0c2b942c9b,2,,,,,,dart,,,,,,0,37,37,8,1,1,2,,,,,,,,,,,,,,,,,,,,,,,,,,,,,,,,,,,,,,,,,,,,,,,,,,,,,,,,,,,,,,,,,,,,,,,,,,,
,,,,,,,,,,stimuli/images/PICTURE_509.png,SHOTS,56f55bc0736c79000c223b3d,01/04/1988,2020-07-08_11h09.02.703,proactive,2020.1.2,Win32,60,5f035e5afe130c270d6ae6dd,5f05e165646b9a0c2b942c9b,2,,,,,,telephone,,,,,,0,38,38,7,1,1,2,,,,,,,,,,,,,,,,,,,,,,,,,,,,,,,,,,,,,,,,,,,,,,,,,,,,,,,,,,,,,,,,,,,,,,,,,,,
,,,,,,,,,,stimuli/images/PICTURE_405.png,JUNGLE,56f55bc0736c79000c223b3d,01/04/1988,2020-07-08_11h09.02.703,proactive,2020.1.2,Win32,60,5f035e5afe130c270d6ae6dd,5f05e165646b9a0c2b942c9b,2,,,,,,anchor,,,,,,0,39,39,13,1,2,2,,,,,,,,,,,,,,,,,,,,,,,,,,,,,,,,,,,,,,,,,,,,,,,,,,,,,,,,,,,,,,,,,,,,,,,,,,,
,,,,,,,,,,stimuli/images/PICTURE_147.png,LEADER,56f55bc0736c79000c223b3d,01/04/1988,2020-07-08_11h09.02.703,proactive,2020.1.2,Win32,60,5f035e5afe130c270d6ae6dd,5f05e165646b9a0c2b942c9b,2,,,,,,hanger,,,,,,0,40,40,33,1,4,2,,,,,,,,,,,,,,,,,,,,,,,,,,,,,,,,,,,,,,,,,,,,,,,,,,,,,,,,,,,,,,,,,,,,,,,,,,,
,,,,,,,,,,stimuli/images/PICTURE_688.png,CLOCK,56f55bc0736c79000c223b3d,01/04/1988,2020-07-08_11h09.02.703,proactive,2020.1.2,Win32,60,5f035e5afe130c270d6ae6dd,5f05e165646b9a0c2b942c9b,2,,,,,,runner,,,,,,0,41,41,42,1,5,2,,,,,,,,,,,,,,,,,,,,,,,,,,,,,,,,,,,,,,,,,,,,,,,,,,,,,,,,,,,,,,,,,,,,,,,,,,,
,,,,,,,,,,stimuli/images/PICTURE_655.png,SALE,56f55bc0736c79000c223b3d,01/04/1988,2020-07-08_11h09.02.703,proactive,2020.1.2,Win32,60,5f035e5afe130c270d6ae6dd,5f05e165646b9a0c2b942c9b,2,,,,,,megaphone,,,,,,0,42,42,57,1,6,2,,,,,,,,,,,,,,,,,,,,,,,,,,,,,,,,,,,,,,,,,,,,,,,,,,,,,,,,,,,,,,,,,,,,,,,,,,,
,,,,,,,,,,stimuli/images/PICTURE_348.png,DUDE,56f55bc0736c79000c223b3d,01/04/1988,2020-07-08_11h09.02.703,proactive,2020.1.2,Win32,60,5f035e5afe130c270d6ae6dd,5f05e165646b9a0c2b942c9b,2,,,,,,pepper,,,,,,0,43,43,59,1,6,2,,,,,,,,,,,,,,,,,,,,,,,,,,,,,,,,,,,,,,,,,,,,,,,,,,,,,,,,,,,,,,,,,,,,,,,,,,,
,,,,,,,,,,stimuli/images/PICTURE_667.png,GLASS,56f55bc0736c79000c223b3d,01/04/1988,2020-07-08_11h09.02.703,proactive,2020.1.2,Win32,60,5f035e5afe130c270d6ae6dd,5f05e165646b9a0c2b942c9b,2,,,,,,daisy,,,,,,0,44,44,27,1,3,2,,,,,,,,,,,,,,,,,,,,,,,,,,,,,,,,,,,,,,,,,,,,,,,,,,,,,,,,,,,,,,,,,,,,,,,,,,,
,,,,,,,,,,stimuli/images/PICTURE_57.png,NATION,56f55bc0736c79000c223b3d,01/04/1988,2020-07-08_11h09.02.703,proactive,2020.1.2,Win32,60,5f035e5afe130c270d6ae6dd,5f05e165646b9a0c2b942c9b,2,,,,,,stamp,,,,,,0,45,45,21,1,3,2,,,,,,,,,,,,,,,,,,,,,,,,,,,,,,,,,,,,,,,,,,,,,,,,,,,,,,,,,,,,,,,,,,,,,,,,,,,
,,,,,,,,,,stimuli/images/PICTURE_33.png,COPS,56f55bc0736c79000c223b3d,01/04/1988,2020-07-08_11h09.02.703,proactive,2020.1.2,Win32,60,5f035e5afe130c270d6ae6dd,5f05e165646b9a0c2b942c9b,2,,,,,,frame,,,,,,0,46,46,29,1,3,2,,,,,,,,,,,,,,,,,,,,,,,,,,,,,,,,,,,,,,,,,,,,,,,,,,,,,,,,,,,,,,,,,,,,,,,,,,,
,,,,,,,,,,stimuli/images/PICTURE_18.png,RIVER,56f55bc0736c79000c223b3d,01/04/1988,2020-07-08_11h09.02.703,proactive,2020.1.2,Win32,60,5f035e5afe130c270d6ae6dd,5f05e165646b9a0c2b942c9b,2,,,,,,planet,,,,,,0,47,47,22,1,3,2,,,,,,,,,,,,,,,,,,,,,,,,,,,,,,,,,,,,,,,,,,,,,,,,,,,,,,,,,,,,,,,,,,,,,,,,,,,
,,,,,,,,,,stimuli/images/PICTURE_470.png,BEAUTY,56f55bc0736c79000c223b3d,01/04/1988,2020-07-08_11h09.02.703,proactive,2020.1.2,Win32,60,5f035e5afe130c270d6ae6dd,5f05e165646b9a0c2b942c9b,2,,,,,,motorbike,,,,,,0,48,48,26,1,3,2,,,,,,,,,,,,,,,,,,,,,,,,,,,,,,,,,,,,,,,,,,,,,,,,,,,,,,,,,,,,,,,,,,,,,,,,,,,
,,,,,,,,,,stimuli/images/PICTURE_177.png,HOUSE,56f55bc0736c79000c223b3d,01/04/1988,2020-07-08_11h09.02.703,proactive,2020.1.2,Win32,60,5f035e5afe130c270d6ae6dd,5f05e165646b9a0c2b942c9b,2,,,,,,mushroom,,,,,,0,49,49,25,1,3,2,,,,,,,,,,,,,,,,,,,,,,,,,,,,,,,,,,,,,,,,,,,,,,,,,,,,,,,,,,,,,,,,,,,,,,,,,,,
,,,,,,,,,,stimuli/images/PICTURE_314.png,SPEECH,56f55bc0736c79000c223b3d,01/04/1988,2020-07-08_11h09.02.703,proactive,2020.1.2,Win32,60,5f035e5afe130c270d6ae6dd,5f05e165646b9a0c2b942c9b,2,,,,,,perfume,,,,,,0,50,50,35,1,4,2,,,,,,,,,,,,,,,,,,,,,,,,,,,,,,,,,,,,,,,,,,,,,,,,,,,,,,,,,,,,,,,,,,,,,,,,,,,
,,,,,,,,,,stimuli/images/PICTURE_453.png,FAMILY,56f55bc0736c79000c223b3d,01/04/1988,2020-07-08_11h09.02.703,proactive,2020.1.2,Win32,60,5f035e5afe130c270d6ae6dd,5f05e165646b9a0c2b942c9b,2,,,,,,scissors,,,,,,0,51,51,48,1,5,2,,,,,,,,,,,,,,,,,,,,,,,,,,,,,,,,,,,,,,,,,,,,,,,,,,,,,,,,,,,,,,,,,,,,,,,,,,,
,,,,,,,,,,stimuli/images/PICTURE_677.png,FAMILY,56f55bc0736c79000c223b3d,01/04/1988,2020-07-08_11h09.02.703,proactive,2020.1.2,Win32,60,5f035e5afe130c270d6ae6dd,5f05e165646b9a0c2b942c9b,2,,,,,,map,,,,,,0,52,52,53,1,6,2,,,,,,,,,,,,,,,,,,,,,,,,,,,,,,,,,,,,,,,,,,,,,,,,,,,,,,,,,,,,,,,,,,,,,,,,,,,
,,,,,,,,,,stimuli/images/PICTURE_654.png,YEAR,56f55bc0736c79000c223b3d,01/04/1988,2020-07-08_11h09.02.703,proactive,2020.1.2,Win32,60,5f035e5afe130c270d6ae6dd,5f05e165646b9a0c2b942c9b,2,,,,,,pencil,,,,,,0,53,53,41,1,5,2,,,,,,,,,,,,,,,,,,,,,,,,,,,,,,,,,,,,,,,,,,,,,,,,,,,,,,,,,,,,,,,,,,,,,,,,,,,
,,,,,,,,,,stimuli/images/PICTURE_2.png,JUNGLE,56f55bc0736c79000c223b3d,01/04/1988,2020-07-08_11h09.02.703,proactive,2020.1.2,Win32,60,5f035e5afe130c270d6ae6dd,5f05e165646b9a0c2b942c9b,2,,,,,,tyre,,,,,,0,54,54,1,1,1,2,,,,,,,,,,,,,,,,,,,,,,,,,,,,,,,,,,,,,,,,,,,,,,,,,,,,,,,,,,,,,,,,,,,,,,,,,,,
,,,,,,,,,,stimuli/images/PICTURE_311.png,FLESH,56f55bc0736c79000c223b3d,01/04/1988,2020-07-08_11h09.02.703,proactive,2020.1.2,Win32,60,5f035e5afe130c270d6ae6dd,5f05e165646b9a0c2b942c9b,2,,,,,,razor,,,,,,0,55,55,3,1,1,2,,,,,,,,,,,,,,,,,,,,,,,,,,,,,,,,,,,,,,,,,,,,,,,,,,,,,,,,,,,,,,,,,,,,,,,,,,,
,,,,,,,,,,stimuli/images/PICTURE_509.png,APPLE,56f55bc0736c79000c223b3d,01/04/1988,2020-07-08_11h09.02.703,proactive,2020.1.2,Win32,60,5f035e5afe130c270d6ae6dd,5f05e165646b9a0c2b942c9b,2,,,,,,telephone,,,,,,0,56,56,38,1,4,2,,,,,,,,,,,,,,,,,,,,,,,,,,,,,,,,,,,,,,,,,,,,,,,,,,,,,,,,,,,,,,,,,,,,,,,,,,,
,,,,,,,,,,stimuli/images/PICTURE_32.png,LETTER,56f55bc0736c79000c223b3d,01/04/1988,2020-07-08_11h09.02.703,proactive,2020.1.2,Win32,60,5f035e5afe130c270d6ae6dd,5f05e165646b9a0c2b942c9b,2,,,,,,crown,,,,,,0,57,57,56,1,6,2,,,,,,,,,,,,,,,,,,,,,,,,,,,,,,,,,,,,,,,,,,,,,,,,,,,,,,,,,,,,,,,,,,,,,,,,,,,
,,,,,,,,,,stimuli/images/PICTURE_677.png,PHOTO,56f55bc0736c79000c223b3d,01/04/1988,2020-07-08_11h09.02.703,proactive,2020.1.2,Win32,60,5f035e5afe130c270d6ae6dd,5f05e165646b9a0c2b942c9b,2,,,,,,map,,,,,,0,58,58,14,1,2,2,,,,,,,,,,,,,,,,,,,,,,,,,,,,,,,,,,,,,,,,,,,,,,,,,,,,,,,,,,,,,,,,,,,,,,,,,,,
,,?,0.001265,0,,,,,,stimuli/images/PICTURE_208.png,SPIRIT,56f55bc0736c79000c223b3d,01/04/1988,2020-07-08_11h09.02.703,proactive,2020.1.2,Win32,60,5f035e5afe130c270d6ae6dd,5f05e165646b9a0c2b942c9b,2,,,,,,microphone,,,,,,,,,,,3,2,0,0,0,28,1,,,,,,,,,,,,,,,,,,,,,,,,,,,,,,,,,,,,,,,,,,,,,,,,,,,,,,,,,,,,,,,,,,,,,,
,,?,0.001045,0,,,,,,stimuli/images/PICTURE_311.png,TOILET,56f55bc0736c79000c223b3d,01/04/1988,2020-07-08_11h09.02.703,proactive,2020.1.2,Win32,60,5f035e5afe130c270d6ae6dd,5f05e165646b9a0c2b942c9b,2,,,,,,razor,,,,,,,,,,,6,2,0,1,1,54,1,,,,,,,,,,,,,,,,,,,,,,,,,,,,,,,,,,,,,,,,,,,,,,,,,,,,,,,,,,,,,,,,,,,,,,
,,?,0.001255,0,,,,,,stimuli/images/PICTURE_491.png,SERIES,56f55bc0736c79000c223b3d,01/04/1988,2020-07-08_11h09.02.703,proactive,2020.1.2,Win32,60,5f035e5afe130c270d6ae6dd,5f05e165646b9a0c2b942c9b,2,,,,,,rug,,,,,,,,,,,4,2,0,2,2,39,1,,,,,,,,,,,,,,,,,,,,,,,,,,,,,,,,,,,,,,,,,,,,,,,,,,,,,,,,,,,,,,,,,,,,,,
,,?,0.00102,0,,,,,,stimuli/images/PICTURE_33.png,COPS,56f55bc0736c79000c223b3d,01/04/1988,2020-07-08_11h09.02.703,proactive,2020.1.2,Win32,60,5f035e5afe130c270d6ae6dd,5f05e165646b9a0c2b942c9b,2,,,,,,frame,,,,,,,,,,,3,2,0,3,3,29,1,,,,,,,,,,,,,,,,,,,,,,,,,,,,,,,,,,,,,,,,,,,,,,,,,,,,,,,,,,,,,,,,,,,,,,
,,?,0.000995,0,,,,,,stimuli/images/PICTURE_677.png,FAMILY,56f55bc0736c79000c223b3d,01/04/1988,2020-07-08_11h09.02.703,proactive,2020.1.2,Win32,60,5f035e5afe130c270d6ae6dd,5f05e165646b9a0c2b942c9b,2,,,,,,map,,,,,,,,,,,6,2,0,4,4,53,1,,,,,,,,,,,,,,,,,,,,,,,,,,,,,,,,,,,,,,,,,,,,,,,,,,,,,,,,,,,,,,,,,,,,,,
,,?,0.000805,0,,,,,,stimuli/images/PICTURE_509.png,SHOTS,56f55bc0736c79000c223b3d,01/04/1988,2020-07-08_11h09.02.703,proactive,2020.1.2,Win32,60,5f035e5afe130c270d6ae6dd,5f05e165646b9a0c2b942c9b,2,,,,,,telephone,,,,,,,,,,,1,2,0,5,5,7,1,,,,,,,,,,,,,,,,,,,,,,,,,,,,,,,,,,,,,,,,,,,,,,,,,,,,,,,,,,,,,,,,,,,,,,
,,COPS,1.538855,1,,,,,,stimuli/images/PICTURE_654.png,COPS,56f55bc0736c79000c223b3d,01/04/1988,2020-07-08_11h09.02.703,proactive,2020.1.2,Win32,60,5f035e5afe130c270d6ae6dd,5f05e165646b9a0c2b942c9b,2,,,,,,pencil,,,,,,,,,,,2,2,0,6,6,10,1,,,,,,,,,,,,,,,,,,,,,,,,,,,,,,,,,,,,,,,,,,,,,,,,,,,,,,,,,,,,,,,,,,,,,,
,,?,0.00074,0,,,,,,stimuli/images/PICTURE_509.png,APPLE,56f55bc0736c79000c223b3d,01/04/1988,2020-07-08_11h09.02.703,proactive,2020.1.2,Win32,60,5f035e5afe130c270d6ae6dd,5f05e165646b9a0c2b942c9b,2,,,,,,telephone,,,,,,,,,,,4,2,0,7,7,38,1,,,,,,,,,,,,,,,,,,,,,,,,,,,,,,,,,,,,,,,,,,,,,,,,,,,,,,,,,,,,,,,,,,,,,,
,,?,0.00038,0,,,,,,stimuli/images/PICTURE_285.png,PRINCE,56f55bc0736c79000c223b3d,01/04/1988,2020-07-08_11h09.02.703,proactive,2020.1.2,Win32,60,5f035e5afe130c270d6ae6dd,5f05e165646b9a0c2b942c9b,2,,,,,,carrot,,,,,,,,,,,3,2,0,8,8,20,1,,,,,,,,,,,,,,,,,,,,,,,,,,,,,,,,,,,,,,,,,,,,,,,,,,,,,,,,,,,,,,,,,,,,,,
,,?,0.000425,0,,,,,,stimuli/images/PICTURE_348.png,TOILET,56f55bc0736c79000c223b3d,01/04/1988,2020-07-08_11h09.02.703,proactive,2020.1.2,Win32,60,5f035e5afe130c270d6ae6dd,5f05e165646b9a0c2b942c9b,2,,,,,,pepper,,,,,,,,,,,1,2,0,9,9,4,1,,,,,,,,,,,,,,,,,,,,,,,,,,,,,,,,,,,,,,,,,,,,,,,,,,,,,,,,,,,,,,,,,,,,,,
,,?,0.000385,0,,,,,,stimuli/images/PICTURE_123.png,SALE,56f55bc0736c79000c223b3d,01/04/1988,2020-07-08_11h09.02.703,proactive,2020.1.2,Win32,60,5f035e5afe130c270d6ae6dd,5f05e165646b9a0c2b942c9b,2,,,,,,dart,,,,,,,,,,,1,2,0,10,10,8,1,,,,,,,,,,,,,,,,,,,,,,,,,,,,,,,,,,,,,,,,,,,,,,,,,,,,,,,,,,,,,,,,,,,,,,
,,?,0.00027,0,,,,,,stimuli/images/PICTURE_285.png,WRITER,56f55bc0736c79000c223b3d,01/04/1988,2020-07-08_11h09.02.703,proactive,2020.1.2,Win32,60,5f035e5afe130c270d6ae6dd,5f05e165646b9a0c2b942c9b,2,,,,,,carrot,,,,,,,,,,,1,2,0,11,11,6,1,,,,,,,,,,,,,,,,,,,,,,,,,,,,,,,,,,,,,,,,,,,,,,,,,,,,,,,,,,,,,,,,,,,,,,
,,?,0.000305,0,,,,,,stimuli/images/PICTURE_57.png,CANDY,56f55bc0736c79000c223b3d,01/04/1988,2020-07-08_11h09.02.703,proactive,2020.1.2,Win32,60,5f035e5afe130c270d6ae6dd,5f05e165646b9a0c2b942c9b,2,,,,,,stamp,,,,,,,,,,,6,2,0,12,12,52,1,,,,,,,,,,,,,,,,,,,,,,,,,,,,,,,,,,,,,,,,,,,,,,,,,,,,,,,,,,,,,,,,,,,,,,
,,?,0.000275,0,,,,,,stimuli/images/PICTURE_18.png,RIVER,56f55bc0736c79000c223b3d,01/04/1988,2020-07-08_11h09.02.703,proactive,2020.1.2,Win32,60,5f035e5afe130c270d6ae6dd,5f05e165646b9a0c2b942c9b,2,,,,,,planet,,,,,,,,,,,3,2,0,13,13,22,1,,,,,,,,,,,,,,,,,,,,,,,,,,,,,,,,,,,,,,,,,,,,,,,,,,,,,,,,,,,,,,,,,,,,,,
,,?,0.00027,0,,,,,,stimuli/images/PICTURE_147.png,LEADER,56f55bc0736c79000c223b3d,01/04/1988,2020-07-08_11h09.02.703,proactive,2020.1.2,Win32,60,5f035e5afe130c270d6ae6dd,5f05e165646b9a0c2b942c9b,2,,,,,,hanger,,,,,,,,,,,4,2,0,14,14,33,1,,,,,,,,,,,,,,,,,,,,,,,,,,,,,,,,,,,,,,,,,,,,,,,,,,,,,,,,,,,,,,,,,,,,,,
,,?,0.00027,0,,,,,,stimuli/images/PICTURE_177.png,HOUSE,56f55bc0736c79000c223b3d,01/04/1988,2020-07-08_11h09.02.703,proactive,2020.1.2,Win32,60,5f035e5afe130c270d6ae6dd,5f05e165646b9a0c2b942c9b,2,,,,,,mushroom,,,,,,,,,,,3,2,0,15,15,25,1,,,,,,,,,,,,,,,,,,,,,,,,,,,,,,,,,,,,,,,,,,,,,,,,,,,,,,,,,,,,,,,,,,,,,,
,,JUNGLE,2.705925,1,,,,,,stimuli/images/PICTURE_405.png,JUNGLE,56f55bc0736c79000c223b3d,01/04/1988,2020-07-08_11h09.02.703,proactive,2020.1.2,Win32,60,5f035e5afe130c270d6ae6dd,5f05e165646b9a0c2b942c9b,2,,,,,,anchor,,,,,,,,,,,2,2,0,16,16,13,1,,,,,,,,,,,,,,,,,,,,,,,,,,,,,,,,,,,,,,,,,,,,,,,,,,,,,,,,,,,,,,,,,,,,,,
,,?,0.00193,0,,,,,,stimuli/images/PICTURE_470.png,BEAUTY,56f55bc0736c79000c223b3d,01/04/1988,2020-07-08_11h09.02.703,proactive,2020.1.2,Win32,60,5f035e5afe130c270d6ae6dd,5f05e165646b9a0c2b942c9b,2,,,,,,motorbike,,,,,,,,,,,3,2,0,17,17,26,1,,,,,,,,,,,,,,,,,,,,,,,,,,,,,,,,,,,,,,,,,,,,,,,,,,,,,,,,,,,,,,,,,,,,,,
,,?,0.001525,0,,,,,,stimuli/images/PICTURE_141.png,CLIENT,56f55bc0736c79000c223b3d,01/04/1988,2020-07-08_11h09.02.703,proactive,2020.1.2,Win32,60,5f035e5afe130c270d6ae6dd,5f05e165646b9a0c2b942c9b,2,,,,,,sunflower,,,,,,,,,,,4,2,0,18,18,30,1,,,,,,,,,,,,,,,,,,,,,,,,,,,,,,,,,,,,,,,,,,,,,,,,,,,,,,,,,,,,,,,,,,,,,,
,,?,0.000985,0,,,,,,stimuli/images/PICTURE_32.png,LETTER,56f55bc0736c79000c223b3d,01/04/1988,2020-07-08_11h09.02.703,proactive,2020.1.2,Win32,60,5f035e5afe130c270d6ae6dd,5f05e165646b9a0c2b942c9b,2,,,,,,crown,,,,,,,,,,,6,2,0,19,19,56,1,,,,,,,,,,,,,,,,,,,,,,,,,,,,,,,,,,,,,,,,,,,,,,,,,,,,,,,,,,,,,,,,,,,,,,
,,?,0.00097,0,,,,,,stimuli/images/PICTURE_57.png,NATION,56f55bc0736c79000c223b3d,01/04/1988,2020-07-08_11h09.02.703,proactive,2020.1.2,Win32,60,5f035e5afe130c270d6ae6dd,5f05e165646b9a0c2b942c9b,2,,,,,,stamp,,,,,,,,,,,3,2,0,20,20,21,1,,,,,,,,,,,,,,,,,,,,,,,,,,,,,,,,,,,,,,,,,,,,,,,,,,,,,,,,,,,,,,,,,,,,,,
,,?,0.000715,0,,,,,,stimuli/images/PICTURE_667.png,GLASS,56f55bc0736c79000c223b3d,01/04/1988,2020-07-08_11h09.02.703,proactive,2020.1.2,Win32,60,5f035e5afe130c270d6ae6dd,5f05e165646b9a0c2b942c9b,2,,,,,,daisy,,,,,,,,,,,3,2,0,21,21,27,1,,,,,,,,,,,,,,,,,,,,,,,,,,,,,,,,,,,,,,,,,,,,,,,,,,,,,,,,,,,,,,,,,,,,,,
,,?,0.000905,0,,,,,,stimuli/images/PICTURE_504.png,HOUSE,56f55bc0736c79000c223b3d,01/04/1988,2020-07-08_11h09.02.703,proactive,2020.1.2,Win32,60,5f035e5afe130c270d6ae6dd,5f05e165646b9a0c2b942c9b,2,,,,,,wheel,,,,,,,,,,,4,2,0,22,22,36,1,,,,,,,,,,,,,,,,,,,,,,,,,,,,,,,,,,,,,,,,,,,,,,,,,,,,,,,,,,,,,,,,,,,,,,
,,PLENTY,1.630725,1,,,,,,stimuli/images/PICTURE_564.png,PLENTY,56f55bc0736c79000c223b3d,01/04/1988,2020-07-08_11h09.02.703,proactive,2020.1.2,Win32,60,5f035e5afe130c270d6ae6dd,5f05e165646b9a0c2b942c9b,2,,,,,,spoon,,,,,,,,,,,2,2,0,23,23,11,1,,,,,,,,,,,,,,,,,,,,,,,,,,,,,,,,,,,,,,,,,,,,,,,,,,,,,,,,,,,,,,,,,,,,,,
,,?,0.001885,0,,,,,,stimuli/images/PICTURE_452.png,COPS,56f55bc0736c79000c223b3d,01/04/1988,2020-07-08_11h09.02.703,proactive,2020.1.2,Win32,60,5f035e5afe130c270d6ae6dd,5f05e165646b9a0c2b942c9b,2,,,,,,watch,,,,,,,,,,,1,2,0,24,24,0,1,,,,,,,,,,,,,,,,,,,,,,,,,,,,,,,,,,,,,,,,,,,,,,,,,,,,,,,,,,,,,,,,,,,,,,
,,?,0.001405,0,,,,,,stimuli/images/PICTURE_95.png,NIGHT,56f55bc0736c79000c223b3d,01/04/1988,2020-07-08_11h09.02.703,proactive,2020.1.2,Win32,60,5f035e5afe130c270d6ae6dd,5f05e165646b9a0c2b942c9b,2,,,,,,suitcase,,,,,,,,,,,4,2,0,25,25,37,1,,,,,,,,,,,,,,,,,,,,,,,,,,,,,,,,,,,,,,,,,,,,,,,,,,,,,,,,,,,,,,,,,,,,,,
,,LEADER,1.58735,1,,,,,,stimuli/images/PICTURE_327.png,LEADER,56f55bc0736c79000c223b3d,01/04/1988,2020-07-08_11h09.02.703,proactive,2020.1.2,Win32,60,5f035e5afe130c270d6ae6dd,5f05e165646b9a0c2b942c9b,2,,,,,,helmet,,,,,,,,,,,2,2,0,26,26,17,1,,,,,,,,,,,,,,,,,,,,,,,,,,,,,,,,,,,,,,,,,,,,,,,,,,,,,,,,,,,,,,,,,,,,,,
,,?,0.00041,0,,,,,,stimuli/images/PICTURE_2.png,AREA,56f55bc0736c79000c223b3d,01/04/1988,2020-07-08_11h09.02.703,proactive,2020.1.2,Win32,60,5f035e5afe130c270d6ae6dd,5f05e165646b9a0c2b942c9b,2,,,,,,tyre,,,,,,,,,,,4,2,0,27,27,32,1,,,,,,,,,,,,,,,,,,,,,,,,,,,,,,,,,,,,,,,,,,,,,,,,,,,,,,,,,,,,,,,,,,,,,,
,,?,0.00026,0,,,,,,stimuli/images/PICTURE_311.png,FLESH,56f55bc0736c79000c223b3d,01/04/1988,2020-07-08_11h09.02.703,proactive,2020.1.2,Win32,60,5f035e5afe130c270d6ae6dd,5f05e165646b9a0c2b942c9b,2,,,,,,razor,,,,,,,,,,,1,2,0,28,28,3,1,,,,,,,,,,,,,,,,,,,,,,,,,,,,,,,,,,,,,,,,,,,,,,,,,,,,,,,,,,,,,,,,,,,,,,
,,?,0.000325,0,,,,,,stimuli/images/PICTURE_405.png,HOUSE,56f55bc0736c79000c223b3d,01/04/1988,2020-07-08_11h09.02.703,proactive,2020.1.2,Win32,60,5f035e5afe130c270d6ae6dd,5f05e165646b9a0c2b942c9b,2,,,,,,anchor,,,,,,,,,,,1,2,0,29,29,2,1,,,,,,,,,,,,,,,,,,,,,,,,,,,,,,,,,,,,,,,,,,,,,,,,,,,,,,,,,,,,,,,,,,,,,,
,,?,0.00031,0,,,,,,stimuli/images/PICTURE_708.png,VALLEY,56f55bc0736c79000c223b3d,01/04/1988,2020-07-08_11h09.02.703,proactive,2020.1.2,Win32,60,5f035e5afe130c270d6ae6dd,5f05e165646b9a0c2b942c9b,2,,,,,,monkey,,,,,,,,,,,5,2,0,30,30,45,1,,,,,,,,,,,,,,,,,,,,,,,,,,,,,,,,,,,,,,,,,,,,,,,,,,,,,,,,,,,,,,,,,,,,,,
,,?,0.000315,0,,,,,,stimuli/images/PICTURE_509.png,MILLER,56f55bc0736c79000c223b3d,01/04/1988,2020-07-08_11h09.02.703,proactive,2020.1.2,Win32,60,5f035e5afe130c270d6ae6dd,5f05e165646b9a0c2b942c9b,2,,,,,,telephone,,,,,,,,,,,5,2,0,31,31,49,1,,,,,,,,,,,,,,,,,,,,,,,,,,,,,,,,,,,,,,,,,,,,,,,,,,,,,,,,,,,,,,,,,,,,,,
,,?,0.000305,0,,,,,,stimuli/images/PICTURE_688.png,CLOCK,56f55bc0736c79000c223b3d,01/04/1988,2020-07-08_11h09.02.703,proactive,2020.1.2,Win32,60,5f035e5afe130c270d6ae6dd,5f05e165646b9a0c2b942c9b,2,,,,,,runner,,,,,,,,,,,5,2,0,32,32,42,1,,,,,,,,,,,,,,,,,,,,,,,,,,,,,,,,,,,,,,,,,,,,,,,,,,,,,,,,,,,,,,,,,,,,,,
,,BATH,1.42672,1,,,,,,stimuli/images/PICTURE_509.png,BATH,56f55bc0736c79000c223b3d,01/04/1988,2020-07-08_11h09.02.703,proactive,2020.1.2,Win32,60,5f035e5afe130c270d6ae6dd,5f05e165646b9a0c2b942c9b,2,,,,,,telephone,,,,,,,,,,,2,2,0,33,33,15,1,,,,,,,,,,,,,,,,,,,,,,,,,,,,,,,,,,,,,,,,,,,,,,,,,,,,,,,,,,,,,,,,,,,,,,
,,?,0.000465,0,,,,,,stimuli/images/PICTURE_314.png,SPEECH,56f55bc0736c79000c223b3d,01/04/1988,2020-07-08_11h09.02.703,proactive,2020.1.2,Win32,60,5f035e5afe130c270d6ae6dd,5f05e165646b9a0c2b942c9b,2,,,,,,perfume,,,,,,,,,,,4,2,0,34,34,35,1,,,,,,,,,,,,,,,,,,,,,,,,,,,,,,,,,,,,,,,,,,,,,,,,,,,,,,,,,,,,,,,,,,,,,,
,,?,0.00039,0,,,,,,stimuli/images/PICTURE_68.png,KIND,56f55bc0736c79000c223b3d,01/04/1988,2020-07-08_11h09.02.703,proactive,2020.1.2,Win32,60,5f035e5afe130c270d6ae6dd,5f05e165646b9a0c2b942c9b,2,,,,,,candle,,,,,,,,,,,3,2,0,35,35,23,1,,,,,,,,,,,,,,,,,,,,,,,,,,,,,,,,,,,,,,,,,,,,,,,,,,,,,,,,,,,,,,,,,,,,,,
,,?,0.00032,0,,,,,,stimuli/images/PICTURE_297.png,BODY,56f55bc0736c79000c223b3d,01/04/1988,2020-07-08_11h09.02.703,proactive,2020.1.2,Win32,60,5f035e5afe130c270d6ae6dd,5f05e165646b9a0c2b942c9b,2,,,,,,aeroplane,,,,,,,,,,,6,2,0,36,36,51,1,,,,,,,,,,,,,,,,,,,,,,,,,,,,,,,,,,,,,,,,,,,,,,,,,,,,,,,,,,,,,,,,,,,,,,
,,?,0.00034,0,,,,,,stimuli/images/PICTURE_215.png,BOYS,56f55bc0736c79000c223b3d,01/04/1988,2020-07-08_11h09.02.703,proactive,2020.1.2,Win32,60,5f035e5afe130c270d6ae6dd,5f05e165646b9a0c2b942c9b,2,,,,,,boot,,,,,,,,,,,3,2,0,37,37,24,1,,,,,,,,,,,,,,,,,,,,,,,,,,,,,,,,,,,,,,,,,,,,,,,,,,,,,,,,,,,,,,,,,,,,,,
,,?,0.000315,0,,,,,,stimuli/images/PICTURE_2.png,JUNGLE,56f55bc0736c79000c223b3d,01/04/1988,2020-07-08_11h09.02.703,proactive,2020.1.2,Win32,60,5f035e5afe130c270d6ae6dd,5f05e165646b9a0c2b942c9b,2,,,,,,tyre,,,,,,,,,,,1,2,0,38,38,1,1,,,,,,,,,,,,,,,,,,,,,,,,,,,,,,,,,,,,,,,,,,,,,,,,,,,,,,,,,,,,,,,,,,,,,,
,,PHOTO,1.77681,1,,,,,,stimuli/images/PICTURE_677.png,PHOTO,56f55bc0736c79000c223b3d,01/04/1988,2020-07-08_11h09.02.703,proactive,2020.1.2,Win32,60,5f035e5afe130c270d6ae6dd,5f05e165646b9a0c2b942c9b,2,,,,,,map,,,,,,,,,,,2,2,0,39,39,14,1,,,,,,,,,,,,,,,,,,,,,,,,,,,,,,,,,,,,,,,,,,,,,,,,,,,,,,,,,,,,,,,,,,,,,,
,,?,0.00056,0,,,,,,stimuli/images/PICTURE_487.png,ROOF,56f55bc0736c79000c223b3d,01/04/1988,2020-07-08_11h09.02.703,proactive,2020.1.2,Win32,60,5f035e5afe130c270d6ae6dd,5f05e165646b9a0c2b942c9b,2,,,,,,basket,,,,,,,,,,,6,2,0,40,40,50,1,,,,,,,,,,,,,,,,,,,,,,,,,,,,,,,,,,,,,,,,,,,,,,,,,,,,,,,,,,,,,,,,,,,,,,
,,?,0.00035,0,,,,,,stimuli/images/PICTURE_453.png,FAMILY,56f55bc0736c79000c223b3d,01/04/1988,2020-07-08_11h09.02.703,proactive,2020.1.2,Win32,60,5f035e5afe130c270d6ae6dd,5f05e165646b9a0c2b942c9b,2,,,,,,scissors,,,,,,,,,,,5,2,0,41,41,48,1,,,,,,,,,,,,,,,,,,,,,,,,,,,,,,,,,,,,,,,,,,,,,,,,,,,,,,,,,,,,,,,,,,,,,,
,,?,0.000265,0,,,,,,stimuli/images/PICTURE_655.png,SALE,56f55bc0736c79000c223b3d,01/04/1988,2020-07-08_11h09.02.703,proactive,2020.1.2,Win32,60,5f035e5afe130c270d6ae6dd,5f05e165646b9a0c2b942c9b,2,,,,,,megaphone,,,,,,,,,,,6,2,0,42,42,57,1,,,,,,,,,,,,,,,,,,,,,,,,,,,,,,,,,,,,,,,,,,,,,,,,,,,,,,,,,,,,,,,,,,,,,,
,,?,5.7592,0,,,,,,stimuli/images/PICTURE_57.png,CASINO,56f55bc0736c79000c223b3d,01/04/1988,2020-07-08_11h09.02.703,proactive,2020.1.2,Win32,60,5f035e5afe130c270d6ae6dd,5f05e165646b9a0c2b942c9b,2,,,,,,stamp,,,,,,,,,,,2,2,0,43,43,12,1,,,,,,,,,,,,,,,,,,,,,,,,,,,,,,,,,,,,,,,,,,,,,,,,,,,,,,,,,,,,,,,,,,,,,,
,,?,0.000485,0,,,,,,stimuli/images/PICTURE_403.png,FAMILY,56f55bc0736c79000c223b3d,01/04/1988,2020-07-08_11h09.02.703,proactive,2020.1.2,Win32,60,5f035e5afe130c270d6ae6dd,5f05e165646b9a0c2b942c9b,2,,,,,,cathedral,,,,,,,,,,,1,2,0,44,44,9,1,,,,,,,,,,,,,,,,,,,,,,,,,,,,,,,,,,,,,,,,,,,,,,,,,,,,,,,,,,,,,,,,,,,,,,
,,THOUGHTS,4.29476,0,,,,,,stimuli/images/PICTURE_255.png,PENNY,56f55bc0736c79000c223b3d,01/04/1988,2020-07-08_11h09.02.703,proactive,2020.1.2,Win32,60,5f035e5afe130c270d6ae6dd,5f05e165646b9a0c2b942c9b,2,,,,,,shovel,,,,,,,,,,,2,2,0,45,45,19,1,,,,,,,,,,,,,,,,,,,,,,,,,,,,,,,,,,,,,,,,,,,,,,,,,,,,,,,,,,,,,,,,,,,,,,
,,?,0.000585,0,,,,,,stimuli/images/PICTURE_215.png,FOOD,56f55bc0736c79000c223b3d,01/04/1988,2020-07-08_11h09.02.703,proactive,2020.1.2,Win32,60,5f035e5afe130c270d6ae6dd,5f05e165646b9a0c2b942c9b,2,,,,,,boot,,,,,,,,,,,1,2,0,46,46,5,1,,,,,,,,,,,,,,,,,,,,,,,,,,,,,,,,,,,,,,,,,,,,,,,,,,,,,,,,,,,,,,,,,,,,,,
,,?,0.00037,0,,,,,,stimuli/images/PICTURE_487.png,POLICY,56f55bc0736c79000c223b3d,01/04/1988,2020-07-08_11h09.02.703,proactive,2020.1.2,Win32,60,5f035e5afe130c270d6ae6dd,5f05e165646b9a0c2b942c9b,2,,,,,,basket,,,,,,,,,,,4,2,0,47,47,34,1,,,,,,,,,,,,,,,,,,,,,,,,,,,,,,,,,,,,,,,,,,,,,,,,,,,,,,,,,,,,,,,,,,,,,,
,,?,0.000365,0,,,,,,stimuli/images/PICTURE_215.png,LEADER,56f55bc0736c79000c223b3d,01/04/1988,2020-07-08_11h09.02.703,proactive,2020.1.2,Win32,60,5f035e5afe130c270d6ae6dd,5f05e165646b9a0c2b942c9b,2,,,,,,boot,,,,,,,,,,,5,2,0,48,48,43,1,,,,,,,,,,,,,,,,,,,,,,,,,,,,,,,,,,,,,,,,,,,,,,,,,,,,,,,,,,,,,,,,,,,,,,
,,CLOCK,1.46081,1,,,,,,stimuli/images/PICTURE_296.png,CLOCK,56f55bc0736c79000c223b3d,01/04/1988,2020-07-08_11h09.02.703,proactive,2020.1.2,Win32,60,5f035e5afe130c270d6ae6dd,5f05e165646b9a0c2b942c9b,2,,,,,,bolt,,,,,,,,,,,2,2,0,49,49,18,1,,,,,,,,,,,,,,,,,,,,,,,,,,,,,,,,,,,,,,,,,,,,,,,,,,,,,,,,,,,,,,,,,,,,,,
,,?,0.00081,0,,,,,,stimuli/images/PICTURE_470.png,MOMENT,56f55bc0736c79000c223b3d,01/04/1988,2020-07-08_11h09.02.703,proactive,2020.1.2,Win32,60,5f035e5afe130c270d6ae6dd,5f05e165646b9a0c2b942c9b,2,,,,,,motorbike,,,,,,,,,,,5,2,0,50,50,40,1,,,,,,,,,,,,,,,,,,,,,,,,,,,,,,,,,,,,,,,,,,,,,,,,,,,,,,,,,,,,,,,,,,,,,,
,,?,0.00065,0,,,,,,stimuli/images/PICTURE_356.png,CANDY,56f55bc0736c79000c223b3d,01/04/1988,2020-07-08_11h09.02.703,proactive,2020.1.2,Win32,60,5f035e5afe130c270d6ae6dd,5f05e165646b9a0c2b942c9b,2,,,,,,pawn,,,,,,,,,,,5,2,0,51,51,46,1,,,,,,,,,,,,,,,,,,,,,,,,,,,,,,,,,,,,,,,,,,,,,,,,,,,,,,,,,,,,,,,,,,,,,,
,,?,0.000685,0,,,,,,stimuli/images/PICTURE_750.png,POLICY,56f55bc0736c79000c223b3d,01/04/1988,2020-07-08_11h09.02.703,proactive,2020.1.2,Win32,60,5f035e5afe130c270d6ae6dd,5f05e165646b9a0c2b942c9b,2,,,,,,kettle,,,,,,,,,,,5,2,0,52,52,44,1,,,,,,,,,,,,,,,,,,,,,,,,,,,,,,,,,,,,,,,,,,,,,,,,,,,,,,,,,,,,,,,,,,,,,,
,,?,0.00062,0,,,,,,stimuli/images/PICTURE_93.png,GIRL,56f55bc0736c79000c223b3d,01/04/1988,2020-07-08_11h09.02.703,proactive,2020.1.2,Win32,60,5f035e5afe130c270d6ae6dd,5f05e165646b9a0c2b942c9b,2,,,,,,skateboard,,,,,,,,,,,4,2,0,53,53,31,1,,,,,,,,,,,,,,,,,,,,,,,,,,,,,,,,,,,,,,,,,,,,,,,,,,,,,,,,,,,,,,,,,,,,,,
,,?,0.0006,0,,,,,,stimuli/images/PICTURE_654.png,YEAR,56f55bc0736c79000c223b3d,01/04/1988,2020-07-08_11h09.02.703,proactive,2020.1.2,Win32,60,5f035e5afe130c270d6ae6dd,5f05e165646b9a0c2b942c9b,2,,,,,,pencil,,,,,,,,,,,5,2,0,54,54,41,1,,,,,,,,,,,,,,,,,,,,,,,,,,,,,,,,,,,,,,,,,,,,,,,,,,,,,,,,,,,,,,,,,,,,,,
,,?,0.00062,0,,,,,,stimuli/images/PICTURE_692.png,DUDE,56f55bc0736c79000c223b3d,01/04/1988,2020-07-08_11h09.02.703,proactive,2020.1.2,Win32,60,5f035e5afe130c270d6ae6dd,5f05e165646b9a0c2b942c9b,2,,,,,,cherry,,,,,,,,,,,5,2,0,55,55,47,1,,,,,,,,,,,,,,,,,,,,,,,,,,,,,,,,,,,,,,,,,,,,,,,,,,,,,,,,,,,,,,,,,,,,,,
,,?,0.00062,0,,,,,,stimuli/images/PICTURE_348.png,DUDE,56f55bc0736c79000c223b3d,01/04/1988,2020-07-08_11h09.02.703,proactive,2020.1.2,Win32,60,5f035e5afe130c270d6ae6dd,5f05e165646b9a0c2b942c9b,2,,,,,,pepper,,,,,,,,,,,6,2,0,56,56,59,1,,,,,,,,,,,,,,,,,,,,,,,,,,,,,,,,,,,,,,,,,,,,,,,,,,,,,,,,,,,,,,,,,,,,,,
,,?,0.00067,0,,,,,,stimuli/images/PICTURE_2.png,YARD,56f55bc0736c79000c223b3d,01/04/1988,2020-07-08_11h09.02.703,proactive,2020.1.2,Win32,60,5f035e5afe130c270d6ae6dd,5f05e165646b9a0c2b942c9b,2,,,,,,tyre,,,,,,,,,,,6,2,0,57,57,55,1,,,,,,,,,,,,,,,,,,,,,,,,,,,,,,,,,,,,,,,,,,,,,,,,,,,,,,,,,,,,,,,,,,,,,,
,,?,3.53311,0,,,,,,stimuli/images/PICTURE_160.png,HOTEL,56f55bc0736c79000c223b3d,01/04/1988,2020-07-08_11h09.02.703,proactive,2020.1.2,Win32,60,5f035e5afe130c270d6ae6dd,5f05e165646b9a0c2b942c9b,2,,,,,,wheelbarrow,,,,,,,,,,,2,2,0,58,58,16,1,,,,,,,,,,,,,,,,,,,,,,,,,,,,,,,,,,,,,,,,,,,,,,,,,,,,,,,,,,,,,,,,,,,,,,
,,?,0.001285,0,,,,,,stimuli/images/PICTURE_405.png,JUNGLE,56f55bc0736c79000c223b3d,01/04/1988,2020-07-08_11h09.02.703,proactive,2020.1.2,Win32,60,5f035e5afe130c270d6ae6dd,5f05e165646b9a0c2b942c9b,2,,,,,,anchor,,,,,,,,,,,6,2,0,59,59,58,1,,,,,,,,,,,,,,,,,,,,,,,,,,,,,,,,,,,,,,,,,,,,,,,,,,,,,,,,,,,,,,,,,,,,,,
,,,,,,,,,,,,56f55bc0736c79000c223b3d,01/04/1988,2020-07-08_11h09.02.703,proactive,2020.1.2,Win32,60,5f035e5afe130c270d6ae6dd,5f05e165646b9a0c2b942c9b,2,,,,,,,,,,,,,,,,,,,,,,,,0,1,1,2,1,stimuli/learn-block3.csv,,,,,,,,,,,,,,,,,,,,,,,,,,,,,,,,,,,,,,,,,,,,,,,,,,,,,,,,,,,,,,,,
,,,,,,,,,,stimuli/images/PICTURE_470.png,CASINO,56f55bc0736c79000c223b3d,01/04/1988,2020-07-08_11h09.02.703,proactive,2020.1.2,Win32,60,5f035e5afe130c270d6ae6dd,5f05e165646b9a0c2b942c9b,2,,,,,,motorbike,,,,,,0,0,0,36,1,4,0,,,,,,,,,,,,,,,,,,,,,,,,,,,,,,,,,,,,,,,,,,,,,,,,,,,,,,,,,,,,,,,,,,,,,,,,,,,
,,,,,,,,,,stimuli/images/PICTURE_491.png,WRITER,56f55bc0736c79000c223b3d,01/04/1988,2020-07-08_11h09.02.703,proactive,2020.1.2,Win32,60,5f035e5afe130c270d6ae6dd,5f05e165646b9a0c2b942c9b,2,,,,,,rug,,,,,,0,1,1,57,1,6,0,,,,,,,,,,,,,,,,,,,,,,,,,,,,,,,,,,,,,,,,,,,,,,,,,,,,,,,,,,,,,,,,,,,,,,,,,,,
,,,,,,,,,,stimuli/images/PICTURE_314.png,SAKE,56f55bc0736c79000c223b3d,01/04/1988,2020-07-08_11h09.02.703,proactive,2020.1.2,Win32,60,5f035e5afe130c270d6ae6dd,5f05e165646b9a0c2b942c9b,2,,,,,,perfume,,,,,,0,2,2,7,1,1,0,,,,,,,,,,,,,,,,,,,,,,,,,,,,,,,,,,,,,,,,,,,,,,,,,,,,,,,,,,,,,,,,,,,,,,,,,,,
,,,,,,,,,,stimuli/images/PICTURE_95.png,STYLE,56f55bc0736c79000c223b3d,01/04/1988,2020-07-08_11h09.02.703,proactive,2020.1.2,Win32,60,5f035e5afe130c270d6ae6dd,5f05e165646b9a0c2b942c9b,2,,,,,,suitcase,,,,,,0,3,3,25,1,3,0,,,,,,,,,,,,,,,,,,,,,,,,,,,,,,,,,,,,,,,,,,,,,,,,,,,,,,,,,,,,,,,,,,,,,,,,,,,
,,,,,,,,,,stimuli/images/PICTURE_208.png,THING,56f55bc0736c79000c223b3d,01/04/1988,2020-07-08_11h09.02.703,proactive,2020.1.2,Win32,60,5f035e5afe130c270d6ae6dd,5f05e165646b9a0c2b942c9b,2,,,,,,microphone,,,,,,0,4,4,47,1,5,0,,,,,,,,,,,,,,,,,,,,,,,,,,,,,,,,,,,,,,,,,,,,,,,,,,,,,,,,,,,,,,,,,,,,,,,,,,,
,,,,,,,,,,stimuli/images/PICTURE_233.png,IDEAS,56f55bc0736c79000c223b3d,01/04/1988,2020-07-08_11h09.02.703,proactive,2020.1.2,Win32,60,5f035e5afe130c270d6ae6dd,5f05e165646b9a0c2b942c9b,2,,,,,,salt,,,,,,0,5,5,28,1,3,0,,,,,,,,,,,,,,,,,,,,,,,,,,,,,,,,,,,,,,,,,,,,,,,,,,,,,,,,,,,,,,,,,,,,,,,,,,,
,,,,,,,,,,stimuli/images/PICTURE_147.png,MOMENT,56f55bc0736c79000c223b3d,01/04/1988,2020-07-08_11h09.02.703,proactive,2020.1.2,Win32,60,5f035e5afe130c270d6ae6dd,5f05e165646b9a0c2b942c9b,2,,,,,,hanger,,,,,,0,6,6,51,1,6,0,,,,,,,,,,,,,,,,,,,,,,,,,,,,,,,,,,,,,,,,,,,,,,,,,,,,,,,,,,,,,,,,,,,,,,,,,,,
,,,,,,,,,,stimuli/images/PICTURE_491.png,ROOF,56f55bc0736c79000c223b3d,01/04/1988,2020-07-08_11h09.02.703,proactive,2020.1.2,Win32,60,5f035e5afe130c270d6ae6dd,5f05e165646b9a0c2b942c9b,2,,,,,,rug,,,,,,0,7,7,24,1,3,0,,,,,,,,,,,,,,,,,,,,,,,,,,,,,,,,,,,,,,,,,,,,,,,,,,,,,,,,,,,,,,,,,,,,,,,,,,,
,,,,,,,,,,stimuli/images/PICTURE_667.png,BATH,56f55bc0736c79000c223b3d,01/04/1988,2020-07-08_11h09.02.703,proactive,2020.1.2,Win32,60,5f035e5afe130c270d6ae6dd,5f05e165646b9a0c2b942c9b,2,,,,,,daisy,,,,,,0,8,8,4,1,1,0,,,,,,,,,,,,,,,,,,,,,,,,,,,,,,,,,,,,,,,,,,,,,,,,,,,,,,,,,,,,,,,,,,,,,,,,,,,
,,,,,,,,,,stimuli/images/PICTURE_380.png,DEATH,56f55bc0736c79000c223b3d,01/04/1988,2020-07-08_11h09.02.703,proactive,2020.1.2,Win32,60,5f035e5afe130c270d6ae6dd,5f05e165646b9a0c2b942c9b,2,,,,,,gorilla,,,,,,0,9,9,49,1,5,0,,,,,,,,,,,,,,,,,,,,,,,,,,,,,,,,,,,,,,,,,,,,,,,,,,,,,,,,,,,,,,,,,,,,,,,,,,,
,,,,,,,,,,stimuli/images/PICTURE_509.png,PHOTO,56f55bc0736c79000c223b3d,01/04/1988,2020-07-08_11h09.02.703,proactive,2020.1.2,Win32,60,5f035e5afe130c270d6ae6dd,5f05e165646b9a0c2b942c9b,2,,,,,,telephone,,,,,,0,10,10,21,1,3,0,,,,,,,,,,,,,,,,,,,,,,,,,,,,,,,,,,,,,,,,,,,,,,,,,,,,,,,,,,,,,,,,,,,,,,,,,,,
,,,,,,,,,,stimuli/images/PICTURE_215.png,PLENTY,56f55bc0736c79000c223b3d,01/04/1988,2020-07-08_11h09.02.703,proactive,2020.1.2,Win32,60,5f035e5afe130c270d6ae6dd,5f05e165646b9a0c2b942c9b,2,,,,,,boot,,,,,,0,11,11,37,1,4,0,,,,,,,,,,,,,,,,,,,,,,,,,,,,,,,,,,,,,,,,,,,,,,,,,,,,,,,,,,,,,,,,,,,,,,,,,,,
,,,,,,,,,,stimuli/images/PICTURE_356.png,DANGER,56f55bc0736c79000c223b3d,01/04/1988,2020-07-08_11h09.02.703,proactive,2020.1.2,Win32,60,5f035e5afe130c270d6ae6dd,5f05e165646b9a0c2b942c9b,2,,,,,,pawn,,,,,,0,12,12,55,1,6,0,,,,,,,,,,,,,,,,,,,,,,,,,,,,,,,,,,,,,,,,,,,,,,,,,,,,,,,,,,,,,,,,,,,,,,,,,,,
,,,,,,,,,,stimuli/images/PICTURE_708.png,PENNY,56f55bc0736c79000c223b3d,01/04/1988,2020-07-08_11h09.02.703,proactive,2020.1.2,Win32,60,5f035e5afe130c270d6ae6dd,5f05e165646b9a0c2b942c9b,2,,,,,,monkey,,,,,,0,13,13,31,1,4,0,,,,,,,,,,,,,,,,,,,,,,,,,,,,,,,,,,,,,,,,,,,,,,,,,,,,,,,,,,,,,,,,,,,,,,,,,,,
,,,,,,,,,,stimuli/images/PICTURE_675.png,WEAPON,56f55bc0736c79000c223b3d,01/04/1988,2020-07-08_11h09.02.703,proactive,2020.1.2,Win32,60,5f035e5afe130c270d6ae6dd,5f05e165646b9a0c2b942c9b,2,,,,,,windmill,,,,,,0,14,14,32,1,4,0,,,,,,,,,,,,,,,,,,,,,,,,,,,,,,,,,,,,,,,,,,,,,,,,,,,,,,,,,,,,,,,,,,,,,,,,,,,
,,,,,,,,,,stimuli/images/PICTURE_667.png,PLENTY,56f55bc0736c79000c223b3d,01/04/1988,2020-07-08_11h09.02.703,proactive,2020.1.2,Win32,60,5f035e5afe130c270d6ae6dd,5f05e165646b9a0c2b942c9b,2,,,,,,daisy,,,,,,0,15,15,41,1,5,0,,,,,,,,,,,,,,,,,,,,,,,,,,,,,,,,,,,,,,,,,,,,,,,,,,,,,,,,,,,,,,,,,,,,,,,,,,,
,,,,,,,,,,stimuli/images/PICTURE_339.png,PLENTY,56f55bc0736c79000c223b3d,01/04/1988,2020-07-08_11h09.02.703,proactive,2020.1.2,Win32,60,5f035e5afe130c270d6ae6dd,5f05e165646b9a0c2b942c9b,2,,,,,,backpack,,,,,,0,16,16,0,1,1,0,,,,,,,,,,,,,,,,,,,,,,,,,,,,,,,,,,,,,,,,,,,,,,,,,,,,,,,,,,,,,,,,,,,,,,,,,,,
,,,,,,,,,,stimuli/images/PICTURE_85.png,THING,56f55bc0736c79000c223b3d,01/04/1988,2020-07-08_11h09.02.703,proactive,2020.1.2,Win32,60,5f035e5afe130c270d6ae6dd,5f05e165646b9a0c2b942c9b,2,,,,,,diamond,,,,,,0,17,17,15,1,2,0,,,,,,,,,,,,,,,,,,,,,,,,,,,,,,,,,,,,,,,,,,,,,,,,,,,,,,,,,,,,,,,,,,,,,,,,,,,
,,,,,,,,,,stimuli/images/PICTURE_327.png,BEAUTY,56f55bc0736c79000c223b3d,01/04/1988,2020-07-08_11h09.02.703,proactive,2020.1.2,Win32,60,5f035e5afe130c270d6ae6dd,5f05e165646b9a0c2b942c9b,2,,,,,,helmet,,,,,,0,18,18,48,1,5,0,,,,,,,,,,,,,,,,,,,,,,,,,,,,,,,,,,,,,,,,,,,,,,,,,,,,,,,,,,,,,,,,,,,,,,,,,,,
,,,,,,,,,,stimuli/images/PICTURE_203.png,ARTIST,56f55bc0736c79000c223b3d,01/04/1988,2020-07-08_11h09.02.703,proactive,2020.1.2,Win32,60,5f035e5afe130c270d6ae6dd,5f05e165646b9a0c2b942c9b,2,,,,,,cap,,,,,,0,19,19,26,1,3,0,,,,,,,,,,,,,,,,,,,,,,,,,,,,,,,,,,,,,,,,,,,,,,,,,,,,,,,,,,,,,,,,,,,,,,,,,,,
,,,,,,,,,,stimuli/images/PICTURE_123.png,ADVICE,56f55bc0736c79000c223b3d,01/04/1988,2020-07-08_11h09.02.703,proactive,2020.1.2,Win32,60,5f035e5afe130c270d6ae6dd,5f05e165646b9a0c2b942c9b,2,,,,,,dart,,,,,,0,20,20,50,1,6,0,,,,,,,,,,,,,,,,,,,,,,,,,,,,,,,,,,,,,,,,,,,,,,,,,,,,,,,,,,,,,,,,,,,,,,,,,,,
,,,,,,,,,,stimuli/images/PICTURE_314.png,GODS,56f55bc0736c79000c223b3d,01/04/1988,2020-07-08_11h09.02.703,proactive,2020.1.2,Win32,60,5f035e5afe130c270d6ae6dd,5f05e165646b9a0c2b942c9b,2,,,,,,perfume,,,,,,0,21,21,11,1,2,0,,,,,,,,,,,,,,,,,,,,,,,,,,,,,,,,,,,,,,,,,,,,,,,,,,,,,,,,,,,,,,,,,,,,,,,,,,,
,,,,,,,,,,stimuli/images/PICTURE_311.png,BEAUTY,56f55bc0736c79000c223b3d,01/04/1988,2020-07-08_11h09.02.703,proactive,2020.1.2,Win32,60,5f035e5afe130c270d6ae6dd,5f05e165646b9a0c2b942c9b,2,,,,,,razor,,,,,,0,22,22,13,1,2,0,,,,,,,,,,,,,,,,,,,,,,,,,,,,,,,,,,,,,,,,,,,,,,,,,,,,,,,,,,,,,,,,,,,,,,,,,,,
,,,,,,,,,,stimuli/images/PICTURE_151.png,GIRL,56f55bc0736c79000c223b3d,01/04/1988,2020-07-08_11h09.02.703,proactive,2020.1.2,Win32,60,5f035e5afe130c270d6ae6dd,5f05e165646b9a0c2b942c9b,2,,,,,,tray,,,,,,0,23,23,19,1,2,0,,,,,,,,,,,,,,,,,,,,,,,,,,,,,,,,,,,,,,,,,,,,,,,,,,,,,,,,,,,,,,,,,,,,,,,,,,,
,,,,,,,,,,stimuli/images/PICTURE_380.png,PHOTO,56f55bc0736c79000c223b3d,01/04/1988,2020-07-08_11h09.02.703,proactive,2020.1.2,Win32,60,5f035e5afe130c270d6ae6dd,5f05e165646b9a0c2b942c9b,2,,,,,,gorilla,,,,,,0,24,24,52,1,6,0,,,,,,,,,,,,,,,,,,,,,,,,,,,,,,,,,,,,,,,,,,,,,,,,,,,,,,,,,,,,,,,,,,,,,,,,,,,
,,,,,,,,,,stimuli/images/PICTURE_692.png,MONTH,56f55bc0736c79000c223b3d,01/04/1988,2020-07-08_11h09.02.703,proactive,2020.1.2,Win32,60,5f035e5afe130c270d6ae6dd,5f05e165646b9a0c2b942c9b,2,,,,,,cherry,,,,,,0,25,25,16,1,2,0,,,,,,,,,,,,,,,,,,,,,,,,,,,,,,,,,,,,,,,,,,,,,,,,,,,,,,,,,,,,,,,,,,,,,,,,,,,
,,,,,,,,,,stimuli/images/PICTURE_32.png,JUNGLE,56f55bc0736c79000c223b3d,01/04/1988,2020-07-08_11h09.02.703,proactive,2020.1.2,Win32,60,5f035e5afe130c270d6ae6dd,5f05e165646b9a0c2b942c9b,2,,,,,,crown,,,,,,0,26,26,45,1,5,0,,,,,,,,,,,,,,,,,,,,,,,,,,,,,,,,,,,,,,,,,,,,,,,,,,,,,,,,,,,,,,,,,,,,,,,,,,,
,,,,,,,,,,stimuli/images/PICTURE_467.png,DEMON,56f55bc0736c79000c223b3d,01/04/1988,2020-07-08_11h09.02.703,proactive,2020.1.2,Win32,60,5f035e5afe130c270d6ae6dd,5f05e165646b9a0c2b942c9b,2,,,,,,peg,,,,,,0,27,27,23,1,3,0,,,,,,,,,,,,,,,,,,,,,,,,,,,,,,,,,,,,,,,,,,,,,,,,,,,,,,,,,,,,,,,,,,,,,,,,,,,
,,,,,,,,,,stimuli/images/PICTURE_248.png,DOZEN,56f55bc0736c79000c223b3d,01/04/1988,2020-07-08_11h09.02.703,proactive,2020.1.2,Win32,60,5f035e5afe130c270d6ae6dd,5f05e165646b9a0c2b942c9b,2,,,,,,cart,,,,,,0,28,28,39,1,4,0,,,,,,,,,,,,,,,,,,,,,,,,,,,,,,,,,,,,,,,,,,,,,,,,,,,,,,,,,,,,,,,,,,,,,,,,,,,
,,,,,,,,,,stimuli/images/PICTURE_308.png,ESTATE,56f55bc0736c79000c223b3d,01/04/1988,2020-07-08_11h09.02.703,proactive,2020.1.2,Win32,60,5f035e5afe130c270d6ae6dd,5f05e165646b9a0c2b942c9b,2,,,,,,dice,,,,,,0,29,29,46,1,5,0,,,,,,,,,,,,,,,,,,,,,,,,,,,,,,,,,,,,,,,,,,,,,,,,,,,,,,,,,,,,,,,,,,,,,,,,,,,
,,,,,,,,,,stimuli/images/PICTURE_654.png,VALLEY,56f55bc0736c79000c223b3d,01/04/1988,2020-07-08_11h09.02.703,proactive,2020.1.2,Win32,60,5f035e5afe130c270d6ae6dd,5f05e165646b9a0c2b942c9b,2,,,,,,pencil,,,,,,0,30,30,1,1,1,0,,,,,,,,,,,,,,,,,,,,,,,,,,,,,,,,,,,,,,,,,,,,,,,,,,,,,,,,,,,,,,,,,,,,,,,,,,,
,,,,,,,,,,stimuli/images/PICTURE_504.png,BODY,56f55bc0736c79000c223b3d,01/04/1988,2020-07-08_11h09.02.703,proactive,2020.1.2,Win32,60,5f035e5afe130c270d6ae6dd,5f05e165646b9a0c2b942c9b,2,,,,,,wheel,,,,,,0,31,31,8,1,1,0,,,,,,,,,,,,,,,,,,,,,,,,,,,,,,,,,,,,,,,,,,,,,,,,,,,,,,,,,,,,,,,,,,,,,,,,,,,
,,,,,,,,,,stimuli/images/PICTURE_469.png,LETTER,56f55bc0736c79000c223b3d,01/04/1988,2020-07-08_11h09.02.703,proactive,2020.1.2,Win32,60,5f035e5afe130c270d6ae6dd,5f05e165646b9a0c2b942c9b,2,,,,,,stool,,,,,,0,32,32,42,1,5,0,,,,,,,,,,,,,,,,,,,,,,,,,,,,,,,,,,,,,,,,,,,,,,,,,,,,,,,,,,,,,,,,,,,,,,,,,,,
,,,,,,,,,,stimuli/images/PICTURE_449.png,THING,56f55bc0736c79000c223b3d,01/04/1988,2020-07-08_11h09.02.703,proactive,2020.1.2,Win32,60,5f035e5afe130c270d6ae6dd,5f05e165646b9a0c2b942c9b,2,,,,,,bench,,,,,,0,33,33,59,1,6,0,,,,,,,,,,,,,,,,,,,,,,,,,,,,,,,,,,,,,,,,,,,,,,,,,,,,,,,,,,,,,,,,,,,,,,,,,,,
,,,,,,,,,,stimuli/images/PICTURE_160.png,FEET,56f55bc0736c79000c223b3d,01/04/1988,2020-07-08_11h09.02.703,proactive,2020.1.2,Win32,60,5f035e5afe130c270d6ae6dd,5f05e165646b9a0c2b942c9b,2,,,,,,wheelbarrow,,,,,,0,34,34,58,1,6,0,,,,,,,,,,,,,,,,,,,,,,,,,,,,,,,,,,,,,,,,,,,,,,,,,,,,,,,,,,,,,,,,,,,,,,,,,,,
,,,,,,,,,,stimuli/images/PICTURE_487.png,FLIGHT,56f55bc0736c79000c223b3d,01/04/1988,2020-07-08_11h09.02.703,proactive,2020.1.2,Win32,60,5f035e5afe130c270d6ae6dd,5f05e165646b9a0c2b942c9b,2,,,,,,basket,,,,,,0,35,35,9,1,1,0,,,,,,,,,,,,,,,,,,,,,,,,,,,,,,,,,,,,,,,,,,,,,,,,,,,,,,,,,,,,,,,,,,,,,,,,,,,
,,,,,,,,,,stimuli/images/PICTURE_469.png,ARTIST,56f55bc0736c79000c223b3d,01/04/1988,2020-07-08_11h09.02.703,proactive,2020.1.2,Win32,60,5f035e5afe130c270d6ae6dd,5f05e165646b9a0c2b942c9b,2,,,,,,stool,,,,,,0,36,36,6,1,1,0,,,,,,,,,,,,,,,,,,,,,,,,,,,,,,,,,,,,,,,,,,,,,,,,,,,,,,,,,,,,,,,,,,,,,,,,,,,
,,,,,,,,,,stimuli/images/PICTURE_308.png,KIND,56f55bc0736c79000c223b3d,01/04/1988,2020-07-08_11h09.02.703,proactive,2020.1.2,Win32,60,5f035e5afe130c270d6ae6dd,5f05e165646b9a0c2b942c9b,2,,,,,,dice,,,,,,0,37,37,54,1,6,0,,,,,,,,,,,,,,,,,,,,,,,,,,,,,,,,,,,,,,,,,,,,,,,,,,,,,,,,,,,,,,,,,,,,,,,,,,,
,,,,,,,,,,stimuli/images/PICTURE_311.png,FRIEND,56f55bc0736c79000c223b3d,01/04/1988,2020-07-08_11h09.02.703,proactive,2020.1.2,Win32,60,5f035e5afe130c270d6ae6dd,5f05e165646b9a0c2b942c9b,2,,,,,,razor,,,,,,0,38,38,34,1,4,0,,,,,,,,,,,,,,,,,,,,,,,,,,,,,,,,,,,,,,,,,,,,,,,,,,,,,,,,,,,,,,,,,,,,,,,,,,,
,,,,,,,,,,stimuli/images/PICTURE_488.png,STYLE,56f55bc0736c79000c223b3d,01/04/1988,2020-07-08_11h09.02.703,proactive,2020.1.2,Win32,60,5f035e5afe130c270d6ae6dd,5f05e165646b9a0c2b942c9b,2,,,,,,sun,,,,,,0,39,39,33,1,4,0,,,,,,,,,,,,,,,,,,,,,,,,,,,,,,,,,,,,,,,,,,,,,,,,,,,,,,,,,,,,,,,,,,,,,,,,,,,
,,,,,,,,,,stimuli/images/PICTURE_255.png,AREA,56f55bc0736c79000c223b3d,01/04/1988,2020-07-08_11h09.02.703,proactive,2020.1.2,Win32,60,5f035e5afe130c270d6ae6dd,5f05e165646b9a0c2b942c9b,2,,,,,,shovel,,,,,,0,40,40,22,1,3,0,,,,,,,,,,,,,,,,,,,,,,,,,,,,,,,,,,,,,,,,,,,,,,,,,,,,,,,,,,,,,,,,,,,,,,,,,,,
,,,,,,,,,,stimuli/images/PICTURE_177.png,CARS,56f55bc0736c79000c223b3d,01/04/1988,2020-07-08_11h09.02.703,proactive,2020.1.2,Win32,60,5f035e5afe130c270d6ae6dd,5f05e165646b9a0c2b942c9b,2,,,,,,mushroom,,,,,,0,41,41,35,1,4,0,,,,,,,,,,,,,,,,,,,,,,,,,,,,,,,,,,,,,,,,,,,,,,,,,,,,,,,,,,,,,,,,,,,,,,,,,,,
,,,,,,,,,,stimuli/images/PICTURE_453.png,DUDE,56f55bc0736c79000c223b3d,01/04/1988,2020-07-08_11h09.02.703,proactive,2020.1.2,Win32,60,5f035e5afe130c270d6ae6dd,5f05e165646b9a0c2b942c9b,2,,,,,,scissors,,,,,,0,42,42,27,1,3,0,,,,,,,,,,,,,,,,,,,,,,,,,,,,,,,,,,,,,,,,,,,,,,,,,,,,,,,,,,,,,,,,,,,,,,,,,,,
,,,,,,,,,,stimuli/images/PICTURE_123.png,ADVICE,56f55bc0736c79000c223b3d,01/04/1988,2020-07-08_11h09.02.703,proactive,2020.1.2,Win32,60,5f035e5afe130c270d6ae6dd,5f05e165646b9a0c2b942c9b,2,,,,,,dart,,,,,,0,43,43,40,1,5,0,,,,,,,,,,,,,,,,,,,,,,,,,,,,,,,,,,,,,,,,,,,,,,,,,,,,,,,,,,,,,,,,,,,,,,,,,,,
,,,,,,,,,,stimuli/images/PICTURE_744.png,SYSTEM,56f55bc0736c79000c223b3d,01/04/1988,2020-07-08_11h09.02.703,proactive,2020.1.2,Win32,60,5f035e5afe130c270d6ae6dd,5f05e165646b9a0c2b942c9b,2,,,,,,ring,,,,,,0,44,44,43,1,5,0,,,,,,,,,,,,,,,,,,,,,,,,,,,,,,,,,,,,,,,,,,,,,,,,,,,,,,,,,,,,,,,,,,,,,,,,,,,
,,,,,,,,,,stimuli/images/PICTURE_302.png,FAMILY,56f55bc0736c79000c223b3d,01/04/1988,2020-07-08_11h09.02.703,proactive,2020.1.2,Win32,60,5f035e5afe130c270d6ae6dd,5f05e165646b9a0c2b942c9b,2,,,,,,taxi,,,,,,0,45,45,18,1,2,0,,,,,,,,,,,,,,,,,,,,,,,,,,,,,,,,,,,,,,,,,,,,,,,,,,,,,,,,,,,,,,,,,,,,,,,,,,,
,,,,,,,,,,stimuli/images/PICTURE_688.png,WOMEN,56f55bc0736c79000c223b3d,01/04/1988,2020-07-08_11h09.02.703,proactive,2020.1.2,Win32,60,5f035e5afe130c270d6ae6dd,5f05e165646b9a0c2b942c9b,2,,,,,,runner,,,,,,0,46,46,14,1,2,0,,,,,,,,,,,,,,,,,,,,,,,,,,,,,,,,,,,,,,,,,,,,,,,,,,,,,,,,,,,,,,,,,,,,,,,,,,,
,,,,,,,,,,stimuli/images/PICTURE_208.png,LOTS,56f55bc0736c79000c223b3d,01/04/1988,2020-07-08_11h09.02.703,proactive,2020.1.2,Win32,60,5f035e5afe130c270d6ae6dd,5f05e165646b9a0c2b942c9b,2,,,,,,microphone,,,,,,0,47,47,10,1,2,0,,,,,,,,,,,,,,,,,,,,,,,,,,,,,,,,,,,,,,,,,,,,,,,,,,,,,,,,,,,,,,,,,,,,,,,,,,,
,,,,,,,,,,stimuli/images/PICTURE_744.png,SAKE,56f55bc0736c79000c223b3d,01/04/1988,2020-07-08_11h09.02.703,proactive,2020.1.2,Win32,60,5f035e5afe130c270d6ae6dd,5f05e165646b9a0c2b942c9b,2,,,,,,ring,,,,,,0,48,48,17,1,2,0,,,,,,,,,,,,,,,,,,,,,,,,,,,,,,,,,,,,,,,,,,,,,,,,,,,,,,,,,,,,,,,,,,,,,,,,,,,
,,,,,,,,,,stimuli/images/PICTURE_285.png,ADVICE,56f55bc0736c79000c223b3d,01/04/1988,2020-07-08_11h09.02.703,proactive,2020.1.2,Win32,60,5f035e5afe130c270d6ae6dd,5f05e165646b9a0c2b942c9b,2,,,,,,carrot,,,,,,0,49,49,12,1,2,0,,,,,,,,,,,,,,,,,,,,,,,,,,,,,,,,,,,,,,,,,,,,,,,,,,,,,,,,,,,,,,,,,,,,,,,,,,,
,,,,,,,,,,stimuli/images/PICTURE_677.png,MILE,56f55bc0736c79000c223b3d,01/04/1988,2020-07-08_11h09.02.703,proactive,2020.1.2,Win32,60,5f035e5afe130c270d6ae6dd,5f05e165646b9a0c2b942c9b,2,,,,,,map,,,,,,0,50,50,30,1,4,0,,,,,,,,,,,,,,,,,,,,,,,,,,,,,,,,,,,,,,,,,,,,,,,,,,,,,,,,,,,,,,,,,,,,,,,,,,,
,,,,,,,,,,stimuli/images/PICTURE_708.png,CLIENT,56f55bc0736c79000c223b3d,01/04/1988,2020-07-08_11h09.02.703,proactive,2020.1.2,Win32,60,5f035e5afe130c270d6ae6dd,5f05e165646b9a0c2b942c9b,2,,,,,,monkey,,,,,,0,51,51,5,1,1,0,,,,,,,,,,,,,,,,,,,,,,,,,,,,,,,,,,,,,,,,,,,,,,,,,,,,,,,,,,,,,,,,,,,,,,,,,,,
,,,,,,,,,,stimuli/images/PICTURE_233.png,WOMEN,56f55bc0736c79000c223b3d,01/04/1988,2020-07-08_11h09.02.703,proactive,2020.1.2,Win32,60,5f035e5afe130c270d6ae6dd,5f05e165646b9a0c2b942c9b,2,,,,,,salt,,,,,,0,52,52,38,1,4,0,,,,,,,,,,,,,,,,,,,,,,,,,,,,,,,,,,,,,,,,,,,,,,,,,,,,,,,,,,,,,,,,,,,,,,,,,,,
,,,,,,,,,,stimuli/images/PICTURE_348.png,SPEECH,56f55bc0736c79000c223b3d,01/04/1988,2020-07-08_11h09.02.703,proactive,2020.1.2,Win32,60,5f035e5afe130c270d6ae6dd,5f05e165646b9a0c2b942c9b,2,,,,,,pepper,,,,,,0,53,53,20,1,3,0,,,,,,,,,,,,,,,,,,,,,,,,,,,,,,,,,,,,,,,,,,,,,,,,,,,,,,,,,,,,,,,,,,,,,,,,,,,
,,,,,,,,,,stimuli/images/PICTURE_68.png,MILE,56f55bc0736c79000c223b3d,01/04/1988,2020-07-08_11h09.02.703,proactive,2020.1.2,Win32,60,5f035e5afe130c270d6ae6dd,5f05e165646b9a0c2b942c9b,2,,,,,,candle,,,,,,0,54,54,44,1,5,0,,,,,,,,,,,,,,,,,,,,,,,,,,,,,,,,,,,,,,,,,,,,,,,,,,,,,,,,,,,,,,,,,,,,,,,,,,,
,,,,,,,,,,stimuli/images/PICTURE_688.png,CASINO,56f55bc0736c79000c223b3d,01/04/1988,2020-07-08_11h09.02.703,proactive,2020.1.2,Win32,60,5f035e5afe130c270d6ae6dd,5f05e165646b9a0c2b942c9b,2,,,,,,runner,,,,,,0,55,55,2,1,1,0,,,,,,,,,,,,,,,,,,,,,,,,,,,,,,,,,,,,,,,,,,,,,,,,,,,,,,,,,,,,,,,,,,,,,,,,,,,
,,,,,,,,,,stimuli/images/PICTURE_708.png,YARD,56f55bc0736c79000c223b3d,01/04/1988,2020-07-08_11h09.02.703,proactive,2020.1.2,Win32,60,5f035e5afe130c270d6ae6dd,5f05e165646b9a0c2b942c9b,2,,,,,,monkey,,,,,,0,56,56,29,1,3,0,,,,,,,,,,,,,,,,,,,,,,,,,,,,,,,,,,,,,,,,,,,,,,,,,,,,,,,,,,,,,,,,,,,,,,,,,,,
,,,,,,,,,,stimuli/images/PICTURE_453.png,PLENTY,56f55bc0736c79000c223b3d,01/04/1988,2020-07-08_11h09.02.703,proactive,2020.1.2,Win32,60,5f035e5afe130c270d6ae6dd,5f05e165646b9a0c2b942c9b,2,,,,,,scissors,,,,,,0,57,57,56,1,6,0,,,,,,,,,,,,,,,,,,,,,,,,,,,,,,,,,,,,,,,,,,,,,,,,,,,,,,,,,,,,,,,,,,,,,,,,,,,
,,,,,,,,,,stimuli/images/PICTURE_208.png,MONTH,56f55bc0736c79000c223b3d,01/04/1988,2020-07-08_11h09.02.703,proactive,2020.1.2,Win32,60,5f035e5afe130c270d6ae6dd,5f05e165646b9a0c2b942c9b,2,,,,,,microphone,,,,,,0,58,58,53,1,6,0,,,,,,,,,,,,,,,,,,,,,,,,,,,,,,,,,,,,,,,,,,,,,,,,,,,,,,,,,,,,,,,,,,,,,,,,,,,
,,?,0.00065,0,,,,,,stimuli/images/PICTURE_491.png,ROOF,56f55bc0736c79000c223b3d,01/04/1988,2020-07-08_11h09.02.703,proactive,2020.1.2,Win32,60,5f035e5afe130c270d6ae6dd,5f05e165646b9a0c2b942c9b,2,,,,,,rug,,,,,,,,,,,3,0,0,0,0,24,1,,,,,,,,,,,,,,,,,,,,,,,,,,,,,,,,,,,,,,,,,,,,,,,,,,,,,,,,,,,,,,,,,,,,,,
,,?,0.000485,0,,,,,,stimuli/images/PICTURE_380.png,DEATH,56f55bc0736c79000c223b3d,01/04/1988,2020-07-08_11h09.02.703,proactive,2020.1.2,Win32,60,5f035e5afe130c270d6ae6dd,5f05e165646b9a0c2b942c9b,2,,,,,,gorilla,,,,,,,,,,,5,0,0,1,1,49,1,,,,,,,,,,,,,,,,,,,,,,,,,,,,,,,,,,,,,,,,,,,,,,,,,,,,,,,,,,,,,,,,,,,,,,
,,?,0.000475,0,,,,,,stimuli/images/PICTURE_667.png,PLENTY,56f55bc0736c79000c223b3d,01/04/1988,2020-07-08_11h09.02.703,proactive,2020.1.2,Win32,60,5f035e5afe130c270d6ae6dd,5f05e165646b9a0c2b942c9b,2,,,,,,daisy,,,,,,,,,,,5,0,0,2,2,41,1,,,,,,,,,,,,,,,,,,,,,,,,,,,,,,,,,,,,,,,,,,,,,,,,,,,,,,,,,,,,,,,,,,,,,,
,,WOMEN,1.8212,1,,,,,,stimuli/images/PICTURE_688.png,WOMEN,56f55bc0736c79000c223b3d,01/04/1988,2020-07-08_11h09.02.703,proactive,2020.1.2,Win32,60,5f035e5afe130c270d6ae6dd,5f05e165646b9a0c2b942c9b,2,,,,,,runner,,,,,,,,,,,2,0,0,3,3,14,1,,,,,,,,,,,,,,,,,,,,,,,,,,,,,,,,,,,,,,,,,,,,,,,,,,,,,,,,,,,,,,,,,,,,,,
,,?,0.0009,0,,,,,,stimuli/images/PICTURE_248.png,DOZEN,56f55bc0736c79000c223b3d,01/04/1988,2020-07-08_11h09.02.703,proactive,2020.1.2,Win32,60,5f035e5afe130c270d6ae6dd,5f05e165646b9a0c2b942c9b,2,,,,,,cart,,,,,,,,,,,4,0,0,4,4,39,1,,,,,,,,,,,,,,,,,,,,,,,,,,,,,,,,,,,,,,,,,,,,,,,,,,,,,,,,,,,,,,,,,,,,,,
,,?,0.00027,0,,,,,,stimuli/images/PICTURE_744.png,SYSTEM,56f55bc0736c79000c223b3d,01/04/1988,2020-07-08_11h09.02.703,proactive,2020.1.2,Win32,60,5f035e5afe130c270d6ae6dd,5f05e165646b9a0c2b942c9b,2,,,,,,ring,,,,,,,,,,,5,0,0,5,5,43,1,,,,,,,,,,,,,,,,,,,,,,,,,,,,,,,,,,,,,,,,,,,,,,,,,,,,,,,,,,,,,,,,,,,,,,
,,?,0.00028,0,,,,,,stimuli/images/PICTURE_311.png,FRIEND,56f55bc0736c79000c223b3d,01/04/1988,2020-07-08_11h09.02.703,proactive,2020.1.2,Win32,60,5f035e5afe130c270d6ae6dd,5f05e165646b9a0c2b942c9b,2,,,,,,razor,,,,,,,,,,,4,0,0,6,6,34,1,,,,,,,,,,,,,,,,,,,,,,,,,,,,,,,,,,,,,,,,,,,,,,,,,,,,,,,,,,,,,,,,,,,,,,
,,LOTS,1.82847,1,,,,,,stimuli/images/PICTURE_208.png,LOTS,56f55bc0736c79000c223b3d,01/04/1988,2020-07-08_11h09.02.703,proactive,2020.1.2,Win32,60,5f035e5afe130c270d6ae6dd,5f05e165646b9a0c2b942c9b,2,,,,,,microphone,,,,,,,,,,,2,0,0,7,7,10,1,,,,,,,,,,,,,,,,,,,,,,,,,,,,,,,,,,,,,,,,,,,,,,,,,,,,,,,,,,,,,,,,,,,,,,
,,BEAUTY,1.68109,1,,,,,,stimuli/images/PICTURE_311.png,BEAUTY,56f55bc0736c79000c223b3d,01/04/1988,2020-07-08_11h09.02.703,proactive,2020.1.2,Win32,60,5f035e5afe130c270d6ae6dd,5f05e165646b9a0c2b942c9b,2,,,,,,razor,,,,,,,,,,,2,0,0,8,8,13,1,,,,,,,,,,,,,,,,,,,,,,,,,,,,,,,,,,,,,,,,,,,,,,,,,,,,,,,,,,,,,,,,,,,,,,
,,?,0.001085,0,,,,,,stimuli/images/PICTURE_708.png,CLIENT,56f55bc0736c79000c223b3d,01/04/1988,2020-07-08_11h09.02.703,proactive,2020.1.2,Win32,60,5f035e5afe130c270d6ae6dd,5f05e165646b9a0c2b942c9b,2,,,,,,monkey,,,,,,,,,,,1,0,0,9,9,5,1,,,,,,,,,,,,,,,,,,,,,,,,,,,,,,,,,,,,,,,,,,,,,,,,,,,,,,,,,,,,,,,,,,,,,,
,,?,0.000795,0,,,,,,stimuli/images/PICTURE_667.png,BATH,56f55bc0736c79000c223b3d,01/04/1988,2020-07-08_11h09.02.703,proactive,2020.1.2,Win32,60,5f035e5afe130c270d6ae6dd,5f05e165646b9a0c2b942c9b,2,,,,,,daisy,,,,,,,,,,,1,0,0,10,10,4,1,,,,,,,,,,,,,,,,,,,,,,,,,,,,,,,,,,,,,,,,,,,,,,,,,,,,,,,,,,,,,,,,,,,,,,
,,?,0.000795,0,,,,,,stimuli/images/PICTURE_491.png,WRITER,56f55bc0736c79000c223b3d,01/04/1988,2020-07-08_11h09.02.703,proactive,2020.1.2,Win32,60,5f035e5afe130c270d6ae6dd,5f05e165646b9a0c2b942c9b,2,,,,,,rug,,,,,,,,,,,6,0,0,11,11,57,1,,,,,,,,,,,,,,,,,,,,,,,,,,,,,,,,,,,,,,,,,,,,,,,,,,,,,,,,,,,,,,,,,,,,,,
,,?,0.00077,0,,,,,,stimuli/images/PICTURE_233.png,WOMEN,56f55bc0736c79000c223b3d,01/04/1988,2020-07-08_11h09.02.703,proactive,2020.1.2,Win32,60,5f035e5afe130c270d6ae6dd,5f05e165646b9a0c2b942c9b,2,,,,,,salt,,,,,,,,,,,4,0,0,12,12,38,1,,,,,,,,,,,,,,,,,,,,,,,,,,,,,,,,,,,,,,,,,,,,,,,,,,,,,,,,,,,,,,,,,,,,,,
,,?,0.000785,0,,,,,,stimuli/images/PICTURE_470.png,CASINO,56f55bc0736c79000c223b3d,01/04/1988,2020-07-08_11h09.02.703,proactive,2020.1.2,Win32,60,5f035e5afe130c270d6ae6dd,5f05e165646b9a0c2b942c9b,2,,,,,,motorbike,,,,,,,,,,,4,0,0,13,13,36,1,,,,,,,,,,,,,,,,,,,,,,,,,,,,,,,,,,,,,,,,,,,,,,,,,,,,,,,,,,,,,,,,,,,,,,
,,?,0.000755,0,,,,,,stimuli/images/PICTURE_68.png,MILE,56f55bc0736c79000c223b3d,01/04/1988,2020-07-08_11h09.02.703,proactive,2020.1.2,Win32,60,5f035e5afe130c270d6ae6dd,5f05e165646b9a0c2b942c9b,2,,,,,,candle,,,,,,,,,,,5,0,0,14,14,44,1,,,,,,,,,,,,,,,,,,,,,,,,,,,,,,,,,,,,,,,,,,,,,,,,,,,,,,,,,,,,,,,,,,,,,,
,,?,0.00799,0,,,,,,stimuli/images/PICTURE_123.png,ADVICE,56f55bc0736c79000c223b3d,01/04/1988,2020-07-08_11h09.02.703,proactive,2020.1.2,Win32,60,5f035e5afe130c270d6ae6dd,5f05e165646b9a0c2b942c9b,2,,,,,,dart,,,,,,,,,,,5,0,0,15,15,40,1,,,,,,,,,,,,,,,,,,,,,,,,,,,,,,,,,,,,,,,,,,,,,,,,,,,,,,,,,,,,,,,,,,,,,,
,,?,0.00052,0,,,,,,stimuli/images/PICTURE_677.png,MILE,56f55bc0736c79000c223b3d,01/04/1988,2020-07-08_11h09.02.703,proactive,2020.1.2,Win32,60,5f035e5afe130c270d6ae6dd,5f05e165646b9a0c2b942c9b,2,,,,,,map,,,,,,,,,,,4,0,0,16,16,30,1,,,,,,,,,,,,,,,,,,,,,,,,,,,,,,,,,,,,,,,,,,,,,,,,,,,,,,,,,,,,,,,,,,,,,,
