consent_key.keys,consent_key.rt,recalled,recalled_rt,recall_acc,example_recall.thisRepN,example_recall.thisTrialN,example_recall.thisN,example_recall.thisIndex,example_recall.ran,file,word,participant,please enter your date of birth (dd/mm/yyyy),date,expName,psychopyVersion,OS,frameRate,STUDY_ID,SESSION_ID,list,prac_learn_study_loop.thisRepN,prac_learn_study_loop.thisTrialN,prac_learn_study_loop.thisN,prac_learn_study_loop.thisIndex,prac_learn_study_loop.ran,image,prac_learn_test_loop.thisRepN,prac_learn_test_loop.thisTrialN,prac_learn_test_loop.thisN,prac_learn_test_loop.thisIndex,prac_learn_test_loop.ran,learn_study_loop.thisRepN,learn_study_loop.thisTrialN,learn_study_loop.thisN,learn_study_loop.thisIndex,learn_study_loop.ran,list_no,block_no,learn_test_loop.thisRepN,learn_test_loop.thisTrialN,learn_test_loop.thisN,learn_test_loop.thisIndex,learn_test_loop.ran,learn_blocks.thisRepN,learn_blocks.thisTrialN,learn_blocks.thisN,learn_blocks.thisIndex,learn_blocks.ran,block_csv,key_resp_13.keys,key_resp_13.rt,learn_blocks_loop.thisRepN,learn_blocks_loop.thisTrialN,learn_blocks_loop.thisN,learn_blocks_loop.thisIndex,learn_blocks_loop.ran,final_learn_test.thisRepN,final_learn_test.thisTrialN,final_learn_test.thisN,final_learn_test.thisIndex,final_learn_test.ran,prac_wm_test_loop.thisRepN,prac_wm_test_loop.thisTrialN,prac_wm_test_loop.thisN,prac_wm_test_loop.thisIndex,prac_wm_test_loop.ran,wm_recalled1,wm_recall_rt1,wm_probed1,wm_recall_acc1,wm_recalled2,wm_recall_rt2,wm_probed2,wm_recall_acc2,wm_recalled3,wm_recall_rt3,wm_probed3,wm_recall_acc3,wm_recalled4,wm_recall_rt4,wm_probed4,wm_recall_acc4,prac_wm_trial_loop.thisRepN,prac_wm_trial_loop.thisTrialN,prac_wm_trial_loop.thisN,prac_wm_trial_loop.thisIndex,prac_wm_trial_loop.ran,word1,image1,file1,item_type1,word2,image2,file2,item_type2,word4,image4,file4,item_type4,word3,image3,file3,item_type3,wm_test_loop.thisRepN,wm_test_loop.thisTrialN,wm_test_loop.thisN,wm_test_loop.thisIndex,wm_test_loop.ran,wm_trial_loop.thisRepN,wm_trial_loop.thisTrialN,wm_trial_loop.thisN,wm_trial_loop.thisIndex,wm_trial_loop.ran
y,25.52829,TOUGH,6.02562,1,0,0,0,0,1,stimuli/images/PICTURE_747.png,TOUGH,574ce0a57fd0ec000db73aa6,08/03/1951,2020-07-09_17h03.28.616,proactive,2020.1.2,Win32,60,5f073de81c76c3308c0e4fb3,5f0793e4dd3a9b18eebdfdd3,2,,,,,,,,,,,,,,,,,,,,,,,,,,,,,,,,,,,,,,,,,,,,,,,,,,,,,,,,,,,,,,,,,,,,,,,,,,,,,,,,,,,,,,,,,,,,,
,,,,,,,,,,stimuli/images/PICTURE_269.png,GENIUS,574ce0a57fd0ec000db73aa6,08/03/1951,2020-07-09_17h03.28.616,proactive,2020.1.2,Win32,60,5f073de81c76c3308c0e4fb3,5f0793e4dd3a9b18eebdfdd3,2,0,0,0,0,1,chameleon,,,,,,,,,,,,,,,,,,,,,,,,,,,,,,,,,,,,,,,,,,,,,,,,,,,,,,,,,,,,,,,,,,,,,,,,,,,,,,,,,,,,,,,
,,,,,,,,,,stimuli/images/PICTURE_727.png,CELL,574ce0a57fd0ec000db73aa6,08/03/1951,2020-07-09_17h03.28.616,proactive,2020.1.2,Win32,60,5f073de81c76c3308c0e4fb3,5f0793e4dd3a9b18eebdfdd3,2,0,1,1,1,1,hose,,,,,,,,,,,,,,,,,,,,,,,,,,,,,,,,,,,,,,,,,,,,,,,,,,,,,,,,,,,,,,,,,,,,,,,,,,,,,,,,,,,,,,,
,,,,,,,,,,stimuli/images/PICTURE_378.png,LOSS,574ce0a57fd0ec000db73aa6,08/03/1951,2020-07-09_17h03.28.616,proactive,2020.1.2,Win32,60,5f073de81c76c3308c0e4fb3,5f0793e4dd3a9b18eebdfdd3,2,0,2,2,2,1,lobster,,,,,,,,,,,,,,,,,,,,,,,,,,,,,,,,,,,,,,,,,,,,,,,,,,,,,,,,,,,,,,,,,,,,,,,,,,,,,,,,,,,,,,,
,,,,,,,,,,stimuli/images/PICTURE_658.png,DEVIL,574ce0a57fd0ec000db73aa6,08/03/1951,2020-07-09_17h03.28.616,proactive,2020.1.2,Win32,60,5f073de81c76c3308c0e4fb3,5f0793e4dd3a9b18eebdfdd3,2,0,3,3,3,1,crow,,,,,,,,,,,,,,,,,,,,,,,,,,,,,,,,,,,,,,,,,,,,,,,,,,,,,,,,,,,,,,,,,,,,,,,,,,,,,,,,,,,,,,,
,,LOSS,2.16929,1,,,,,,stimuli/images/PICTURE_378.png,LOSS,574ce0a57fd0ec000db73aa6,08/03/1951,2020-07-09_17h03.28.616,proactive,2020.1.2,Win32,60,5f073de81c76c3308c0e4fb3,5f0793e4dd3a9b18eebdfdd3,2,,,,,,lobster,0,0,0,2,1,,,,,,,,,,,,,,,,,,,,,,,,,,,,,,,,,,,,,,,,,,,,,,,,,,,,,,,,,,,,,,,,,,,,,,,,,,,,,,,,,,
,,KILLER,2.33814,1,,,,,,stimuli/images/PICTURE_697.png,KILLER,574ce0a57fd0ec000db73aa6,08/03/1951,2020-07-09_17h03.28.616,proactive,2020.1.2,Win32,60,5f073de81c76c3308c0e4fb3,5f0793e4dd3a9b18eebdfdd3,2,,,,,,peach,0,1,1,4,1,,,,,,,,,,,,,,,,,,,,,,,,,,,,,,,,,,,,,,,,,,,,,,,,,,,,,,,,,,,,,,,,,,,,,,,,,,,,,,,,,,
,,GENIUS,3.00789,1,,,,,,stimuli/images/PICTURE_269.png,GENIUS,574ce0a57fd0ec000db73aa6,08/03/1951,2020-07-09_17h03.28.616,proactive,2020.1.2,Win32,60,5f073de81c76c3308c0e4fb3,5f0793e4dd3a9b18eebdfdd3,2,,,,,,chameleon,0,2,2,0,1,,,,,,,,,,,,,,,,,,,,,,,,,,,,,,,,,,,,,,,,,,,,,,,,,,,,,,,,,,,,,,,,,,,,,,,,,,,,,,,,,,
,,CELL,1.4527,1,,,,,,stimuli/images/PICTURE_727.png,CELL,574ce0a57fd0ec000db73aa6,08/03/1951,2020-07-09_17h03.28.616,proactive,2020.1.2,Win32,60,5f073de81c76c3308c0e4fb3,5f0793e4dd3a9b18eebdfdd3,2,,,,,,hose,0,3,3,1,1,,,,,,,,,,,,,,,,,,,,,,,,,,,,,,,,,,,,,,,,,,,,,,,,,,,,,,,,,,,,,,,,,,,,,,,,,,,,,,,,,,
,,DEVIL,3.36572,1,,,,,,stimuli/images/PICTURE_658.png,DEVIL,574ce0a57fd0ec000db73aa6,08/03/1951,2020-07-09_17h03.28.616,proactive,2020.1.2,Win32,60,5f073de81c76c3308c0e4fb3,5f0793e4dd3a9b18eebdfdd3,2,,,,,,crow,0,4,4,3,1,,,,,,,,,,,,,,,,,,,,,,,,,,,,,,,,,,,,,,,,,,,,,,,,,,,,,,,,,,,,,,,,,,,,,,,,,,,,,,,,,,
,,,,,,,,,,stimuli/images/PICTURE_177.png,HOUSE,574ce0a57fd0ec000db73aa6,08/03/1951,2020-07-09_17h03.28.616,proactive,2020.1.2,Win32,60,5f073de81c76c3308c0e4fb3,5f0793e4dd3a9b18eebdfdd3,2,,,,,,mushroom,,,,,,0,0,0,25,1,3,2,,,,,,,,,,,,,,,,,,,,,,,,,,,,,,,,,,,,,,,,,,,,,,,,,,,,,,,,,,,,,,,,,,,,,,,,,,,
,,,,,,,,,,stimuli/images/PICTURE_667.png,GLASS,574ce0a57fd0ec000db73aa6,08/03/1951,2020-07-09_17h03.28.616,proactive,2020.1.2,Win32,60,5f073de81c76c3308c0e4fb3,5f0793e4dd3a9b18eebdfdd3,2,,,,,,daisy,,,,,,0,1,1,27,1,3,2,,,,,,,,,,,,,,,,,,,,,,,,,,,,,,,,,,,,,,,,,,,,,,,,,,,,,,,,,,,,,,,,,,,,,,,,,,,
,,,,,,,,,,stimuli/images/PICTURE_147.png,LEADER,574ce0a57fd0ec000db73aa6,08/03/1951,2020-07-09_17h03.28.616,proactive,2020.1.2,Win32,60,5f073de81c76c3308c0e4fb3,5f0793e4dd3a9b18eebdfdd3,2,,,,,,hanger,,,,,,0,2,2,33,1,4,2,,,,,,,,,,,,,,,,,,,,,,,,,,,,,,,,,,,,,,,,,,,,,,,,,,,,,,,,,,,,,,,,,,,,,,,,,,,
,,,,,,,,,,stimuli/images/PICTURE_655.png,SALE,574ce0a57fd0ec000db73aa6,08/03/1951,2020-07-09_17h03.28.616,proactive,2020.1.2,Win32,60,5f073de81c76c3308c0e4fb3,5f0793e4dd3a9b18eebdfdd3,2,,,,,,megaphone,,,,,,0,3,3,57,1,6,2,,,,,,,,,,,,,,,,,,,,,,,,,,,,,,,,,,,,,,,,,,,,,,,,,,,,,,,,,,,,,,,,,,,,,,,,,,,
,,,,,,,,,,stimuli/images/PICTURE_255.png,PENNY,574ce0a57fd0ec000db73aa6,08/03/1951,2020-07-09_17h03.28.616,proactive,2020.1.2,Win32,60,5f073de81c76c3308c0e4fb3,5f0793e4dd3a9b18eebdfdd3,2,,,,,,shovel,,,,,,0,4,4,19,1,2,2,,,,,,,,,,,,,,,,,,,,,,,,,,,,,,,,,,,,,,,,,,,,,,,,,,,,,,,,,,,,,,,,,,,,,,,,,,,
,,,,,,,,,,stimuli/images/PICTURE_452.png,COPS,574ce0a57fd0ec000db73aa6,08/03/1951,2020-07-09_17h03.28.616,proactive,2020.1.2,Win32,60,5f073de81c76c3308c0e4fb3,5f0793e4dd3a9b18eebdfdd3,2,,,,,,watch,,,,,,0,5,5,0,1,1,2,,,,,,,,,,,,,,,,,,,,,,,,,,,,,,,,,,,,,,,,,,,,,,,,,,,,,,,,,,,,,,,,,,,,,,,,,,,
,,,,,,,,,,stimuli/images/PICTURE_692.png,DUDE,574ce0a57fd0ec000db73aa6,08/03/1951,2020-07-09_17h03.28.616,proactive,2020.1.2,Win32,60,5f073de81c76c3308c0e4fb3,5f0793e4dd3a9b18eebdfdd3,2,,,,,,cherry,,,,,,0,6,6,47,1,5,2,,,,,,,,,,,,,,,,,,,,,,,,,,,,,,,,,,,,,,,,,,,,,,,,,,,,,,,,,,,,,,,,,,,,,,,,,,,
,,,,,,,,,,stimuli/images/PICTURE_654.png,YEAR,574ce0a57fd0ec000db73aa6,08/03/1951,2020-07-09_17h03.28.616,proactive,2020.1.2,Win32,60,5f073de81c76c3308c0e4fb3,5f0793e4dd3a9b18eebdfdd3,2,,,,,,pencil,,,,,,0,7,7,41,1,5,2,,,,,,,,,,,,,,,,,,,,,,,,,,,,,,,,,,,,,,,,,,,,,,,,,,,,,,,,,,,,,,,,,,,,,,,,,,,
,,,,,,,,,,stimuli/images/PICTURE_504.png,HOUSE,574ce0a57fd0ec000db73aa6,08/03/1951,2020-07-09_17h03.28.616,proactive,2020.1.2,Win32,60,5f073de81c76c3308c0e4fb3,5f0793e4dd3a9b18eebdfdd3,2,,,,,,wheel,,,,,,0,8,8,36,1,4,2,,,,,,,,,,,,,,,,,,,,,,,,,,,,,,,,,,,,,,,,,,,,,,,,,,,,,,,,,,,,,,,,,,,,,,,,,,,
,,,,,,,,,,stimuli/images/PICTURE_2.png,YARD,574ce0a57fd0ec000db73aa6,08/03/1951,2020-07-09_17h03.28.616,proactive,2020.1.2,Win32,60,5f073de81c76c3308c0e4fb3,5f0793e4dd3a9b18eebdfdd3,2,,,,,,tyre,,,,,,0,9,9,55,1,6,2,,,,,,,,,,,,,,,,,,,,,,,,,,,,,,,,,,,,,,,,,,,,,,,,,,,,,,,,,,,,,,,,,,,,,,,,,,,
,,,,,,,,,,stimuli/images/PICTURE_509.png,APPLE,574ce0a57fd0ec000db73aa6,08/03/1951,2020-07-09_17h03.28.616,proactive,2020.1.2,Win32,60,5f073de81c76c3308c0e4fb3,5f0793e4dd3a9b18eebdfdd3,2,,,,,,telephone,,,,,,0,10,10,38,1,4,2,,,,,,,,,,,,,,,,,,,,,,,,,,,,,,,,,,,,,,,,,,,,,,,,,,,,,,,,,,,,,,,,,,,,,,,,,,,
,,,,,,,,,,stimuli/images/PICTURE_453.png,FAMILY,574ce0a57fd0ec000db73aa6,08/03/1951,2020-07-09_17h03.28.616,proactive,2020.1.2,Win32,60,5f073de81c76c3308c0e4fb3,5f0793e4dd3a9b18eebdfdd3,2,,,,,,scissors,,,,,,0,11,11,48,1,5,2,,,,,,,,,,,,,,,,,,,,,,,,,,,,,,,,,,,,,,,,,,,,,,,,,,,,,,,,,,,,,,,,,,,,,,,,,,,
,,,,,,,,,,stimuli/images/PICTURE_509.png,BATH,574ce0a57fd0ec000db73aa6,08/03/1951,2020-07-09_17h03.28.616,proactive,2020.1.2,Win32,60,5f073de81c76c3308c0e4fb3,5f0793e4dd3a9b18eebdfdd3,2,,,,,,telephone,,,,,,0,12,12,15,1,2,2,,,,,,,,,,,,,,,,,,,,,,,,,,,,,,,,,,,,,,,,,,,,,,,,,,,,,,,,,,,,,,,,,,,,,,,,,,,
,,,,,,,,,,stimuli/images/PICTURE_2.png,JUNGLE,574ce0a57fd0ec000db73aa6,08/03/1951,2020-07-09_17h03.28.616,proactive,2020.1.2,Win32,60,5f073de81c76c3308c0e4fb3,5f0793e4dd3a9b18eebdfdd3,2,,,,,,tyre,,,,,,0,13,13,1,1,1,2,,,,,,,,,,,,,,,,,,,,,,,,,,,,,,,,,,,,,,,,,,,,,,,,,,,,,,,,,,,,,,,,,,,,,,,,,,,
,,,,,,,,,,stimuli/images/PICTURE_208.png,SPIRIT,574ce0a57fd0ec000db73aa6,08/03/1951,2020-07-09_17h03.28.616,proactive,2020.1.2,Win32,60,5f073de81c76c3308c0e4fb3,5f0793e4dd3a9b18eebdfdd3,2,,,,,,microphone,,,,,,0,14,14,28,1,3,2,,,,,,,,,,,,,,,,,,,,,,,,,,,,,,,,,,,,,,,,,,,,,,,,,,,,,,,,,,,,,,,,,,,,,,,,,,,
,,,,,,,,,,stimuli/images/PICTURE_68.png,KIND,574ce0a57fd0ec000db73aa6,08/03/1951,2020-07-09_17h03.28.616,proactive,2020.1.2,Win32,60,5f073de81c76c3308c0e4fb3,5f0793e4dd3a9b18eebdfdd3,2,,,,,,candle,,,,,,0,15,15,23,1,3,2,,,,,,,,,,,,,,,,,,,,,,,,,,,,,,,,,,,,,,,,,,,,,,,,,,,,,,,,,,,,,,,,,,,,,,,,,,,
,,,,,,,,,,stimuli/images/PICTURE_348.png,TOILET,574ce0a57fd0ec000db73aa6,08/03/1951,2020-07-09_17h03.28.616,proactive,2020.1.2,Win32,60,5f073de81c76c3308c0e4fb3,5f0793e4dd3a9b18eebdfdd3,2,,,,,,pepper,,,,,,0,16,16,4,1,1,2,,,,,,,,,,,,,,,,,,,,,,,,,,,,,,,,,,,,,,,,,,,,,,,,,,,,,,,,,,,,,,,,,,,,,,,,,,,
,,,,,,,,,,stimuli/images/PICTURE_405.png,JUNGLE,574ce0a57fd0ec000db73aa6,08/03/1951,2020-07-09_17h03.28.616,proactive,2020.1.2,Win32,60,5f073de81c76c3308c0e4fb3,5f0793e4dd3a9b18eebdfdd3,2,,,,,,anchor,,,,,,0,17,17,13,1,2,2,,,,,,,,,,,,,,,,,,,,,,,,,,,,,,,,,,,,,,,,,,,,,,,,,,,,,,,,,,,,,,,,,,,,,,,,,,,
,,,,,,,,,,stimuli/images/PICTURE_405.png,HOUSE,574ce0a57fd0ec000db73aa6,08/03/1951,2020-07-09_17h03.28.616,proactive,2020.1.2,Win32,60,5f073de81c76c3308c0e4fb3,5f0793e4dd3a9b18eebdfdd3,2,,,,,,anchor,,,,,,0,18,18,2,1,1,2,,,,,,,,,,,,,,,,,,,,,,,,,,,,,,,,,,,,,,,,,,,,,,,,,,,,,,,,,,,,,,,,,,,,,,,,,,,
,,,,,,,,,,stimuli/images/PICTURE_33.png,COPS,574ce0a57fd0ec000db73aa6,08/03/1951,2020-07-09_17h03.28.616,proactive,2020.1.2,Win32,60,5f073de81c76c3308c0e4fb3,5f0793e4dd3a9b18eebdfdd3,2,,,,,,frame,,,,,,0,19,19,29,1,3,2,,,,,,,,,,,,,,,,,,,,,,,,,,,,,,,,,,,,,,,,,,,,,,,,,,,,,,,,,,,,,,,,,,,,,,,,,,,
,,,,,,,,,,stimuli/images/PICTURE_708.png,VALLEY,574ce0a57fd0ec000db73aa6,08/03/1951,2020-07-09_17h03.28.616,proactive,2020.1.2,Win32,60,5f073de81c76c3308c0e4fb3,5f0793e4dd3a9b18eebdfdd3,2,,,,,,monkey,,,,,,0,20,20,45,1,5,2,,,,,,,,,,,,,,,,,,,,,,,,,,,,,,,,,,,,,,,,,,,,,,,,,,,,,,,,,,,,,,,,,,,,,,,,,,,
,,,,,,,,,,stimuli/images/PICTURE_2.png,AREA,574ce0a57fd0ec000db73aa6,08/03/1951,2020-07-09_17h03.28.616,proactive,2020.1.2,Win32,60,5f073de81c76c3308c0e4fb3,5f0793e4dd3a9b18eebdfdd3,2,,,,,,tyre,,,,,,0,21,21,32,1,4,2,,,,,,,,,,,,,,,,,,,,,,,,,,,,,,,,,,,,,,,,,,,,,,,,,,,,,,,,,,,,,,,,,,,,,,,,,,,
,,,,,,,,,,stimuli/images/PICTURE_215.png,FOOD,574ce0a57fd0ec000db73aa6,08/03/1951,2020-07-09_17h03.28.616,proactive,2020.1.2,Win32,60,5f073de81c76c3308c0e4fb3,5f0793e4dd3a9b18eebdfdd3,2,,,,,,boot,,,,,,0,22,22,5,1,1,2,,,,,,,,,,,,,,,,,,,,,,,,,,,,,,,,,,,,,,,,,,,,,,,,,,,,,,,,,,,,,,,,,,,,,,,,,,,
,,,,,,,,,,stimuli/images/PICTURE_491.png,SERIES,574ce0a57fd0ec000db73aa6,08/03/1951,2020-07-09_17h03.28.616,proactive,2020.1.2,Win32,60,5f073de81c76c3308c0e4fb3,5f0793e4dd3a9b18eebdfdd3,2,,,,,,rug,,,,,,0,23,23,39,1,4,2,,,,,,,,,,,,,,,,,,,,,,,,,,,,,,,,,,,,,,,,,,,,,,,,,,,,,,,,,,,,,,,,,,,,,,,,,,,
,,,,,,,,,,stimuli/images/PICTURE_327.png,LEADER,574ce0a57fd0ec000db73aa6,08/03/1951,2020-07-09_17h03.28.616,proactive,2020.1.2,Win32,60,5f073de81c76c3308c0e4fb3,5f0793e4dd3a9b18eebdfdd3,2,,,,,,helmet,,,,,,0,24,24,17,1,2,2,,,,,,,,,,,,,,,,,,,,,,,,,,,,,,,,,,,,,,,,,,,,,,,,,,,,,,,,,,,,,,,,,,,,,,,,,,,
,,,,,,,,,,stimuli/images/PICTURE_405.png,JUNGLE,574ce0a57fd0ec000db73aa6,08/03/1951,2020-07-09_17h03.28.616,proactive,2020.1.2,Win32,60,5f073de81c76c3308c0e4fb3,5f0793e4dd3a9b18eebdfdd3,2,,,,,,anchor,,,,,,0,25,25,58,1,6,2,,,,,,,,,,,,,,,,,,,,,,,,,,,,,,,,,,,,,,,,,,,,,,,,,,,,,,,,,,,,,,,,,,,,,,,,,,,
,,,,,,,,,,stimuli/images/PICTURE_750.png,POLICY,574ce0a57fd0ec000db73aa6,08/03/1951,2020-07-09_17h03.28.616,proactive,2020.1.2,Win32,60,5f073de81c76c3308c0e4fb3,5f0793e4dd3a9b18eebdfdd3,2,,,,,,kettle,,,,,,0,26,26,44,1,5,2,,,,,,,,,,,,,,,,,,,,,,,,,,,,,,,,,,,,,,,,,,,,,,,,,,,,,,,,,,,,,,,,,,,,,,,,,,,
,,,,,,,,,,stimuli/images/PICTURE_285.png,PRINCE,574ce0a57fd0ec000db73aa6,08/03/1951,2020-07-09_17h03.28.616,proactive,2020.1.2,Win32,60,5f073de81c76c3308c0e4fb3,5f0793e4dd3a9b18eebdfdd3,2,,,,,,carrot,,,,,,0,27,27,20,1,3,2,,,,,,,,,,,,,,,,,,,,,,,,,,,,,,,,,,,,,,,,,,,,,,,,,,,,,,,,,,,,,,,,,,,,,,,,,,,
,,,,,,,,,,stimuli/images/PICTURE_688.png,CLOCK,574ce0a57fd0ec000db73aa6,08/03/1951,2020-07-09_17h03.28.616,proactive,2020.1.2,Win32,60,5f073de81c76c3308c0e4fb3,5f0793e4dd3a9b18eebdfdd3,2,,,,,,runner,,,,,,0,28,28,42,1,5,2,,,,,,,,,,,,,,,,,,,,,,,,,,,,,,,,,,,,,,,,,,,,,,,,,,,,,,,,,,,,,,,,,,,,,,,,,,,
,,,,,,,,,,stimuli/images/PICTURE_32.png,LETTER,574ce0a57fd0ec000db73aa6,08/03/1951,2020-07-09_17h03.28.616,proactive,2020.1.2,Win32,60,5f073de81c76c3308c0e4fb3,5f0793e4dd3a9b18eebdfdd3,2,,,,,,crown,,,,,,0,29,29,56,1,6,2,,,,,,,,,,,,,,,,,,,,,,,,,,,,,,,,,,,,,,,,,,,,,,,,,,,,,,,,,,,,,,,,,,,,,,,,,,,
,,,,,,,,,,stimuli/images/PICTURE_57.png,NATION,574ce0a57fd0ec000db73aa6,08/03/1951,2020-07-09_17h03.28.616,proactive,2020.1.2,Win32,60,5f073de81c76c3308c0e4fb3,5f0793e4dd3a9b18eebdfdd3,2,,,,,,stamp,,,,,,0,30,30,21,1,3,2,,,,,,,,,,,,,,,,,,,,,,,,,,,,,,,,,,,,,,,,,,,,,,,,,,,,,,,,,,,,,,,,,,,,,,,,,,,
,,,,,,,,,,stimuli/images/PICTURE_356.png,CANDY,574ce0a57fd0ec000db73aa6,08/03/1951,2020-07-09_17h03.28.616,proactive,2020.1.2,Win32,60,5f073de81c76c3308c0e4fb3,5f0793e4dd3a9b18eebdfdd3,2,,,,,,pawn,,,,,,0,31,31,46,1,5,2,,,,,,,,,,,,,,,,,,,,,,,,,,,,,,,,,,,,,,,,,,,,,,,,,,,,,,,,,,,,,,,,,,,,,,,,,,,
,,,,,,,,,,stimuli/images/PICTURE_57.png,CASINO,574ce0a57fd0ec000db73aa6,08/03/1951,2020-07-09_17h03.28.616,proactive,2020.1.2,Win32,60,5f073de81c76c3308c0e4fb3,5f0793e4dd3a9b18eebdfdd3,2,,,,,,stamp,,,,,,0,32,32,12,1,2,2,,,,,,,,,,,,,,,,,,,,,,,,,,,,,,,,,,,,,,,,,,,,,,,,,,,,,,,,,,,,,,,,,,,,,,,,,,,
,,,,,,,,,,stimuli/images/PICTURE_297.png,BODY,574ce0a57fd0ec000db73aa6,08/03/1951,2020-07-09_17h03.28.616,proactive,2020.1.2,Win32,60,5f073de81c76c3308c0e4fb3,5f0793e4dd3a9b18eebdfdd3,2,,,,,,aeroplane,,,,,,0,33,33,51,1,6,2,,,,,,,,,,,,,,,,,,,,,,,,,,,,,,,,,,,,,,,,,,,,,,,,,,,,,,,,,,,,,,,,,,,,,,,,,,,
,,,,,,,,,,stimuli/images/PICTURE_487.png,POLICY,574ce0a57fd0ec000db73aa6,08/03/1951,2020-07-09_17h03.28.616,proactive,2020.1.2,Win32,60,5f073de81c76c3308c0e4fb3,5f0793e4dd3a9b18eebdfdd3,2,,,,,,basket,,,,,,0,34,34,34,1,4,2,,,,,,,,,,,,,,,,,,,,,,,,,,,,,,,,,,,,,,,,,,,,,,,,,,,,,,,,,,,,,,,,,,,,,,,,,,,
,,,,,,,,,,stimuli/images/PICTURE_57.png,CANDY,574ce0a57fd0ec000db73aa6,08/03/1951,2020-07-09_17h03.28.616,proactive,2020.1.2,Win32,60,5f073de81c76c3308c0e4fb3,5f0793e4dd3a9b18eebdfdd3,2,,,,,,stamp,,,,,,0,35,35,52,1,6,2,,,,,,,,,,,,,,,,,,,,,,,,,,,,,,,,,,,,,,,,,,,,,,,,,,,,,,,,,,,,,,,,,,,,,,,,,,,
,,,,,,,,,,stimuli/images/PICTURE_215.png,BOYS,574ce0a57fd0ec000db73aa6,08/03/1951,2020-07-09_17h03.28.616,proactive,2020.1.2,Win32,60,5f073de81c76c3308c0e4fb3,5f0793e4dd3a9b18eebdfdd3,2,,,,,,boot,,,,,,0,36,36,24,1,3,2,,,,,,,,,,,,,,,,,,,,,,,,,,,,,,,,,,,,,,,,,,,,,,,,,,,,,,,,,,,,,,,,,,,,,,,,,,,
,,,,,,,,,,stimuli/images/PICTURE_470.png,BEAUTY,574ce0a57fd0ec000db73aa6,08/03/1951,2020-07-09_17h03.28.616,proactive,2020.1.2,Win32,60,5f073de81c76c3308c0e4fb3,5f0793e4dd3a9b18eebdfdd3,2,,,,,,motorbike,,,,,,0,37,37,26,1,3,2,,,,,,,,,,,,,,,,,,,,,,,,,,,,,,,,,,,,,,,,,,,,,,,,,,,,,,,,,,,,,,,,,,,,,,,,,,,
,,,,,,,,,,stimuli/images/PICTURE_215.png,LEADER,574ce0a57fd0ec000db73aa6,08/03/1951,2020-07-09_17h03.28.616,proactive,2020.1.2,Win32,60,5f073de81c76c3308c0e4fb3,5f0793e4dd3a9b18eebdfdd3,2,,,,,,boot,,,,,,0,38,38,43,1,5,2,,,,,,,,,,,,,,,,,,,,,,,,,,,,,,,,,,,,,,,,,,,,,,,,,,,,,,,,,,,,,,,,,,,,,,,,,,,
,,,,,,,,,,stimuli/images/PICTURE_654.png,COPS,574ce0a57fd0ec000db73aa6,08/03/1951,2020-07-09_17h03.28.616,proactive,2020.1.2,Win32,60,5f073de81c76c3308c0e4fb3,5f0793e4dd3a9b18eebdfdd3,2,,,,,,pencil,,,,,,0,39,39,10,1,2,2,,,,,,,,,,,,,,,,,,,,,,,,,,,,,,,,,,,,,,,,,,,,,,,,,,,,,,,,,,,,,,,,,,,,,,,,,,,
,,,,,,,,,,stimuli/images/PICTURE_93.png,GIRL,574ce0a57fd0ec000db73aa6,08/03/1951,2020-07-09_17h03.28.616,proactive,2020.1.2,Win32,60,5f073de81c76c3308c0e4fb3,5f0793e4dd3a9b18eebdfdd3,2,,,,,,skateboard,,,,,,0,40,40,31,1,4,2,,,,,,,,,,,,,,,,,,,,,,,,,,,,,,,,,,,,,,,,,,,,,,,,,,,,,,,,,,,,,,,,,,,,,,,,,,,
,,,,,,,,,,stimuli/images/PICTURE_285.png,WRITER,574ce0a57fd0ec000db73aa6,08/03/1951,2020-07-09_17h03.28.616,proactive,2020.1.2,Win32,60,5f073de81c76c3308c0e4fb3,5f0793e4dd3a9b18eebdfdd3,2,,,,,,carrot,,,,,,0,41,41,6,1,1,2,,,,,,,,,,,,,,,,,,,,,,,,,,,,,,,,,,,,,,,,,,,,,,,,,,,,,,,,,,,,,,,,,,,,,,,,,,,
,,,,,,,,,,stimuli/images/PICTURE_123.png,SALE,574ce0a57fd0ec000db73aa6,08/03/1951,2020-07-09_17h03.28.616,proactive,2020.1.2,Win32,60,5f073de81c76c3308c0e4fb3,5f0793e4dd3a9b18eebdfdd3,2,,,,,,dart,,,,,,0,42,42,8,1,1,2,,,,,,,,,,,,,,,,,,,,,,,,,,,,,,,,,,,,,,,,,,,,,,,,,,,,,,,,,,,,,,,,,,,,,,,,,,,
,,,,,,,,,,stimuli/images/PICTURE_95.png,NIGHT,574ce0a57fd0ec000db73aa6,08/03/1951,2020-07-09_17h03.28.616,proactive,2020.1.2,Win32,60,5f073de81c76c3308c0e4fb3,5f0793e4dd3a9b18eebdfdd3,2,,,,,,suitcase,,,,,,0,43,43,37,1,4,2,,,,,,,,,,,,,,,,,,,,,,,,,,,,,,,,,,,,,,,,,,,,,,,,,,,,,,,,,,,,,,,,,,,,,,,,,,,
,,,,,,,,,,stimuli/images/PICTURE_677.png,FAMILY,574ce0a57fd0ec000db73aa6,08/03/1951,2020-07-09_17h03.28.616,proactive,2020.1.2,Win32,60,5f073de81c76c3308c0e4fb3,5f0793e4dd3a9b18eebdfdd3,2,,,,,,map,,,,,,0,44,44,53,1,6,2,,,,,,,,,,,,,,,,,,,,,,,,,,,,,,,,,,,,,,,,,,,,,,,,,,,,,,,,,,,,,,,,,,,,,,,,,,,
,,,,,,,,,,stimuli/images/PICTURE_18.png,RIVER,574ce0a57fd0ec000db73aa6,08/03/1951,2020-07-09_17h03.28.616,proactive,2020.1.2,Win32,60,5f073de81c76c3308c0e4fb3,5f0793e4dd3a9b18eebdfdd3,2,,,,,,planet,,,,,,0,45,45,22,1,3,2,,,,,,,,,,,,,,,,,,,,,,,,,,,,,,,,,,,,,,,,,,,,,,,,,,,,,,,,,,,,,,,,,,,,,,,,,,,
,,,,,,,,,,stimuli/images/PICTURE_348.png,DUDE,574ce0a57fd0ec000db73aa6,08/03/1951,2020-07-09_17h03.28.616,proactive,2020.1.2,Win32,60,5f073de81c76c3308c0e4fb3,5f0793e4dd3a9b18eebdfdd3,2,,,,,,pepper,,,,,,0,46,46,59,1,6,2,,,,,,,,,,,,,,,,,,,,,,,,,,,,,,,,,,,,,,,,,,,,,,,,,,,,,,,,,,,,,,,,,,,,,,,,,,,
,,,,,,,,,,stimuli/images/PICTURE_403.png,FAMILY,574ce0a57fd0ec000db73aa6,08/03/1951,2020-07-09_17h03.28.616,proactive,2020.1.2,Win32,60,5f073de81c76c3308c0e4fb3,5f0793e4dd3a9b18eebdfdd3,2,,,,,,cathedral,,,,,,0,47,47,9,1,1,2,,,,,,,,,,,,,,,,,,,,,,,,,,,,,,,,,,,,,,,,,,,,,,,,,,,,,,,,,,,,,,,,,,,,,,,,,,,
,,,,,,,,,,stimuli/images/PICTURE_470.png,MOMENT,574ce0a57fd0ec000db73aa6,08/03/1951,2020-07-09_17h03.28.616,proactive,2020.1.2,Win32,60,5f073de81c76c3308c0e4fb3,5f0793e4dd3a9b18eebdfdd3,2,,,,,,motorbike,,,,,,0,48,48,40,1,5,2,,,,,,,,,,,,,,,,,,,,,,,,,,,,,,,,,,,,,,,,,,,,,,,,,,,,,,,,,,,,,,,,,,,,,,,,,,,
,,,,,,,,,,stimuli/images/PICTURE_311.png,TOILET,574ce0a57fd0ec000db73aa6,08/03/1951,2020-07-09_17h03.28.616,proactive,2020.1.2,Win32,60,5f073de81c76c3308c0e4fb3,5f0793e4dd3a9b18eebdfdd3,2,,,,,,razor,,,,,,0,49,49,54,1,6,2,,,,,,,,,,,,,,,,,,,,,,,,,,,,,,,,,,,,,,,,,,,,,,,,,,,,,,,,,,,,,,,,,,,,,,,,,,,
,,,,,,,,,,stimuli/images/PICTURE_296.png,CLOCK,574ce0a57fd0ec000db73aa6,08/03/1951,2020-07-09_17h03.28.616,proactive,2020.1.2,Win32,60,5f073de81c76c3308c0e4fb3,5f0793e4dd3a9b18eebdfdd3,2,,,,,,bolt,,,,,,0,50,50,18,1,2,2,,,,,,,,,,,,,,,,,,,,,,,,,,,,,,,,,,,,,,,,,,,,,,,,,,,,,,,,,,,,,,,,,,,,,,,,,,,
,,,,,,,,,,stimuli/images/PICTURE_160.png,HOTEL,574ce0a57fd0ec000db73aa6,08/03/1951,2020-07-09_17h03.28.616,proactive,2020.1.2,Win32,60,5f073de81c76c3308c0e4fb3,5f0793e4dd3a9b18eebdfdd3,2,,,,,,wheelbarrow,,,,,,0,51,51,16,1,2,2,,,,,,,,,,,,,,,,,,,,,,,,,,,,,,,,,,,,,,,,,,,,,,,,,,,,,,,,,,,,,,,,,,,,,,,,,,,
,,,,,,,,,,stimuli/images/PICTURE_141.png,CLIENT,574ce0a57fd0ec000db73aa6,08/03/1951,2020-07-09_17h03.28.616,proactive,2020.1.2,Win32,60,5f073de81c76c3308c0e4fb3,5f0793e4dd3a9b18eebdfdd3,2,,,,,,sunflower,,,,,,0,52,52,30,1,4,2,,,,,,,,,,,,,,,,,,,,,,,,,,,,,,,,,,,,,,,,,,,,,,,,,,,,,,,,,,,,,,,,,,,,,,,,,,,
,,,,,,,,,,stimuli/images/PICTURE_509.png,MILLER,574ce0a57fd0ec000db73aa6,08/03/1951,2020-07-09_17h03.28.616,proactive,2020.1.2,Win32,60,5f073de81c76c3308c0e4fb3,5f0793e4dd3a9b18eebdfdd3,2,,,,,,telephone,,,,,,0,53,53,49,1,5,2,,,,,,,,,,,,,,,,,,,,,,,,,,,,,,,,,,,,,,,,,,,,,,,,,,,,,,,,,,,,,,,,,,,,,,,,,,,
,,,,,,,,,,stimuli/images/PICTURE_509.png,SHOTS,574ce0a57fd0ec000db73aa6,08/03/1951,2020-07-09_17h03.28.616,proactive,2020.1.2,Win32,60,5f073de81c76c3308c0e4fb3,5f0793e4dd3a9b18eebdfdd3,2,,,,,,telephone,,,,,,0,54,54,7,1,1,2,,,,,,,,,,,,,,,,,,,,,,,,,,,,,,,,,,,,,,,,,,,,,,,,,,,,,,,,,,,,,,,,,,,,,,,,,,,
,,,,,,,,,,stimuli/images/PICTURE_677.png,PHOTO,574ce0a57fd0ec000db73aa6,08/03/1951,2020-07-09_17h03.28.616,proactive,2020.1.2,Win32,60,5f073de81c76c3308c0e4fb3,5f0793e4dd3a9b18eebdfdd3,2,,,,,,map,,,,,,0,55,55,14,1,2,2,,,,,,,,,,,,,,,,,,,,,,,,,,,,,,,,,,,,,,,,,,,,,,,,,,,,,,,,,,,,,,,,,,,,,,,,,,,
,,,,,,,,,,stimuli/images/PICTURE_311.png,FLESH,574ce0a57fd0ec000db73aa6,08/03/1951,2020-07-09_17h03.28.616,proactive,2020.1.2,Win32,60,5f073de81c76c3308c0e4fb3,5f0793e4dd3a9b18eebdfdd3,2,,,,,,razor,,,,,,0,56,56,3,1,1,2,,,,,,,,,,,,,,,,,,,,,,,,,,,,,,,,,,,,,,,,,,,,,,,,,,,,,,,,,,,,,,,,,,,,,,,,,,,
,,,,,,,,,,stimuli/images/PICTURE_487.png,ROOF,574ce0a57fd0ec000db73aa6,08/03/1951,2020-07-09_17h03.28.616,proactive,2020.1.2,Win32,60,5f073de81c76c3308c0e4fb3,5f0793e4dd3a9b18eebdfdd3,2,,,,,,basket,,,,,,0,57,57,50,1,6,2,,,,,,,,,,,,,,,,,,,,,,,,,,,,,,,,,,,,,,,,,,,,,,,,,,,,,,,,,,,,,,,,,,,,,,,,,,,
,,,,,,,,,,stimuli/images/PICTURE_564.png,PLENTY,574ce0a57fd0ec000db73aa6,08/03/1951,2020-07-09_17h03.28.616,proactive,2020.1.2,Win32,60,5f073de81c76c3308c0e4fb3,5f0793e4dd3a9b18eebdfdd3,2,,,,,,spoon,,,,,,0,58,58,11,1,2,2,,,,,,,,,,,,,,,,,,,,,,,,,,,,,,,,,,,,,,,,,,,,,,,,,,,,,,,,,,,,,,,,,,,,,,,,,,,
,,?,0.00147,0,,,,,,stimuli/images/PICTURE_688.png,CLOCK,574ce0a57fd0ec000db73aa6,08/03/1951,2020-07-09_17h03.28.616,proactive,2020.1.2,Win32,60,5f073de81c76c3308c0e4fb3,5f0793e4dd3a9b18eebdfdd3,2,,,,,,runner,,,,,,,,,,,5,2,0,0,0,42,1,,,,,,,,,,,,,,,,,,,,,,,,,,,,,,,,,,,,,,,,,,,,,,,,,,,,,,,,,,,,,,,,,,,,,,
,,?,0.002685,0,,,,,,stimuli/images/PICTURE_487.png,POLICY,574ce0a57fd0ec000db73aa6,08/03/1951,2020-07-09_17h03.28.616,proactive,2020.1.2,Win32,60,5f073de81c76c3308c0e4fb3,5f0793e4dd3a9b18eebdfdd3,2,,,,,,basket,,,,,,,,,,,4,2,0,1,1,34,1,,,,,,,,,,,,,,,,,,,,,,,,,,,,,,,,,,,,,,,,,,,,,,,,,,,,,,,,,,,,,,,,,,,,,,
,,?,0.001685,0,,,,,,stimuli/images/PICTURE_470.png,BEAUTY,574ce0a57fd0ec000db73aa6,08/03/1951,2020-07-09_17h03.28.616,proactive,2020.1.2,Win32,60,5f073de81c76c3308c0e4fb3,5f0793e4dd3a9b18eebdfdd3,2,,,,,,motorbike,,,,,,,,,,,3,2,0,2,2,26,1,,,,,,,,,,,,,,,,,,,,,,,,,,,,,,,,,,,,,,,,,,,,,,,,,,,,,,,,,,,,,,,,,,,,,,
,,?,0.0027,0,,,,,,stimuli/images/PICTURE_2.png,YARD,574ce0a57fd0ec000db73aa6,08/03/1951,2020-07-09_17h03.28.616,proactive,2020.1.2,Win32,60,5f073de81c76c3308c0e4fb3,5f0793e4dd3a9b18eebdfdd3,2,,,,,,tyre,,,,,,,,,,,6,2,0,3,3,55,1,,,,,,,,,,,,,,,,,,,,,,,,,,,,,,,,,,,,,,,,,,,,,,,,,,,,,,,,,,,,,,,,,,,,,,
,,?,0.00191,0,,,,,,stimuli/images/PICTURE_123.png,SALE,574ce0a57fd0ec000db73aa6,08/03/1951,2020-07-09_17h03.28.616,proactive,2020.1.2,Win32,60,5f073de81c76c3308c0e4fb3,5f0793e4dd3a9b18eebdfdd3,2,,,,,,dart,,,,,,,,,,,1,2,0,4,4,8,1,,,,,,,,,,,,,,,,,,,,,,,,,,,,,,,,,,,,,,,,,,,,,,,,,,,,,,,,,,,,,,,,,,,,,,
,,?,0.001275,0,,,,,,stimuli/images/PICTURE_147.png,LEADER,574ce0a57fd0ec000db73aa6,08/03/1951,2020-07-09_17h03.28.616,proactive,2020.1.2,Win32,60,5f073de81c76c3308c0e4fb3,5f0793e4dd3a9b18eebdfdd3,2,,,,,,hanger,,,,,,,,,,,4,2,0,5,5,33,1,,,,,,,,,,,,,,,,,,,,,,,,,,,,,,,,,,,,,,,,,,,,,,,,,,,,,,,,,,,,,,,,,,,,,,
,,?,0.001705,0,,,,,,stimuli/images/PICTURE_2.png,AREA,574ce0a57fd0ec000db73aa6,08/03/1951,2020-07-09_17h03.28.616,proactive,2020.1.2,Win32,60,5f073de81c76c3308c0e4fb3,5f0793e4dd3a9b18eebdfdd3,2,,,,,,tyre,,,,,,,,,,,4,2,0,6,6,32,1,,,,,,,,,,,,,,,,,,,,,,,,,,,,,,,,,,,,,,,,,,,,,,,,,,,,,,,,,,,,,,,,,,,,,,
,,?,0.0013,0,,,,,,stimuli/images/PICTURE_32.png,LETTER,574ce0a57fd0ec000db73aa6,08/03/1951,2020-07-09_17h03.28.616,proactive,2020.1.2,Win32,60,5f073de81c76c3308c0e4fb3,5f0793e4dd3a9b18eebdfdd3,2,,,,,,crown,,,,,,,,,,,6,2,0,7,7,56,1,,,,,,,,,,,,,,,,,,,,,,,,,,,,,,,,,,,,,,,,,,,,,,,,,,,,,,,,,,,,,,,,,,,,,,
,,?,0.001275,0,,,,,,stimuli/images/PICTURE_177.png,HOUSE,574ce0a57fd0ec000db73aa6,08/03/1951,2020-07-09_17h03.28.616,proactive,2020.1.2,Win32,60,5f073de81c76c3308c0e4fb3,5f0793e4dd3a9b18eebdfdd3,2,,,,,,mushroom,,,,,,,,,,,3,2,0,8,8,25,1,,,,,,,,,,,,,,,,,,,,,,,,,,,,,,,,,,,,,,,,,,,,,,,,,,,,,,,,,,,,,,,,,,,,,,
,,PENNY,4.820575,0,,,,,,stimuli/images/PICTURE_160.png,HOTEL,574ce0a57fd0ec000db73aa6,08/03/1951,2020-07-09_17h03.28.616,proactive,2020.1.2,Win32,60,5f073de81c76c3308c0e4fb3,5f0793e4dd3a9b18eebdfdd3,2,,,,,,wheelbarrow,,,,,,,,,,,2,2,0,9,9,16,1,,,,,,,,,,,,,,,,,,,,,,,,,,,,,,,,,,,,,,,,,,,,,,,,,,,,,,,,,,,,,,,,,,,,,,
,,?,0.001425,0,,,,,,stimuli/images/PICTURE_18.png,RIVER,574ce0a57fd0ec000db73aa6,08/03/1951,2020-07-09_17h03.28.616,proactive,2020.1.2,Win32,60,5f073de81c76c3308c0e4fb3,5f0793e4dd3a9b18eebdfdd3,2,,,,,,planet,,,,,,,,,,,3,2,0,10,10,22,1,,,,,,,,,,,,,,,,,,,,,,,,,,,,,,,,,,,,,,,,,,,,,,,,,,,,,,,,,,,,,,,,,,,,,,
,,?,15.01674,0,,,,,,stimuli/images/PICTURE_296.png,CLOCK,574ce0a57fd0ec000db73aa6,08/03/1951,2020-07-09_17h03.28.616,proactive,2020.1.2,Win32,60,5f073de81c76c3308c0e4fb3,5f0793e4dd3a9b18eebdfdd3,2,,,,,,bolt,,,,,,,,,,,2,2,0,11,11,18,1,,,,,,,,,,,,,,,,,,,,,,,,,,,,,,,,,,,,,,,,,,,,,,,,,,,,,,,,,,,,,,,,,,,,,,
,,?,0.001535,0,,,,,,stimuli/images/PICTURE_708.png,VALLEY,574ce0a57fd0ec000db73aa6,08/03/1951,2020-07-09_17h03.28.616,proactive,2020.1.2,Win32,60,5f073de81c76c3308c0e4fb3,5f0793e4dd3a9b18eebdfdd3,2,,,,,,monkey,,,,,,,,,,,5,2,0,12,12,45,1,,,,,,,,,,,,,,,,,,,,,,,,,,,,,,,,,,,,,,,,,,,,,,,,,,,,,,,,,,,,,,,,,,,,,,
,,?,0.00084,0,,,,,,stimuli/images/PICTURE_487.png,ROOF,574ce0a57fd0ec000db73aa6,08/03/1951,2020-07-09_17h03.28.616,proactive,2020.1.2,Win32,60,5f073de81c76c3308c0e4fb3,5f0793e4dd3a9b18eebdfdd3,2,,,,,,basket,,,,,,,,,,,6,2,0,13,13,50,1,,,,,,,,,,,,,,,,,,,,,,,,,,,,,,,,,,,,,,,,,,,,,,,,,,,,,,,,,,,,,,,,,,,,,,
,,?,0.00101,0,,,,,,stimuli/images/PICTURE_405.png,HOUSE,574ce0a57fd0ec000db73aa6,08/03/1951,2020-07-09_17h03.28.616,proactive,2020.1.2,Win32,60,5f073de81c76c3308c0e4fb3,5f0793e4dd3a9b18eebdfdd3,2,,,,,,anchor,,,,,,,,,,,1,2,0,14,14,2,1,,,,,,,,,,,,,,,,,,,,,,,,,,,,,,,,,,,,,,,,,,,,,,,,,,,,,,,,,,,,,,,,,,,,,,
,,?,0.00144,0,,,,,,stimuli/images/PICTURE_509.png,MILLER,574ce0a57fd0ec000db73aa6,08/03/1951,2020-07-09_17h03.28.616,proactive,2020.1.2,Win32,60,5f073de81c76c3308c0e4fb3,5f0793e4dd3a9b18eebdfdd3,2,,,,,,telephone,,,,,,,,,,,5,2,0,15,15,49,1,,,,,,,,,,,,,,,,,,,,,,,,,,,,,,,,,,,,,,,,,,,,,,,,,,,,,,,,,,,,,,,,,,,,,,
,,?,0.00312,0,,,,,,stimuli/images/PICTURE_95.png,NIGHT,574ce0a57fd0ec000db73aa6,08/03/1951,2020-07-09_17h03.28.616,proactive,2020.1.2,Win32,60,5f073de81c76c3308c0e4fb3,5f0793e4dd3a9b18eebdfdd3,2,,,,,,suitcase,,,,,,,,,,,4,2,0,16,16,37,1,,,,,,,,,,,,,,,,,,,,,,,,,,,,,,,,,,,,,,,,,,,,,,,,,,,,,,,,,,,,,,,,,,,,,,
,,JUNGLE,2.32039,1,,,,,,stimuli/images/PICTURE_405.png,JUNGLE,574ce0a57fd0ec000db73aa6,08/03/1951,2020-07-09_17h03.28.616,proactive,2020.1.2,Win32,60,5f073de81c76c3308c0e4fb3,5f0793e4dd3a9b18eebdfdd3,2,,,,,,anchor,,,,,,,,,,,2,2,0,17,17,13,1,,,,,,,,,,,,,,,,,,,,,,,,,,,,,,,,,,,,,,,,,,,,,,,,,,,,,,,,,,,,,,,,,,,,,,
,,?,0.0011,0,,,,,,stimuli/images/PICTURE_654.png,YEAR,574ce0a57fd0ec000db73aa6,08/03/1951,2020-07-09_17h03.28.616,proactive,2020.1.2,Win32,60,5f073de81c76c3308c0e4fb3,5f0793e4dd3a9b18eebdfdd3,2,,,,,,pencil,,,,,,,,,,,5,2,0,18,18,41,1,,,,,,,,,,,,,,,,,,,,,,,,,,,,,,,,,,,,,,,,,,,,,,,,,,,,,,,,,,,,,,,,,,,,,,
,,?,0.000985,0,,,,,,stimuli/images/PICTURE_655.png,SALE,574ce0a57fd0ec000db73aa6,08/03/1951,2020-07-09_17h03.28.616,proactive,2020.1.2,Win32,60,5f073de81c76c3308c0e4fb3,5f0793e4dd3a9b18eebdfdd3,2,,,,,,megaphone,,,,,,,,,,,6,2,0,19,19,57,1,,,,,,,,,,,,,,,,,,,,,,,,,,,,,,,,,,,,,,,,,,,,,,,,,,,,,,,,,,,,,,,,,,,,,,
,,?,0.001095,0,,,,,,stimuli/images/PICTURE_297.png,BODY,574ce0a57fd0ec000db73aa6,08/03/1951,2020-07-09_17h03.28.616,proactive,2020.1.2,Win32,60,5f073de81c76c3308c0e4fb3,5f0793e4dd3a9b18eebdfdd3,2,,,,,,aeroplane,,,,,,,,,,,6,2,0,20,20,51,1,,,,,,,,,,,,,,,,,,,,,,,,,,,,,,,,,,,,,,,,,,,,,,,,,,,,,,,,,,,,,,,,,,,,,,
,,?,0.001085,0,,,,,,stimuli/images/PICTURE_311.png,TOILET,574ce0a57fd0ec000db73aa6,08/03/1951,2020-07-09_17h03.28.616,proactive,2020.1.2,Win32,60,5f073de81c76c3308c0e4fb3,5f0793e4dd3a9b18eebdfdd3,2,,,,,,razor,,,,,,,,,,,6,2,0,21,21,54,1,,,,,,,,,,,,,,,,,,,,,,,,,,,,,,,,,,,,,,,,,,,,,,,,,,,,,,,,,,,,,,,,,,,,,,
,,?,0.001225,0,,,,,,stimuli/images/PICTURE_215.png,BOYS,574ce0a57fd0ec000db73aa6,08/03/1951,2020-07-09_17h03.28.616,proactive,2020.1.2,Win32,60,5f073de81c76c3308c0e4fb3,5f0793e4dd3a9b18eebdfdd3,2,,,,,,boot,,,,,,,,,,,3,2,0,22,22,24,1,,,,,,,,,,,,,,,,,,,,,,,,,,,,,,,,,,,,,,,,,,,,,,,,,,,,,,,,,,,,,,,,,,,,,,
,,?,0.00125,0,,,,,,stimuli/images/PICTURE_692.png,DUDE,574ce0a57fd0ec000db73aa6,08/03/1951,2020-07-09_17h03.28.616,proactive,2020.1.2,Win32,60,5f073de81c76c3308c0e4fb3,5f0793e4dd3a9b18eebdfdd3,2,,,,,,cherry,,,,,,,,,,,5,2,0,23,23,47,1,,,,,,,,,,,,,,,,,,,,,,,,,,,,,,,,,,,,,,,,,,,,,,,,,,,,,,,,,,,,,,,,,,,,,,
,,CASINO,3.388205,1,,,,,,stimuli/images/PICTURE_57.png,CASINO,574ce0a57fd0ec000db73aa6,08/03/1951,2020-07-09_17h03.28.616,proactive,2020.1.2,Win32,60,5f073de81c76c3308c0e4fb3,5f0793e4dd3a9b18eebdfdd3,2,,,,,,stamp,,,,,,,,,,,2,2,0,24,24,12,1,,,,,,,,,,,,,,,,,,,,,,,,,,,,,,,,,,,,,,,,,,,,,,,,,,,,,,,,,,,,,,,,,,,,,,
,,?,0.001155,0,,,,,,stimuli/images/PICTURE_215.png,LEADER,574ce0a57fd0ec000db73aa6,08/03/1951,2020-07-09_17h03.28.616,proactive,2020.1.2,Win32,60,5f073de81c76c3308c0e4fb3,5f0793e4dd3a9b18eebdfdd3,2,,,,,,boot,,,,,,,,,,,5,2,0,25,25,43,1,,,,,,,,,,,,,,,,,,,,,,,,,,,,,,,,,,,,,,,,,,,,,,,,,,,,,,,,,,,,,,,,,,,,,,
,,PHOTO,2.521565,1,,,,,,stimuli/images/PICTURE_677.png,PHOTO,574ce0a57fd0ec000db73aa6,08/03/1951,2020-07-09_17h03.28.616,proactive,2020.1.2,Win32,60,5f073de81c76c3308c0e4fb3,5f0793e4dd3a9b18eebdfdd3,2,,,,,,map,,,,,,,,,,,2,2,0,26,26,14,1,,,,,,,,,,,,,,,,,,,,,,,,,,,,,,,,,,,,,,,,,,,,,,,,,,,,,,,,,,,,,,,,,,,,,,
,,?,0.00119,0,,,,,,stimuli/images/PICTURE_509.png,SHOTS,574ce0a57fd0ec000db73aa6,08/03/1951,2020-07-09_17h03.28.616,proactive,2020.1.2,Win32,60,5f073de81c76c3308c0e4fb3,5f0793e4dd3a9b18eebdfdd3,2,,,,,,telephone,,,,,,,,,,,1,2,0,27,27,7,1,,,,,,,,,,,,,,,,,,,,,,,,,,,,,,,,,,,,,,,,,,,,,,,,,,,,,,,,,,,,,,,,,,,,,,
,,COPS,1.78647,1,,,,,,stimuli/images/PICTURE_654.png,COPS,574ce0a57fd0ec000db73aa6,08/03/1951,2020-07-09_17h03.28.616,proactive,2020.1.2,Win32,60,5f073de81c76c3308c0e4fb3,5f0793e4dd3a9b18eebdfdd3,2,,,,,,pencil,,,,,,,,,,,2,2,0,28,28,10,1,,,,,,,,,,,,,,,,,,,,,,,,,,,,,,,,,,,,,,,,,,,,,,,,,,,,,,,,,,,,,,,,,,,,,,
,,LEADER,2.489665,1,,,,,,stimuli/images/PICTURE_327.png,LEADER,574ce0a57fd0ec000db73aa6,08/03/1951,2020-07-09_17h03.28.616,proactive,2020.1.2,Win32,60,5f073de81c76c3308c0e4fb3,5f0793e4dd3a9b18eebdfdd3,2,,,,,,helmet,,,,,,,,,,,2,2,0,29,29,17,1,,,,,,,,,,,,,,,,,,,,,,,,,,,,,,,,,,,,,,,,,,,,,,,,,,,,,,,,,,,,,,,,,,,,,,
,,?,0.00095,0,,,,,,stimuli/images/PICTURE_405.png,JUNGLE,574ce0a57fd0ec000db73aa6,08/03/1951,2020-07-09_17h03.28.616,proactive,2020.1.2,Win32,60,5f073de81c76c3308c0e4fb3,5f0793e4dd3a9b18eebdfdd3,2,,,,,,anchor,,,,,,,,,,,6,2,0,30,30,58,1,,,,,,,,,,,,,,,,,,,,,,,,,,,,,,,,,,,,,,,,,,,,,,,,,,,,,,,,,,,,,,,,,,,,,,
,,?,0.00113,0,,,,,,stimuli/images/PICTURE_285.png,PRINCE,574ce0a57fd0ec000db73aa6,08/03/1951,2020-07-09_17h03.28.616,proactive,2020.1.2,Win32,60,5f073de81c76c3308c0e4fb3,5f0793e4dd3a9b18eebdfdd3,2,,,,,,carrot,,,,,,,,,,,3,2,0,31,31,20,1,,,,,,,,,,,,,,,,,,,,,,,,,,,,,,,,,,,,,,,,,,,,,,,,,,,,,,,,,,,,,,,,,,,,,,
,,?,0.00091,0,,,,,,stimuli/images/PICTURE_356.png,CANDY,574ce0a57fd0ec000db73aa6,08/03/1951,2020-07-09_17h03.28.616,proactive,2020.1.2,Win32,60,5f073de81c76c3308c0e4fb3,5f0793e4dd3a9b18eebdfdd3,2,,,,,,pawn,,,,,,,,,,,5,2,0,32,32,46,1,,,,,,,,,,,,,,,,,,,,,,,,,,,,,,,,,,,,,,,,,,,,,,,,,,,,,,,,,,,,,,,,,,,,,,
,,?,0.000885,0,,,,,,stimuli/images/PICTURE_33.png,COPS,574ce0a57fd0ec000db73aa6,08/03/1951,2020-07-09_17h03.28.616,proactive,2020.1.2,Win32,60,5f073de81c76c3308c0e4fb3,5f0793e4dd3a9b18eebdfdd3,2,,,,,,frame,,,,,,,,,,,3,2,0,33,33,29,1,,,,,,,,,,,,,,,,,,,,,,,,,,,,,,,,,,,,,,,,,,,,,,,,,,,,,,,,,,,,,,,,,,,,,,
,,?,0.000825,0,,,,,,stimuli/images/PICTURE_57.png,NATION,574ce0a57fd0ec000db73aa6,08/03/1951,2020-07-09_17h03.28.616,proactive,2020.1.2,Win32,60,5f073de81c76c3308c0e4fb3,5f0793e4dd3a9b18eebdfdd3,2,,,,,,stamp,,,,,,,,,,,3,2,0,34,34,21,1,,,,,,,,,,,,,,,,,,,,,,,,,,,,,,,,,,,,,,,,,,,,,,,,,,,,,,,,,,,,,,,,,,,,,,
,,?,0.00095,0,,,,,,stimuli/images/PICTURE_470.png,MOMENT,574ce0a57fd0ec000db73aa6,08/03/1951,2020-07-09_17h03.28.616,proactive,2020.1.2,Win32,60,5f073de81c76c3308c0e4fb3,5f0793e4dd3a9b18eebdfdd3,2,,,,,,motorbike,,,,,,,,,,,5,2,0,35,35,40,1,,,,,,,,,,,,,,,,,,,,,,,,,,,,,,,,,,,,,,,,,,,,,,,,,,,,,,,,,,,,,,,,,,,,,,
,,?,0.003445,0,,,,,,stimuli/images/PICTURE_141.png,CLIENT,574ce0a57fd0ec000db73aa6,08/03/1951,2020-07-09_17h03.28.616,proactive,2020.1.2,Win32,60,5f073de81c76c3308c0e4fb3,5f0793e4dd3a9b18eebdfdd3,2,,,,,,sunflower,,,,,,,,,,,4,2,0,36,36,30,1,,,,,,,,,,,,,,,,,,,,,,,,,,,,,,,,,,,,,,,,,,,,,,,,,,,,,,,,,,,,,,,,,,,,,,
,,?,0.00095,0,,,,,,stimuli/images/PICTURE_667.png,GLASS,574ce0a57fd0ec000db73aa6,08/03/1951,2020-07-09_17h03.28.616,proactive,2020.1.2,Win32,60,5f073de81c76c3308c0e4fb3,5f0793e4dd3a9b18eebdfdd3,2,,,,,,daisy,,,,,,,,,,,3,2,0,37,37,27,1,,,,,,,,,,,,,,,,,,,,,,,,,,,,,,,,,,,,,,,,,,,,,,,,,,,,,,,,,,,,,,,,,,,,,,
,,?,0.000815,0,,,,,,stimuli/images/PICTURE_311.png,FLESH,574ce0a57fd0ec000db73aa6,08/03/1951,2020-07-09_17h03.28.616,proactive,2020.1.2,Win32,60,5f073de81c76c3308c0e4fb3,5f0793e4dd3a9b18eebdfdd3,2,,,,,,razor,,,,,,,,,,,1,2,0,38,38,3,1,,,,,,,,,,,,,,,,,,,,,,,,,,,,,,,,,,,,,,,,,,,,,,,,,,,,,,,,,,,,,,,,,,,,,,
,,?,0.000925,0,,,,,,stimuli/images/PICTURE_750.png,POLICY,574ce0a57fd0ec000db73aa6,08/03/1951,2020-07-09_17h03.28.616,proactive,2020.1.2,Win32,60,5f073de81c76c3308c0e4fb3,5f0793e4dd3a9b18eebdfdd3,2,,,,,,kettle,,,,,,,,,,,5,2,0,39,39,44,1,,,,,,,,,,,,,,,,,,,,,,,,,,,,,,,,,,,,,,,,,,,,,,,,,,,,,,,,,,,,,,,,,,,,,,
,,?,0.00157,0,,,,,,stimuli/images/PICTURE_403.png,FAMILY,574ce0a57fd0ec000db73aa6,08/03/1951,2020-07-09_17h03.28.616,proactive,2020.1.2,Win32,60,5f073de81c76c3308c0e4fb3,5f0793e4dd3a9b18eebdfdd3,2,,,,,,cathedral,,,,,,,,,,,1,2,0,40,40,9,1,,,,,,,,,,,,,,,,,,,,,,,,,,,,,,,,,,,,,,,,,,,,,,,,,,,,,,,,,,,,,,,,,,,,,,
,,?,0.00098,0,,,,,,stimuli/images/PICTURE_314.png,SPEECH,574ce0a57fd0ec000db73aa6,08/03/1951,2020-07-09_17h03.28.616,proactive,2020.1.2,Win32,60,5f073de81c76c3308c0e4fb3,5f0793e4dd3a9b18eebdfdd3,2,,,,,,perfume,,,,,,,,,,,4,2,0,41,41,35,1,,,,,,,,,,,,,,,,,,,,,,,,,,,,,,,,,,,,,,,,,,,,,,,,,,,,,,,,,,,,,,,,,,,,,,
,,?,0.00103,0,,,,,,stimuli/images/PICTURE_68.png,KIND,574ce0a57fd0ec000db73aa6,08/03/1951,2020-07-09_17h03.28.616,proactive,2020.1.2,Win32,60,5f073de81c76c3308c0e4fb3,5f0793e4dd3a9b18eebdfdd3,2,,,,,,candle,,,,,,,,,,,3,2,0,42,42,23,1,,,,,,,,,,,,,,,,,,,,,,,,,,,,,,,,,,,,,,,,,,,,,,,,,,,,,,,,,,,,,,,,,,,,,,
,,?,0.00098,0,,,,,,stimuli/images/PICTURE_491.png,SERIES,574ce0a57fd0ec000db73aa6,08/03/1951,2020-07-09_17h03.28.616,proactive,2020.1.2,Win32,60,5f073de81c76c3308c0e4fb3,5f0793e4dd3a9b18eebdfdd3,2,,,,,,rug,,,,,,,,,,,4,2,0,43,43,39,1,,,,,,,,,,,,,,,,,,,,,,,,,,,,,,,,,,,,,,,,,,,,,,,,,,,,,,,,,,,,,,,,,,,,,,
,,?,0.001005,0,,,,,,stimuli/images/PICTURE_452.png,COPS,574ce0a57fd0ec000db73aa6,08/03/1951,2020-07-09_17h03.28.616,proactive,2020.1.2,Win32,60,5f073de81c76c3308c0e4fb3,5f0793e4dd3a9b18eebdfdd3,2,,,,,,watch,,,,,,,,,,,1,2,0,44,44,0,1,,,,,,,,,,,,,,,,,,,,,,,,,,,,,,,,,,,,,,,,,,,,,,,,,,,,,,,,,,,,,,,,,,,,,,
,,?,0.00101,0,,,,,,stimuli/images/PICTURE_208.png,SPIRIT,574ce0a57fd0ec000db73aa6,08/03/1951,2020-07-09_17h03.28.616,proactive,2020.1.2,Win32,60,5f073de81c76c3308c0e4fb3,5f0793e4dd3a9b18eebdfdd3,2,,,,,,microphone,,,,,,,,,,,3,2,0,45,45,28,1,,,,,,,,,,,,,,,,,,,,,,,,,,,,,,,,,,,,,,,,,,,,,,,,,,,,,,,,,,,,,,,,,,,,,,
,,?,0.00096,0,,,,,,stimuli/images/PICTURE_453.png,FAMILY,574ce0a57fd0ec000db73aa6,08/03/1951,2020-07-09_17h03.28.616,proactive,2020.1.2,Win32,60,5f073de81c76c3308c0e4fb3,5f0793e4dd3a9b18eebdfdd3,2,,,,,,scissors,,,,,,,,,,,5,2,0,46,46,48,1,,,,,,,,,,,,,,,,,,,,,,,,,,,,,,,,,,,,,,,,,,,,,,,,,,,,,,,,,,,,,,,,,,,,,,
,,?,0.00097,0,,,,,,stimuli/images/PICTURE_285.png,WRITER,574ce0a57fd0ec000db73aa6,08/03/1951,2020-07-09_17h03.28.616,proactive,2020.1.2,Win32,60,5f073de81c76c3308c0e4fb3,5f0793e4dd3a9b18eebdfdd3,2,,,,,,carrot,,,,,,,,,,,1,2,0,47,47,6,1,,,,,,,,,,,,,,,,,,,,,,,,,,,,,,,,,,,,,,,,,,,,,,,,,,,,,,,,,,,,,,,,,,,,,,
,,?,0.000995,0,,,,,,stimuli/images/PICTURE_348.png,DUDE,574ce0a57fd0ec000db73aa6,08/03/1951,2020-07-09_17h03.28.616,proactive,2020.1.2,Win32,60,5f073de81c76c3308c0e4fb3,5f0793e4dd3a9b18eebdfdd3,2,,,,,,pepper,,,,,,,,,,,6,2,0,48,48,59,1,,,,,,,,,,,,,,,,,,,,,,,,,,,,,,,,,,,,,,,,,,,,,,,,,,,,,,,,,,,,,,,,,,,,,,
,,?,0.00092,0,,,,,,stimuli/images/PICTURE_348.png,TOILET,574ce0a57fd0ec000db73aa6,08/03/1951,2020-07-09_17h03.28.616,proactive,2020.1.2,Win32,60,5f073de81c76c3308c0e4fb3,5f0793e4dd3a9b18eebdfdd3,2,,,,,,pepper,,,,,,,,,,,1,2,0,49,49,4,1,,,,,,,,,,,,,,,,,,,,,,,,,,,,,,,,,,,,,,,,,,,,,,,,,,,,,,,,,,,,,,,,,,,,,,
,,?,0.00098,0,,,,,,stimuli/images/PICTURE_677.png,FAMILY,574ce0a57fd0ec000db73aa6,08/03/1951,2020-07-09_17h03.28.616,proactive,2020.1.2,Win32,60,5f073de81c76c3308c0e4fb3,5f0793e4dd3a9b18eebdfdd3,2,,,,,,map,,,,,,,,,,,6,2,0,50,50,53,1,,,,,,,,,,,,,,,,,,,,,,,,,,,,,,,,,,,,,,,,,,,,,,,,,,,,,,,,,,,,,,,,,,,,,,
,,?,0.00114,0,,,,,,stimuli/images/PICTURE_57.png,CANDY,574ce0a57fd0ec000db73aa6,08/03/1951,2020-07-09_17h03.28.616,proactive,2020.1.2,Win32,60,5f073de81c76c3308c0e4fb3,5f0793e4dd3a9b18eebdfdd3,2,,,,,,stamp,,,,,,,,,,,6,2,0,51,51,52,1,,,,,,,,,,,,,,,,,,,,,,,,,,,,,,,,,,,,,,,,,,,,,,,,,,,,,,,,,,,,,,,,,,,,,,
,,?,0.00094,0,,,,,,stimuli/images/PICTURE_93.png,GIRL,574ce0a57fd0ec000db73aa6,08/03/1951,2020-07-09_17h03.28.616,proactive,2020.1.2,Win32,60,5f073de81c76c3308c0e4fb3,5f0793e4dd3a9b18eebdfdd3,2,,,,,,skateboard,,,,,,,,,,,4,2,0,52,52,31,1,,,,,,,,,,,,,,,,,,,,,,,,,,,,,,,,,,,,,,,,,,,,,,,,,,,,,,,,,,,,,,,,,,,,,,
,,BATH,2.26792,1,,,,,,stimuli/images/PICTURE_509.png,BATH,574ce0a57fd0ec000db73aa6,08/03/1951,2020-07-09_17h03.28.616,proactive,2020.1.2,Win32,60,5f073de81c76c3308c0e4fb3,5f0793e4dd3a9b18eebdfdd3,2,,,,,,telephone,,,,,,,,,,,2,2,0,53,53,15,1,,,,,,,,,,,,,,,,,,,,,,,,,,,,,,,,,,,,,,,,,,,,,,,,,,,,,,,,,,,,,,,,,,,,,,
,,?,0.00172,0,,,,,,stimuli/images/PICTURE_2.png,JUNGLE,574ce0a57fd0ec000db73aa6,08/03/1951,2020-07-09_17h03.28.616,proactive,2020.1.2,Win32,60,5f073de81c76c3308c0e4fb3,5f0793e4dd3a9b18eebdfdd3,2,,,,,,tyre,,,,,,,,,,,1,2,0,54,54,1,1,,,,,,,,,,,,,,,,,,,,,,,,,,,,,,,,,,,,,,,,,,,,,,,,,,,,,,,,,,,,,,,,,,,,,,
,,?,0.000975,0,,,,,,stimuli/images/PICTURE_504.png,HOUSE,574ce0a57fd0ec000db73aa6,08/03/1951,2020-07-09_17h03.28.616,proactive,2020.1.2,Win32,60,5f073de81c76c3308c0e4fb3,5f0793e4dd3a9b18eebdfdd3,2,,,,,,wheel,,,,,,,,,,,4,2,0,55,55,36,1,,,,,,,,,,,,,,,,,,,,,,,,,,,,,,,,,,,,,,,,,,,,,,,,,,,,,,,,,,,,,,,,,,,,,,
,,?,0.000815,0,,,,,,stimuli/images/PICTURE_215.png,FOOD,574ce0a57fd0ec000db73aa6,08/03/1951,2020-07-09_17h03.28.616,proactive,2020.1.2,Win32,60,5f073de81c76c3308c0e4fb3,5f0793e4dd3a9b18eebdfdd3,2,,,,,,boot,,,,,,,,,,,1,2,0,56,56,5,1,,,,,,,,,,,,,,,,,,,,,,,,,,,,,,,,,,,,,,,,,,,,,,,,,,,,,,,,,,,,,,,,,,,,,,
,,PENNY,2.40162,0,,,,,,stimuli/images/PICTURE_564.png,PLENTY,574ce0a57fd0ec000db73aa6,08/03/1951,2020-07-09_17h03.28.616,proactive,2020.1.2,Win32,60,5f073de81c76c3308c0e4fb3,5f0793e4dd3a9b18eebdfdd3,2,,,,,,spoon,,,,,,,,,,,2,2,0,57,57,11,1,,,,,,,,,,,,,,,,,,,,,,,,,,,,,,,,,,,,,,,,,,,,,,,,,,,,,,,,,,,,,,,,,,,,,,
,,PENNY,1.630515,1,,,,,,stimuli/images/PICTURE_255.png,PENNY,574ce0a57fd0ec000db73aa6,08/03/1951,2020-07-09_17h03.28.616,proactive,2020.1.2,Win32,60,5f073de81c76c3308c0e4fb3,5f0793e4dd3a9b18eebdfdd3,2,,,,,,shovel,,,,,,,,,,,2,2,0,58,58,19,1,,,,,,,,,,,,,,,,,,,,,,,,,,,,,,,,,,,,,,,,,,,,,,,,,,,,,,,,,,,,,,,,,,,,,,
,,?,0.000995,0,,,,,,stimuli/images/PICTURE_509.png,APPLE,574ce0a57fd0ec000db73aa6,08/03/1951,2020-07-09_17h03.28.616,proactive,2020.1.2,Win32,60,5f073de81c76c3308c0e4fb3,5f0793e4dd3a9b18eebdfdd3,2,,,,,,telephone,,,,,,,,,,,4,2,0,59,59,38,1,,,,,,,,,,,,,,,,,,,,,,,,,,,,,,,,,,,,,,,,,,,,,,,,,,,,,,,,,,,,,,,,,,,,,,
,,,,,,,,,,,,574ce0a57fd0ec000db73aa6,08/03/1951,2020-07-09_17h03.28.616,proactive,2020.1.2,Win32,60,5f073de81c76c3308c0e4fb3,5f0793e4dd3a9b18eebdfdd3,2,,,,,,,,,,,,,,,,,,,,,,,,0,0,0,2,1,stimuli/learn-block3.csv,,,,,,,,,,,,,,,,,,,,,,,,,,,,,,,,,,,,,,,,,,,,,,,,,,,,,,,,,,,,,,,,
,,,,,,,,,,stimuli/images/PICTURE_32.png,JUNGLE,574ce0a57fd0ec000db73aa6,08/03/1951,2020-07-09_17h03.28.616,proactive,2020.1.2,Win32,60,5f073de81c76c3308c0e4fb3,5f0793e4dd3a9b18eebdfdd3,2,,,,,,crown,,,,,,0,0,0,45,1,5,0,,,,,,,,,,,,,,,,,,,,,,,,,,,,,,,,,,,,,,,,,,,,,,,,,,,,,,,,,,,,,,,,,,,,,,,,,,,
,,,,,,,,,,stimuli/images/PICTURE_470.png,CASINO,574ce0a57fd0ec000db73aa6,08/03/1951,2020-07-09_17h03.28.616,proactive,2020.1.2,Win32,60,5f073de81c76c3308c0e4fb3,5f0793e4dd3a9b18eebdfdd3,2,,,,,,motorbike,,,,,,0,1,1,36,1,4,0,,,,,,,,,,,,,,,,,,,,,,,,,,,,,,,,,,,,,,,,,,,,,,,,,,,,,,,,,,,,,,,,,,,,,,,,,,,
,,,,,,,,,,stimuli/images/PICTURE_248.png,DOZEN,574ce0a57fd0ec000db73aa6,08/03/1951,2020-07-09_17h03.28.616,proactive,2020.1.2,Win32,60,5f073de81c76c3308c0e4fb3,5f0793e4dd3a9b18eebdfdd3,2,,,,,,cart,,,,,,0,2,2,39,1,4,0,,,,,,,,,,,,,,,,,,,,,,,,,,,,,,,,,,,,,,,,,,,,,,,,,,,,,,,,,,,,,,,,,,,,,,,,,,,
,,,,,,,,,,stimuli/images/PICTURE_123.png,ADVICE,574ce0a57fd0ec000db73aa6,08/03/1951,2020-07-09_17h03.28.616,proactive,2020.1.2,Win32,60,5f073de81c76c3308c0e4fb3,5f0793e4dd3a9b18eebdfdd3,2,,,,,,dart,,,,,,0,3,3,50,1,6,0,,,,,,,,,,,,,,,,,,,,,,,,,,,,,,,,,,,,,,,,,,,,,,,,,,,,,,,,,,,,,,,,,,,,,,,,,,,
,,,,,,,,,,stimuli/images/PICTURE_356.png,DANGER,574ce0a57fd0ec000db73aa6,08/03/1951,2020-07-09_17h03.28.616,proactive,2020.1.2,Win32,60,5f073de81c76c3308c0e4fb3,5f0793e4dd3a9b18eebdfdd3,2,,,,,,pawn,,,,,,0,4,4,55,1,6,0,,,,,,,,,,,,,,,,,,,,,,,,,,,,,,,,,,,,,,,,,,,,,,,,,,,,,,,,,,,,,,,,,,,,,,,,,,,
,,,,,,,,,,stimuli/images/PICTURE_667.png,PLENTY,574ce0a57fd0ec000db73aa6,08/03/1951,2020-07-09_17h03.28.616,proactive,2020.1.2,Win32,60,5f073de81c76c3308c0e4fb3,5f0793e4dd3a9b18eebdfdd3,2,,,,,,daisy,,,,,,0,5,5,41,1,5,0,,,,,,,,,,,,,,,,,,,,,,,,,,,,,,,,,,,,,,,,,,,,,,,,,,,,,,,,,,,,,,,,,,,,,,,,,,,
,,,,,,,,,,stimuli/images/PICTURE_177.png,CARS,574ce0a57fd0ec000db73aa6,08/03/1951,2020-07-09_17h03.28.616,proactive,2020.1.2,Win32,60,5f073de81c76c3308c0e4fb3,5f0793e4dd3a9b18eebdfdd3,2,,,,,,mushroom,,,,,,0,6,6,35,1,4,0,,,,,,,,,,,,,,,,,,,,,,,,,,,,,,,,,,,,,,,,,,,,,,,,,,,,,,,,,,,,,,,,,,,,,,,,,,,
,,,,,,,,,,stimuli/images/PICTURE_449.png,THING,574ce0a57fd0ec000db73aa6,08/03/1951,2020-07-09_17h03.28.616,proactive,2020.1.2,Win32,60,5f073de81c76c3308c0e4fb3,5f0793e4dd3a9b18eebdfdd3,2,,,,,,bench,,,,,,0,7,7,59,1,6,0,,,,,,,,,,,,,,,,,,,,,,,,,,,,,,,,,,,,,,,,,,,,,,,,,,,,,,,,,,,,,,,,,,,,,,,,,,,
,,,,,,,,,,stimuli/images/PICTURE_491.png,WRITER,574ce0a57fd0ec000db73aa6,08/03/1951,2020-07-09_17h03.28.616,proactive,2020.1.2,Win32,60,5f073de81c76c3308c0e4fb3,5f0793e4dd3a9b18eebdfdd3,2,,,,,,rug,,,,,,0,8,8,57,1,6,0,,,,,,,,,,,,,,,,,,,,,,,,,,,,,,,,,,,,,,,,,,,,,,,,,,,,,,,,,,,,,,,,,,,,,,,,,,,
,,,,,,,,,,stimuli/images/PICTURE_147.png,MOMENT,574ce0a57fd0ec000db73aa6,08/03/1951,2020-07-09_17h03.28.616,proactive,2020.1.2,Win32,60,5f073de81c76c3308c0e4fb3,5f0793e4dd3a9b18eebdfdd3,2,,,,,,hanger,,,,,,0,9,9,51,1,6,0,,,,,,,,,,,,,,,,,,,,,,,,,,,,,,,,,,,,,,,,,,,,,,,,,,,,,,,,,,,,,,,,,,,,,,,,,,,
,,,,,,,,,,stimuli/images/PICTURE_708.png,YARD,574ce0a57fd0ec000db73aa6,08/03/1951,2020-07-09_17h03.28.616,proactive,2020.1.2,Win32,60,5f073de81c76c3308c0e4fb3,5f0793e4dd3a9b18eebdfdd3,2,,,,,,monkey,,,,,,0,10,10,29,1,3,0,,,,,,,,,,,,,,,,,,,,,,,,,,,,,,,,,,,,,,,,,,,,,,,,,,,,,,,,,,,,,,,,,,,,,,,,,,,
,,,,,,,,,,stimuli/images/PICTURE_654.png,VALLEY,574ce0a57fd0ec000db73aa6,08/03/1951,2020-07-09_17h03.28.616,proactive,2020.1.2,Win32,60,5f073de81c76c3308c0e4fb3,5f0793e4dd3a9b18eebdfdd3,2,,,,,,pencil,,,,,,0,11,11,1,1,1,0,,,,,,,,,,,,,,,,,,,,,,,,,,,,,,,,,,,,,,,,,,,,,,,,,,,,,,,,,,,,,,,,,,,,,,,,,,,
,,,,,,,,,,stimuli/images/PICTURE_744.png,SYSTEM,574ce0a57fd0ec000db73aa6,08/03/1951,2020-07-09_17h03.28.616,proactive,2020.1.2,Win32,60,5f073de81c76c3308c0e4fb3,5f0793e4dd3a9b18eebdfdd3,2,,,,,,ring,,,,,,0,12,12,43,1,5,0,,,,,,,,,,,,,,,,,,,,,,,,,,,,,,,,,,,,,,,,,,,,,,,,,,,,,,,,,,,,,,,,,,,,,,,,,,,
,,,,,,,,,,stimuli/images/PICTURE_688.png,CASINO,574ce0a57fd0ec000db73aa6,08/03/1951,2020-07-09_17h03.28.616,proactive,2020.1.2,Win32,60,5f073de81c76c3308c0e4fb3,5f0793e4dd3a9b18eebdfdd3,2,,,,,,runner,,,,,,0,13,13,2,1,1,0,,,,,,,,,,,,,,,,,,,,,,,,,,,,,,,,,,,,,,,,,,,,,,,,,,,,,,,,,,,,,,,,,,,,,,,,,,,
,,,,,,,,,,stimuli/images/PICTURE_380.png,DEATH,574ce0a57fd0ec000db73aa6,08/03/1951,2020-07-09_17h03.28.616,proactive,2020.1.2,Win32,60,5f073de81c76c3308c0e4fb3,5f0793e4dd3a9b18eebdfdd3,2,,,,,,gorilla,,,,,,0,14,14,49,1,5,0,,,,,,,,,,,,,,,,,,,,,,,,,,,,,,,,,,,,,,,,,,,,,,,,,,,,,,,,,,,,,,,,,,,,,,,,,,,
,,,,,,,,,,stimuli/images/PICTURE_208.png,LOTS,574ce0a57fd0ec000db73aa6,08/03/1951,2020-07-09_17h03.28.616,proactive,2020.1.2,Win32,60,5f073de81c76c3308c0e4fb3,5f0793e4dd3a9b18eebdfdd3,2,,,,,,microphone,,,,,,0,15,15,10,1,2,0,,,,,,,,,,,,,,,,,,,,,,,,,,,,,,,,,,,,,,,,,,,,,,,,,,,,,,,,,,,,,,,,,,,,,,,,,,,
,,,,,,,,,,stimuli/images/PICTURE_453.png,DUDE,574ce0a57fd0ec000db73aa6,08/03/1951,2020-07-09_17h03.28.616,proactive,2020.1.2,Win32,60,5f073de81c76c3308c0e4fb3,5f0793e4dd3a9b18eebdfdd3,2,,,,,,scissors,,,,,,0,16,16,27,1,3,0,,,,,,,,,,,,,,,,,,,,,,,,,,,,,,,,,,,,,,,,,,,,,,,,,,,,,,,,,,,,,,,,,,,,,,,,,,,
,,,,,,,,,,stimuli/images/PICTURE_85.png,THING,574ce0a57fd0ec000db73aa6,08/03/1951,2020-07-09_17h03.28.616,proactive,2020.1.2,Win32,60,5f073de81c76c3308c0e4fb3,5f0793e4dd3a9b18eebdfdd3,2,,,,,,diamond,,,,,,0,17,17,15,1,2,0,,,,,,,,,,,,,,,,,,,,,,,,,,,,,,,,,,,,,,,,,,,,,,,,,,,,,,,,,,,,,,,,,,,,,,,,,,,
,,,,,,,,,,stimuli/images/PICTURE_688.png,WOMEN,574ce0a57fd0ec000db73aa6,08/03/1951,2020-07-09_17h03.28.616,proactive,2020.1.2,Win32,60,5f073de81c76c3308c0e4fb3,5f0793e4dd3a9b18eebdfdd3,2,,,,,,runner,,,,,,0,18,18,14,1,2,0,,,,,,,,,,,,,,,,,,,,,,,,,,,,,,,,,,,,,,,,,,,,,,,,,,,,,,,,,,,,,,,,,,,,,,,,,,,
,,,,,,,,,,stimuli/images/PICTURE_509.png,PHOTO,574ce0a57fd0ec000db73aa6,08/03/1951,2020-07-09_17h03.28.616,proactive,2020.1.2,Win32,60,5f073de81c76c3308c0e4fb3,5f0793e4dd3a9b18eebdfdd3,2,,,,,,telephone,,,,,,0,19,19,21,1,3,0,,,,,,,,,,,,,,,,,,,,,,,,,,,,,,,,,,,,,,,,,,,,,,,,,,,,,,,,,,,,,,,,,,,,,,,,,,,
,,,,,,,,,,stimuli/images/PICTURE_233.png,IDEAS,574ce0a57fd0ec000db73aa6,08/03/1951,2020-07-09_17h03.28.616,proactive,2020.1.2,Win32,60,5f073de81c76c3308c0e4fb3,5f0793e4dd3a9b18eebdfdd3,2,,,,,,salt,,,,,,0,20,20,28,1,3,0,,,,,,,,,,,,,,,,,,,,,,,,,,,,,,,,,,,,,,,,,,,,,,,,,,,,,,,,,,,,,,,,,,,,,,,,,,,
,,,,,,,,,,stimuli/images/PICTURE_285.png,ADVICE,574ce0a57fd0ec000db73aa6,08/03/1951,2020-07-09_17h03.28.616,proactive,2020.1.2,Win32,60,5f073de81c76c3308c0e4fb3,5f0793e4dd3a9b18eebdfdd3,2,,,,,,carrot,,,,,,0,21,21,12,1,2,0,,,,,,,,,,,,,,,,,,,,,,,,,,,,,,,,,,,,,,,,,,,,,,,,,,,,,,,,,,,,,,,,,,,,,,,,,,,
,,,,,,,,,,stimuli/images/PICTURE_208.png,THING,574ce0a57fd0ec000db73aa6,08/03/1951,2020-07-09_17h03.28.616,proactive,2020.1.2,Win32,60,5f073de81c76c3308c0e4fb3,5f0793e4dd3a9b18eebdfdd3,2,,,,,,microphone,,,,,,0,22,22,47,1,5,0,,,,,,,,,,,,,,,,,,,,,,,,,,,,,,,,,,,,,,,,,,,,,,,,,,,,,,,,,,,,,,,,,,,,,,,,,,,
,,,,,,,,,,stimuli/images/PICTURE_255.png,AREA,574ce0a57fd0ec000db73aa6,08/03/1951,2020-07-09_17h03.28.616,proactive,2020.1.2,Win32,60,5f073de81c76c3308c0e4fb3,5f0793e4dd3a9b18eebdfdd3,2,,,,,,shovel,,,,,,0,23,23,22,1,3,0,,,,,,,,,,,,,,,,,,,,,,,,,,,,,,,,,,,,,,,,,,,,,,,,,,,,,,,,,,,,,,,,,,,,,,,,,,,
,,,,,,,,,,stimuli/images/PICTURE_488.png,STYLE,574ce0a57fd0ec000db73aa6,08/03/1951,2020-07-09_17h03.28.616,proactive,2020.1.2,Win32,60,5f073de81c76c3308c0e4fb3,5f0793e4dd3a9b18eebdfdd3,2,,,,,,sun,,,,,,0,24,24,33,1,4,0,,,,,,,,,,,,,,,,,,,,,,,,,,,,,,,,,,,,,,,,,,,,,,,,,,,,,,,,,,,,,,,,,,,,,,,,,,,
,,,,,,,,,,stimuli/images/PICTURE_215.png,PLENTY,574ce0a57fd0ec000db73aa6,08/03/1951,2020-07-09_17h03.28.616,proactive,2020.1.2,Win32,60,5f073de81c76c3308c0e4fb3,5f0793e4dd3a9b18eebdfdd3,2,,,,,,boot,,,,,,0,25,25,37,1,4,0,,,,,,,,,,,,,,,,,,,,,,,,,,,,,,,,,,,,,,,,,,,,,,,,,,,,,,,,,,,,,,,,,,,,,,,,,,,
,,,,,,,,,,stimuli/images/PICTURE_311.png,BEAUTY,574ce0a57fd0ec000db73aa6,08/03/1951,2020-07-09_17h03.28.616,proactive,2020.1.2,Win32,60,5f073de81c76c3308c0e4fb3,5f0793e4dd3a9b18eebdfdd3,2,,,,,,razor,,,,,,0,26,26,13,1,2,0,,,,,,,,,,,,,,,,,,,,,,,,,,,,,,,,,,,,,,,,,,,,,,,,,,,,,,,,,,,,,,,,,,,,,,,,,,,
,,,,,,,,,,stimuli/images/PICTURE_504.png,BODY,574ce0a57fd0ec000db73aa6,08/03/1951,2020-07-09_17h03.28.616,proactive,2020.1.2,Win32,60,5f073de81c76c3308c0e4fb3,5f0793e4dd3a9b18eebdfdd3,2,,,,,,wheel,,,,,,0,27,27,8,1,1,0,,,,,,,,,,,,,,,,,,,,,,,,,,,,,,,,,,,,,,,,,,,,,,,,,,,,,,,,,,,,,,,,,,,,,,,,,,,
,,,,,,,,,,stimuli/images/PICTURE_467.png,DEMON,574ce0a57fd0ec000db73aa6,08/03/1951,2020-07-09_17h03.28.616,proactive,2020.1.2,Win32,60,5f073de81c76c3308c0e4fb3,5f0793e4dd3a9b18eebdfdd3,2,,,,,,peg,,,,,,0,28,28,23,1,3,0,,,,,,,,,,,,,,,,,,,,,,,,,,,,,,,,,,,,,,,,,,,,,,,,,,,,,,,,,,,,,,,,,,,,,,,,,,,
,,,,,,,,,,stimuli/images/PICTURE_327.png,BEAUTY,574ce0a57fd0ec000db73aa6,08/03/1951,2020-07-09_17h03.28.616,proactive,2020.1.2,Win32,60,5f073de81c76c3308c0e4fb3,5f0793e4dd3a9b18eebdfdd3,2,,,,,,helmet,,,,,,0,29,29,48,1,5,0,,,,,,,,,,,,,,,,,,,,,,,,,,,,,,,,,,,,,,,,,,,,,,,,,,,,,,,,,,,,,,,,,,,,,,,,,,,
,,,,,,,,,,stimuli/images/PICTURE_233.png,WOMEN,574ce0a57fd0ec000db73aa6,08/03/1951,2020-07-09_17h03.28.616,proactive,2020.1.2,Win32,60,5f073de81c76c3308c0e4fb3,5f0793e4dd3a9b18eebdfdd3,2,,,,,,salt,,,,,,0,30,30,38,1,4,0,,,,,,,,,,,,,,,,,,,,,,,,,,,,,,,,,,,,,,,,,,,,,,,,,,,,,,,,,,,,,,,,,,,,,,,,,,,
,,,,,,,,,,stimuli/images/PICTURE_677.png,MILE,574ce0a57fd0ec000db73aa6,08/03/1951,2020-07-09_17h03.28.616,proactive,2020.1.2,Win32,60,5f073de81c76c3308c0e4fb3,5f0793e4dd3a9b18eebdfdd3,2,,,,,,map,,,,,,0,31,31,30,1,4,0,,,,,,,,,,,,,,,,,,,,,,,,,,,,,,,,,,,,,,,,,,,,,,,,,,,,,,,,,,,,,,,,,,,,,,,,,,,
,,,,,,,,,,stimuli/images/PICTURE_123.png,ADVICE,574ce0a57fd0ec000db73aa6,08/03/1951,2020-07-09_17h03.28.616,proactive,2020.1.2,Win32,60,5f073de81c76c3308c0e4fb3,5f0793e4dd3a9b18eebdfdd3,2,,,,,,dart,,,,,,0,32,32,40,1,5,0,,,,,,,,,,,,,,,,,,,,,,,,,,,,,,,,,,,,,,,,,,,,,,,,,,,,,,,,,,,,,,,,,,,,,,,,,,,
,,,,,,,,,,stimuli/images/PICTURE_708.png,CLIENT,574ce0a57fd0ec000db73aa6,08/03/1951,2020-07-09_17h03.28.616,proactive,2020.1.2,Win32,60,5f073de81c76c3308c0e4fb3,5f0793e4dd3a9b18eebdfdd3,2,,,,,,monkey,,,,,,0,33,33,5,1,1,0,,,,,,,,,,,,,,,,,,,,,,,,,,,,,,,,,,,,,,,,,,,,,,,,,,,,,,,,,,,,,,,,,,,,,,,,,,,
,,,,,,,,,,stimuli/images/PICTURE_469.png,ARTIST,574ce0a57fd0ec000db73aa6,08/03/1951,2020-07-09_17h03.28.616,proactive,2020.1.2,Win32,60,5f073de81c76c3308c0e4fb3,5f0793e4dd3a9b18eebdfdd3,2,,,,,,stool,,,,,,0,34,34,6,1,1,0,,,,,,,,,,,,,,,,,,,,,,,,,,,,,,,,,,,,,,,,,,,,,,,,,,,,,,,,,,,,,,,,,,,,,,,,,,,
,,,,,,,,,,stimuli/images/PICTURE_314.png,GODS,574ce0a57fd0ec000db73aa6,08/03/1951,2020-07-09_17h03.28.616,proactive,2020.1.2,Win32,60,5f073de81c76c3308c0e4fb3,5f0793e4dd3a9b18eebdfdd3,2,,,,,,perfume,,,,,,0,35,35,11,1,2,0,,,,,,,,,,,,,,,,,,,,,,,,,,,,,,,,,,,,,,,,,,,,,,,,,,,,,,,,,,,,,,,,,,,,,,,,,,,
,,,,,,,,,,stimuli/images/PICTURE_469.png,LETTER,574ce0a57fd0ec000db73aa6,08/03/1951,2020-07-09_17h03.28.616,proactive,2020.1.2,Win32,60,5f073de81c76c3308c0e4fb3,5f0793e4dd3a9b18eebdfdd3,2,,,,,,stool,,,,,,0,36,36,42,1,5,0,,,,,,,,,,,,,,,,,,,,,,,,,,,,,,,,,,,,,,,,,,,,,,,,,,,,,,,,,,,,,,,,,,,,,,,,,,,
,,,,,,,,,,stimuli/images/PICTURE_692.png,MONTH,574ce0a57fd0ec000db73aa6,08/03/1951,2020-07-09_17h03.28.616,proactive,2020.1.2,Win32,60,5f073de81c76c3308c0e4fb3,5f0793e4dd3a9b18eebdfdd3,2,,,,,,cherry,,,,,,0,37,37,16,1,2,0,,,,,,,,,,,,,,,,,,,,,,,,,,,,,,,,,,,,,,,,,,,,,,,,,,,,,,,,,,,,,,,,,,,,,,,,,,,
,,,,,,,,,,stimuli/images/PICTURE_453.png,PLENTY,574ce0a57fd0ec000db73aa6,08/03/1951,2020-07-09_17h03.28.616,proactive,2020.1.2,Win32,60,5f073de81c76c3308c0e4fb3,5f0793e4dd3a9b18eebdfdd3,2,,,,,,scissors,,,,,,0,38,38,56,1,6,0,,,,,,,,,,,,,,,,,,,,,,,,,,,,,,,,,,,,,,,,,,,,,,,,,,,,,,,,,,,,,,,,,,,,,,,,,,,
,,,,,,,,,,stimuli/images/PICTURE_744.png,SAKE,574ce0a57fd0ec000db73aa6,08/03/1951,2020-07-09_17h03.28.616,proactive,2020.1.2,Win32,60,5f073de81c76c3308c0e4fb3,5f0793e4dd3a9b18eebdfdd3,2,,,,,,ring,,,,,,0,39,39,17,1,2,0,,,,,,,,,,,,,,,,,,,,,,,,,,,,,,,,,,,,,,,,,,,,,,,,,,,,,,,,,,,,,,,,,,,,,,,,,,,
,,,,,,,,,,stimuli/images/PICTURE_675.png,WEAPON,574ce0a57fd0ec000db73aa6,08/03/1951,2020-07-09_17h03.28.616,proactive,2020.1.2,Win32,60,5f073de81c76c3308c0e4fb3,5f0793e4dd3a9b18eebdfdd3,2,,,,,,windmill,,,,,,0,40,40,32,1,4,0,,,,,,,,,,,,,,,,,,,,,,,,,,,,,,,,,,,,,,,,,,,,,,,,,,,,,,,,,,,,,,,,,,,,,,,,,,,
,,,,,,,,,,stimuli/images/PICTURE_314.png,SAKE,574ce0a57fd0ec000db73aa6,08/03/1951,2020-07-09_17h03.28.616,proactive,2020.1.2,Win32,60,5f073de81c76c3308c0e4fb3,5f0793e4dd3a9b18eebdfdd3,2,,,,,,perfume,,,,,,0,41,41,7,1,1,0,,,,,,,,,,,,,,,,,,,,,,,,,,,,,,,,,,,,,,,,,,,,,,,,,,,,,,,,,,,,,,,,,,,,,,,,,,,
,,,,,,,,,,stimuli/images/PICTURE_302.png,FAMILY,574ce0a57fd0ec000db73aa6,08/03/1951,2020-07-09_17h03.28.616,proactive,2020.1.2,Win32,60,5f073de81c76c3308c0e4fb3,5f0793e4dd3a9b18eebdfdd3,2,,,,,,taxi,,,,,,0,42,42,18,1,2,0,,,,,,,,,,,,,,,,,,,,,,,,,,,,,,,,,,,,,,,,,,,,,,,,,,,,,,,,,,,,,,,,,,,,,,,,,,,
,,,,,,,,,,stimuli/images/PICTURE_348.png,SPEECH,574ce0a57fd0ec000db73aa6,08/03/1951,2020-07-09_17h03.28.616,proactive,2020.1.2,Win32,60,5f073de81c76c3308c0e4fb3,5f0793e4dd3a9b18eebdfdd3,2,,,,,,pepper,,,,,,0,43,43,20,1,3,0,,,,,,,,,,,,,,,,,,,,,,,,,,,,,,,,,,,,,,,,,,,,,,,,,,,,,,,,,,,,,,,,,,,,,,,,,,,
,,,,,,,,,,stimuli/images/PICTURE_380.png,PHOTO,574ce0a57fd0ec000db73aa6,08/03/1951,2020-07-09_17h03.28.616,proactive,2020.1.2,Win32,60,5f073de81c76c3308c0e4fb3,5f0793e4dd3a9b18eebdfdd3,2,,,,,,gorilla,,,,,,0,44,44,52,1,6,0,,,,,,,,,,,,,,,,,,,,,,,,,,,,,,,,,,,,,,,,,,,,,,,,,,,,,,,,,,,,,,,,,,,,,,,,,,,
,,,,,,,,,,stimuli/images/PICTURE_491.png,ROOF,574ce0a57fd0ec000db73aa6,08/03/1951,2020-07-09_17h03.28.616,proactive,2020.1.2,Win32,60,5f073de81c76c3308c0e4fb3,5f0793e4dd3a9b18eebdfdd3,2,,,,,,rug,,,,,,0,45,45,24,1,3,0,,,,,,,,,,,,,,,,,,,,,,,,,,,,,,,,,,,,,,,,,,,,,,,,,,,,,,,,,,,,,,,,,,,,,,,,,,,
,,,,,,,,,,stimuli/images/PICTURE_160.png,LEADER,574ce0a57fd0ec000db73aa6,08/03/1951,2020-07-09_17h03.28.616,proactive,2020.1.2,Win32,60,5f073de81c76c3308c0e4fb3,5f0793e4dd3a9b18eebdfdd3,2,,,,,,wheelbarrow,,,,,,0,46,46,3,1,1,0,,,,,,,,,,,,,,,,,,,,,,,,,,,,,,,,,,,,,,,,,,,,,,,,,,,,,,,,,,,,,,,,,,,,,,,,,,,
,,,,,,,,,,stimuli/images/PICTURE_339.png,PLENTY,574ce0a57fd0ec000db73aa6,08/03/1951,2020-07-09_17h03.28.616,proactive,2020.1.2,Win32,60,5f073de81c76c3308c0e4fb3,5f0793e4dd3a9b18eebdfdd3,2,,,,,,backpack,,,,,,0,47,47,0,1,1,0,,,,,,,,,,,,,,,,,,,,,,,,,,,,,,,,,,,,,,,,,,,,,,,,,,,,,,,,,,,,,,,,,,,,,,,,,,,
,,,,,,,,,,stimuli/images/PICTURE_308.png,KIND,574ce0a57fd0ec000db73aa6,08/03/1951,2020-07-09_17h03.28.616,proactive,2020.1.2,Win32,60,5f073de81c76c3308c0e4fb3,5f0793e4dd3a9b18eebdfdd3,2,,,,,,dice,,,,,,0,48,48,54,1,6,0,,,,,,,,,,,,,,,,,,,,,,,,,,,,,,,,,,,,,,,,,,,,,,,,,,,,,,,,,,,,,,,,,,,,,,,,,,,
,,,,,,,,,,stimuli/images/PICTURE_667.png,BATH,574ce0a57fd0ec000db73aa6,08/03/1951,2020-07-09_17h03.28.616,proactive,2020.1.2,Win32,60,5f073de81c76c3308c0e4fb3,5f0793e4dd3a9b18eebdfdd3,2,,,,,,daisy,,,,,,0,49,49,4,1,1,0,,,,,,,,,,,,,,,,,,,,,,,,,,,,,,,,,,,,,,,,,,,,,,,,,,,,,,,,,,,,,,,,,,,,,,,,,,,
,,,,,,,,,,stimuli/images/PICTURE_95.png,STYLE,574ce0a57fd0ec000db73aa6,08/03/1951,2020-07-09_17h03.28.616,proactive,2020.1.2,Win32,60,5f073de81c76c3308c0e4fb3,5f0793e4dd3a9b18eebdfdd3,2,,,,,,suitcase,,,,,,0,50,50,25,1,3,0,,,,,,,,,,,,,,,,,,,,,,,,,,,,,,,,,,,,,,,,,,,,,,,,,,,,,,,,,,,,,,,,,,,,,,,,,,,
,,,,,,,,,,stimuli/images/PICTURE_203.png,ARTIST,574ce0a57fd0ec000db73aa6,08/03/1951,2020-07-09_17h03.28.616,proactive,2020.1.2,Win32,60,5f073de81c76c3308c0e4fb3,5f0793e4dd3a9b18eebdfdd3,2,,,,,,cap,,,,,,0,51,51,26,1,3,0,,,,,,,,,,,,,,,,,,,,,,,,,,,,,,,,,,,,,,,,,,,,,,,,,,,,,,,,,,,,,,,,,,,,,,,,,,,
,,,,,,,,,,stimuli/images/PICTURE_311.png,FRIEND,574ce0a57fd0ec000db73aa6,08/03/1951,2020-07-09_17h03.28.616,proactive,2020.1.2,Win32,60,5f073de81c76c3308c0e4fb3,5f0793e4dd3a9b18eebdfdd3,2,,,,,,razor,,,,,,0,52,52,34,1,4,0,,,,,,,,,,,,,,,,,,,,,,,,,,,,,,,,,,,,,,,,,,,,,,,,,,,,,,,,,,,,,,,,,,,,,,,,,,,
,,,,,,,,,,stimuli/images/PICTURE_68.png,MILE,574ce0a57fd0ec000db73aa6,08/03/1951,2020-07-09_17h03.28.616,proactive,2020.1.2,Win32,60,5f073de81c76c3308c0e4fb3,5f0793e4dd3a9b18eebdfdd3,2,,,,,,candle,,,,,,0,53,53,44,1,5,0,,,,,,,,,,,,,,,,,,,,,,,,,,,,,,,,,,,,,,,,,,,,,,,,,,,,,,,,,,,,,,,,,,,,,,,,,,,
,,,,,,,,,,stimuli/images/PICTURE_708.png,PENNY,574ce0a57fd0ec000db73aa6,08/03/1951,2020-07-09_17h03.28.616,proactive,2020.1.2,Win32,60,5f073de81c76c3308c0e4fb3,5f0793e4dd3a9b18eebdfdd3,2,,,,,,monkey,,,,,,0,54,54,31,1,4,0,,,,,,,,,,,,,,,,,,,,,,,,,,,,,,,,,,,,,,,,,,,,,,,,,,,,,,,,,,,,,,,,,,,,,,,,,,,
,,,,,,,,,,stimuli/images/PICTURE_487.png,FLIGHT,574ce0a57fd0ec000db73aa6,08/03/1951,2020-07-09_17h03.28.616,proactive,2020.1.2,Win32,60,5f073de81c76c3308c0e4fb3,5f0793e4dd3a9b18eebdfdd3,2,,,,,,basket,,,,,,0,55,55,9,1,1,0,,,,,,,,,,,,,,,,,,,,,,,,,,,,,,,,,,,,,,,,,,,,,,,,,,,,,,,,,,,,,,,,,,,,,,,,,,,
,,,,,,,,,,stimuli/images/PICTURE_208.png,MONTH,574ce0a57fd0ec000db73aa6,08/03/1951,2020-07-09_17h03.28.616,proactive,2020.1.2,Win32,60,5f073de81c76c3308c0e4fb3,5f0793e4dd3a9b18eebdfdd3,2,,,,,,microphone,,,,,,0,56,56,53,1,6,0,,,,,,,,,,,,,,,,,,,,,,,,,,,,,,,,,,,,,,,,,,,,,,,,,,,,,,,,,,,,,,,,,,,,,,,,,,,
,,,,,,,,,,stimuli/images/PICTURE_151.png,GIRL,574ce0a57fd0ec000db73aa6,08/03/1951,2020-07-09_17h03.28.616,proactive,2020.1.2,Win32,60,5f073de81c76c3308c0e4fb3,5f0793e4dd3a9b18eebdfdd3,2,,,,,,tray,,,,,,0,57,57,19,1,2,0,,,,,,,,,,,,,,,,,,,,,,,,,,,,,,,,,,,,,,,,,,,,,,,,,,,,,,,,,,,,,,,,,,,,,,,,,,,
,,,,,,,,,,stimuli/images/PICTURE_308.png,ESTATE,574ce0a57fd0ec000db73aa6,08/03/1951,2020-07-09_17h03.28.616,proactive,2020.1.2,Win32,60,5f073de81c76c3308c0e4fb3,5f0793e4dd3a9b18eebdfdd3,2,,,,,,dice,,,,,,0,58,58,46,1,5,0,,,,,,,,,,,,,,,,,,,,,,,,,,,,,,,,,,,,,,,,,,,,,,,,,,,,,,,,,,,,,,,,,,,,,,,,,,,
,,?,0.001135,0,,,,,,stimuli/images/PICTURE_160.png,LEADER,574ce0a57fd0ec000db73aa6,08/03/1951,2020-07-09_17h03.28.616,proactive,2020.1.2,Win32,60,5f073de81c76c3308c0e4fb3,5f0793e4dd3a9b18eebdfdd3,2,,,,,,wheelbarrow,,,,,,,,,,,1,0,0,0,0,3,1,,,,,,,,,,,,,,,,,,,,,,,,,,,,,,,,,,,,,,,,,,,,,,,,,,,,,,,,,,,,,,,,,,,,,,
,,?,0.00136,0,,,,,,stimuli/images/PICTURE_380.png,PHOTO,574ce0a57fd0ec000db73aa6,08/03/1951,2020-07-09_17h03.28.616,proactive,2020.1.2,Win32,60,5f073de81c76c3308c0e4fb3,5f0793e4dd3a9b18eebdfdd3,2,,,,,,gorilla,,,,,,,,,,,6,0,0,1,1,52,1,,,,,,,,,,,,,,,,,,,,,,,,,,,,,,,,,,,,,,,,,,,,,,,,,,,,,,,,,,,,,,,,,,,,,,
,,?,0.00128,0,,,,,,stimuli/images/PICTURE_469.png,ARTIST,574ce0a57fd0ec000db73aa6,08/03/1951,2020-07-09_17h03.28.616,proactive,2020.1.2,Win32,60,5f073de81c76c3308c0e4fb3,5f0793e4dd3a9b18eebdfdd3,2,,,,,,stool,,,,,,,,,,,1,0,0,2,2,6,1,,,,,,,,,,,,,,,,,,,,,,,,,,,,,,,,,,,,,,,,,,,,,,,,,,,,,,,,,,,,,,,,,,,,,,
,,?,0.001195,0,,,,,,stimuli/images/PICTURE_380.png,DEATH,574ce0a57fd0ec000db73aa6,08/03/1951,2020-07-09_17h03.28.616,proactive,2020.1.2,Win32,60,5f073de81c76c3308c0e4fb3,5f0793e4dd3a9b18eebdfdd3,2,,,,,,gorilla,,,,,,,,,,,5,0,0,3,3,49,1,,,,,,,,,,,,,,,,,,,,,,,,,,,,,,,,,,,,,,,,,,,,,,,,,,,,,,,,,,,,,,,,,,,,,,
,,THING,2.218005,1,,,,,,stimuli/images/PICTURE_85.png,THING,574ce0a57fd0ec000db73aa6,08/03/1951,2020-07-09_17h03.28.616,proactive,2020.1.2,Win32,60,5f073de81c76c3308c0e4fb3,5f0793e4dd3a9b18eebdfdd3,2,,,,,,diamond,,,,,,,,,,,2,0,0,4,4,15,1,,,,,,,,,,,,,,,,,,,,,,,,,,,,,,,,,,,,,,,,,,,,,,,,,,,,,,,,,,,,,,,,,,,,,,
,,?,0.000845,0,,,,,,stimuli/images/PICTURE_308.png,ESTATE,574ce0a57fd0ec000db73aa6,08/03/1951,2020-07-09_17h03.28.616,proactive,2020.1.2,Win32,60,5f073de81c76c3308c0e4fb3,5f0793e4dd3a9b18eebdfdd3,2,,,,,,dice,,,,,,,,,,,5,0,0,5,5,46,1,,,,,,,,,,,,,,,,,,,,,,,,,,,,,,,,,,,,,,,,,,,,,,,,,,,,,,,,,,,,,,,,,,,,,,
,,GIRL,2.421295,1,,,,,,stimuli/images/PICTURE_151.png,GIRL,574ce0a57fd0ec000db73aa6,08/03/1951,2020-07-09_17h03.28.616,proactive,2020.1.2,Win32,60,5f073de81c76c3308c0e4fb3,5f0793e4dd3a9b18eebdfdd3,2,,,,,,tray,,,,,,,,,,,2,0,0,6,6,19,1,,,,,,,,,,,,,,,,,,,,,,,,,,,,,,,,,,,,,,,,,,,,,,,,,,,,,,,,,,,,,,,,,,,,,,
,,?,0.00095,0,,,,,,stimuli/images/PICTURE_308.png,KIND,574ce0a57fd0ec000db73aa6,08/03/1951,2020-07-09_17h03.28.616,proactive,2020.1.2,Win32,60,5f073de81c76c3308c0e4fb3,5f0793e4dd3a9b18eebdfdd3,2,,,,,,dice,,,,,,,,,,,6,0,0,7,7,54,1,,,,,,,,,,,,,,,,,,,,,,,,,,,,,,,,,,,,,,,,,,,,,,,,,,,,,,,,,,,,,,,,,,,,,,
,,?,0.000875,0,,,,,,stimuli/images/PICTURE_688.png,CASINO,574ce0a57fd0ec000db73aa6,08/03/1951,2020-07-09_17h03.28.616,proactive,2020.1.2,Win32,60,5f073de81c76c3308c0e4fb3,5f0793e4dd3a9b18eebdfdd3,2,,,,,,runner,,,,,,,,,,,1,0,0,8,8,2,1,,,,,,,,,,,,,,,,,,,,,,,,,,,,,,,,,,,,,,,,,,,,,,,,,,,,,,,,,,,,,,,,,,,,,,
,,?,0.000765,0,,,,,,stimuli/images/PICTURE_160.png,FEET,574ce0a57fd0ec000db73aa6,08/03/1951,2020-07-09_17h03.28.616,proactive,2020.1.2,Win32,60,5f073de81c76c3308c0e4fb3,5f0793e4dd3a9b18eebdfdd3,2,,,,,,wheelbarrow,,,,,,,,,,,6,0,0,9,9,58,1,,,,,,,,,,,,,,,,,,,,,,,,,,,,,,,,,,,,,,,,,,,,,,,,,,,,,,,,,,,,,,,,,,,,,,
,,?,0.00085,0,,,,,,stimuli/images/PICTURE_203.png,ARTIST,574ce0a57fd0ec000db73aa6,08/03/1951,2020-07-09_17h03.28.616,proactive,2020.1.2,Win32,60,5f073de81c76c3308c0e4fb3,5f0793e4dd3a9b18eebdfdd3,2,,,,,,cap,,,,,,,,,,,3,0,0,10,10,26,1,,,,,,,,,,,,,,,,,,,,,,,,,,,,,,,,,,,,,,,,,,,,,,,,,,,,,,,,,,,,,,,,,,,,,,
,,?,0.000875,0,,,,,,stimuli/images/PICTURE_708.png,YARD,574ce0a57fd0ec000db73aa6,08/03/1951,2020-07-09_17h03.28.616,proactive,2020.1.2,Win32,60,5f073de81c76c3308c0e4fb3,5f0793e4dd3a9b18eebdfdd3,2,,,,,,monkey,,,,,,,,,,,3,0,0,11,11,29,1,,,,,,,,,,,,,,,,,,,,,,,,,,,,,,,,,,,,,,,,,,,,,,,,,,,,,,,,,,,,,,,,,,,,,,
,,?,0.00087,0,,,,,,stimuli/images/PICTURE_147.png,MOMENT,574ce0a57fd0ec000db73aa6,08/03/1951,2020-07-09_17h03.28.616,proactive,2020.1.2,Win32,60,5f073de81c76c3308c0e4fb3,5f0793e4dd3a9b18eebdfdd3,2,,,,,,hanger,,,,,,,,,,,6,0,0,12,12,51,1,,,,,,,,,,,,,,,,,,,,,,,,,,,,,,,,,,,,,,,,,,,,,,,,,,,,,,,,,,,,,,,,,,,,,,
,,?,0.000935,0,,,,,,stimuli/images/PICTURE_453.png,DUDE,574ce0a57fd0ec000db73aa6,08/03/1951,2020-07-09_17h03.28.616,proactive,2020.1.2,Win32,60,5f073de81c76c3308c0e4fb3,5f0793e4dd3a9b18eebdfdd3,2,,,,,,scissors,,,,,,,,,,,3,0,0,13,13,27,1,,,,,,,,,,,,,,,,,,,,,,,,,,,,,,,,,,,,,,,,,,,,,,,,,,,,,,,,,,,,,,,,,,,,,,
,,?,0.00103,0,,,,,,stimuli/images/PICTURE_356.png,DANGER,574ce0a57fd0ec000db73aa6,08/03/1951,2020-07-09_17h03.28.616,proactive,2020.1.2,Win32,60,5f073de81c76c3308c0e4fb3,5f0793e4dd3a9b18eebdfdd3,2,,,,,,pawn,,,,,,,,,,,6,0,0,14,14,55,1,,,,,,,,,,,,,,,,,,,,,,,,,,,,,,,,,,,,,,,,,,,,,,,,,,,,,,,,,,,,,,,,,,,,,,
,,?,0.00118,0,,,,,,stimuli/images/PICTURE_488.png,STYLE,574ce0a57fd0ec000db73aa6,08/03/1951,2020-07-09_17h03.28.616,proactive,2020.1.2,Win32,60,5f073de81c76c3308c0e4fb3,5f0793e4dd3a9b18eebdfdd3,2,,,,,,sun,,,,,,,,,,,4,0,0,15,15,33,1,,,,,,,,,,,,,,,,,,,,,,,,,,,,,,,,,,,,,,,,,,,,,,,,,,,,,,,,,,,,,,,,,,,,,,
,,?,0.001625,0,,,,,,stimuli/images/PICTURE_449.png,THING,574ce0a57fd0ec000db73aa6,08/03/1951,2020-07-09_17h03.28.616,proactive,2020.1.2,Win32,60,5f073de81c76c3308c0e4fb3,5f0793e4dd3a9b18eebdfdd3,2,,,,,,bench,,,,,,,,,,,6,0,0,16,16,59,1,,,,,,,,,,,,,,,,,,,,,,,,,,,,,,,,,,,,,,,,,,,,,,,,,,,,,,,,,,,,,,,,,,,,,,
,,?,0.001005,0,,,,,,stimuli/images/PICTURE_339.png,PLENTY,574ce0a57fd0ec000db73aa6,08/03/1951,2020-07-09_17h03.28.616,proactive,2020.1.2,Win32,60,5f073de81c76c3308c0e4fb3,5f0793e4dd3a9b18eebdfdd3,2,,,,,,backpack,,,,,,,,,,,1,0,0,17,17,0,1,,,,,,,,,,,,,,,,,,,,,,,,,,,,,,,,,,,,,,,,,,,,,,,,,,,,,,,,,,,,,,,,,,,,,,
,,LOTS,2.44315,1,,,,,,stimuli/images/PICTURE_208.png,LOTS,574ce0a57fd0ec000db73aa6,08/03/1951,2020-07-09_17h03.28.616,proactive,2020.1.2,Win32,60,5f073de81c76c3308c0e4fb3,5f0793e4dd3a9b18eebdfdd3,2,,,,,,microphone,,,,,,,,,,,2,0,0,18,18,10,1,,,,,,,,,,,,,,,,,,,,,,,,,,,,,,,,,,,,,,,,,,,,,,,,,,,,,,,,,,,,,,,,,,,,,,
,,?,0.000985,0,,,,,,stimuli/images/PICTURE_509.png,PHOTO,574ce0a57fd0ec000db73aa6,08/03/1951,2020-07-09_17h03.28.616,proactive,2020.1.2,Win32,60,5f073de81c76c3308c0e4fb3,5f0793e4dd3a9b18eebdfdd3,2,,,,,,telephone,,,,,,,,,,,3,0,0,19,19,21,1,,,,,,,,,,,,,,,,,,,,,,,,,,,,,,,,,,,,,,,,,,,,,,,,,,,,,,,,,,,,,,,,,,,,,,
,,?,0.000905,0,,,,,,stimuli/images/PICTURE_215.png,PLENTY,574ce0a57fd0ec000db73aa6,08/03/1951,2020-07-09_17h03.28.616,proactive,2020.1.2,Win32,60,5f073de81c76c3308c0e4fb3,5f0793e4dd3a9b18eebdfdd3,2,,,,,,boot,,,,,,,,,,,4,0,0,20,20,37,1,,,,,,,,,,,,,,,,,,,,,,,,,,,,,,,,,,,,,,,,,,,,,,,,,,,,,,,,,,,,,,,,,,,,,,
,,GODS,1.66556,1,,,,,,stimuli/images/PICTURE_314.png,GODS,574ce0a57fd0ec000db73aa6,08/03/1951,2020-07-09_17h03.28.616,proactive,2020.1.2,Win32,60,5f073de81c76c3308c0e4fb3,5f0793e4dd3a9b18eebdfdd3,2,,,,,,perfume,,,,,,,,,,,2,0,0,21,21,11,1,,,,,,,,,,,,,,,,,,,,,,,,,,,,,,,,,,,,,,,,,,,,,,,,,,,,,,,,,,,,,,,,,,,,,,
,,?,0.000885,0,,,,,,stimuli/images/PICTURE_453.png,PLENTY,574ce0a57fd0ec000db73aa6,08/03/1951,2020-07-09_17h03.28.616,proactive,2020.1.2,Win32,60,5f073de81c76c3308c0e4fb3,5f0793e4dd3a9b18eebdfdd3,2,,,,,,scissors,,,,,,,,,,,6,0,0,22,22,56,1,,,,,,,,,,,,,,,,,,,,,,,,,,,,,,,,,,,,,,,,,,,,,,,,,,,,,,,,,,,,,,,,,,,,,,
,,?,0.00093,0,,,,,,stimuli/images/PICTURE_487.png,FLIGHT,574ce0a57fd0ec000db73aa6,08/03/1951,2020-07-09_17h03.28.616,proactive,2020.1.2,Win32,60,5f073de81c76c3308c0e4fb3,5f0793e4dd3a9b18eebdfdd3,2,,,,,,basket,,,,,,,,,,,1,0,0,23,23,9,1,,,,,,,,,,,,,,,,,,,,,,,,,,,,,,,,,,,,,,,,,,,,,,,,,,,,,,,,,,,,,,,,,,,,,,
,,?,0.001015,0,,,,,,stimuli/images/PICTURE_675.png,WEAPON,574ce0a57fd0ec000db73aa6,08/03/1951,2020-07-09_17h03.28.616,proactive,2020.1.2,Win32,60,5f073de81c76c3308c0e4fb3,5f0793e4dd3a9b18eebdfdd3,2,,,,,,windmill,,,,,,,,,,,4,0,0,24,24,32,1,,,,,,,,,,,,,,,,,,,,,,,,,,,,,,,,,,,,,,,,,,,,,,,,,,,,,,,,,,,,,,,,,,,,,,
,,?,0.000935,0,,,,,,stimuli/images/PICTURE_677.png,MILE,574ce0a57fd0ec000db73aa6,08/03/1951,2020-07-09_17h03.28.616,proactive,2020.1.2,Win32,60,5f073de81c76c3308c0e4fb3,5f0793e4dd3a9b18eebdfdd3,2,,,,,,map,,,,,,,,,,,4,0,0,25,25,30,1,,,,,,,,,,,,,,,,,,,,,,,,,,,,,,,,,,,,,,,,,,,,,,,,,,,,,,,,,,,,,,,,,,,,,,
,,?,0.00081,0,,,,,,stimuli/images/PICTURE_311.png,FRIEND,574ce0a57fd0ec000db73aa6,08/03/1951,2020-07-09_17h03.28.616,proactive,2020.1.2,Win32,60,5f073de81c76c3308c0e4fb3,5f0793e4dd3a9b18eebdfdd3,2,,,,,,razor,,,,,,,,,,,4,0,0,26,26,34,1,,,,,,,,,,,,,,,,,,,,,,,,,,,,,,,,,,,,,,,,,,,,,,,,,,,,,,,,,,,,,,,,,,,,,,
,,?,0.00088,0,,,,,,stimuli/images/PICTURE_491.png,WRITER,574ce0a57fd0ec000db73aa6,08/03/1951,2020-07-09_17h03.28.616,proactive,2020.1.2,Win32,60,5f073de81c76c3308c0e4fb3,5f0793e4dd3a9b18eebdfdd3,2,,,,,,rug,,,,,,,,,,,6,0,0,27,27,57,1,,,,,,,,,,,,,,,,,,,,,,,,,,,,,,,,,,,,,,,,,,,,,,,,,,,,,,,,,,,,,,,,,,,,,,
,,?,0.00166,0,,,,,,stimuli/images/PICTURE_470.png,CASINO,574ce0a57fd0ec000db73aa6,08/03/1951,2020-07-09_17h03.28.616,proactive,2020.1.2,Win32,60,5f073de81c76c3308c0e4fb3,5f0793e4dd3a9b18eebdfdd3,2,,,,,,motorbike,,,,,,,,,,,4,0,0,28,28,36,1,,,,,,,,,,,,,,,,,,,,,,,,,,,,,,,,,,,,,,,,,,,,,,,,,,,,,,,,,,,,,,,,,,,,,,
,,?,0.000955,0,,,,,,stimuli/images/PICTURE_467.png,DEMON,574ce0a57fd0ec000db73aa6,08/03/1951,2020-07-09_17h03.28.616,proactive,2020.1.2,Win32,60,5f073de81c76c3308c0e4fb3,5f0793e4dd3a9b18eebdfdd3,2,,,,,,peg,,,,,,,,,,,3,0,0,29,29,23,1,,,,,,,,,,,,,,,,,,,,,,,,,,,,,,,,,,,,,,,,,,,,,,,,,,,,,,,,,,,,,,,,,,,,,,
,,?,0.0009,0,,,,,,stimuli/images/PICTURE_123.png,ADVICE,574ce0a57fd0ec000db73aa6,08/03/1951,2020-07-09_17h03.28.616,proactive,2020.1.2,Win32,60,5f073de81c76c3308c0e4fb3,5f0793e4dd3a9b18eebdfdd3,2,,,,,,dart,,,,,,,,,,,5,0,0,30,30,40,1,,,,,,,,,,,,,,,,,,,,,,,,,,,,,,,,,,,,,,,,,,,,,,,,,,,,,,,,,,,,,,,,,,,,,,
,,?,0.00128,0,,,,,,stimuli/images/PICTURE_314.png,SAKE,574ce0a57fd0ec000db73aa6,08/03/1951,2020-07-09_17h03.28.616,proactive,2020.1.2,Win32,60,5f073de81c76c3308c0e4fb3,5f0793e4dd3a9b18eebdfdd3,2,,,,,,perfume,,,,,,,,,,,1,0,0,31,31,7,1,,,,,,,,,,,,,,,,,,,,,,,,,,,,,,,,,,,,,,,,,,,,,,,,,,,,,,,,,,,,,,,,,,,,,,
,,?,0.00106,0,,,,,,stimuli/images/PICTURE_95.png,STYLE,574ce0a57fd0ec000db73aa6,08/03/1951,2020-07-09_17h03.28.616,proactive,2020.1.2,Win32,60,5f073de81c76c3308c0e4fb3,5f0793e4dd3a9b18eebdfdd3,2,,,,,,suitcase,,,,,,,,,,,3,0,0,32,32,25,1,,,,,,,,,,,,,,,,,,,,,,,,,,,,,,,,,,,,,,,,,,,,,,,,,,,,,,,,,,,,,,,,,,,,,,
,,?,0.001275,0,,,,,,stimuli/images/PICTURE_208.png,THING,574ce0a57fd0ec000db73aa6,08/03/1951,2020-07-09_17h03.28.616,proactive,2020.1.2,Win32,60,5f073de81c76c3308c0e4fb3,5f0793e4dd3a9b18eebdfdd3,2,,,,,,microphone,,,,,,,,,,,5,0,0,33,33,47,1,,,,,,,,,,,,,,,,,,,,,,,,,,,,,,,,,,,,,,,,,,,,,,,,,,,,,,,,,,,,,,,,,,,,,,
,,?,0.00263,0,,,,,,stimuli/images/PICTURE_208.png,MONTH,574ce0a57fd0ec000db73aa6,08/03/1951,2020-07-09_17h03.28.616,proactive,2020.1.2,Win32,60,5f073de81c76c3308c0e4fb3,5f0793e4dd3a9b18eebdfdd3,2,,,,,,microphone,,,,,,,,,,,6,0,0,34,34,53,1,,,,,,,,,,,,,,,,,,,,,,,,,,,,,,,,,,,,,,,,,,,,,,,,,,,,,,,,,,,,,,,,,,,,,,
,,?,0.00083,0,,,,,,stimuli/images/PICTURE_177.png,CARS,574ce0a57fd0ec000db73aa6,08/03/1951,2020-07-09_17h03.28.616,proactive,2020.1.2,Win32,60,5f073de81c76c3308c0e4fb3,5f0793e4dd3a9b18eebdfdd3,2,,,,,,mushroom,,,,,,,,,,,4,0,0,35,35,35,1,,,,,,,,,,,,,,,,,,,,,,,,,,,,,,,,,,,,,,,,,,,,,,,,,,,,,,,,,,,,,,,,,,,,,,
,,?,0.001305,0,,,,,,stimuli/images/PICTURE_123.png,ADVICE,574ce0a57fd0ec000db73aa6,08/03/1951,2020-07-09_17h03.28.616,proactive,2020.1.2,Win32,60,5f073de81c76c3308c0e4fb3,5f0793e4dd3a9b18eebdfdd3,2,,,,,,dart,,,,,,,,,,,6,0,0,36,36,50,1,,,,,,,,,,,,,,,,,,,,,,,,,,,,,,,,,,,,,,,,,,,,,,,,,,,,,,,,,,,,,,,,,,,,,,
,,?,0.00147,0,,,,,,stimuli/images/PICTURE_469.png,LETTER,574ce0a57fd0ec000db73aa6,08/03/1951,2020-07-09_17h03.28.616,proactive,2020.1.2,Win32,60,5f073de81c76c3308c0e4fb3,5f0793e4dd3a9b18eebdfdd3,2,,,,,,stool,,,,,,,,,,,5,0,0,37,37,42,1,,,,,,,,,,,,,,,,,,,,,,,,,,,,,,,,,,,,,,,,,,,,,,,,,,,,,,,,,,,,,,,,,,,,,,
,,?,0.0013,0,,,,,,stimuli/images/PICTURE_667.png,PLENTY,574ce0a57fd0ec000db73aa6,08/03/1951,2020-07-09_17h03.28.616,proactive,2020.1.2,Win32,60,5f073de81c76c3308c0e4fb3,5f0793e4dd3a9b18eebdfdd3,2,,,,,,daisy,,,,,,,,,,,5,0,0,38,38,41,1,,,,,,,,,,,,,,,,,,,,,,,,,,,,,,,,,,,,,,,,,,,,,,,,,,,,,,,,,,,,,,,,,,,,,,
,,?,0.001265,0,,,,,,stimuli/images/PICTURE_248.png,DOZEN,574ce0a57fd0ec000db73aa6,08/03/1951,2020-07-09_17h03.28.616,proactive,2020.1.2,Win32,60,5f073de81c76c3308c0e4fb3,5f0793e4dd3a9b18eebdfdd3,2,,,,,,cart,,,,,,,,,,,4,0,0,39,39,39,1,,,,,,,,,,,,,,,,,,,,,,,,,,,,,,,,,,,,,,,,,,,,,,,,,,,,,,,,,,,,,,,,,,,,,,
,,?,0.001175,0,,,,,,stimuli/images/PICTURE_744.png,SYSTEM,574ce0a57fd0ec000db73aa6,08/03/1951,2020-07-09_17h03.28.616,proactive,2020.1.2,Win32,60,5f073de81c76c3308c0e4fb3,5f0793e4dd3a9b18eebdfdd3,2,,,,,,ring,,,,,,,,,,,5,0,0,40,40,43,1,,,,,,,,,,,,,,,,,,,,,,,,,,,,,,,,,,,,,,,,,,,,,,,,,,,,,,,,,,,,,,,,,,,,,,
,,?,0.000905,0,,,,,,stimuli/images/PICTURE_255.png,AREA,574ce0a57fd0ec000db73aa6,08/03/1951,2020-07-09_17h03.28.616,proactive,2020.1.2,Win32,60,5f073de81c76c3308c0e4fb3,5f0793e4dd3a9b18eebdfdd3,2,,,,,,shovel,,,,,,,,,,,3,0,0,41,41,22,1,,,,,,,,,,,,,,,,,,,,,,,,,,,,,,,,,,,,,,,,,,,,,,,,,,,,,,,,,,,,,,,,,,,,,,
,,MONTH,2.9173,1,,,,,,stimuli/images/PICTURE_692.png,MONTH,574ce0a57fd0ec000db73aa6,08/03/1951,2020-07-09_17h03.28.616,proactive,2020.1.2,Win32,60,5f073de81c76c3308c0e4fb3,5f0793e4dd3a9b18eebdfdd3,2,,,,,,cherry,,,,,,,,,,,2,0,0,42,42,16,1,,,,,,,,,,,,,,,,,,,,,,,,,,,,,,,,,,,,,,,,,,,,,,,,,,,,,,,,,,,,,,,,,,,,,,
,,?,0.001705,0,,,,,,stimuli/images/PICTURE_708.png,CLIENT,574ce0a57fd0ec000db73aa6,08/03/1951,2020-07-09_17h03.28.616,proactive,2020.1.2,Win32,60,5f073de81c76c3308c0e4fb3,5f0793e4dd3a9b18eebdfdd3,2,,,,,,monkey,,,,,,,,,,,1,0,0,43,43,5,1,,,,,,,,,,,,,,,,,,,,,,,,,,,,,,,,,,,,,,,,,,,,,,,,,,,,,,,,,,,,,,,,,,,,,,
,,?,0.001745,0,,,,,,stimuli/images/PICTURE_654.png,VALLEY,574ce0a57fd0ec000db73aa6,08/03/1951,2020-07-09_17h03.28.616,proactive,2020.1.2,Win32,60,5f073de81c76c3308c0e4fb3,5f0793e4dd3a9b18eebdfdd3,2,,,,,,pencil,,,,,,,,,,,1,0,0,44,44,1,1,,,,,,,,,,,,,,,,,,,,,,,,,,,,,,,,,,,,,,,,,,,,,,,,,,,,,,,,,,,,,,,,,,,,,,
,,WOMEN,1.913415,1,,,,,,stimuli/images/PICTURE_688.png,WOMEN,574ce0a57fd0ec000db73aa6,08/03/1951,2020-07-09_17h03.28.616,proactive,2020.1.2,Win32,60,5f073de81c76c3308c0e4fb3,5f0793e4dd3a9b18eebdfdd3,2,,,,,,runner,,,,,,,,,,,2,0,0,45,45,14,1,,,,,,,,,,,,,,,,,,,,,,,,,,,,,,,,,,,,,,,,,,,,,,,,,,,,,,,,,,,,,,,,,,,,,,
,,ADVICE,2.43977,1,,,,,,stimuli/images/PICTURE_285.png,ADVICE,574ce0a57fd0ec000db73aa6,08/03/1951,2020-07-09_17h03.28.616,proactive,2020.1.2,Win32,60,5f073de81c76c3308c0e4fb3,5f0793e4dd3a9b18eebdfdd3,2,,,,,,carrot,,,,,,,,,,,2,0,0,46,46,12,1,,,,,,,,,,,,,,,,,,,,,,,,,,,,,,,,,,,,,,,,,,,,,,,,,,,,,,,,,,,,,,,,,,,,,,
,,?,0.000845,0,,,,,,stimuli/images/PICTURE_327.png,BEAUTY,574ce0a57fd0ec000db73aa6,08/03/1951,2020-07-09_17h03.28.616,proactive,2020.1.2,Win32,60,5f073de81c76c3308c0e4fb3,5f0793e4dd3a9b18eebdfdd3,2,,,,,,helmet,,,,,,,,,,,5,0,0,47,47,48,1,,,,,,,,,,,,,,,,,,,,,,,,,,,,,,,,,,,,,,,,,,,,,,,,,,,,,,,,,,,,,,,,,,,,,,
,,?,0.00096,0,,,,,,stimuli/images/PICTURE_504.png,BODY,574ce0a57fd0ec000db73aa6,08/03/1951,2020-07-09_17h03.28.616,proactive,2020.1.2,Win32,60,5f073de81c76c3308c0e4fb3,5f0793e4dd3a9b18eebdfdd3,2,,,,,,wheel,,,,,,,,,,,1,0,0,48,48,8,1,,,,,,,,,,,,,,,,,,,,,,,,,,,,,,,,,,,,,,,,,,,,,,,,,,,,,,,,,,,,,,,,,,,,,,
,,?,0.00102,0,,,,,,stimuli/images/PICTURE_233.png,WOMEN,574ce0a57fd0ec000db73aa6,08/03/1951,2020-07-09_17h03.28.616,proactive,2020.1.2,Win32,60,5f073de81c76c3308c0e4fb3,5f0793e4dd3a9b18eebdfdd3,2,,,,,,salt,,,,,,,,,,,4,0,0,49,49,38,1,,,,,,,,,,,,,,,,,,,,,,,,,,,,,,,,,,,,,,,,,,,,,,,,,,,,,,,,,,,,,,,,,,,,,,
,,?,0.00078,0,,,,,,stimuli/images/PICTURE_667.png,BATH,574ce0a57fd0ec000db73aa6,08/03/1951,2020-07-09_17h03.28.616,proactive,2020.1.2,Win32,60,5f073de81c76c3308c0e4fb3,5f0793e4dd3a9b18eebdfdd3,2,,,,,,daisy,,,,,,,,,,,1,0,0,50,50,4,1,,,,,,,,,,,,,,,,,,,,,,,,,,,,,,,,,,,,,,,,,,,,,,,,,,,,,,,,,,,,,,,,,,,,,,
,,?,0.001025,0,,,,,,stimuli/images/PICTURE_233.png,IDEAS,574ce0a57fd0ec000db73aa6,08/03/1951,2020-07-09_17h03.28.616,proactive,2020.1.2,Win32,60,5f073de81c76c3308c0e4fb3,5f0793e4dd3a9b18eebdfdd3,2,,,,,,salt,,,,,,,,,,,3,0,0,51,51,28,1,,,,,,,,,,,,,,,,,,,,,,,,,,,,,,,,,,,,,,,,,,,,,,,,,,,,,,,,,,,,,,,,,,,,,,
,,?,0.00093,0,,,,,,stimuli/images/PICTURE_68.png,MILE,574ce0a57fd0ec000db73aa6,08/03/1951,2020-07-09_17h03.28.616,proactive,2020.1.2,Win32,60,5f073de81c76c3308c0e4fb3,5f0793e4dd3a9b18eebdfdd3,2,,,,,,candle,,,,,,,,,,,5,0,0,52,52,44,1,,,,,,,,,,,,,,,,,,,,,,,,,,,,,,,,,,,,,,,,,,,,,,,,,,,,,,,,,,,,,,,,,,,,,,
,,?,0.002155,0,,,,,,stimuli/images/PICTURE_491.png,ROOF,574ce0a57fd0ec000db73aa6,08/03/1951,2020-07-09_17h03.28.616,proactive,2020.1.2,Win32,60,5f073de81c76c3308c0e4fb3,5f0793e4dd3a9b18eebdfdd3,2,,,,,,rug,,,,,,,,,,,3,0,0,53,53,24,1,,,,,,,,,,,,,,,,,,,,,,,,,,,,,,,,,,,,,,,,,,,,,,,,,,,,,,,,,,,,,,,,,,,,,,
,,FAMILY,2.177115,1,,,,,,stimuli/images/PICTURE_302.png,FAMILY,574ce0a57fd0ec000db73aa6,08/03/1951,2020-07-09_17h03.28.616,proactive,2020.1.2,Win32,60,5f073de81c76c3308c0e4fb3,5f0793e4dd3a9b18eebdfdd3,2,,,,,,taxi,,,,,,,,,,,2,0,0,54,54,18,1,,,,,,,,,,,,,,,,,,,,,,,,,,,,,,,,,,,,,,,,,,,,,,,,,,,,,,,,,,,,,,,,,,,,,,
,,?,0.00132,0,,,,,,stimuli/images/PICTURE_32.png,JUNGLE,574ce0a57fd0ec000db73aa6,08/03/1951,2020-07-09_17h03.28.616,proactive,2020.1.2,Win32,60,5f073de81c76c3308c0e4fb3,5f0793e4dd3a9b18eebdfdd3,2,,,,,,crown,,,,,,,,,,,5,0,0,55,55,45,1,,,,,,,,,,,,,,,,,,,,,,,,,,,,,,,,,,,,,,,,,,,,,,,,,,,,,,,,,,,,,,,,,,,,,,
,,?,0.000865,0,,,,,,stimuli/images/PICTURE_708.png,PENNY,574ce0a57fd0ec000db73aa6,08/03/1951,2020-07-09_17h03.28.616,proactive,2020.1.2,Win32,60,5f073de81c76c3308c0e4fb3,5f0793e4dd3a9b18eebdfdd3,2,,,,,,monkey,,,,,,,,,,,4,0,0,56,56,31,1,,,,,,,,,,,,,,,,,,,,,,,,,,,,,,,,,,,,,,,,,,,,,,,,,,,,,,,,,,,,,,,,,,,,,,
,,SAKE,2.56885,1,,,,,,stimuli/images/PICTURE_744.png,SAKE,574ce0a57fd0ec000db73aa6,08/03/1951,2020-07-09_17h03.28.616,proactive,2020.1.2,Win32,60,5f073de81c76c3308c0e4fb3,5f0793e4dd3a9b18eebdfdd3,2,,,,,,ring,,,,,,,,,,,2,0,0,57,57,17,1,,,,,,,,,,,,,,,,,,,,,,,,,,,,,,,,,,,,,,,,,,,,,,,,,,,,,,,,,,,,,,,,,,,,,,
,,BEAUTY,2.57428,1,,,,,,stimuli/images/PICTURE_311.png,BEAUTY,574ce0a57fd0ec000db73aa6,08/03/1951,2020-07-09_17h03.28.616,proactive,2020.1.2,Win32,60,5f073de81c76c3308c0e4fb3,5f0793e4dd3a9b18eebdfdd3,2,,,,,,razor,,,,,,,,,,,2,0,0,58,58,13,1,,,,,,,,,,,,,,,,,,,,,,,,,,,,,,,,,,,,,,,,,,,,,,,,,,,,,,,,,,,,,,,,,,,,,,
,,?,0.001625,0,,,,,,stimuli/images/PICTURE_348.png,SPEECH,574ce0a57fd0ec000db73aa6,08/03/1951,2020-07-09_17h03.28.616,proactive,2020.1.2,Win32,60,5f073de81c76c3308c0e4fb3,5f0793e4dd3a9b18eebdfdd3,2,,,,,,pepper,,,,,,,,,,,3,0,0,59,59,20,1,,,,,,,,,,,,,,,,,,,,,,,,,,,,,,,,,,,,,,,,,,,,,,,,,,,,,,,,,,,,,,,,,,,,,,
,,,,,,,,,,,,574ce0a57fd0ec000db73aa6,08/03/1951,2020-07-09_17h03.28.616,proactive,2020.1.2,Win32,60,5f073de81c76c3308c0e4fb3,5f0793e4dd3a9b18eebdfdd3,2,,,,,,,,,,,,,,,,,,,,,,,,0,1,1,0,1,stimuli/learn-block1.csv,,,,,,,,,,,,,,,,,,,,,,,,,,,,,,,,,,,,,,,,,,,,,,,,,,,,,,,,,,,,,,,,
,,,,,,,,,,stimuli/images/PICTURE_667.png,RIVER,574ce0a57fd0ec000db73aa6,08/03/1951,2020-07-09_17h03.28.616,proactive,2020.1.2,Win32,60,5f073de81c76c3308c0e4fb3,5f0793e4dd3a9b18eebdfdd3,2,,,,,,daisy,,,,,,0,0,0,10,1,2,1,,,,,,,,,,,,,,,,,,,,,,,,,,,,,,,,,,,,,,,,,,,,,,,,,,,,,,,,,,,,,,,,,,,,,,,,,,,
,,,,,,,,,,stimuli/images/PICTURE_744.png,WEAPON,574ce0a57fd0ec000db73aa6,08/03/1951,2020-07-09_17h03.28.616,proactive,2020.1.2,Win32,60,5f073de81c76c3308c0e4fb3,5f0793e4dd3a9b18eebdfdd3,2,,,,,,ring,,,,,,0,1,1,50,1,6,1,,,,,,,,,,,,,,,,,,,,,,,,,,,,,,,,,,,,,,,,,,,,,,,,,,,,,,,,,,,,,,,,,,,,,,,,,,,
,,,,,,,,,,stimuli/images/PICTURE_403.png,TOILET,574ce0a57fd0ec000db73aa6,08/03/1951,2020-07-09_17h03.28.616,proactive,2020.1.2,Win32,60,5f073de81c76c3308c0e4fb3,5f0793e4dd3a9b18eebdfdd3,2,,,,,,cathedral,,,,,,0,2,2,25,1,3,1,,,,,,,,,,,,,,,,,,,,,,,,,,,,,,,,,,,,,,,,,,,,,,,,,,,,,,,,,,,,,,,,,,,,,,,,,,,
,,,,,,,,,,stimuli/images/PICTURE_108.png,FLIGHT,574ce0a57fd0ec000db73aa6,08/03/1951,2020-07-09_17h03.28.616,proactive,2020.1.2,Win32,60,5f073de81c76c3308c0e4fb3,5f0793e4dd3a9b18eebdfdd3,2,,,,,,calendar,,,,,,0,3,3,59,1,6,1,,,,,,,,,,,,,,,,,,,,,,,,,,,,,,,,,,,,,,,,,,,,,,,,,,,,,,,,,,,,,,,,,,,,,,,,,,,
,,,,,,,,,,stimuli/images/PICTURE_504.png,COPS,574ce0a57fd0ec000db73aa6,08/03/1951,2020-07-09_17h03.28.616,proactive,2020.1.2,Win32,60,5f073de81c76c3308c0e4fb3,5f0793e4dd3a9b18eebdfdd3,2,,,,,,wheel,,,,,,0,4,4,52,1,6,1,,,,,,,,,,,,,,,,,,,,,,,,,,,,,,,,,,,,,,,,,,,,,,,,,,,,,,,,,,,,,,,,,,,,,,,,,,,
,,,,,,,,,,stimuli/images/PICTURE_57.png,MOMENT,574ce0a57fd0ec000db73aa6,08/03/1951,2020-07-09_17h03.28.616,proactive,2020.1.2,Win32,60,5f073de81c76c3308c0e4fb3,5f0793e4dd3a9b18eebdfdd3,2,,,,,,stamp,,,,,,0,5,5,37,1,4,1,,,,,,,,,,,,,,,,,,,,,,,,,,,,,,,,,,,,,,,,,,,,,,,,,,,,,,,,,,,,,,,,,,,,,,,,,,,
,,,,,,,,,,stimuli/images/PICTURE_383.png,SERIES,574ce0a57fd0ec000db73aa6,08/03/1951,2020-07-09_17h03.28.616,proactive,2020.1.2,Win32,60,5f073de81c76c3308c0e4fb3,5f0793e4dd3a9b18eebdfdd3,2,,,,,,coin,,,,,,0,6,6,46,1,5,1,,,,,,,,,,,,,,,,,,,,,,,,,,,,,,,,,,,,,,,,,,,,,,,,,,,,,,,,,,,,,,,,,,,,,,,,,,,
,,,,,,,,,,stimuli/images/PICTURE_380.png,HONEY,574ce0a57fd0ec000db73aa6,08/03/1951,2020-07-09_17h03.28.616,proactive,2020.1.2,Win32,60,5f073de81c76c3308c0e4fb3,5f0793e4dd3a9b18eebdfdd3,2,,,,,,gorilla,,,,,,0,7,7,19,1,2,1,,,,,,,,,,,,,,,,,,,,,,,,,,,,,,,,,,,,,,,,,,,,,,,,,,,,,,,,,,,,,,,,,,,,,,,,,,,
,,,,,,,,,,stimuli/images/PICTURE_654.png,MONTH,574ce0a57fd0ec000db73aa6,08/03/1951,2020-07-09_17h03.28.616,proactive,2020.1.2,Win32,60,5f073de81c76c3308c0e4fb3,5f0793e4dd3a9b18eebdfdd3,2,,,,,,pencil,,,,,,0,8,8,29,1,3,1,,,,,,,,,,,,,,,,,,,,,,,,,,,,,,,,,,,,,,,,,,,,,,,,,,,,,,,,,,,,,,,,,,,,,,,,,,,
,,,,,,,,,,stimuli/images/PICTURE_147.png,YEAR,574ce0a57fd0ec000db73aa6,08/03/1951,2020-07-09_17h03.28.616,proactive,2020.1.2,Win32,60,5f073de81c76c3308c0e4fb3,5f0793e4dd3a9b18eebdfdd3,2,,,,,,hanger,,,,,,0,9,9,21,1,3,1,,,,,,,,,,,,,,,,,,,,,,,,,,,,,,,,,,,,,,,,,,,,,,,,,,,,,,,,,,,,,,,,,,,,,,,,,,,
,,,,,,,,,,stimuli/images/PICTURE_487.png,GIRL,574ce0a57fd0ec000db73aa6,08/03/1951,2020-07-09_17h03.28.616,proactive,2020.1.2,Win32,60,5f073de81c76c3308c0e4fb3,5f0793e4dd3a9b18eebdfdd3,2,,,,,,basket,,,,,,0,10,10,45,1,5,1,,,,,,,,,,,,,,,,,,,,,,,,,,,,,,,,,,,,,,,,,,,,,,,,,,,,,,,,,,,,,,,,,,,,,,,,,,,
,,,,,,,,,,stimuli/images/PICTURE_403.png,RIVER,574ce0a57fd0ec000db73aa6,08/03/1951,2020-07-09_17h03.28.616,proactive,2020.1.2,Win32,60,5f073de81c76c3308c0e4fb3,5f0793e4dd3a9b18eebdfdd3,2,,,,,,cathedral,,,,,,0,11,11,40,1,5,1,,,,,,,,,,,,,,,,,,,,,,,,,,,,,,,,,,,,,,,,,,,,,,,,,,,,,,,,,,,,,,,,,,,,,,,,,,,
,,,,,,,,,,stimuli/images/PICTURE_677.png,APPLE,574ce0a57fd0ec000db73aa6,08/03/1951,2020-07-09_17h03.28.616,proactive,2020.1.2,Win32,60,5f073de81c76c3308c0e4fb3,5f0793e4dd3a9b18eebdfdd3,2,,,,,,map,,,,,,0,12,12,43,1,5,1,,,,,,,,,,,,,,,,,,,,,,,,,,,,,,,,,,,,,,,,,,,,,,,,,,,,,,,,,,,,,,,,,,,,,,,,,,,
,,,,,,,,,,stimuli/images/PICTURE_68.png,ROOF,574ce0a57fd0ec000db73aa6,08/03/1951,2020-07-09_17h03.28.616,proactive,2020.1.2,Win32,60,5f073de81c76c3308c0e4fb3,5f0793e4dd3a9b18eebdfdd3,2,,,,,,candle,,,,,,0,13,13,38,1,4,1,,,,,,,,,,,,,,,,,,,,,,,,,,,,,,,,,,,,,,,,,,,,,,,,,,,,,,,,,,,,,,,,,,,,,,,,,,,
,,,,,,,,,,stimuli/images/PICTURE_327.png,SERIES,574ce0a57fd0ec000db73aa6,08/03/1951,2020-07-09_17h03.28.616,proactive,2020.1.2,Win32,60,5f073de81c76c3308c0e4fb3,5f0793e4dd3a9b18eebdfdd3,2,,,,,,helmet,,,,,,0,14,14,3,1,1,1,,,,,,,,,,,,,,,,,,,,,,,,,,,,,,,,,,,,,,,,,,,,,,,,,,,,,,,,,,,,,,,,,,,,,,,,,,,
,,,,,,,,,,stimuli/images/PICTURE_68.png,MILE,574ce0a57fd0ec000db73aa6,08/03/1951,2020-07-09_17h03.28.616,proactive,2020.1.2,Win32,60,5f073de81c76c3308c0e4fb3,5f0793e4dd3a9b18eebdfdd3,2,,,,,,candle,,,,,,0,15,15,51,1,6,1,,,,,,,,,,,,,,,,,,,,,,,,,,,,,,,,,,,,,,,,,,,,,,,,,,,,,,,,,,,,,,,,,,,,,,,,,,,
,,,,,,,,,,stimuli/images/PICTURE_203.png,GODS,574ce0a57fd0ec000db73aa6,08/03/1951,2020-07-09_17h03.28.616,proactive,2020.1.2,Win32,60,5f073de81c76c3308c0e4fb3,5f0793e4dd3a9b18eebdfdd3,2,,,,,,cap,,,,,,0,16,16,30,1,4,1,,,,,,,,,,,,,,,,,,,,,,,,,,,,,,,,,,,,,,,,,,,,,,,,,,,,,,,,,,,,,,,,,,,,,,,,,,,
,,,,,,,,,,stimuli/images/PICTURE_708.png,RECORD,574ce0a57fd0ec000db73aa6,08/03/1951,2020-07-09_17h03.28.616,proactive,2020.1.2,Win32,60,5f073de81c76c3308c0e4fb3,5f0793e4dd3a9b18eebdfdd3,2,,,,,,monkey,,,,,,0,17,17,58,1,6,1,,,,,,,,,,,,,,,,,,,,,,,,,,,,,,,,,,,,,,,,,,,,,,,,,,,,,,,,,,,,,,,,,,,,,,,,,,,
,,,,,,,,,,stimuli/images/PICTURE_203.png,NIGHT,574ce0a57fd0ec000db73aa6,08/03/1951,2020-07-09_17h03.28.616,proactive,2020.1.2,Win32,60,5f073de81c76c3308c0e4fb3,5f0793e4dd3a9b18eebdfdd3,2,,,,,,cap,,,,,,0,18,18,2,1,1,1,,,,,,,,,,,,,,,,,,,,,,,,,,,,,,,,,,,,,,,,,,,,,,,,,,,,,,,,,,,,,,,,,,,,,,,,,,,
,,,,,,,,,,stimuli/images/PICTURE_340.png,VALLEY,574ce0a57fd0ec000db73aa6,08/03/1951,2020-07-09_17h03.28.616,proactive,2020.1.2,Win32,60,5f073de81c76c3308c0e4fb3,5f0793e4dd3a9b18eebdfdd3,2,,,,,,mirror,,,,,,0,19,19,54,1,6,1,,,,,,,,,,,,,,,,,,,,,,,,,,,,,,,,,,,,,,,,,,,,,,,,,,,,,,,,,,,,,,,,,,,,,,,,,,,
,,,,,,,,,,stimuli/images/PICTURE_750.png,HOTEL,574ce0a57fd0ec000db73aa6,08/03/1951,2020-07-09_17h03.28.616,proactive,2020.1.2,Win32,60,5f073de81c76c3308c0e4fb3,5f0793e4dd3a9b18eebdfdd3,2,,,,,,kettle,,,,,,0,20,20,27,1,3,1,,,,,,,,,,,,,,,,,,,,,,,,,,,,,,,,,,,,,,,,,,,,,,,,,,,,,,,,,,,,,,,,,,,,,,,,,,,
,,,,,,,,,,stimuli/images/PICTURE_95.png,HONEY,574ce0a57fd0ec000db73aa6,08/03/1951,2020-07-09_17h03.28.616,proactive,2020.1.2,Win32,60,5f073de81c76c3308c0e4fb3,5f0793e4dd3a9b18eebdfdd3,2,,,,,,suitcase,,,,,,0,21,21,44,1,5,1,,,,,,,,,,,,,,,,,,,,,,,,,,,,,,,,,,,,,,,,,,,,,,,,,,,,,,,,,,,,,,,,,,,,,,,,,,,
,,,,,,,,,,stimuli/images/PICTURE_285.png,LIFE,574ce0a57fd0ec000db73aa6,08/03/1951,2020-07-09_17h03.28.616,proactive,2020.1.2,Win32,60,5f073de81c76c3308c0e4fb3,5f0793e4dd3a9b18eebdfdd3,2,,,,,,carrot,,,,,,0,22,22,33,1,4,1,,,,,,,,,,,,,,,,,,,,,,,,,,,,,,,,,,,,,,,,,,,,,,,,,,,,,,,,,,,,,,,,,,,,,,,,,,,
,,,,,,,,,,stimuli/images/PICTURE_383.png,WRITER,574ce0a57fd0ec000db73aa6,08/03/1951,2020-07-09_17h03.28.616,proactive,2020.1.2,Win32,60,5f073de81c76c3308c0e4fb3,5f0793e4dd3a9b18eebdfdd3,2,,,,,,coin,,,,,,0,23,23,28,1,3,1,,,,,,,,,,,,,,,,,,,,,,,,,,,,,,,,,,,,,,,,,,,,,,,,,,,,,,,,,,,,,,,,,,,,,,,,,,,
,,,,,,,,,,stimuli/images/PICTURE_403.png,WRITER,574ce0a57fd0ec000db73aa6,08/03/1951,2020-07-09_17h03.28.616,proactive,2020.1.2,Win32,60,5f073de81c76c3308c0e4fb3,5f0793e4dd3a9b18eebdfdd3,2,,,,,,cathedral,,,,,,0,24,24,31,1,4,1,,,,,,,,,,,,,,,,,,,,,,,,,,,,,,,,,,,,,,,,,,,,,,,,,,,,,,,,,,,,,,,,,,,,,,,,,,,
,,,,,,,,,,stimuli/images/PICTURE_675.png,SALE,574ce0a57fd0ec000db73aa6,08/03/1951,2020-07-09_17h03.28.616,proactive,2020.1.2,Win32,60,5f073de81c76c3308c0e4fb3,5f0793e4dd3a9b18eebdfdd3,2,,,,,,windmill,,,,,,0,25,25,47,1,5,1,,,,,,,,,,,,,,,,,,,,,,,,,,,,,,,,,,,,,,,,,,,,,,,,,,,,,,,,,,,,,,,,,,,,,,,,,,,
,,,,,,,,,,stimuli/images/PICTURE_95.png,BOYS,574ce0a57fd0ec000db73aa6,08/03/1951,2020-07-09_17h03.28.616,proactive,2020.1.2,Win32,60,5f073de81c76c3308c0e4fb3,5f0793e4dd3a9b18eebdfdd3,2,,,,,,suitcase,,,,,,0,26,26,1,1,1,1,,,,,,,,,,,,,,,,,,,,,,,,,,,,,,,,,,,,,,,,,,,,,,,,,,,,,,,,,,,,,,,,,,,,,,,,,,,
,,,,,,,,,,stimuli/images/PICTURE_340.png,LETTER,574ce0a57fd0ec000db73aa6,08/03/1951,2020-07-09_17h03.28.616,proactive,2020.1.2,Win32,60,5f073de81c76c3308c0e4fb3,5f0793e4dd3a9b18eebdfdd3,2,,,,,,mirror,,,,,,0,27,27,24,1,3,1,,,,,,,,,,,,,,,,,,,,,,,,,,,,,,,,,,,,,,,,,,,,,,,,,,,,,,,,,,,,,,,,,,,,,,,,,,,
,,,,,,,,,,stimuli/images/PICTURE_2.png,FLIGHT,574ce0a57fd0ec000db73aa6,08/03/1951,2020-07-09_17h03.28.616,proactive,2020.1.2,Win32,60,5f073de81c76c3308c0e4fb3,5f0793e4dd3a9b18eebdfdd3,2,,,,,,tyre,,,,,,0,28,28,15,1,2,1,,,,,,,,,,,,,,,,,,,,,,,,,,,,,,,,,,,,,,,,,,,,,,,,,,,,,,,,,,,,,,,,,,,,,,,,,,,
,,,,,,,,,,stimuli/images/PICTURE_296.png,LIFE,574ce0a57fd0ec000db73aa6,08/03/1951,2020-07-09_17h03.28.616,proactive,2020.1.2,Win32,60,5f073de81c76c3308c0e4fb3,5f0793e4dd3a9b18eebdfdd3,2,,,,,,bolt,,,,,,0,29,29,57,1,6,1,,,,,,,,,,,,,,,,,,,,,,,,,,,,,,,,,,,,,,,,,,,,,,,,,,,,,,,,,,,,,,,,,,,,,,,,,,,
,,,,,,,,,,stimuli/images/PICTURE_380.png,CANDY,574ce0a57fd0ec000db73aa6,08/03/1951,2020-07-09_17h03.28.616,proactive,2020.1.2,Win32,60,5f073de81c76c3308c0e4fb3,5f0793e4dd3a9b18eebdfdd3,2,,,,,,gorilla,,,,,,0,30,30,0,1,1,1,,,,,,,,,,,,,,,,,,,,,,,,,,,,,,,,,,,,,,,,,,,,,,,,,,,,,,,,,,,,,,,,,,,,,,,,,,,
,,,,,,,,,,stimuli/images/PICTURE_685.png,PENNY,574ce0a57fd0ec000db73aa6,08/03/1951,2020-07-09_17h03.28.616,proactive,2020.1.2,Win32,60,5f073de81c76c3308c0e4fb3,5f0793e4dd3a9b18eebdfdd3,2,,,,,,goose,,,,,,0,31,31,4,1,1,1,,,,,,,,,,,,,,,,,,,,,,,,,,,,,,,,,,,,,,,,,,,,,,,,,,,,,,,,,,,,,,,,,,,,,,,,,,,
,,,,,,,,,,stimuli/images/PICTURE_297.png,RIVER,574ce0a57fd0ec000db73aa6,08/03/1951,2020-07-09_17h03.28.616,proactive,2020.1.2,Win32,60,5f073de81c76c3308c0e4fb3,5f0793e4dd3a9b18eebdfdd3,2,,,,,,aeroplane,,,,,,0,32,32,39,1,4,1,,,,,,,,,,,,,,,,,,,,,,,,,,,,,,,,,,,,,,,,,,,,,,,,,,,,,,,,,,,,,,,,,,,,,,,,,,,
,,,,,,,,,,stimuli/images/PICTURE_504.png,YEAR,574ce0a57fd0ec000db73aa6,08/03/1951,2020-07-09_17h03.28.616,proactive,2020.1.2,Win32,60,5f073de81c76c3308c0e4fb3,5f0793e4dd3a9b18eebdfdd3,2,,,,,,wheel,,,,,,0,33,33,13,1,2,1,,,,,,,,,,,,,,,,,,,,,,,,,,,,,,,,,,,,,,,,,,,,,,,,,,,,,,,,,,,,,,,,,,,,,,,,,,,
,,,,,,,,,,stimuli/images/PICTURE_405.png,PLENTY,574ce0a57fd0ec000db73aa6,08/03/1951,2020-07-09_17h03.28.616,proactive,2020.1.2,Win32,60,5f073de81c76c3308c0e4fb3,5f0793e4dd3a9b18eebdfdd3,2,,,,,,anchor,,,,,,0,34,34,23,1,3,1,,,,,,,,,,,,,,,,,,,,,,,,,,,,,,,,,,,,,,,,,,,,,,,,,,,,,,,,,,,,,,,,,,,,,,,,,,,
,,,,,,,,,,stimuli/images/PICTURE_339.png,CLIENT,574ce0a57fd0ec000db73aa6,08/03/1951,2020-07-09_17h03.28.616,proactive,2020.1.2,Win32,60,5f073de81c76c3308c0e4fb3,5f0793e4dd3a9b18eebdfdd3,2,,,,,,backpack,,,,,,0,35,35,11,1,2,1,,,,,,,,,,,,,,,,,,,,,,,,,,,,,,,,,,,,,,,,,,,,,,,,,,,,,,,,,,,,,,,,,,,,,,,,,,,
,,,,,,,,,,stimuli/images/PICTURE_491.png,RIVER,574ce0a57fd0ec000db73aa6,08/03/1951,2020-07-09_17h03.28.616,proactive,2020.1.2,Win32,60,5f073de81c76c3308c0e4fb3,5f0793e4dd3a9b18eebdfdd3,2,,,,,,rug,,,,,,0,36,36,6,1,1,1,,,,,,,,,,,,,,,,,,,,,,,,,,,,,,,,,,,,,,,,,,,,,,,,,,,,,,,,,,,,,,,,,,,,,,,,,,,
,,,,,,,,,,stimuli/images/PICTURE_32.png,PILLS,574ce0a57fd0ec000db73aa6,08/03/1951,2020-07-09_17h03.28.616,proactive,2020.1.2,Win32,60,5f073de81c76c3308c0e4fb3,5f0793e4dd3a9b18eebdfdd3,2,,,,,,crown,,,,,,0,37,37,18,1,2,1,,,,,,,,,,,,,,,,,,,,,,,,,,,,,,,,,,,,,,,,,,,,,,,,,,,,,,,,,,,,,,,,,,,,,,,,,,,
,,,,,,,,,,stimuli/images/PICTURE_177.png,WRITER,574ce0a57fd0ec000db73aa6,08/03/1951,2020-07-09_17h03.28.616,proactive,2020.1.2,Win32,60,5f073de81c76c3308c0e4fb3,5f0793e4dd3a9b18eebdfdd3,2,,,,,,mushroom,,,,,,0,38,38,41,1,5,1,,,,,,,,,,,,,,,,,,,,,,,,,,,,,,,,,,,,,,,,,,,,,,,,,,,,,,,,,,,,,,,,,,,,,,,,,,,
,,,,,,,,,,stimuli/images/PICTURE_469.png,AGENT,574ce0a57fd0ec000db73aa6,08/03/1951,2020-07-09_17h03.28.616,proactive,2020.1.2,Win32,60,5f073de81c76c3308c0e4fb3,5f0793e4dd3a9b18eebdfdd3,2,,,,,,stool,,,,,,0,39,39,16,1,2,1,,,,,,,,,,,,,,,,,,,,,,,,,,,,,,,,,,,,,,,,,,,,,,,,,,,,,,,,,,,,,,,,,,,,,,,,,,,
,,,,,,,,,,stimuli/images/PICTURE_467.png,POLICY,574ce0a57fd0ec000db73aa6,08/03/1951,2020-07-09_17h03.28.616,proactive,2020.1.2,Win32,60,5f073de81c76c3308c0e4fb3,5f0793e4dd3a9b18eebdfdd3,2,,,,,,peg,,,,,,0,40,40,53,1,6,1,,,,,,,,,,,,,,,,,,,,,,,,,,,,,,,,,,,,,,,,,,,,,,,,,,,,,,,,,,,,,,,,,,,,,,,,,,,
,,,,,,,,,,stimuli/images/PICTURE_491.png,GLASS,574ce0a57fd0ec000db73aa6,08/03/1951,2020-07-09_17h03.28.616,proactive,2020.1.2,Win32,60,5f073de81c76c3308c0e4fb3,5f0793e4dd3a9b18eebdfdd3,2,,,,,,rug,,,,,,0,41,41,14,1,2,1,,,,,,,,,,,,,,,,,,,,,,,,,,,,,,,,,,,,,,,,,,,,,,,,,,,,,,,,,,,,,,,,,,,,,,,,,,,
,,,,,,,,,,stimuli/images/PICTURE_564.png,BATH,574ce0a57fd0ec000db73aa6,08/03/1951,2020-07-09_17h03.28.616,proactive,2020.1.2,Win32,60,5f073de81c76c3308c0e4fb3,5f0793e4dd3a9b18eebdfdd3,2,,,,,,spoon,,,,,,0,42,42,26,1,3,1,,,,,,,,,,,,,,,,,,,,,,,,,,,,,,,,,,,,,,,,,,,,,,,,,,,,,,,,,,,,,,,,,,,,,,,,,,,
,,,,,,,,,,stimuli/images/PICTURE_95.png,MILLER,574ce0a57fd0ec000db73aa6,08/03/1951,2020-07-09_17h03.28.616,proactive,2020.1.2,Win32,60,5f073de81c76c3308c0e4fb3,5f0793e4dd3a9b18eebdfdd3,2,,,,,,suitcase,,,,,,0,43,43,56,1,6,1,,,,,,,,,,,,,,,,,,,,,,,,,,,,,,,,,,,,,,,,,,,,,,,,,,,,,,,,,,,,,,,,,,,,,,,,,,,
,,,,,,,,,,stimuli/images/PICTURE_449.png,DUDE,574ce0a57fd0ec000db73aa6,08/03/1951,2020-07-09_17h03.28.616,proactive,2020.1.2,Win32,60,5f073de81c76c3308c0e4fb3,5f0793e4dd3a9b18eebdfdd3,2,,,,,,bench,,,,,,0,44,44,17,1,2,1,,,,,,,,,,,,,,,,,,,,,,,,,,,,,,,,,,,,,,,,,,,,,,,,,,,,,,,,,,,,,,,,,,,,,,,,,,,
,,,,,,,,,,stimuli/images/PICTURE_233.png,LOTS,574ce0a57fd0ec000db73aa6,08/03/1951,2020-07-09_17h03.28.616,proactive,2020.1.2,Win32,60,5f073de81c76c3308c0e4fb3,5f0793e4dd3a9b18eebdfdd3,2,,,,,,salt,,,,,,0,45,45,42,1,5,1,,,,,,,,,,,,,,,,,,,,,,,,,,,,,,,,,,,,,,,,,,,,,,,,,,,,,,,,,,,,,,,,,,,,,,,,,,,
,,,,,,,,,,stimuli/images/PICTURE_504.png,ARTIST,574ce0a57fd0ec000db73aa6,08/03/1951,2020-07-09_17h03.28.616,proactive,2020.1.2,Win32,60,5f073de81c76c3308c0e4fb3,5f0793e4dd3a9b18eebdfdd3,2,,,,,,wheel,,,,,,0,46,46,49,1,5,1,,,,,,,,,,,,,,,,,,,,,,,,,,,,,,,,,,,,,,,,,,,,,,,,,,,,,,,,,,,,,,,,,,,,,,,,,,,
,,,,,,,,,,stimuli/images/PICTURE_108.png,POLICY,574ce0a57fd0ec000db73aa6,08/03/1951,2020-07-09_17h03.28.616,proactive,2020.1.2,Win32,60,5f073de81c76c3308c0e4fb3,5f0793e4dd3a9b18eebdfdd3,2,,,,,,calendar,,,,,,0,47,47,22,1,3,1,,,,,,,,,,,,,,,,,,,,,,,,,,,,,,,,,,,,,,,,,,,,,,,,,,,,,,,,,,,,,,,,,,,,,,,,,,,
,,,,,,,,,,stimuli/images/PICTURE_32.png,KIND,574ce0a57fd0ec000db73aa6,08/03/1951,2020-07-09_17h03.28.616,proactive,2020.1.2,Win32,60,5f073de81c76c3308c0e4fb3,5f0793e4dd3a9b18eebdfdd3,2,,,,,,crown,,,,,,0,48,48,35,1,4,1,,,,,,,,,,,,,,,,,,,,,,,,,,,,,,,,,,,,,,,,,,,,,,,,,,,,,,,,,,,,,,,,,,,,,,,,,,,
,,,,,,,,,,stimuli/images/PICTURE_147.png,WOMEN,574ce0a57fd0ec000db73aa6,08/03/1951,2020-07-09_17h03.28.616,proactive,2020.1.2,Win32,60,5f073de81c76c3308c0e4fb3,5f0793e4dd3a9b18eebdfdd3,2,,,,,,hanger,,,,,,0,49,49,7,1,1,1,,,,,,,,,,,,,,,,,,,,,,,,,,,,,,,,,,,,,,,,,,,,,,,,,,,,,,,,,,,,,,,,,,,,,,,,,,,
,,,,,,,,,,stimuli/images/PICTURE_655.png,TOILET,574ce0a57fd0ec000db73aa6,08/03/1951,2020-07-09_17h03.28.616,proactive,2020.1.2,Win32,60,5f073de81c76c3308c0e4fb3,5f0793e4dd3a9b18eebdfdd3,2,,,,,,megaphone,,,,,,0,50,50,12,1,2,1,,,,,,,,,,,,,,,,,,,,,,,,,,,,,,,,,,,,,,,,,,,,,,,,,,,,,,,,,,,,,,,,,,,,,,,,,,,
,,,,,,,,,,stimuli/images/PICTURE_296.png,LOTS,574ce0a57fd0ec000db73aa6,08/03/1951,2020-07-09_17h03.28.616,proactive,2020.1.2,Win32,60,5f073de81c76c3308c0e4fb3,5f0793e4dd3a9b18eebdfdd3,2,,,,,,bolt,,,,,,0,51,51,9,1,1,1,,,,,,,,,,,,,,,,,,,,,,,,,,,,,,,,,,,,,,,,,,,,,,,,,,,,,,,,,,,,,,,,,,,,,,,,,,,
,,,,,,,,,,stimuli/images/PICTURE_42.png,BOYS,574ce0a57fd0ec000db73aa6,08/03/1951,2020-07-09_17h03.28.616,proactive,2020.1.2,Win32,60,5f073de81c76c3308c0e4fb3,5f0793e4dd3a9b18eebdfdd3,2,,,,,,pear,,,,,,0,52,52,55,1,6,1,,,,,,,,,,,,,,,,,,,,,,,,,,,,,,,,,,,,,,,,,,,,,,,,,,,,,,,,,,,,,,,,,,,,,,,,,,,
,,,,,,,,,,stimuli/images/PICTURE_405.png,YEAR,574ce0a57fd0ec000db73aa6,08/03/1951,2020-07-09_17h03.28.616,proactive,2020.1.2,Win32,60,5f073de81c76c3308c0e4fb3,5f0793e4dd3a9b18eebdfdd3,2,,,,,,anchor,,,,,,0,53,53,34,1,4,1,,,,,,,,,,,,,,,,,,,,,,,,,,,,,,,,,,,,,,,,,,,,,,,,,,,,,,,,,,,,,,,,,,,,,,,,,,,
,,,,,,,,,,stimuli/images/PICTURE_208.png,SYSTEM,574ce0a57fd0ec000db73aa6,08/03/1951,2020-07-09_17h03.28.616,proactive,2020.1.2,Win32,60,5f073de81c76c3308c0e4fb3,5f0793e4dd3a9b18eebdfdd3,2,,,,,,microphone,,,,,,0,54,54,32,1,4,1,,,,,,,,,,,,,,,,,,,,,,,,,,,,,,,,,,,,,,,,,,,,,,,,,,,,,,,,,,,,,,,,,,,,,,,,,,,
,,,,,,,,,,stimuli/images/PICTURE_85.png,TOILET,574ce0a57fd0ec000db73aa6,08/03/1951,2020-07-09_17h03.28.616,proactive,2020.1.2,Win32,60,5f073de81c76c3308c0e4fb3,5f0793e4dd3a9b18eebdfdd3,2,,,,,,diamond,,,,,,0,55,55,48,1,5,1,,,,,,,,,,,,,,,,,,,,,,,,,,,,,,,,,,,,,,,,,,,,,,,,,,,,,,,,,,,,,,,,,,,,,,,,,,,
,,,,,,,,,,stimuli/images/PICTURE_33.png,FRIEND,574ce0a57fd0ec000db73aa6,08/03/1951,2020-07-09_17h03.28.616,proactive,2020.1.2,Win32,60,5f073de81c76c3308c0e4fb3,5f0793e4dd3a9b18eebdfdd3,2,,,,,,frame,,,,,,0,56,56,8,1,1,1,,,,,,,,,,,,,,,,,,,,,,,,,,,,,,,,,,,,,,,,,,,,,,,,,,,,,,,,,,,,,,,,,,,,,,,,,,,
,,,,,,,,,,stimuli/images/PICTURE_85.png,NATION,574ce0a57fd0ec000db73aa6,08/03/1951,2020-07-09_17h03.28.616,proactive,2020.1.2,Win32,60,5f073de81c76c3308c0e4fb3,5f0793e4dd3a9b18eebdfdd3,2,,,,,,diamond,,,,,,0,57,57,5,1,1,1,,,,,,,,,,,,,,,,,,,,,,,,,,,,,,,,,,,,,,,,,,,,,,,,,,,,,,,,,,,,,,,,,,,,,,,,,,,
,,,,,,,,,,stimuli/images/PICTURE_327.png,CASINO,574ce0a57fd0ec000db73aa6,08/03/1951,2020-07-09_17h03.28.616,proactive,2020.1.2,Win32,60,5f073de81c76c3308c0e4fb3,5f0793e4dd3a9b18eebdfdd3,2,,,,,,helmet,,,,,,0,58,58,20,1,3,1,,,,,,,,,,,,,,,,,,,,,,,,,,,,,,,,,,,,,,,,,,,,,,,,,,,,,,,,,,,,,,,,,,,,,,,,,,,
,,?,0.00086,0,,,,,,stimuli/images/PICTURE_504.png,ARTIST,574ce0a57fd0ec000db73aa6,08/03/1951,2020-07-09_17h03.28.616,proactive,2020.1.2,Win32,60,5f073de81c76c3308c0e4fb3,5f0793e4dd3a9b18eebdfdd3,2,,,,,,wheel,,,,,,,,,,,5,1,0,0,0,49,1,,,,,,,,,,,,,,,,,,,,,,,,,,,,,,,,,,,,,,,,,,,,,,,,,,,,,,,,,,,,,,,,,,,,,,
,,?,0.000855,0,,,,,,stimuli/images/PICTURE_383.png,WRITER,574ce0a57fd0ec000db73aa6,08/03/1951,2020-07-09_17h03.28.616,proactive,2020.1.2,Win32,60,5f073de81c76c3308c0e4fb3,5f0793e4dd3a9b18eebdfdd3,2,,,,,,coin,,,,,,,,,,,3,1,0,1,1,28,1,,,,,,,,,,,,,,,,,,,,,,,,,,,,,,,,,,,,,,,,,,,,,,,,,,,,,,,,,,,,,,,,,,,,,,
,,?,0.00085,0,,,,,,stimuli/images/PICTURE_68.png,MILE,574ce0a57fd0ec000db73aa6,08/03/1951,2020-07-09_17h03.28.616,proactive,2020.1.2,Win32,60,5f073de81c76c3308c0e4fb3,5f0793e4dd3a9b18eebdfdd3,2,,,,,,candle,,,,,,,,,,,6,1,0,2,2,51,1,,,,,,,,,,,,,,,,,,,,,,,,,,,,,,,,,,,,,,,,,,,,,,,,,,,,,,,,,,,,,,,,,,,,,,
,,?,0.00085,0,,,,,,stimuli/images/PICTURE_308.png,FAMILY,574ce0a57fd0ec000db73aa6,08/03/1951,2020-07-09_17h03.28.616,proactive,2020.1.2,Win32,60,5f073de81c76c3308c0e4fb3,5f0793e4dd3a9b18eebdfdd3,2,,,,,,dice,,,,,,,,,,,4,1,0,3,3,36,1,,,,,,,,,,,,,,,,,,,,,,,,,,,,,,,,,,,,,,,,,,,,,,,,,,,,,,,,,,,,,,,,,,,,,,
,,?,0.00105,0,,,,,,stimuli/images/PICTURE_95.png,MILLER,574ce0a57fd0ec000db73aa6,08/03/1951,2020-07-09_17h03.28.616,proactive,2020.1.2,Win32,60,5f073de81c76c3308c0e4fb3,5f0793e4dd3a9b18eebdfdd3,2,,,,,,suitcase,,,,,,,,,,,6,1,0,4,4,56,1,,,,,,,,,,,,,,,,,,,,,,,,,,,,,,,,,,,,,,,,,,,,,,,,,,,,,,,,,,,,,,,,,,,,,,
,,?,0.000765,0,,,,,,stimuli/images/PICTURE_675.png,SALE,574ce0a57fd0ec000db73aa6,08/03/1951,2020-07-09_17h03.28.616,proactive,2020.1.2,Win32,60,5f073de81c76c3308c0e4fb3,5f0793e4dd3a9b18eebdfdd3,2,,,,,,windmill,,,,,,,,,,,5,1,0,5,5,47,1,,,,,,,,,,,,,,,,,,,,,,,,,,,,,,,,,,,,,,,,,,,,,,,,,,,,,,,,,,,,,,,,,,,,,,
,,?,0.00078,0,,,,,,stimuli/images/PICTURE_85.png,TOILET,574ce0a57fd0ec000db73aa6,08/03/1951,2020-07-09_17h03.28.616,proactive,2020.1.2,Win32,60,5f073de81c76c3308c0e4fb3,5f0793e4dd3a9b18eebdfdd3,2,,,,,,diamond,,,,,,,,,,,5,1,0,6,6,48,1,,,,,,,,,,,,,,,,,,,,,,,,,,,,,,,,,,,,,,,,,,,,,,,,,,,,,,,,,,,,,,,,,,,,,,
,,?,0.000845,0,,,,,,stimuli/images/PICTURE_296.png,LIFE,574ce0a57fd0ec000db73aa6,08/03/1951,2020-07-09_17h03.28.616,proactive,2020.1.2,Win32,60,5f073de81c76c3308c0e4fb3,5f0793e4dd3a9b18eebdfdd3,2,,,,,,bolt,,,,,,,,,,,6,1,0,7,7,57,1,,,,,,,,,,,,,,,,,,,,,,,,,,,,,,,,,,,,,,,,,,,,,,,,,,,,,,,,,,,,,,,,,,,,,,
,,?,0.00076,0,,,,,,stimuli/images/PICTURE_108.png,POLICY,574ce0a57fd0ec000db73aa6,08/03/1951,2020-07-09_17h03.28.616,proactive,2020.1.2,Win32,60,5f073de81c76c3308c0e4fb3,5f0793e4dd3a9b18eebdfdd3,2,,,,,,calendar,,,,,,,,,,,3,1,0,8,8,22,1,,,,,,,,,,,,,,,,,,,,,,,,,,,,,,,,,,,,,,,,,,,,,,,,,,,,,,,,,,,,,,,,,,,,,,
,,?,0.000875,0,,,,,,stimuli/images/PICTURE_677.png,APPLE,574ce0a57fd0ec000db73aa6,08/03/1951,2020-07-09_17h03.28.616,proactive,2020.1.2,Win32,60,5f073de81c76c3308c0e4fb3,5f0793e4dd3a9b18eebdfdd3,2,,,,,,map,,,,,,,,,,,5,1,0,9,9,43,1,,,,,,,,,,,,,,,,,,,,,,,,,,,,,,,,,,,,,,,,,,,,,,,,,,,,,,,,,,,,,,,,,,,,,,
,,?,0.000875,0,,,,,,stimuli/images/PICTURE_708.png,RECORD,574ce0a57fd0ec000db73aa6,08/03/1951,2020-07-09_17h03.28.616,proactive,2020.1.2,Win32,60,5f073de81c76c3308c0e4fb3,5f0793e4dd3a9b18eebdfdd3,2,,,,,,monkey,,,,,,,,,,,6,1,0,10,10,58,1,,,,,,,,,,,,,,,,,,,,,,,,,,,,,,,,,,,,,,,,,,,,,,,,,,,,,,,,,,,,,,,,,,,,,,
,,?,0.00097,0,,,,,,stimuli/images/PICTURE_327.png,SERIES,574ce0a57fd0ec000db73aa6,08/03/1951,2020-07-09_17h03.28.616,proactive,2020.1.2,Win32,60,5f073de81c76c3308c0e4fb3,5f0793e4dd3a9b18eebdfdd3,2,,,,,,helmet,,,,,,,,,,,1,1,0,11,11,3,1,,,,,,,,,,,,,,,,,,,,,,,,,,,,,,,,,,,,,,,,,,,,,,,,,,,,,,,,,,,,,,,,,,,,,,
,,?,0.000905,0,,,,,,stimuli/images/PICTURE_85.png,NATION,574ce0a57fd0ec000db73aa6,08/03/1951,2020-07-09_17h03.28.616,proactive,2020.1.2,Win32,60,5f073de81c76c3308c0e4fb3,5f0793e4dd3a9b18eebdfdd3,2,,,,,,diamond,,,,,,,,,,,1,1,0,12,12,5,1,,,,,,,,,,,,,,,,,,,,,,,,,,,,,,,,,,,,,,,,,,,,,,,,,,,,,,,,,,,,,,,,,,,,,,
,,PILLS,2.43843,1,,,,,,stimuli/images/PICTURE_32.png,PILLS,574ce0a57fd0ec000db73aa6,08/03/1951,2020-07-09_17h03.28.616,proactive,2020.1.2,Win32,60,5f073de81c76c3308c0e4fb3,5f0793e4dd3a9b18eebdfdd3,2,,,,,,crown,,,,,,,,,,,2,1,0,13,13,18,1,,,,,,,,,,,,,,,,,,,,,,,,,,,,,,,,,,,,,,,,,,,,,,,,,,,,,,,,,,,,,,,,,,,,,,
,,?,0.00109,0,,,,,,stimuli/images/PICTURE_296.png,LOTS,574ce0a57fd0ec000db73aa6,08/03/1951,2020-07-09_17h03.28.616,proactive,2020.1.2,Win32,60,5f073de81c76c3308c0e4fb3,5f0793e4dd3a9b18eebdfdd3,2,,,,,,bolt,,,,,,,,,,,1,1,0,14,14,9,1,,,,,,,,,,,,,,,,,,,,,,,,,,,,,,,,,,,,,,,,,,,,,,,,,,,,,,,,,,,,,,,,,,,,,,
,,?,0.00085,0,,,,,,stimuli/images/PICTURE_147.png,WOMEN,574ce0a57fd0ec000db73aa6,08/03/1951,2020-07-09_17h03.28.616,proactive,2020.1.2,Win32,60,5f073de81c76c3308c0e4fb3,5f0793e4dd3a9b18eebdfdd3,2,,,,,,hanger,,,,,,,,,,,1,1,0,15,15,7,1,,,,,,,,,,,,,,,,,,,,,,,,,,,,,,,,,,,,,,,,,,,,,,,,,,,,,,,,,,,,,,,,,,,,,,
,,?,0.000855,0,,,,,,stimuli/images/PICTURE_95.png,HONEY,574ce0a57fd0ec000db73aa6,08/03/1951,2020-07-09_17h03.28.616,proactive,2020.1.2,Win32,60,5f073de81c76c3308c0e4fb3,5f0793e4dd3a9b18eebdfdd3,2,,,,,,suitcase,,,,,,,,,,,5,1,0,16,16,44,1,,,,,,,,,,,,,,,,,,,,,,,,,,,,,,,,,,,,,,,,,,,,,,,,,,,,,,,,,,,,,,,,,,,,,,
