consent_key.keys,consent_key.rt,recalled,recalled_rt,recall_acc,example_recall.thisRepN,example_recall.thisTrialN,example_recall.thisN,example_recall.thisIndex,example_recall.ran,file,word,participant,please enter your date of birth (dd/mm/yyyy),date,expName,psychopyVersion,OS,frameRate,STUDY_ID,SESSION_ID,list,prac_learn_study_loop.thisRepN,prac_learn_study_loop.thisTrialN,prac_learn_study_loop.thisN,prac_learn_study_loop.thisIndex,prac_learn_study_loop.ran,image,prac_learn_test_loop.thisRepN,prac_learn_test_loop.thisTrialN,prac_learn_test_loop.thisN,prac_learn_test_loop.thisIndex,prac_learn_test_loop.ran,learn_study_loop.thisRepN,learn_study_loop.thisTrialN,learn_study_loop.thisN,learn_study_loop.thisIndex,learn_study_loop.ran,list_no,block_no,learn_test_loop.thisRepN,learn_test_loop.thisTrialN,learn_test_loop.thisN,learn_test_loop.thisIndex,learn_test_loop.ran,learn_blocks.thisRepN,learn_blocks.thisTrialN,learn_blocks.thisN,learn_blocks.thisIndex,learn_blocks.ran,block_csv,key_resp_13.keys,key_resp_13.rt,learn_blocks_loop.thisRepN,learn_blocks_loop.thisTrialN,learn_blocks_loop.thisN,learn_blocks_loop.thisIndex,learn_blocks_loop.ran,final_learn_test.thisRepN,final_learn_test.thisTrialN,final_learn_test.thisN,final_learn_test.thisIndex,final_learn_test.ran,prac_wm_test_loop.thisRepN,prac_wm_test_loop.thisTrialN,prac_wm_test_loop.thisN,prac_wm_test_loop.thisIndex,prac_wm_test_loop.ran,wm_recalled1,wm_recall_rt1,wm_probed1,wm_recall_acc1,wm_recalled2,wm_recall_rt2,wm_probed2,wm_recall_acc2,wm_recalled3,wm_recall_rt3,wm_probed3,wm_recall_acc3,wm_recalled4,wm_recall_rt4,wm_probed4,wm_recall_acc4,prac_wm_trial_loop.thisRepN,prac_wm_trial_loop.thisTrialN,prac_wm_trial_loop.thisN,prac_wm_trial_loop.thisIndex,prac_wm_trial_loop.ran,word1,image1,file1,item_type1,word2,image2,file2,item_type2,word4,image4,file4,item_type4,word3,image3,file3,item_type3,wm_test_loop.thisRepN,wm_test_loop.thisTrialN,wm_test_loop.thisN,wm_test_loop.thisIndex,wm_test_loop.ran,wm_trial_loop.thisRepN,wm_trial_loop.thisTrialN,wm_trial_loop.thisN,wm_trial_loop.thisIndex,wm_trial_loop.ran
y,9.30724,?,15.00952,0,0,0,0,0,1,stimuli/images/PICTURE_747.png,TOUGH,5973bad6e703200001ad2b86,25/09/1953,2020-07-09_19h03.50.466,proactive,2020.1.2,Win32,60,5f073de81c76c3308c0e4fb3,5f075b5cc10cab343d94746b,3,,,,,,,,,,,,,,,,,,,,,,,,,,,,,,,,,,,,,,,,,,,,,,,,,,,,,,,,,,,,,,,,,,,,,,,,,,,,,,,,,,,,,,,,,,,,,
,,,,,,,,,,stimuli/images/PICTURE_727.png,CELL,5973bad6e703200001ad2b86,25/09/1953,2020-07-09_19h03.50.466,proactive,2020.1.2,Win32,60,5f073de81c76c3308c0e4fb3,5f075b5cc10cab343d94746b,3,0,0,0,1,1,hose,,,,,,,,,,,,,,,,,,,,,,,,,,,,,,,,,,,,,,,,,,,,,,,,,,,,,,,,,,,,,,,,,,,,,,,,,,,,,,,,,,,,,,,
,,,,,,,,,,stimuli/images/PICTURE_269.png,GENIUS,5973bad6e703200001ad2b86,25/09/1953,2020-07-09_19h03.50.466,proactive,2020.1.2,Win32,60,5f073de81c76c3308c0e4fb3,5f075b5cc10cab343d94746b,3,0,1,1,0,1,chameleon,,,,,,,,,,,,,,,,,,,,,,,,,,,,,,,,,,,,,,,,,,,,,,,,,,,,,,,,,,,,,,,,,,,,,,,,,,,,,,,,,,,,,,,
,,,,,,,,,,stimuli/images/PICTURE_378.png,LOSS,5973bad6e703200001ad2b86,25/09/1953,2020-07-09_19h03.50.466,proactive,2020.1.2,Win32,60,5f073de81c76c3308c0e4fb3,5f075b5cc10cab343d94746b,3,0,2,2,2,1,lobster,,,,,,,,,,,,,,,,,,,,,,,,,,,,,,,,,,,,,,,,,,,,,,,,,,,,,,,,,,,,,,,,,,,,,,,,,,,,,,,,,,,,,,,
,,,,,,,,,,stimuli/images/PICTURE_658.png,DEVIL,5973bad6e703200001ad2b86,25/09/1953,2020-07-09_19h03.50.466,proactive,2020.1.2,Win32,60,5f073de81c76c3308c0e4fb3,5f075b5cc10cab343d94746b,3,0,3,3,3,1,crow,,,,,,,,,,,,,,,,,,,,,,,,,,,,,,,,,,,,,,,,,,,,,,,,,,,,,,,,,,,,,,,,,,,,,,,,,,,,,,,,,,,,,,,
,,KILLER,15.011185,1,,,,,,stimuli/images/PICTURE_697.png,KILLER,5973bad6e703200001ad2b86,25/09/1953,2020-07-09_19h03.50.466,proactive,2020.1.2,Win32,60,5f073de81c76c3308c0e4fb3,5f075b5cc10cab343d94746b,3,,,,,,peach,0,0,0,4,1,,,,,,,,,,,,,,,,,,,,,,,,,,,,,,,,,,,,,,,,,,,,,,,,,,,,,,,,,,,,,,,,,,,,,,,,,,,,,,,,,,
,,DEVIL,9.09246,0,,,,,,stimuli/images/PICTURE_269.png,GENIUS,5973bad6e703200001ad2b86,25/09/1953,2020-07-09_19h03.50.466,proactive,2020.1.2,Win32,60,5f073de81c76c3308c0e4fb3,5f075b5cc10cab343d94746b,3,,,,,,chameleon,0,1,1,0,1,,,,,,,,,,,,,,,,,,,,,,,,,,,,,,,,,,,,,,,,,,,,,,,,,,,,,,,,,,,,,,,,,,,,,,,,,,,,,,,,,,
,,DEVIL,15.01794,1,,,,,,stimuli/images/PICTURE_658.png,DEVIL,5973bad6e703200001ad2b86,25/09/1953,2020-07-09_19h03.50.466,proactive,2020.1.2,Win32,60,5f073de81c76c3308c0e4fb3,5f075b5cc10cab343d94746b,3,,,,,,crow,0,2,2,3,1,,,,,,,,,,,,,,,,,,,,,,,,,,,,,,,,,,,,,,,,,,,,,,,,,,,,,,,,,,,,,,,,,,,,,,,,,,,,,,,,,,
,,CELL,15.015015,1,,,,,,stimuli/images/PICTURE_727.png,CELL,5973bad6e703200001ad2b86,25/09/1953,2020-07-09_19h03.50.466,proactive,2020.1.2,Win32,60,5f073de81c76c3308c0e4fb3,5f075b5cc10cab343d94746b,3,,,,,,hose,0,3,3,1,1,,,,,,,,,,,,,,,,,,,,,,,,,,,,,,,,,,,,,,,,,,,,,,,,,,,,,,,,,,,,,,,,,,,,,,,,,,,,,,,,,,
,,GENIUS,15.014345,0,,,,,,stimuli/images/PICTURE_378.png,LOSS,5973bad6e703200001ad2b86,25/09/1953,2020-07-09_19h03.50.466,proactive,2020.1.2,Win32,60,5f073de81c76c3308c0e4fb3,5f075b5cc10cab343d94746b,3,,,,,,lobster,0,4,4,2,1,,,,,,,,,,,,,,,,,,,,,,,,,,,,,,,,,,,,,,,,,,,,,,,,,,,,,,,,,,,,,,,,,,,,,,,,,,,,,,,,,,
,,,,,,,,,,stimuli/images/PICTURE_356.png,DANGER,5973bad6e703200001ad2b86,25/09/1953,2020-07-09_19h03.50.466,proactive,2020.1.2,Win32,60,5f073de81c76c3308c0e4fb3,5f075b5cc10cab343d94746b,3,,,,,,pawn,,,,,,0,0,0,55,1,6,0,,,,,,,,,,,,,,,,,,,,,,,,,,,,,,,,,,,,,,,,,,,,,,,,,,,,,,,,,,,,,,,,,,,,,,,,,,,
,,,,,,,,,,stimuli/images/PICTURE_744.png,SAKE,5973bad6e703200001ad2b86,25/09/1953,2020-07-09_19h03.50.466,proactive,2020.1.2,Win32,60,5f073de81c76c3308c0e4fb3,5f075b5cc10cab343d94746b,3,,,,,,ring,,,,,,0,1,1,17,1,2,0,,,,,,,,,,,,,,,,,,,,,,,,,,,,,,,,,,,,,,,,,,,,,,,,,,,,,,,,,,,,,,,,,,,,,,,,,,,
,,,,,,,,,,stimuli/images/PICTURE_215.png,PLENTY,5973bad6e703200001ad2b86,25/09/1953,2020-07-09_19h03.50.466,proactive,2020.1.2,Win32,60,5f073de81c76c3308c0e4fb3,5f075b5cc10cab343d94746b,3,,,,,,boot,,,,,,0,2,2,37,1,4,0,,,,,,,,,,,,,,,,,,,,,,,,,,,,,,,,,,,,,,,,,,,,,,,,,,,,,,,,,,,,,,,,,,,,,,,,,,,
,,,,,,,,,,stimuli/images/PICTURE_744.png,SYSTEM,5973bad6e703200001ad2b86,25/09/1953,2020-07-09_19h03.50.466,proactive,2020.1.2,Win32,60,5f073de81c76c3308c0e4fb3,5f075b5cc10cab343d94746b,3,,,,,,ring,,,,,,0,3,3,43,1,5,0,,,,,,,,,,,,,,,,,,,,,,,,,,,,,,,,,,,,,,,,,,,,,,,,,,,,,,,,,,,,,,,,,,,,,,,,,,,
,,,,,,,,,,stimuli/images/PICTURE_248.png,DOZEN,5973bad6e703200001ad2b86,25/09/1953,2020-07-09_19h03.50.466,proactive,2020.1.2,Win32,60,5f073de81c76c3308c0e4fb3,5f075b5cc10cab343d94746b,3,,,,,,cart,,,,,,0,4,4,39,1,4,0,,,,,,,,,,,,,,,,,,,,,,,,,,,,,,,,,,,,,,,,,,,,,,,,,,,,,,,,,,,,,,,,,,,,,,,,,,,
,,,,,,,,,,stimuli/images/PICTURE_68.png,MILE,5973bad6e703200001ad2b86,25/09/1953,2020-07-09_19h03.50.466,proactive,2020.1.2,Win32,60,5f073de81c76c3308c0e4fb3,5f075b5cc10cab343d94746b,3,,,,,,candle,,,,,,0,5,5,44,1,5,0,,,,,,,,,,,,,,,,,,,,,,,,,,,,,,,,,,,,,,,,,,,,,,,,,,,,,,,,,,,,,,,,,,,,,,,,,,,
,,,,,,,,,,stimuli/images/PICTURE_311.png,BEAUTY,5973bad6e703200001ad2b86,25/09/1953,2020-07-09_19h03.50.466,proactive,2020.1.2,Win32,60,5f073de81c76c3308c0e4fb3,5f075b5cc10cab343d94746b,3,,,,,,razor,,,,,,0,6,6,13,1,2,0,,,,,,,,,,,,,,,,,,,,,,,,,,,,,,,,,,,,,,,,,,,,,,,,,,,,,,,,,,,,,,,,,,,,,,,,,,,
,,,,,,,,,,stimuli/images/PICTURE_491.png,ROOF,5973bad6e703200001ad2b86,25/09/1953,2020-07-09_19h03.50.466,proactive,2020.1.2,Win32,60,5f073de81c76c3308c0e4fb3,5f075b5cc10cab343d94746b,3,,,,,,rug,,,,,,0,7,7,24,1,3,0,,,,,,,,,,,,,,,,,,,,,,,,,,,,,,,,,,,,,,,,,,,,,,,,,,,,,,,,,,,,,,,,,,,,,,,,,,,
,,,,,,,,,,stimuli/images/PICTURE_708.png,YARD,5973bad6e703200001ad2b86,25/09/1953,2020-07-09_19h03.50.466,proactive,2020.1.2,Win32,60,5f073de81c76c3308c0e4fb3,5f075b5cc10cab343d94746b,3,,,,,,monkey,,,,,,0,8,8,29,1,3,0,,,,,,,,,,,,,,,,,,,,,,,,,,,,,,,,,,,,,,,,,,,,,,,,,,,,,,,,,,,,,,,,,,,,,,,,,,,
,,,,,,,,,,stimuli/images/PICTURE_380.png,DEATH,5973bad6e703200001ad2b86,25/09/1953,2020-07-09_19h03.50.466,proactive,2020.1.2,Win32,60,5f073de81c76c3308c0e4fb3,5f075b5cc10cab343d94746b,3,,,,,,gorilla,,,,,,0,9,9,49,1,5,0,,,,,,,,,,,,,,,,,,,,,,,,,,,,,,,,,,,,,,,,,,,,,,,,,,,,,,,,,,,,,,,,,,,,,,,,,,,
,,,,,,,,,,stimuli/images/PICTURE_504.png,BODY,5973bad6e703200001ad2b86,25/09/1953,2020-07-09_19h03.50.466,proactive,2020.1.2,Win32,60,5f073de81c76c3308c0e4fb3,5f075b5cc10cab343d94746b,3,,,,,,wheel,,,,,,0,10,10,8,1,1,0,,,,,,,,,,,,,,,,,,,,,,,,,,,,,,,,,,,,,,,,,,,,,,,,,,,,,,,,,,,,,,,,,,,,,,,,,,,
,,,,,,,,,,stimuli/images/PICTURE_233.png,WOMEN,5973bad6e703200001ad2b86,25/09/1953,2020-07-09_19h03.50.466,proactive,2020.1.2,Win32,60,5f073de81c76c3308c0e4fb3,5f075b5cc10cab343d94746b,3,,,,,,salt,,,,,,0,11,11,38,1,4,0,,,,,,,,,,,,,,,,,,,,,,,,,,,,,,,,,,,,,,,,,,,,,,,,,,,,,,,,,,,,,,,,,,,,,,,,,,,
,,,,,,,,,,stimuli/images/PICTURE_380.png,PHOTO,5973bad6e703200001ad2b86,25/09/1953,2020-07-09_19h03.50.466,proactive,2020.1.2,Win32,60,5f073de81c76c3308c0e4fb3,5f075b5cc10cab343d94746b,3,,,,,,gorilla,,,,,,0,12,12,52,1,6,0,,,,,,,,,,,,,,,,,,,,,,,,,,,,,,,,,,,,,,,,,,,,,,,,,,,,,,,,,,,,,,,,,,,,,,,,,,,
,,,,,,,,,,stimuli/images/PICTURE_151.png,GIRL,5973bad6e703200001ad2b86,25/09/1953,2020-07-09_19h03.50.466,proactive,2020.1.2,Win32,60,5f073de81c76c3308c0e4fb3,5f075b5cc10cab343d94746b,3,,,,,,tray,,,,,,0,13,13,19,1,2,0,,,,,,,,,,,,,,,,,,,,,,,,,,,,,,,,,,,,,,,,,,,,,,,,,,,,,,,,,,,,,,,,,,,,,,,,,,,
,,,,,,,,,,stimuli/images/PICTURE_203.png,ARTIST,5973bad6e703200001ad2b86,25/09/1953,2020-07-09_19h03.50.466,proactive,2020.1.2,Win32,60,5f073de81c76c3308c0e4fb3,5f075b5cc10cab343d94746b,3,,,,,,cap,,,,,,0,14,14,26,1,3,0,,,,,,,,,,,,,,,,,,,,,,,,,,,,,,,,,,,,,,,,,,,,,,,,,,,,,,,,,,,,,,,,,,,,,,,,,,,
,,,,,,,,,,stimuli/images/PICTURE_675.png,WEAPON,5973bad6e703200001ad2b86,25/09/1953,2020-07-09_19h03.50.466,proactive,2020.1.2,Win32,60,5f073de81c76c3308c0e4fb3,5f075b5cc10cab343d94746b,3,,,,,,windmill,,,,,,0,15,15,32,1,4,0,,,,,,,,,,,,,,,,,,,,,,,,,,,,,,,,,,,,,,,,,,,,,,,,,,,,,,,,,,,,,,,,,,,,,,,,,,,
,,,,,,,,,,stimuli/images/PICTURE_308.png,ESTATE,5973bad6e703200001ad2b86,25/09/1953,2020-07-09_19h03.50.466,proactive,2020.1.2,Win32,60,5f073de81c76c3308c0e4fb3,5f075b5cc10cab343d94746b,3,,,,,,dice,,,,,,0,16,16,46,1,5,0,,,,,,,,,,,,,,,,,,,,,,,,,,,,,,,,,,,,,,,,,,,,,,,,,,,,,,,,,,,,,,,,,,,,,,,,,,,
,,,,,,,,,,stimuli/images/PICTURE_688.png,CASINO,5973bad6e703200001ad2b86,25/09/1953,2020-07-09_19h03.50.466,proactive,2020.1.2,Win32,60,5f073de81c76c3308c0e4fb3,5f075b5cc10cab343d94746b,3,,,,,,runner,,,,,,0,17,17,2,1,1,0,,,,,,,,,,,,,,,,,,,,,,,,,,,,,,,,,,,,,,,,,,,,,,,,,,,,,,,,,,,,,,,,,,,,,,,,,,,
,,,,,,,,,,stimuli/images/PICTURE_667.png,PLENTY,5973bad6e703200001ad2b86,25/09/1953,2020-07-09_19h03.50.466,proactive,2020.1.2,Win32,60,5f073de81c76c3308c0e4fb3,5f075b5cc10cab343d94746b,3,,,,,,daisy,,,,,,0,18,18,41,1,5,0,,,,,,,,,,,,,,,,,,,,,,,,,,,,,,,,,,,,,,,,,,,,,,,,,,,,,,,,,,,,,,,,,,,,,,,,,,,
,,,,,,,,,,stimuli/images/PICTURE_147.png,MOMENT,5973bad6e703200001ad2b86,25/09/1953,2020-07-09_19h03.50.466,proactive,2020.1.2,Win32,60,5f073de81c76c3308c0e4fb3,5f075b5cc10cab343d94746b,3,,,,,,hanger,,,,,,0,19,19,51,1,6,0,,,,,,,,,,,,,,,,,,,,,,,,,,,,,,,,,,,,,,,,,,,,,,,,,,,,,,,,,,,,,,,,,,,,,,,,,,,
,,,,,,,,,,stimuli/images/PICTURE_32.png,JUNGLE,5973bad6e703200001ad2b86,25/09/1953,2020-07-09_19h03.50.466,proactive,2020.1.2,Win32,60,5f073de81c76c3308c0e4fb3,5f075b5cc10cab343d94746b,3,,,,,,crown,,,,,,0,20,20,45,1,5,0,,,,,,,,,,,,,,,,,,,,,,,,,,,,,,,,,,,,,,,,,,,,,,,,,,,,,,,,,,,,,,,,,,,,,,,,,,,
,,,,,,,,,,stimuli/images/PICTURE_208.png,THING,5973bad6e703200001ad2b86,25/09/1953,2020-07-09_19h03.50.466,proactive,2020.1.2,Win32,60,5f073de81c76c3308c0e4fb3,5f075b5cc10cab343d94746b,3,,,,,,microphone,,,,,,0,21,21,47,1,5,0,,,,,,,,,,,,,,,,,,,,,,,,,,,,,,,,,,,,,,,,,,,,,,,,,,,,,,,,,,,,,,,,,,,,,,,,,,,
,,,,,,,,,,stimuli/images/PICTURE_311.png,FRIEND,5973bad6e703200001ad2b86,25/09/1953,2020-07-09_19h03.50.466,proactive,2020.1.2,Win32,60,5f073de81c76c3308c0e4fb3,5f075b5cc10cab343d94746b,3,,,,,,razor,,,,,,0,22,22,34,1,4,0,,,,,,,,,,,,,,,,,,,,,,,,,,,,,,,,,,,,,,,,,,,,,,,,,,,,,,,,,,,,,,,,,,,,,,,,,,,
,,,,,,,,,,stimuli/images/PICTURE_487.png,FLIGHT,5973bad6e703200001ad2b86,25/09/1953,2020-07-09_19h03.50.466,proactive,2020.1.2,Win32,60,5f073de81c76c3308c0e4fb3,5f075b5cc10cab343d94746b,3,,,,,,basket,,,,,,0,23,23,9,1,1,0,,,,,,,,,,,,,,,,,,,,,,,,,,,,,,,,,,,,,,,,,,,,,,,,,,,,,,,,,,,,,,,,,,,,,,,,,,,
,,,,,,,,,,stimuli/images/PICTURE_467.png,DEMON,5973bad6e703200001ad2b86,25/09/1953,2020-07-09_19h03.50.466,proactive,2020.1.2,Win32,60,5f073de81c76c3308c0e4fb3,5f075b5cc10cab343d94746b,3,,,,,,peg,,,,,,0,24,24,23,1,3,0,,,,,,,,,,,,,,,,,,,,,,,,,,,,,,,,,,,,,,,,,,,,,,,,,,,,,,,,,,,,,,,,,,,,,,,,,,,
,,,,,,,,,,stimuli/images/PICTURE_654.png,VALLEY,5973bad6e703200001ad2b86,25/09/1953,2020-07-09_19h03.50.466,proactive,2020.1.2,Win32,60,5f073de81c76c3308c0e4fb3,5f075b5cc10cab343d94746b,3,,,,,,pencil,,,,,,0,25,25,1,1,1,0,,,,,,,,,,,,,,,,,,,,,,,,,,,,,,,,,,,,,,,,,,,,,,,,,,,,,,,,,,,,,,,,,,,,,,,,,,,
,,,,,,,,,,stimuli/images/PICTURE_470.png,CASINO,5973bad6e703200001ad2b86,25/09/1953,2020-07-09_19h03.50.466,proactive,2020.1.2,Win32,60,5f073de81c76c3308c0e4fb3,5f075b5cc10cab343d94746b,3,,,,,,motorbike,,,,,,0,26,26,36,1,4,0,,,,,,,,,,,,,,,,,,,,,,,,,,,,,,,,,,,,,,,,,,,,,,,,,,,,,,,,,,,,,,,,,,,,,,,,,,,
,,,,,,,,,,stimuli/images/PICTURE_688.png,WOMEN,5973bad6e703200001ad2b86,25/09/1953,2020-07-09_19h03.50.466,proactive,2020.1.2,Win32,60,5f073de81c76c3308c0e4fb3,5f075b5cc10cab343d94746b,3,,,,,,runner,,,,,,0,27,27,14,1,2,0,,,,,,,,,,,,,,,,,,,,,,,,,,,,,,,,,,,,,,,,,,,,,,,,,,,,,,,,,,,,,,,,,,,,,,,,,,,
,,,,,,,,,,stimuli/images/PICTURE_491.png,WRITER,5973bad6e703200001ad2b86,25/09/1953,2020-07-09_19h03.50.466,proactive,2020.1.2,Win32,60,5f073de81c76c3308c0e4fb3,5f075b5cc10cab343d94746b,3,,,,,,rug,,,,,,0,28,28,57,1,6,0,,,,,,,,,,,,,,,,,,,,,,,,,,,,,,,,,,,,,,,,,,,,,,,,,,,,,,,,,,,,,,,,,,,,,,,,,,,
,,,,,,,,,,stimuli/images/PICTURE_708.png,PENNY,5973bad6e703200001ad2b86,25/09/1953,2020-07-09_19h03.50.466,proactive,2020.1.2,Win32,60,5f073de81c76c3308c0e4fb3,5f075b5cc10cab343d94746b,3,,,,,,monkey,,,,,,0,29,29,31,1,4,0,,,,,,,,,,,,,,,,,,,,,,,,,,,,,,,,,,,,,,,,,,,,,,,,,,,,,,,,,,,,,,,,,,,,,,,,,,,
,,,,,,,,,,stimuli/images/PICTURE_160.png,FEET,5973bad6e703200001ad2b86,25/09/1953,2020-07-09_19h03.50.466,proactive,2020.1.2,Win32,60,5f073de81c76c3308c0e4fb3,5f075b5cc10cab343d94746b,3,,,,,,wheelbarrow,,,,,,0,30,30,58,1,6,0,,,,,,,,,,,,,,,,,,,,,,,,,,,,,,,,,,,,,,,,,,,,,,,,,,,,,,,,,,,,,,,,,,,,,,,,,,,
,,,,,,,,,,stimuli/images/PICTURE_123.png,ADVICE,5973bad6e703200001ad2b86,25/09/1953,2020-07-09_19h03.50.466,proactive,2020.1.2,Win32,60,5f073de81c76c3308c0e4fb3,5f075b5cc10cab343d94746b,3,,,,,,dart,,,,,,0,31,31,50,1,6,0,,,,,,,,,,,,,,,,,,,,,,,,,,,,,,,,,,,,,,,,,,,,,,,,,,,,,,,,,,,,,,,,,,,,,,,,,,,
,,,,,,,,,,stimuli/images/PICTURE_208.png,LOTS,5973bad6e703200001ad2b86,25/09/1953,2020-07-09_19h03.50.466,proactive,2020.1.2,Win32,60,5f073de81c76c3308c0e4fb3,5f075b5cc10cab343d94746b,3,,,,,,microphone,,,,,,0,32,32,10,1,2,0,,,,,,,,,,,,,,,,,,,,,,,,,,,,,,,,,,,,,,,,,,,,,,,,,,,,,,,,,,,,,,,,,,,,,,,,,,,
,,,,,,,,,,stimuli/images/PICTURE_667.png,BATH,5973bad6e703200001ad2b86,25/09/1953,2020-07-09_19h03.50.466,proactive,2020.1.2,Win32,60,5f073de81c76c3308c0e4fb3,5f075b5cc10cab343d94746b,3,,,,,,daisy,,,,,,0,33,33,4,1,1,0,,,,,,,,,,,,,,,,,,,,,,,,,,,,,,,,,,,,,,,,,,,,,,,,,,,,,,,,,,,,,,,,,,,,,,,,,,,
,,,,,,,,,,stimuli/images/PICTURE_348.png,SPEECH,5973bad6e703200001ad2b86,25/09/1953,2020-07-09_19h03.50.466,proactive,2020.1.2,Win32,60,5f073de81c76c3308c0e4fb3,5f075b5cc10cab343d94746b,3,,,,,,pepper,,,,,,0,34,34,20,1,3,0,,,,,,,,,,,,,,,,,,,,,,,,,,,,,,,,,,,,,,,,,,,,,,,,,,,,,,,,,,,,,,,,,,,,,,,,,,,
,,,,,,,,,,stimuli/images/PICTURE_314.png,SAKE,5973bad6e703200001ad2b86,25/09/1953,2020-07-09_19h03.50.466,proactive,2020.1.2,Win32,60,5f073de81c76c3308c0e4fb3,5f075b5cc10cab343d94746b,3,,,,,,perfume,,,,,,0,35,35,7,1,1,0,,,,,,,,,,,,,,,,,,,,,,,,,,,,,,,,,,,,,,,,,,,,,,,,,,,,,,,,,,,,,,,,,,,,,,,,,,,
,,,,,,,,,,stimuli/images/PICTURE_302.png,FAMILY,5973bad6e703200001ad2b86,25/09/1953,2020-07-09_19h03.50.466,proactive,2020.1.2,Win32,60,5f073de81c76c3308c0e4fb3,5f075b5cc10cab343d94746b,3,,,,,,taxi,,,,,,0,36,36,18,1,2,0,,,,,,,,,,,,,,,,,,,,,,,,,,,,,,,,,,,,,,,,,,,,,,,,,,,,,,,,,,,,,,,,,,,,,,,,,,,
,,,,,,,,,,stimuli/images/PICTURE_469.png,ARTIST,5973bad6e703200001ad2b86,25/09/1953,2020-07-09_19h03.50.466,proactive,2020.1.2,Win32,60,5f073de81c76c3308c0e4fb3,5f075b5cc10cab343d94746b,3,,,,,,stool,,,,,,0,37,37,6,1,1,0,,,,,,,,,,,,,,,,,,,,,,,,,,,,,,,,,,,,,,,,,,,,,,,,,,,,,,,,,,,,,,,,,,,,,,,,,,,
,,,,,,,,,,stimuli/images/PICTURE_327.png,BEAUTY,5973bad6e703200001ad2b86,25/09/1953,2020-07-09_19h03.50.466,proactive,2020.1.2,Win32,60,5f073de81c76c3308c0e4fb3,5f075b5cc10cab343d94746b,3,,,,,,helmet,,,,,,0,38,38,48,1,5,0,,,,,,,,,,,,,,,,,,,,,,,,,,,,,,,,,,,,,,,,,,,,,,,,,,,,,,,,,,,,,,,,,,,,,,,,,,,
,,,,,,,,,,stimuli/images/PICTURE_677.png,MILE,5973bad6e703200001ad2b86,25/09/1953,2020-07-09_19h03.50.466,proactive,2020.1.2,Win32,60,5f073de81c76c3308c0e4fb3,5f075b5cc10cab343d94746b,3,,,,,,map,,,,,,0,39,39,30,1,4,0,,,,,,,,,,,,,,,,,,,,,,,,,,,,,,,,,,,,,,,,,,,,,,,,,,,,,,,,,,,,,,,,,,,,,,,,,,,
,,,,,,,,,,stimuli/images/PICTURE_233.png,IDEAS,5973bad6e703200001ad2b86,25/09/1953,2020-07-09_19h03.50.466,proactive,2020.1.2,Win32,60,5f073de81c76c3308c0e4fb3,5f075b5cc10cab343d94746b,3,,,,,,salt,,,,,,0,40,40,28,1,3,0,,,,,,,,,,,,,,,,,,,,,,,,,,,,,,,,,,,,,,,,,,,,,,,,,,,,,,,,,,,,,,,,,,,,,,,,,,,
,,,,,,,,,,stimuli/images/PICTURE_123.png,ADVICE,5973bad6e703200001ad2b86,25/09/1953,2020-07-09_19h03.50.466,proactive,2020.1.2,Win32,60,5f073de81c76c3308c0e4fb3,5f075b5cc10cab343d94746b,3,,,,,,dart,,,,,,0,41,41,40,1,5,0,,,,,,,,,,,,,,,,,,,,,,,,,,,,,,,,,,,,,,,,,,,,,,,,,,,,,,,,,,,,,,,,,,,,,,,,,,,
,,,,,,,,,,stimuli/images/PICTURE_177.png,CARS,5973bad6e703200001ad2b86,25/09/1953,2020-07-09_19h03.50.466,proactive,2020.1.2,Win32,60,5f073de81c76c3308c0e4fb3,5f075b5cc10cab343d94746b,3,,,,,,mushroom,,,,,,0,42,42,35,1,4,0,,,,,,,,,,,,,,,,,,,,,,,,,,,,,,,,,,,,,,,,,,,,,,,,,,,,,,,,,,,,,,,,,,,,,,,,,,,
,,,,,,,,,,stimuli/images/PICTURE_488.png,STYLE,5973bad6e703200001ad2b86,25/09/1953,2020-07-09_19h03.50.466,proactive,2020.1.2,Win32,60,5f073de81c76c3308c0e4fb3,5f075b5cc10cab343d94746b,3,,,,,,sun,,,,,,0,43,43,33,1,4,0,,,,,,,,,,,,,,,,,,,,,,,,,,,,,,,,,,,,,,,,,,,,,,,,,,,,,,,,,,,,,,,,,,,,,,,,,,,
,,,,,,,,,,stimuli/images/PICTURE_453.png,DUDE,5973bad6e703200001ad2b86,25/09/1953,2020-07-09_19h03.50.466,proactive,2020.1.2,Win32,60,5f073de81c76c3308c0e4fb3,5f075b5cc10cab343d94746b,3,,,,,,scissors,,,,,,0,44,44,27,1,3,0,,,,,,,,,,,,,,,,,,,,,,,,,,,,,,,,,,,,,,,,,,,,,,,,,,,,,,,,,,,,,,,,,,,,,,,,,,,
,,,,,,,,,,stimuli/images/PICTURE_449.png,THING,5973bad6e703200001ad2b86,25/09/1953,2020-07-09_19h03.50.466,proactive,2020.1.2,Win32,60,5f073de81c76c3308c0e4fb3,5f075b5cc10cab343d94746b,3,,,,,,bench,,,,,,0,45,45,59,1,6,0,,,,,,,,,,,,,,,,,,,,,,,,,,,,,,,,,,,,,,,,,,,,,,,,,,,,,,,,,,,,,,,,,,,,,,,,,,,
,,,,,,,,,,stimuli/images/PICTURE_308.png,KIND,5973bad6e703200001ad2b86,25/09/1953,2020-07-09_19h03.50.466,proactive,2020.1.2,Win32,60,5f073de81c76c3308c0e4fb3,5f075b5cc10cab343d94746b,3,,,,,,dice,,,,,,0,46,46,54,1,6,0,,,,,,,,,,,,,,,,,,,,,,,,,,,,,,,,,,,,,,,,,,,,,,,,,,,,,,,,,,,,,,,,,,,,,,,,,,,
,,,,,,,,,,stimuli/images/PICTURE_339.png,PLENTY,5973bad6e703200001ad2b86,25/09/1953,2020-07-09_19h03.50.466,proactive,2020.1.2,Win32,60,5f073de81c76c3308c0e4fb3,5f075b5cc10cab343d94746b,3,,,,,,backpack,,,,,,0,47,47,0,1,1,0,,,,,,,,,,,,,,,,,,,,,,,,,,,,,,,,,,,,,,,,,,,,,,,,,,,,,,,,,,,,,,,,,,,,,,,,,,,
,,,,,,,,,,stimuli/images/PICTURE_314.png,GODS,5973bad6e703200001ad2b86,25/09/1953,2020-07-09_19h03.50.466,proactive,2020.1.2,Win32,60,5f073de81c76c3308c0e4fb3,5f075b5cc10cab343d94746b,3,,,,,,perfume,,,,,,0,48,48,11,1,2,0,,,,,,,,,,,,,,,,,,,,,,,,,,,,,,,,,,,,,,,,,,,,,,,,,,,,,,,,,,,,,,,,,,,,,,,,,,,
,,,,,,,,,,stimuli/images/PICTURE_208.png,MONTH,5973bad6e703200001ad2b86,25/09/1953,2020-07-09_19h03.50.466,proactive,2020.1.2,Win32,60,5f073de81c76c3308c0e4fb3,5f075b5cc10cab343d94746b,3,,,,,,microphone,,,,,,0,49,49,53,1,6,0,,,,,,,,,,,,,,,,,,,,,,,,,,,,,,,,,,,,,,,,,,,,,,,,,,,,,,,,,,,,,,,,,,,,,,,,,,,
,,,,,,,,,,stimuli/images/PICTURE_692.png,MONTH,5973bad6e703200001ad2b86,25/09/1953,2020-07-09_19h03.50.466,proactive,2020.1.2,Win32,60,5f073de81c76c3308c0e4fb3,5f075b5cc10cab343d94746b,3,,,,,,cherry,,,,,,0,50,50,16,1,2,0,,,,,,,,,,,,,,,,,,,,,,,,,,,,,,,,,,,,,,,,,,,,,,,,,,,,,,,,,,,,,,,,,,,,,,,,,,,
,,,,,,,,,,stimuli/images/PICTURE_255.png,AREA,5973bad6e703200001ad2b86,25/09/1953,2020-07-09_19h03.50.466,proactive,2020.1.2,Win32,60,5f073de81c76c3308c0e4fb3,5f075b5cc10cab343d94746b,3,,,,,,shovel,,,,,,0,51,51,22,1,3,0,,,,,,,,,,,,,,,,,,,,,,,,,,,,,,,,,,,,,,,,,,,,,,,,,,,,,,,,,,,,,,,,,,,,,,,,,,,
,,,,,,,,,,stimuli/images/PICTURE_708.png,CLIENT,5973bad6e703200001ad2b86,25/09/1953,2020-07-09_19h03.50.466,proactive,2020.1.2,Win32,60,5f073de81c76c3308c0e4fb3,5f075b5cc10cab343d94746b,3,,,,,,monkey,,,,,,0,52,52,5,1,1,0,,,,,,,,,,,,,,,,,,,,,,,,,,,,,,,,,,,,,,,,,,,,,,,,,,,,,,,,,,,,,,,,,,,,,,,,,,,
,,,,,,,,,,stimuli/images/PICTURE_95.png,STYLE,5973bad6e703200001ad2b86,25/09/1953,2020-07-09_19h03.50.466,proactive,2020.1.2,Win32,60,5f073de81c76c3308c0e4fb3,5f075b5cc10cab343d94746b,3,,,,,,suitcase,,,,,,0,53,53,25,1,3,0,,,,,,,,,,,,,,,,,,,,,,,,,,,,,,,,,,,,,,,,,,,,,,,,,,,,,,,,,,,,,,,,,,,,,,,,,,,
,,,,,,,,,,stimuli/images/PICTURE_509.png,PHOTO,5973bad6e703200001ad2b86,25/09/1953,2020-07-09_19h03.50.466,proactive,2020.1.2,Win32,60,5f073de81c76c3308c0e4fb3,5f075b5cc10cab343d94746b,3,,,,,,telephone,,,,,,0,54,54,21,1,3,0,,,,,,,,,,,,,,,,,,,,,,,,,,,,,,,,,,,,,,,,,,,,,,,,,,,,,,,,,,,,,,,,,,,,,,,,,,,
,,,,,,,,,,stimuli/images/PICTURE_285.png,ADVICE,5973bad6e703200001ad2b86,25/09/1953,2020-07-09_19h03.50.466,proactive,2020.1.2,Win32,60,5f073de81c76c3308c0e4fb3,5f075b5cc10cab343d94746b,3,,,,,,carrot,,,,,,0,55,55,12,1,2,0,,,,,,,,,,,,,,,,,,,,,,,,,,,,,,,,,,,,,,,,,,,,,,,,,,,,,,,,,,,,,,,,,,,,,,,,,,,
,,,,,,,,,,stimuli/images/PICTURE_85.png,THING,5973bad6e703200001ad2b86,25/09/1953,2020-07-09_19h03.50.466,proactive,2020.1.2,Win32,60,5f073de81c76c3308c0e4fb3,5f075b5cc10cab343d94746b,3,,,,,,diamond,,,,,,0,56,56,15,1,2,0,,,,,,,,,,,,,,,,,,,,,,,,,,,,,,,,,,,,,,,,,,,,,,,,,,,,,,,,,,,,,,,,,,,,,,,,,,,
,,,,,,,,,,stimuli/images/PICTURE_453.png,PLENTY,5973bad6e703200001ad2b86,25/09/1953,2020-07-09_19h03.50.466,proactive,2020.1.2,Win32,60,5f073de81c76c3308c0e4fb3,5f075b5cc10cab343d94746b,3,,,,,,scissors,,,,,,0,57,57,56,1,6,0,,,,,,,,,,,,,,,,,,,,,,,,,,,,,,,,,,,,,,,,,,,,,,,,,,,,,,,,,,,,,,,,,,,,,,,,,,,
,,,,,,,,,,stimuli/images/PICTURE_160.png,LEADER,5973bad6e703200001ad2b86,25/09/1953,2020-07-09_19h03.50.466,proactive,2020.1.2,Win32,60,5f073de81c76c3308c0e4fb3,5f075b5cc10cab343d94746b,3,,,,,,wheelbarrow,,,,,,0,58,58,3,1,1,0,,,,,,,,,,,,,,,,,,,,,,,,,,,,,,,,,,,,,,,,,,,,,,,,,,,,,,,,,,,,,,,,,,,,,,,,,,,
,,?,0.003085,0,,,,,,stimuli/images/PICTURE_308.png,KIND,5973bad6e703200001ad2b86,25/09/1953,2020-07-09_19h03.50.466,proactive,2020.1.2,Win32,60,5f073de81c76c3308c0e4fb3,5f075b5cc10cab343d94746b,3,,,,,,dice,,,,,,,,,,,6,0,0,0,0,54,1,,,,,,,,,,,,,,,,,,,,,,,,,,,,,,,,,,,,,,,,,,,,,,,,,,,,,,,,,,,,,,,,,,,,,,
,,?,0.00293,0,,,,,,stimuli/images/PICTURE_449.png,THING,5973bad6e703200001ad2b86,25/09/1953,2020-07-09_19h03.50.466,proactive,2020.1.2,Win32,60,5f073de81c76c3308c0e4fb3,5f075b5cc10cab343d94746b,3,,,,,,bench,,,,,,,,,,,6,0,0,1,1,59,1,,,,,,,,,,,,,,,,,,,,,,,,,,,,,,,,,,,,,,,,,,,,,,,,,,,,,,,,,,,,,,,,,,,,,,
,,SPEECH,15.017265,1,,,,,,stimuli/images/PICTURE_348.png,SPEECH,5973bad6e703200001ad2b86,25/09/1953,2020-07-09_19h03.50.466,proactive,2020.1.2,Win32,60,5f073de81c76c3308c0e4fb3,5f075b5cc10cab343d94746b,3,,,,,,pepper,,,,,,,,,,,3,0,0,2,2,20,1,,,,,,,,,,,,,,,,,,,,,,,,,,,,,,,,,,,,,,,,,,,,,,,,,,,,,,,,,,,,,,,,,,,,,,
,,?,0.00192,0,,,,,,stimuli/images/PICTURE_208.png,MONTH,5973bad6e703200001ad2b86,25/09/1953,2020-07-09_19h03.50.466,proactive,2020.1.2,Win32,60,5f073de81c76c3308c0e4fb3,5f075b5cc10cab343d94746b,3,,,,,,microphone,,,,,,,,,,,6,0,0,3,3,53,1,,,,,,,,,,,,,,,,,,,,,,,,,,,,,,,,,,,,,,,,,,,,,,,,,,,,,,,,,,,,,,,,,,,,,,
,,IDEAS,15.009485,1,,,,,,stimuli/images/PICTURE_233.png,IDEAS,5973bad6e703200001ad2b86,25/09/1953,2020-07-09_19h03.50.466,proactive,2020.1.2,Win32,60,5f073de81c76c3308c0e4fb3,5f075b5cc10cab343d94746b,3,,,,,,salt,,,,,,,,,,,3,0,0,4,4,28,1,,,,,,,,,,,,,,,,,,,,,,,,,,,,,,,,,,,,,,,,,,,,,,,,,,,,,,,,,,,,,,,,,,,,,,
,,?,0.00204,0,,,,,,stimuli/images/PICTURE_667.png,BATH,5973bad6e703200001ad2b86,25/09/1953,2020-07-09_19h03.50.466,proactive,2020.1.2,Win32,60,5f073de81c76c3308c0e4fb3,5f075b5cc10cab343d94746b,3,,,,,,daisy,,,,,,,,,,,1,0,0,5,5,4,1,,,,,,,,,,,,,,,,,,,,,,,,,,,,,,,,,,,,,,,,,,,,,,,,,,,,,,,,,,,,,,,,,,,,,,
,,?,0.00185,0,,,,,,stimuli/images/PICTURE_208.png,LOTS,5973bad6e703200001ad2b86,25/09/1953,2020-07-09_19h03.50.466,proactive,2020.1.2,Win32,60,5f073de81c76c3308c0e4fb3,5f075b5cc10cab343d94746b,3,,,,,,microphone,,,,,,,,,,,2,0,0,6,6,10,1,,,,,,,,,,,,,,,,,,,,,,,,,,,,,,,,,,,,,,,,,,,,,,,,,,,,,,,,,,,,,,,,,,,,,,
,,?,0.0019,0,,,,,,stimuli/images/PICTURE_339.png,PLENTY,5973bad6e703200001ad2b86,25/09/1953,2020-07-09_19h03.50.466,proactive,2020.1.2,Win32,60,5f073de81c76c3308c0e4fb3,5f075b5cc10cab343d94746b,3,,,,,,backpack,,,,,,,,,,,1,0,0,7,7,0,1,,,,,,,,,,,,,,,,,,,,,,,,,,,,,,,,,,,,,,,,,,,,,,,,,,,,,,,,,,,,,,,,,,,,,,
,,?,0.002355,0,,,,,,stimuli/images/PICTURE_160.png,LEADER,5973bad6e703200001ad2b86,25/09/1953,2020-07-09_19h03.50.466,proactive,2020.1.2,Win32,60,5f073de81c76c3308c0e4fb3,5f075b5cc10cab343d94746b,3,,,,,,wheelbarrow,,,,,,,,,,,1,0,0,8,8,3,1,,,,,,,,,,,,,,,,,,,,,,,,,,,,,,,,,,,,,,,,,,,,,,,,,,,,,,,,,,,,,,,,,,,,,,
,,?,0.001755,0,,,,,,stimuli/images/PICTURE_488.png,STYLE,5973bad6e703200001ad2b86,25/09/1953,2020-07-09_19h03.50.466,proactive,2020.1.2,Win32,60,5f073de81c76c3308c0e4fb3,5f075b5cc10cab343d94746b,3,,,,,,sun,,,,,,,,,,,4,0,0,9,9,33,1,,,,,,,,,,,,,,,,,,,,,,,,,,,,,,,,,,,,,,,,,,,,,,,,,,,,,,,,,,,,,,,,,,,,,,
,,?,0.0018,0,,,,,,stimuli/images/PICTURE_160.png,FEET,5973bad6e703200001ad2b86,25/09/1953,2020-07-09_19h03.50.466,proactive,2020.1.2,Win32,60,5f073de81c76c3308c0e4fb3,5f075b5cc10cab343d94746b,3,,,,,,wheelbarrow,,,,,,,,,,,6,0,0,10,10,58,1,,,,,,,,,,,,,,,,,,,,,,,,,,,,,,,,,,,,,,,,,,,,,,,,,,,,,,,,,,,,,,,,,,,,,,
,,?,0.001875,0,,,,,,stimuli/images/PICTURE_311.png,FRIEND,5973bad6e703200001ad2b86,25/09/1953,2020-07-09_19h03.50.466,proactive,2020.1.2,Win32,60,5f073de81c76c3308c0e4fb3,5f075b5cc10cab343d94746b,3,,,,,,razor,,,,,,,,,,,4,0,0,11,11,34,1,,,,,,,,,,,,,,,,,,,,,,,,,,,,,,,,,,,,,,,,,,,,,,,,,,,,,,,,,,,,,,,,,,,,,,
,,?,0.00194,0,,,,,,stimuli/images/PICTURE_469.png,ARTIST,5973bad6e703200001ad2b86,25/09/1953,2020-07-09_19h03.50.466,proactive,2020.1.2,Win32,60,5f073de81c76c3308c0e4fb3,5f075b5cc10cab343d94746b,3,,,,,,stool,,,,,,,,,,,1,0,0,12,12,6,1,,,,,,,,,,,,,,,,,,,,,,,,,,,,,,,,,,,,,,,,,,,,,,,,,,,,,,,,,,,,,,,,,,,,,,
,,DUDE,15.00821,0,,,,,,stimuli/images/PICTURE_255.png,AREA,5973bad6e703200001ad2b86,25/09/1953,2020-07-09_19h03.50.466,proactive,2020.1.2,Win32,60,5f073de81c76c3308c0e4fb3,5f075b5cc10cab343d94746b,3,,,,,,shovel,,,,,,,,,,,3,0,0,13,13,22,1,,,,,,,,,,,,,,,,,,,,,,,,,,,,,,,,,,,,,,,,,,,,,,,,,,,,,,,,,,,,,,,,,,,,,,
,,?,0.00208,0,,,,,,stimuli/images/PICTURE_469.png,LETTER,5973bad6e703200001ad2b86,25/09/1953,2020-07-09_19h03.50.466,proactive,2020.1.2,Win32,60,5f073de81c76c3308c0e4fb3,5f075b5cc10cab343d94746b,3,,,,,,stool,,,,,,,,,,,5,0,0,14,14,42,1,,,,,,,,,,,,,,,,,,,,,,,,,,,,,,,,,,,,,,,,,,,,,,,,,,,,,,,,,,,,,,,,,,,,,,
,,?,0.00199,0,,,,,,stimuli/images/PICTURE_151.png,GIRL,5973bad6e703200001ad2b86,25/09/1953,2020-07-09_19h03.50.466,proactive,2020.1.2,Win32,60,5f073de81c76c3308c0e4fb3,5f075b5cc10cab343d94746b,3,,,,,,tray,,,,,,,,,,,2,0,0,15,15,19,1,,,,,,,,,,,,,,,,,,,,,,,,,,,,,,,,,,,,,,,,,,,,,,,,,,,,,,,,,,,,,,,,,,,,,,
,,?,0.001875,0,,,,,,stimuli/images/PICTURE_491.png,WRITER,5973bad6e703200001ad2b86,25/09/1953,2020-07-09_19h03.50.466,proactive,2020.1.2,Win32,60,5f073de81c76c3308c0e4fb3,5f075b5cc10cab343d94746b,3,,,,,,rug,,,,,,,,,,,6,0,0,16,16,57,1,,,,,,,,,,,,,,,,,,,,,,,,,,,,,,,,,,,,,,,,,,,,,,,,,,,,,,,,,,,,,,,,,,,,,,
,,?,0.002075,0,,,,,,stimuli/images/PICTURE_177.png,CARS,5973bad6e703200001ad2b86,25/09/1953,2020-07-09_19h03.50.466,proactive,2020.1.2,Win32,60,5f073de81c76c3308c0e4fb3,5f075b5cc10cab343d94746b,3,,,,,,mushroom,,,,,,,,,,,4,0,0,17,17,35,1,,,,,,,,,,,,,,,,,,,,,,,,,,,,,,,,,,,,,,,,,,,,,,,,,,,,,,,,,,,,,,,,,,,,,,
,,?,0.00187,0,,,,,,stimuli/images/PICTURE_654.png,VALLEY,5973bad6e703200001ad2b86,25/09/1953,2020-07-09_19h03.50.466,proactive,2020.1.2,Win32,60,5f073de81c76c3308c0e4fb3,5f075b5cc10cab343d94746b,3,,,,,,pencil,,,,,,,,,,,1,0,0,18,18,1,1,,,,,,,,,,,,,,,,,,,,,,,,,,,,,,,,,,,,,,,,,,,,,,,,,,,,,,,,,,,,,,,,,,,,,,
,,?,0.00172,0,,,,,,stimuli/images/PICTURE_208.png,THING,5973bad6e703200001ad2b86,25/09/1953,2020-07-09_19h03.50.466,proactive,2020.1.2,Win32,60,5f073de81c76c3308c0e4fb3,5f075b5cc10cab343d94746b,3,,,,,,microphone,,,,,,,,,,,5,0,0,19,19,47,1,,,,,,,,,,,,,,,,,,,,,,,,,,,,,,,,,,,,,,,,,,,,,,,,,,,,,,,,,,,,,,,,,,,,,,
,,?,0.002015,0,,,,,,stimuli/images/PICTURE_380.png,PHOTO,5973bad6e703200001ad2b86,25/09/1953,2020-07-09_19h03.50.466,proactive,2020.1.2,Win32,60,5f073de81c76c3308c0e4fb3,5f075b5cc10cab343d94746b,3,,,,,,gorilla,,,,,,,,,,,6,0,0,20,20,52,1,,,,,,,,,,,,,,,,,,,,,,,,,,,,,,,,,,,,,,,,,,,,,,,,,,,,,,,,,,,,,,,,,,,,,,
,,?,0.001855,0,,,,,,stimuli/images/PICTURE_327.png,BEAUTY,5973bad6e703200001ad2b86,25/09/1953,2020-07-09_19h03.50.466,proactive,2020.1.2,Win32,60,5f073de81c76c3308c0e4fb3,5f075b5cc10cab343d94746b,3,,,,,,helmet,,,,,,,,,,,5,0,0,21,21,48,1,,,,,,,,,,,,,,,,,,,,,,,,,,,,,,,,,,,,,,,,,,,,,,,,,,,,,,,,,,,,,,,,,,,,,,
,,ARTIST,15.008025,1,,,,,,stimuli/images/PICTURE_203.png,ARTIST,5973bad6e703200001ad2b86,25/09/1953,2020-07-09_19h03.50.466,proactive,2020.1.2,Win32,60,5f073de81c76c3308c0e4fb3,5f075b5cc10cab343d94746b,3,,,,,,cap,,,,,,,,,,,3,0,0,22,22,26,1,,,,,,,,,,,,,,,,,,,,,,,,,,,,,,,,,,,,,,,,,,,,,,,,,,,,,,,,,,,,,,,,,,,,,,
,,?,0.001875,0,,,,,,stimuli/images/PICTURE_85.png,THING,5973bad6e703200001ad2b86,25/09/1953,2020-07-09_19h03.50.466,proactive,2020.1.2,Win32,60,5f073de81c76c3308c0e4fb3,5f075b5cc10cab343d94746b,3,,,,,,diamond,,,,,,,,,,,2,0,0,23,23,15,1,,,,,,,,,,,,,,,,,,,,,,,,,,,,,,,,,,,,,,,,,,,,,,,,,,,,,,,,,,,,,,,,,,,,,,
,,?,0.0019,0,,,,,,stimuli/images/PICTURE_470.png,CASINO,5973bad6e703200001ad2b86,25/09/1953,2020-07-09_19h03.50.466,proactive,2020.1.2,Win32,60,5f073de81c76c3308c0e4fb3,5f075b5cc10cab343d94746b,3,,,,,,motorbike,,,,,,,,,,,4,0,0,24,24,36,1,,,,,,,,,,,,,,,,,,,,,,,,,,,,,,,,,,,,,,,,,,,,,,,,,,,,,,,,,,,,,,,,,,,,,,
,,?,0.00179,0,,,,,,stimuli/images/PICTURE_692.png,MONTH,5973bad6e703200001ad2b86,25/09/1953,2020-07-09_19h03.50.466,proactive,2020.1.2,Win32,60,5f073de81c76c3308c0e4fb3,5f075b5cc10cab343d94746b,3,,,,,,cherry,,,,,,,,,,,2,0,0,25,25,16,1,,,,,,,,,,,,,,,,,,,,,,,,,,,,,,,,,,,,,,,,,,,,,,,,,,,,,,,,,,,,,,,,,,,,,,
,,?,0.00194,0,,,,,,stimuli/images/PICTURE_308.png,ESTATE,5973bad6e703200001ad2b86,25/09/1953,2020-07-09_19h03.50.466,proactive,2020.1.2,Win32,60,5f073de81c76c3308c0e4fb3,5f075b5cc10cab343d94746b,3,,,,,,dice,,,,,,,,,,,5,0,0,26,26,46,1,,,,,,,,,,,,,,,,,,,,,,,,,,,,,,,,,,,,,,,,,,,,,,,,,,,,,,,,,,,,,,,,,,,,,,
,,?,0.00168,0,,,,,,stimuli/images/PICTURE_667.png,PLENTY,5973bad6e703200001ad2b86,25/09/1953,2020-07-09_19h03.50.466,proactive,2020.1.2,Win32,60,5f073de81c76c3308c0e4fb3,5f075b5cc10cab343d94746b,3,,,,,,daisy,,,,,,,,,,,5,0,0,27,27,41,1,,,,,,,,,,,,,,,,,,,,,,,,,,,,,,,,,,,,,,,,,,,,,,,,,,,,,,,,,,,,,,,,,,,,,,
,,?,0.001745,0,,,,,,stimuli/images/PICTURE_314.png,GODS,5973bad6e703200001ad2b86,25/09/1953,2020-07-09_19h03.50.466,proactive,2020.1.2,Win32,60,5f073de81c76c3308c0e4fb3,5f075b5cc10cab343d94746b,3,,,,,,perfume,,,,,,,,,,,2,0,0,28,28,11,1,,,,,,,,,,,,,,,,,,,,,,,,,,,,,,,,,,,,,,,,,,,,,,,,,,,,,,,,,,,,,,,,,,,,,,
,,?,0.00189,0,,,,,,stimuli/images/PICTURE_744.png,SYSTEM,5973bad6e703200001ad2b86,25/09/1953,2020-07-09_19h03.50.466,proactive,2020.1.2,Win32,60,5f073de81c76c3308c0e4fb3,5f075b5cc10cab343d94746b,3,,,,,,ring,,,,,,,,,,,5,0,0,29,29,43,1,,,,,,,,,,,,,,,,,,,,,,,,,,,,,,,,,,,,,,,,,,,,,,,,,,,,,,,,,,,,,,,,,,,,,,
,,?,0.001715,0,,,,,,stimuli/images/PICTURE_285.png,ADVICE,5973bad6e703200001ad2b86,25/09/1953,2020-07-09_19h03.50.466,proactive,2020.1.2,Win32,60,5f073de81c76c3308c0e4fb3,5f075b5cc10cab343d94746b,3,,,,,,carrot,,,,,,,,,,,2,0,0,30,30,12,1,,,,,,,,,,,,,,,,,,,,,,,,,,,,,,,,,,,,,,,,,,,,,,,,,,,,,,,,,,,,,,,,,,,,,,
,,?,0.00176,0,,,,,,stimuli/images/PICTURE_215.png,PLENTY,5973bad6e703200001ad2b86,25/09/1953,2020-07-09_19h03.50.466,proactive,2020.1.2,Win32,60,5f073de81c76c3308c0e4fb3,5f075b5cc10cab343d94746b,3,,,,,,boot,,,,,,,,,,,4,0,0,31,31,37,1,,,,,,,,,,,,,,,,,,,,,,,,,,,,,,,,,,,,,,,,,,,,,,,,,,,,,,,,,,,,,,,,,,,,,,
,,?,0.001785,0,,,,,,stimuli/images/PICTURE_688.png,WOMEN,5973bad6e703200001ad2b86,25/09/1953,2020-07-09_19h03.50.466,proactive,2020.1.2,Win32,60,5f073de81c76c3308c0e4fb3,5f075b5cc10cab343d94746b,3,,,,,,runner,,,,,,,,,,,2,0,0,32,32,14,1,,,,,,,,,,,,,,,,,,,,,,,,,,,,,,,,,,,,,,,,,,,,,,,,,,,,,,,,,,,,,,,,,,,,,,
,,?,0.00191,0,,,,,,stimuli/images/PICTURE_248.png,DOZEN,5973bad6e703200001ad2b86,25/09/1953,2020-07-09_19h03.50.466,proactive,2020.1.2,Win32,60,5f073de81c76c3308c0e4fb3,5f075b5cc10cab343d94746b,3,,,,,,cart,,,,,,,,,,,4,0,0,33,33,39,1,,,,,,,,,,,,,,,,,,,,,,,,,,,,,,,,,,,,,,,,,,,,,,,,,,,,,,,,,,,,,,,,,,,,,,
,,?,0.001745,0,,,,,,stimuli/images/PICTURE_380.png,DEATH,5973bad6e703200001ad2b86,25/09/1953,2020-07-09_19h03.50.466,proactive,2020.1.2,Win32,60,5f073de81c76c3308c0e4fb3,5f075b5cc10cab343d94746b,3,,,,,,gorilla,,,,,,,,,,,5,0,0,34,34,49,1,,,,,,,,,,,,,,,,,,,,,,,,,,,,,,,,,,,,,,,,,,,,,,,,,,,,,,,,,,,,,,,,,,,,,,
,,DEMON,15.00554,1,,,,,,stimuli/images/PICTURE_467.png,DEMON,5973bad6e703200001ad2b86,25/09/1953,2020-07-09_19h03.50.466,proactive,2020.1.2,Win32,60,5f073de81c76c3308c0e4fb3,5f075b5cc10cab343d94746b,3,,,,,,peg,,,,,,,,,,,3,0,0,35,35,23,1,,,,,,,,,,,,,,,,,,,,,,,,,,,,,,,,,,,,,,,,,,,,,,,,,,,,,,,,,,,,,,,,,,,,,,
,,?,0.00202,0,,,,,,stimuli/images/PICTURE_744.png,SAKE,5973bad6e703200001ad2b86,25/09/1953,2020-07-09_19h03.50.466,proactive,2020.1.2,Win32,60,5f073de81c76c3308c0e4fb3,5f075b5cc10cab343d94746b,3,,,,,,ring,,,,,,,,,,,2,0,0,36,36,17,1,,,,,,,,,,,,,,,,,,,,,,,,,,,,,,,,,,,,,,,,,,,,,,,,,,,,,,,,,,,,,,,,,,,,,,
,,?,0.00195,0,,,,,,stimuli/images/PICTURE_233.png,WOMEN,5973bad6e703200001ad2b86,25/09/1953,2020-07-09_19h03.50.466,proactive,2020.1.2,Win32,60,5f073de81c76c3308c0e4fb3,5f075b5cc10cab343d94746b,3,,,,,,salt,,,,,,,,,,,4,0,0,37,37,38,1,,,,,,,,,,,,,,,,,,,,,,,,,,,,,,,,,,,,,,,,,,,,,,,,,,,,,,,,,,,,,,,,,,,,,,
,,?,0.00209,0,,,,,,stimuli/images/PICTURE_32.png,JUNGLE,5973bad6e703200001ad2b86,25/09/1953,2020-07-09_19h03.50.466,proactive,2020.1.2,Win32,60,5f073de81c76c3308c0e4fb3,5f075b5cc10cab343d94746b,3,,,,,,crown,,,,,,,,,,,5,0,0,38,38,45,1,,,,,,,,,,,,,,,,,,,,,,,,,,,,,,,,,,,,,,,,,,,,,,,,,,,,,,,,,,,,,,,,,,,,,,
,,?,0.001995,0,,,,,,stimuli/images/PICTURE_708.png,CLIENT,5973bad6e703200001ad2b86,25/09/1953,2020-07-09_19h03.50.466,proactive,2020.1.2,Win32,60,5f073de81c76c3308c0e4fb3,5f075b5cc10cab343d94746b,3,,,,,,monkey,,,,,,,,,,,1,0,0,39,39,5,1,,,,,,,,,,,,,,,,,,,,,,,,,,,,,,,,,,,,,,,,,,,,,,,,,,,,,,,,,,,,,,,,,,,,,,
,,SUIT,15.010615,0,,,,,,stimuli/images/PICTURE_453.png,DUDE,5973bad6e703200001ad2b86,25/09/1953,2020-07-09_19h03.50.466,proactive,2020.1.2,Win32,60,5f073de81c76c3308c0e4fb3,5f075b5cc10cab343d94746b,3,,,,,,scissors,,,,,,,,,,,3,0,0,40,40,27,1,,,,,,,,,,,,,,,,,,,,,,,,,,,,,,,,,,,,,,,,,,,,,,,,,,,,,,,,,,,,,,,,,,,,,,
,,?,0.001885,0,,,,,,stimuli/images/PICTURE_487.png,FLIGHT,5973bad6e703200001ad2b86,25/09/1953,2020-07-09_19h03.50.466,proactive,2020.1.2,Win32,60,5f073de81c76c3308c0e4fb3,5f075b5cc10cab343d94746b,3,,,,,,basket,,,,,,,,,,,1,0,0,41,41,9,1,,,,,,,,,,,,,,,,,,,,,,,,,,,,,,,,,,,,,,,,,,,,,,,,,,,,,,,,,,,,,,,,,,,,,,
,,?,0.001805,0,,,,,,stimuli/images/PICTURE_123.png,ADVICE,5973bad6e703200001ad2b86,25/09/1953,2020-07-09_19h03.50.466,proactive,2020.1.2,Win32,60,5f073de81c76c3308c0e4fb3,5f075b5cc10cab343d94746b,3,,,,,,dart,,,,,,,,,,,6,0,0,42,42,50,1,,,,,,,,,,,,,,,,,,,,,,,,,,,,,,,,,,,,,,,,,,,,,,,,,,,,,,,,,,,,,,,,,,,,,,
,,?,0.001895,0,,,,,,stimuli/images/PICTURE_314.png,SAKE,5973bad6e703200001ad2b86,25/09/1953,2020-07-09_19h03.50.466,proactive,2020.1.2,Win32,60,5f073de81c76c3308c0e4fb3,5f075b5cc10cab343d94746b,3,,,,,,perfume,,,,,,,,,,,1,0,0,43,43,7,1,,,,,,,,,,,,,,,,,,,,,,,,,,,,,,,,,,,,,,,,,,,,,,,,,,,,,,,,,,,,,,,,,,,,,,
,,ROOF,15.01576,1,,,,,,stimuli/images/PICTURE_491.png,ROOF,5973bad6e703200001ad2b86,25/09/1953,2020-07-09_19h03.50.466,proactive,2020.1.2,Win32,60,5f073de81c76c3308c0e4fb3,5f075b5cc10cab343d94746b,3,,,,,,rug,,,,,,,,,,,3,0,0,44,44,24,1,,,,,,,,,,,,,,,,,,,,,,,,,,,,,,,,,,,,,,,,,,,,,,,,,,,,,,,,,,,,,,,,,,,,,,
,,?,0.002125,0,,,,,,stimuli/images/PICTURE_677.png,MILE,5973bad6e703200001ad2b86,25/09/1953,2020-07-09_19h03.50.466,proactive,2020.1.2,Win32,60,5f073de81c76c3308c0e4fb3,5f075b5cc10cab343d94746b,3,,,,,,map,,,,,,,,,,,4,0,0,45,45,30,1,,,,,,,,,,,,,,,,,,,,,,,,,,,,,,,,,,,,,,,,,,,,,,,,,,,,,,,,,,,,,,,,,,,,,,
,,PHOTO,15.008505,0,,,,,,stimuli/images/PICTURE_95.png,STYLE,5973bad6e703200001ad2b86,25/09/1953,2020-07-09_19h03.50.466,proactive,2020.1.2,Win32,60,5f073de81c76c3308c0e4fb3,5f075b5cc10cab343d94746b,3,,,,,,suitcase,,,,,,,,,,,3,0,0,46,46,25,1,,,,,,,,,,,,,,,,,,,,,,,,,,,,,,,,,,,,,,,,,,,,,,,,,,,,,,,,,,,,,,,,,,,,,,
,,PHOTO,15.01244,1,,,,,,stimuli/images/PICTURE_509.png,PHOTO,5973bad6e703200001ad2b86,25/09/1953,2020-07-09_19h03.50.466,proactive,2020.1.2,Win32,60,5f073de81c76c3308c0e4fb3,5f075b5cc10cab343d94746b,3,,,,,,telephone,,,,,,,,,,,3,0,0,47,47,21,1,,,,,,,,,,,,,,,,,,,,,,,,,,,,,,,,,,,,,,,,,,,,,,,,,,,,,,,,,,,,,,,,,,,,,,
,,?,0.00212,0,,,,,,stimuli/images/PICTURE_356.png,DANGER,5973bad6e703200001ad2b86,25/09/1953,2020-07-09_19h03.50.466,proactive,2020.1.2,Win32,60,5f073de81c76c3308c0e4fb3,5f075b5cc10cab343d94746b,3,,,,,,pawn,,,,,,,,,,,6,0,0,48,48,55,1,,,,,,,,,,,,,,,,,,,,,,,,,,,,,,,,,,,,,,,,,,,,,,,,,,,,,,,,,,,,,,,,,,,,,,
,,?,0.002205,0,,,,,,stimuli/images/PICTURE_68.png,MILE,5973bad6e703200001ad2b86,25/09/1953,2020-07-09_19h03.50.466,proactive,2020.1.2,Win32,60,5f073de81c76c3308c0e4fb3,5f075b5cc10cab343d94746b,3,,,,,,candle,,,,,,,,,,,5,0,0,49,49,44,1,,,,,,,,,,,,,,,,,,,,,,,,,,,,,,,,,,,,,,,,,,,,,,,,,,,,,,,,,,,,,,,,,,,,,,
,,?,0.00222,0,,,,,,stimuli/images/PICTURE_302.png,FAMILY,5973bad6e703200001ad2b86,25/09/1953,2020-07-09_19h03.50.466,proactive,2020.1.2,Win32,60,5f073de81c76c3308c0e4fb3,5f075b5cc10cab343d94746b,3,,,,,,taxi,,,,,,,,,,,2,0,0,50,50,18,1,,,,,,,,,,,,,,,,,,,,,,,,,,,,,,,,,,,,,,,,,,,,,,,,,,,,,,,,,,,,,,,,,,,,,,
,,?,0.001925,0,,,,,,stimuli/images/PICTURE_675.png,WEAPON,5973bad6e703200001ad2b86,25/09/1953,2020-07-09_19h03.50.466,proactive,2020.1.2,Win32,60,5f073de81c76c3308c0e4fb3,5f075b5cc10cab343d94746b,3,,,,,,windmill,,,,,,,,,,,4,0,0,51,51,32,1,,,,,,,,,,,,,,,,,,,,,,,,,,,,,,,,,,,,,,,,,,,,,,,,,,,,,,,,,,,,,,,,,,,,,,
,,?,0.002215,0,,,,,,stimuli/images/PICTURE_688.png,CASINO,5973bad6e703200001ad2b86,25/09/1953,2020-07-09_19h03.50.466,proactive,2020.1.2,Win32,60,5f073de81c76c3308c0e4fb3,5f075b5cc10cab343d94746b,3,,,,,,runner,,,,,,,,,,,1,0,0,52,52,2,1,,,,,,,,,,,,,,,,,,,,,,,,,,,,,,,,,,,,,,,,,,,,,,,,,,,,,,,,,,,,,,,,,,,,,,
,,?,0.00224,0,,,,,,stimuli/images/PICTURE_123.png,ADVICE,5973bad6e703200001ad2b86,25/09/1953,2020-07-09_19h03.50.466,proactive,2020.1.2,Win32,60,5f073de81c76c3308c0e4fb3,5f075b5cc10cab343d94746b,3,,,,,,dart,,,,,,,,,,,5,0,0,53,53,40,1,,,,,,,,,,,,,,,,,,,,,,,,,,,,,,,,,,,,,,,,,,,,,,,,,,,,,,,,,,,,,,,,,,,,,,
,,?,0.002185,0,,,,,,stimuli/images/PICTURE_453.png,PLENTY,5973bad6e703200001ad2b86,25/09/1953,2020-07-09_19h03.50.466,proactive,2020.1.2,Win32,60,5f073de81c76c3308c0e4fb3,5f075b5cc10cab343d94746b,3,,,,,,scissors,,,,,,,,,,,6,0,0,54,54,56,1,,,,,,,,,,,,,,,,,,,,,,,,,,,,,,,,,,,,,,,,,,,,,,,,,,,,,,,,,,,,,,,,,,,,,,
,,?,0.00184,0,,,,,,stimuli/images/PICTURE_708.png,PENNY,5973bad6e703200001ad2b86,25/09/1953,2020-07-09_19h03.50.466,proactive,2020.1.2,Win32,60,5f073de81c76c3308c0e4fb3,5f075b5cc10cab343d94746b,3,,,,,,monkey,,,,,,,,,,,4,0,0,55,55,31,1,,,,,,,,,,,,,,,,,,,,,,,,,,,,,,,,,,,,,,,,,,,,,,,,,,,,,,,,,,,,,,,,,,,,,,
,,?,0.003395,0,,,,,,stimuli/images/PICTURE_504.png,BODY,5973bad6e703200001ad2b86,25/09/1953,2020-07-09_19h03.50.466,proactive,2020.1.2,Win32,60,5f073de81c76c3308c0e4fb3,5f075b5cc10cab343d94746b,3,,,,,,wheel,,,,,,,,,,,1,0,0,56,56,8,1,,,,,,,,,,,,,,,,,,,,,,,,,,,,,,,,,,,,,,,,,,,,,,,,,,,,,,,,,,,,,,,,,,,,,,
,,?,0.00225,0,,,,,,stimuli/images/PICTURE_147.png,MOMENT,5973bad6e703200001ad2b86,25/09/1953,2020-07-09_19h03.50.466,proactive,2020.1.2,Win32,60,5f073de81c76c3308c0e4fb3,5f075b5cc10cab343d94746b,3,,,,,,hanger,,,,,,,,,,,6,0,0,57,57,51,1,,,,,,,,,,,,,,,,,,,,,,,,,,,,,,,,,,,,,,,,,,,,,,,,,,,,,,,,,,,,,,,,,,,,,,
,,YARD,15.0079,1,,,,,,stimuli/images/PICTURE_708.png,YARD,5973bad6e703200001ad2b86,25/09/1953,2020-07-09_19h03.50.466,proactive,2020.1.2,Win32,60,5f073de81c76c3308c0e4fb3,5f075b5cc10cab343d94746b,3,,,,,,monkey,,,,,,,,,,,3,0,0,58,58,29,1,,,,,,,,,,,,,,,,,,,,,,,,,,,,,,,,,,,,,,,,,,,,,,,,,,,,,,,,,,,,,,,,,,,,,,
,,?,0.001865,0,,,,,,stimuli/images/PICTURE_311.png,BEAUTY,5973bad6e703200001ad2b86,25/09/1953,2020-07-09_19h03.50.466,proactive,2020.1.2,Win32,60,5f073de81c76c3308c0e4fb3,5f075b5cc10cab343d94746b,3,,,,,,razor,,,,,,,,,,,2,0,0,59,59,13,1,,,,,,,,,,,,,,,,,,,,,,,,,,,,,,,,,,,,,,,,,,,,,,,,,,,,,,,,,,,,,,,,,,,,,,
,,,,,,,,,,,,5973bad6e703200001ad2b86,25/09/1953,2020-07-09_19h03.50.466,proactive,2020.1.2,Win32,60,5f073de81c76c3308c0e4fb3,5f075b5cc10cab343d94746b,3,,,,,,,,,,,,,,,,,,,,,,,,0,0,0,0,1,stimuli/learn-block1.csv,,,,,,,,,,,,,,,,,,,,,,,,,,,,,,,,,,,,,,,,,,,,,,,,,,,,,,,,,,,,,,,,
,,,,,,,,,,stimuli/images/PICTURE_509.png,MILLER,5973bad6e703200001ad2b86,25/09/1953,2020-07-09_19h03.50.466,proactive,2020.1.2,Win32,60,5f073de81c76c3308c0e4fb3,5f075b5cc10cab343d94746b,3,,,,,,telephone,,,,,,0,0,0,49,1,5,2,,,,,,,,,,,,,,,,,,,,,,,,,,,,,,,,,,,,,,,,,,,,,,,,,,,,,,,,,,,,,,,,,,,,,,,,,,,
,,,,,,,,,,stimuli/images/PICTURE_160.png,HOTEL,5973bad6e703200001ad2b86,25/09/1953,2020-07-09_19h03.50.466,proactive,2020.1.2,Win32,60,5f073de81c76c3308c0e4fb3,5f075b5cc10cab343d94746b,3,,,,,,wheelbarrow,,,,,,0,1,1,16,1,2,2,,,,,,,,,,,,,,,,,,,,,,,,,,,,,,,,,,,,,,,,,,,,,,,,,,,,,,,,,,,,,,,,,,,,,,,,,,,
,,,,,,,,,,stimuli/images/PICTURE_708.png,VALLEY,5973bad6e703200001ad2b86,25/09/1953,2020-07-09_19h03.50.466,proactive,2020.1.2,Win32,60,5f073de81c76c3308c0e4fb3,5f075b5cc10cab343d94746b,3,,,,,,monkey,,,,,,0,2,2,45,1,5,2,,,,,,,,,,,,,,,,,,,,,,,,,,,,,,,,,,,,,,,,,,,,,,,,,,,,,,,,,,,,,,,,,,,,,,,,,,,
,,,,,,,,,,stimuli/images/PICTURE_655.png,SALE,5973bad6e703200001ad2b86,25/09/1953,2020-07-09_19h03.50.466,proactive,2020.1.2,Win32,60,5f073de81c76c3308c0e4fb3,5f075b5cc10cab343d94746b,3,,,,,,megaphone,,,,,,0,3,3,57,1,6,2,,,,,,,,,,,,,,,,,,,,,,,,,,,,,,,,,,,,,,,,,,,,,,,,,,,,,,,,,,,,,,,,,,,,,,,,,,,
,,,,,,,,,,stimuli/images/PICTURE_285.png,WRITER,5973bad6e703200001ad2b86,25/09/1953,2020-07-09_19h03.50.466,proactive,2020.1.2,Win32,60,5f073de81c76c3308c0e4fb3,5f075b5cc10cab343d94746b,3,,,,,,carrot,,,,,,0,4,4,6,1,1,2,,,,,,,,,,,,,,,,,,,,,,,,,,,,,,,,,,,,,,,,,,,,,,,,,,,,,,,,,,,,,,,,,,,,,,,,,,,
,,,,,,,,,,stimuli/images/PICTURE_692.png,DUDE,5973bad6e703200001ad2b86,25/09/1953,2020-07-09_19h03.50.466,proactive,2020.1.2,Win32,60,5f073de81c76c3308c0e4fb3,5f075b5cc10cab343d94746b,3,,,,,,cherry,,,,,,0,5,5,47,1,5,2,,,,,,,,,,,,,,,,,,,,,,,,,,,,,,,,,,,,,,,,,,,,,,,,,,,,,,,,,,,,,,,,,,,,,,,,,,,
,,,,,,,,,,stimuli/images/PICTURE_405.png,JUNGLE,5973bad6e703200001ad2b86,25/09/1953,2020-07-09_19h03.50.466,proactive,2020.1.2,Win32,60,5f073de81c76c3308c0e4fb3,5f075b5cc10cab343d94746b,3,,,,,,anchor,,,,,,0,6,6,13,1,2,2,,,,,,,,,,,,,,,,,,,,,,,,,,,,,,,,,,,,,,,,,,,,,,,,,,,,,,,,,,,,,,,,,,,,,,,,,,,
,,,,,,,,,,stimuli/images/PICTURE_32.png,LETTER,5973bad6e703200001ad2b86,25/09/1953,2020-07-09_19h03.50.466,proactive,2020.1.2,Win32,60,5f073de81c76c3308c0e4fb3,5f075b5cc10cab343d94746b,3,,,,,,crown,,,,,,0,7,7,56,1,6,2,,,,,,,,,,,,,,,,,,,,,,,,,,,,,,,,,,,,,,,,,,,,,,,,,,,,,,,,,,,,,,,,,,,,,,,,,,,
,,,,,,,,,,stimuli/images/PICTURE_57.png,CANDY,5973bad6e703200001ad2b86,25/09/1953,2020-07-09_19h03.50.466,proactive,2020.1.2,Win32,60,5f073de81c76c3308c0e4fb3,5f075b5cc10cab343d94746b,3,,,,,,stamp,,,,,,0,8,8,52,1,6,2,,,,,,,,,,,,,,,,,,,,,,,,,,,,,,,,,,,,,,,,,,,,,,,,,,,,,,,,,,,,,,,,,,,,,,,,,,,
,,,,,,,,,,stimuli/images/PICTURE_491.png,SERIES,5973bad6e703200001ad2b86,25/09/1953,2020-07-09_19h03.50.466,proactive,2020.1.2,Win32,60,5f073de81c76c3308c0e4fb3,5f075b5cc10cab343d94746b,3,,,,,,rug,,,,,,0,9,9,39,1,4,2,,,,,,,,,,,,,,,,,,,,,,,,,,,,,,,,,,,,,,,,,,,,,,,,,,,,,,,,,,,,,,,,,,,,,,,,,,,
,,,,,,,,,,stimuli/images/PICTURE_654.png,YEAR,5973bad6e703200001ad2b86,25/09/1953,2020-07-09_19h03.50.466,proactive,2020.1.2,Win32,60,5f073de81c76c3308c0e4fb3,5f075b5cc10cab343d94746b,3,,,,,,pencil,,,,,,0,10,10,41,1,5,2,,,,,,,,,,,,,,,,,,,,,,,,,,,,,,,,,,,,,,,,,,,,,,,,,,,,,,,,,,,,,,,,,,,,,,,,,,,
,,,,,,,,,,stimuli/images/PICTURE_356.png,CANDY,5973bad6e703200001ad2b86,25/09/1953,2020-07-09_19h03.50.466,proactive,2020.1.2,Win32,60,5f073de81c76c3308c0e4fb3,5f075b5cc10cab343d94746b,3,,,,,,pawn,,,,,,0,11,11,46,1,5,2,,,,,,,,,,,,,,,,,,,,,,,,,,,,,,,,,,,,,,,,,,,,,,,,,,,,,,,,,,,,,,,,,,,,,,,,,,,
,,,,,,,,,,stimuli/images/PICTURE_2.png,YARD,5973bad6e703200001ad2b86,25/09/1953,2020-07-09_19h03.50.466,proactive,2020.1.2,Win32,60,5f073de81c76c3308c0e4fb3,5f075b5cc10cab343d94746b,3,,,,,,tyre,,,,,,0,12,12,55,1,6,2,,,,,,,,,,,,,,,,,,,,,,,,,,,,,,,,,,,,,,,,,,,,,,,,,,,,,,,,,,,,,,,,,,,,,,,,,,,
,,,,,,,,,,stimuli/images/PICTURE_255.png,PENNY,5973bad6e703200001ad2b86,25/09/1953,2020-07-09_19h03.50.466,proactive,2020.1.2,Win32,60,5f073de81c76c3308c0e4fb3,5f075b5cc10cab343d94746b,3,,,,,,shovel,,,,,,0,13,13,19,1,2,2,,,,,,,,,,,,,,,,,,,,,,,,,,,,,,,,,,,,,,,,,,,,,,,,,,,,,,,,,,,,,,,,,,,,,,,,,,,
,,,,,,,,,,stimuli/images/PICTURE_470.png,BEAUTY,5973bad6e703200001ad2b86,25/09/1953,2020-07-09_19h03.50.466,proactive,2020.1.2,Win32,60,5f073de81c76c3308c0e4fb3,5f075b5cc10cab343d94746b,3,,,,,,motorbike,,,,,,0,14,14,26,1,3,2,,,,,,,,,,,,,,,,,,,,,,,,,,,,,,,,,,,,,,,,,,,,,,,,,,,,,,,,,,,,,,,,,,,,,,,,,,,
,,,,,,,,,,stimuli/images/PICTURE_677.png,FAMILY,5973bad6e703200001ad2b86,25/09/1953,2020-07-09_19h03.50.466,proactive,2020.1.2,Win32,60,5f073de81c76c3308c0e4fb3,5f075b5cc10cab343d94746b,3,,,,,,map,,,,,,0,15,15,53,1,6,2,,,,,,,,,,,,,,,,,,,,,,,,,,,,,,,,,,,,,,,,,,,,,,,,,,,,,,,,,,,,,,,,,,,,,,,,,,,
,,,,,,,,,,stimuli/images/PICTURE_93.png,GIRL,5973bad6e703200001ad2b86,25/09/1953,2020-07-09_19h03.50.466,proactive,2020.1.2,Win32,60,5f073de81c76c3308c0e4fb3,5f075b5cc10cab343d94746b,3,,,,,,skateboard,,,,,,0,16,16,31,1,4,2,,,,,,,,,,,,,,,,,,,,,,,,,,,,,,,,,,,,,,,,,,,,,,,,,,,,,,,,,,,,,,,,,,,,,,,,,,,
,,,,,,,,,,stimuli/images/PICTURE_311.png,FLESH,5973bad6e703200001ad2b86,25/09/1953,2020-07-09_19h03.50.466,proactive,2020.1.2,Win32,60,5f073de81c76c3308c0e4fb3,5f075b5cc10cab343d94746b,3,,,,,,razor,,,,,,0,17,17,3,1,1,2,,,,,,,,,,,,,,,,,,,,,,,,,,,,,,,,,,,,,,,,,,,,,,,,,,,,,,,,,,,,,,,,,,,,,,,,,,,
,,,,,,,,,,stimuli/images/PICTURE_677.png,PHOTO,5973bad6e703200001ad2b86,25/09/1953,2020-07-09_19h03.50.466,proactive,2020.1.2,Win32,60,5f073de81c76c3308c0e4fb3,5f075b5cc10cab343d94746b,3,,,,,,map,,,,,,0,18,18,14,1,2,2,,,,,,,,,,,,,,,,,,,,,,,,,,,,,,,,,,,,,,,,,,,,,,,,,,,,,,,,,,,,,,,,,,,,,,,,,,,
,,,,,,,,,,stimuli/images/PICTURE_123.png,SALE,5973bad6e703200001ad2b86,25/09/1953,2020-07-09_19h03.50.466,proactive,2020.1.2,Win32,60,5f073de81c76c3308c0e4fb3,5f075b5cc10cab343d94746b,3,,,,,,dart,,,,,,0,19,19,8,1,1,2,,,,,,,,,,,,,,,,,,,,,,,,,,,,,,,,,,,,,,,,,,,,,,,,,,,,,,,,,,,,,,,,,,,,,,,,,,,
,,,,,,,,,,stimuli/images/PICTURE_18.png,RIVER,5973bad6e703200001ad2b86,25/09/1953,2020-07-09_19h03.50.466,proactive,2020.1.2,Win32,60,5f073de81c76c3308c0e4fb3,5f075b5cc10cab343d94746b,3,,,,,,planet,,,,,,0,20,20,22,1,3,2,,,,,,,,,,,,,,,,,,,,,,,,,,,,,,,,,,,,,,,,,,,,,,,,,,,,,,,,,,,,,,,,,,,,,,,,,,,
,,,,,,,,,,stimuli/images/PICTURE_509.png,BATH,5973bad6e703200001ad2b86,25/09/1953,2020-07-09_19h03.50.466,proactive,2020.1.2,Win32,60,5f073de81c76c3308c0e4fb3,5f075b5cc10cab343d94746b,3,,,,,,telephone,,,,,,0,21,21,15,1,2,2,,,,,,,,,,,,,,,,,,,,,,,,,,,,,,,,,,,,,,,,,,,,,,,,,,,,,,,,,,,,,,,,,,,,,,,,,,,
,,,,,,,,,,stimuli/images/PICTURE_654.png,COPS,5973bad6e703200001ad2b86,25/09/1953,2020-07-09_19h03.50.466,proactive,2020.1.2,Win32,60,5f073de81c76c3308c0e4fb3,5f075b5cc10cab343d94746b,3,,,,,,pencil,,,,,,0,22,22,10,1,2,2,,,,,,,,,,,,,,,,,,,,,,,,,,,,,,,,,,,,,,,,,,,,,,,,,,,,,,,,,,,,,,,,,,,,,,,,,,,
,,,,,,,,,,stimuli/images/PICTURE_2.png,JUNGLE,5973bad6e703200001ad2b86,25/09/1953,2020-07-09_19h03.50.466,proactive,2020.1.2,Win32,60,5f073de81c76c3308c0e4fb3,5f075b5cc10cab343d94746b,3,,,,,,tyre,,,,,,0,23,23,1,1,1,2,,,,,,,,,,,,,,,,,,,,,,,,,,,,,,,,,,,,,,,,,,,,,,,,,,,,,,,,,,,,,,,,,,,,,,,,,,,
,,,,,,,,,,stimuli/images/PICTURE_285.png,PRINCE,5973bad6e703200001ad2b86,25/09/1953,2020-07-09_19h03.50.466,proactive,2020.1.2,Win32,60,5f073de81c76c3308c0e4fb3,5f075b5cc10cab343d94746b,3,,,,,,carrot,,,,,,0,24,24,20,1,3,2,,,,,,,,,,,,,,,,,,,,,,,,,,,,,,,,,,,,,,,,,,,,,,,,,,,,,,,,,,,,,,,,,,,,,,,,,,,
,,,,,,,,,,stimuli/images/PICTURE_348.png,DUDE,5973bad6e703200001ad2b86,25/09/1953,2020-07-09_19h03.50.466,proactive,2020.1.2,Win32,60,5f073de81c76c3308c0e4fb3,5f075b5cc10cab343d94746b,3,,,,,,pepper,,,,,,0,25,25,59,1,6,2,,,,,,,,,,,,,,,,,,,,,,,,,,,,,,,,,,,,,,,,,,,,,,,,,,,,,,,,,,,,,,,,,,,,,,,,,,,
,,,,,,,,,,stimuli/images/PICTURE_2.png,AREA,5973bad6e703200001ad2b86,25/09/1953,2020-07-09_19h03.50.466,proactive,2020.1.2,Win32,60,5f073de81c76c3308c0e4fb3,5f075b5cc10cab343d94746b,3,,,,,,tyre,,,,,,0,26,26,32,1,4,2,,,,,,,,,,,,,,,,,,,,,,,,,,,,,,,,,,,,,,,,,,,,,,,,,,,,,,,,,,,,,,,,,,,,,,,,,,,
,,,,,,,,,,stimuli/images/PICTURE_452.png,COPS,5973bad6e703200001ad2b86,25/09/1953,2020-07-09_19h03.50.466,proactive,2020.1.2,Win32,60,5f073de81c76c3308c0e4fb3,5f075b5cc10cab343d94746b,3,,,,,,watch,,,,,,0,27,27,0,1,1,2,,,,,,,,,,,,,,,,,,,,,,,,,,,,,,,,,,,,,,,,,,,,,,,,,,,,,,,,,,,,,,,,,,,,,,,,,,,
,,,,,,,,,,stimuli/images/PICTURE_667.png,GLASS,5973bad6e703200001ad2b86,25/09/1953,2020-07-09_19h03.50.466,proactive,2020.1.2,Win32,60,5f073de81c76c3308c0e4fb3,5f075b5cc10cab343d94746b,3,,,,,,daisy,,,,,,0,28,28,27,1,3,2,,,,,,,,,,,,,,,,,,,,,,,,,,,,,,,,,,,,,,,,,,,,,,,,,,,,,,,,,,,,,,,,,,,,,,,,,,,
,,,,,,,,,,stimuli/images/PICTURE_470.png,MOMENT,5973bad6e703200001ad2b86,25/09/1953,2020-07-09_19h03.50.466,proactive,2020.1.2,Win32,60,5f073de81c76c3308c0e4fb3,5f075b5cc10cab343d94746b,3,,,,,,motorbike,,,,,,0,29,29,40,1,5,2,,,,,,,,,,,,,,,,,,,,,,,,,,,,,,,,,,,,,,,,,,,,,,,,,,,,,,,,,,,,,,,,,,,,,,,,,,,
,,,,,,,,,,stimuli/images/PICTURE_405.png,JUNGLE,5973bad6e703200001ad2b86,25/09/1953,2020-07-09_19h03.50.466,proactive,2020.1.2,Win32,60,5f073de81c76c3308c0e4fb3,5f075b5cc10cab343d94746b,3,,,,,,anchor,,,,,,0,30,30,58,1,6,2,,,,,,,,,,,,,,,,,,,,,,,,,,,,,,,,,,,,,,,,,,,,,,,,,,,,,,,,,,,,,,,,,,,,,,,,,,,
,,,,,,,,,,stimuli/images/PICTURE_403.png,FAMILY,5973bad6e703200001ad2b86,25/09/1953,2020-07-09_19h03.50.466,proactive,2020.1.2,Win32,60,5f073de81c76c3308c0e4fb3,5f075b5cc10cab343d94746b,3,,,,,,cathedral,,,,,,0,31,31,9,1,1,2,,,,,,,,,,,,,,,,,,,,,,,,,,,,,,,,,,,,,,,,,,,,,,,,,,,,,,,,,,,,,,,,,,,,,,,,,,,
,,,,,,,,,,stimuli/images/PICTURE_504.png,HOUSE,5973bad6e703200001ad2b86,25/09/1953,2020-07-09_19h03.50.466,proactive,2020.1.2,Win32,60,5f073de81c76c3308c0e4fb3,5f075b5cc10cab343d94746b,3,,,,,,wheel,,,,,,0,32,32,36,1,4,2,,,,,,,,,,,,,,,,,,,,,,,,,,,,,,,,,,,,,,,,,,,,,,,,,,,,,,,,,,,,,,,,,,,,,,,,,,,
,,,,,,,,,,stimuli/images/PICTURE_57.png,CASINO,5973bad6e703200001ad2b86,25/09/1953,2020-07-09_19h03.50.466,proactive,2020.1.2,Win32,60,5f073de81c76c3308c0e4fb3,5f075b5cc10cab343d94746b,3,,,,,,stamp,,,,,,0,33,33,12,1,2,2,,,,,,,,,,,,,,,,,,,,,,,,,,,,,,,,,,,,,,,,,,,,,,,,,,,,,,,,,,,,,,,,,,,,,,,,,,,
,,,,,,,,,,stimuli/images/PICTURE_688.png,CLOCK,5973bad6e703200001ad2b86,25/09/1953,2020-07-09_19h03.50.466,proactive,2020.1.2,Win32,60,5f073de81c76c3308c0e4fb3,5f075b5cc10cab343d94746b,3,,,,,,runner,,,,,,0,34,34,42,1,5,2,,,,,,,,,,,,,,,,,,,,,,,,,,,,,,,,,,,,,,,,,,,,,,,,,,,,,,,,,,,,,,,,,,,,,,,,,,,
,,,,,,,,,,stimuli/images/PICTURE_208.png,SPIRIT,5973bad6e703200001ad2b86,25/09/1953,2020-07-09_19h03.50.466,proactive,2020.1.2,Win32,60,5f073de81c76c3308c0e4fb3,5f075b5cc10cab343d94746b,3,,,,,,microphone,,,,,,0,35,35,28,1,3,2,,,,,,,,,,,,,,,,,,,,,,,,,,,,,,,,,,,,,,,,,,,,,,,,,,,,,,,,,,,,,,,,,,,,,,,,,,,
,,,,,,,,,,stimuli/images/PICTURE_57.png,NATION,5973bad6e703200001ad2b86,25/09/1953,2020-07-09_19h03.50.466,proactive,2020.1.2,Win32,60,5f073de81c76c3308c0e4fb3,5f075b5cc10cab343d94746b,3,,,,,,stamp,,,,,,0,36,36,21,1,3,2,,,,,,,,,,,,,,,,,,,,,,,,,,,,,,,,,,,,,,,,,,,,,,,,,,,,,,,,,,,,,,,,,,,,,,,,,,,
,,,,,,,,,,stimuli/images/PICTURE_68.png,KIND,5973bad6e703200001ad2b86,25/09/1953,2020-07-09_19h03.50.466,proactive,2020.1.2,Win32,60,5f073de81c76c3308c0e4fb3,5f075b5cc10cab343d94746b,3,,,,,,candle,,,,,,0,37,37,23,1,3,2,,,,,,,,,,,,,,,,,,,,,,,,,,,,,,,,,,,,,,,,,,,,,,,,,,,,,,,,,,,,,,,,,,,,,,,,,,,
,,,,,,,,,,stimuli/images/PICTURE_314.png,SPEECH,5973bad6e703200001ad2b86,25/09/1953,2020-07-09_19h03.50.466,proactive,2020.1.2,Win32,60,5f073de81c76c3308c0e4fb3,5f075b5cc10cab343d94746b,3,,,,,,perfume,,,,,,0,38,38,35,1,4,2,,,,,,,,,,,,,,,,,,,,,,,,,,,,,,,,,,,,,,,,,,,,,,,,,,,,,,,,,,,,,,,,,,,,,,,,,,,
,,,,,,,,,,stimuli/images/PICTURE_405.png,HOUSE,5973bad6e703200001ad2b86,25/09/1953,2020-07-09_19h03.50.466,proactive,2020.1.2,Win32,60,5f073de81c76c3308c0e4fb3,5f075b5cc10cab343d94746b,3,,,,,,anchor,,,,,,0,39,39,2,1,1,2,,,,,,,,,,,,,,,,,,,,,,,,,,,,,,,,,,,,,,,,,,,,,,,,,,,,,,,,,,,,,,,,,,,,,,,,,,,
,,,,,,,,,,stimuli/images/PICTURE_95.png,NIGHT,5973bad6e703200001ad2b86,25/09/1953,2020-07-09_19h03.50.466,proactive,2020.1.2,Win32,60,5f073de81c76c3308c0e4fb3,5f075b5cc10cab343d94746b,3,,,,,,suitcase,,,,,,0,40,40,37,1,4,2,,,,,,,,,,,,,,,,,,,,,,,,,,,,,,,,,,,,,,,,,,,,,,,,,,,,,,,,,,,,,,,,,,,,,,,,,,,
,,,,,,,,,,stimuli/images/PICTURE_453.png,FAMILY,5973bad6e703200001ad2b86,25/09/1953,2020-07-09_19h03.50.466,proactive,2020.1.2,Win32,60,5f073de81c76c3308c0e4fb3,5f075b5cc10cab343d94746b,3,,,,,,scissors,,,,,,0,41,41,48,1,5,2,,,,,,,,,,,,,,,,,,,,,,,,,,,,,,,,,,,,,,,,,,,,,,,,,,,,,,,,,,,,,,,,,,,,,,,,,,,
,,,,,,,,,,stimuli/images/PICTURE_327.png,LEADER,5973bad6e703200001ad2b86,25/09/1953,2020-07-09_19h03.50.466,proactive,2020.1.2,Win32,60,5f073de81c76c3308c0e4fb3,5f075b5cc10cab343d94746b,3,,,,,,helmet,,,,,,0,42,42,17,1,2,2,,,,,,,,,,,,,,,,,,,,,,,,,,,,,,,,,,,,,,,,,,,,,,,,,,,,,,,,,,,,,,,,,,,,,,,,,,,
,,,,,,,,,,stimuli/images/PICTURE_215.png,FOOD,5973bad6e703200001ad2b86,25/09/1953,2020-07-09_19h03.50.466,proactive,2020.1.2,Win32,60,5f073de81c76c3308c0e4fb3,5f075b5cc10cab343d94746b,3,,,,,,boot,,,,,,0,43,43,5,1,1,2,,,,,,,,,,,,,,,,,,,,,,,,,,,,,,,,,,,,,,,,,,,,,,,,,,,,,,,,,,,,,,,,,,,,,,,,,,,
,,,,,,,,,,stimuli/images/PICTURE_311.png,TOILET,5973bad6e703200001ad2b86,25/09/1953,2020-07-09_19h03.50.466,proactive,2020.1.2,Win32,60,5f073de81c76c3308c0e4fb3,5f075b5cc10cab343d94746b,3,,,,,,razor,,,,,,0,44,44,54,1,6,2,,,,,,,,,,,,,,,,,,,,,,,,,,,,,,,,,,,,,,,,,,,,,,,,,,,,,,,,,,,,,,,,,,,,,,,,,,,
,,,,,,,,,,stimuli/images/PICTURE_487.png,ROOF,5973bad6e703200001ad2b86,25/09/1953,2020-07-09_19h03.50.466,proactive,2020.1.2,Win32,60,5f073de81c76c3308c0e4fb3,5f075b5cc10cab343d94746b,3,,,,,,basket,,,,,,0,45,45,50,1,6,2,,,,,,,,,,,,,,,,,,,,,,,,,,,,,,,,,,,,,,,,,,,,,,,,,,,,,,,,,,,,,,,,,,,,,,,,,,,
,,,,,,,,,,stimuli/images/PICTURE_33.png,COPS,5973bad6e703200001ad2b86,25/09/1953,2020-07-09_19h03.50.466,proactive,2020.1.2,Win32,60,5f073de81c76c3308c0e4fb3,5f075b5cc10cab343d94746b,3,,,,,,frame,,,,,,0,46,46,29,1,3,2,,,,,,,,,,,,,,,,,,,,,,,,,,,,,,,,,,,,,,,,,,,,,,,,,,,,,,,,,,,,,,,,,,,,,,,,,,,
,,,,,,,,,,stimuli/images/PICTURE_177.png,HOUSE,5973bad6e703200001ad2b86,25/09/1953,2020-07-09_19h03.50.466,proactive,2020.1.2,Win32,60,5f073de81c76c3308c0e4fb3,5f075b5cc10cab343d94746b,3,,,,,,mushroom,,,,,,0,47,47,25,1,3,2,,,,,,,,,,,,,,,,,,,,,,,,,,,,,,,,,,,,,,,,,,,,,,,,,,,,,,,,,,,,,,,,,,,,,,,,,,,
,,,,,,,,,,stimuli/images/PICTURE_487.png,POLICY,5973bad6e703200001ad2b86,25/09/1953,2020-07-09_19h03.50.466,proactive,2020.1.2,Win32,60,5f073de81c76c3308c0e4fb3,5f075b5cc10cab343d94746b,3,,,,,,basket,,,,,,0,48,48,34,1,4,2,,,,,,,,,,,,,,,,,,,,,,,,,,,,,,,,,,,,,,,,,,,,,,,,,,,,,,,,,,,,,,,,,,,,,,,,,,,
,,,,,,,,,,stimuli/images/PICTURE_141.png,CLIENT,5973bad6e703200001ad2b86,25/09/1953,2020-07-09_19h03.50.466,proactive,2020.1.2,Win32,60,5f073de81c76c3308c0e4fb3,5f075b5cc10cab343d94746b,3,,,,,,sunflower,,,,,,0,49,49,30,1,4,2,,,,,,,,,,,,,,,,,,,,,,,,,,,,,,,,,,,,,,,,,,,,,,,,,,,,,,,,,,,,,,,,,,,,,,,,,,,
,,,,,,,,,,stimuli/images/PICTURE_348.png,TOILET,5973bad6e703200001ad2b86,25/09/1953,2020-07-09_19h03.50.466,proactive,2020.1.2,Win32,60,5f073de81c76c3308c0e4fb3,5f075b5cc10cab343d94746b,3,,,,,,pepper,,,,,,0,50,50,4,1,1,2,,,,,,,,,,,,,,,,,,,,,,,,,,,,,,,,,,,,,,,,,,,,,,,,,,,,,,,,,,,,,,,,,,,,,,,,,,,
,,,,,,,,,,stimuli/images/PICTURE_215.png,BOYS,5973bad6e703200001ad2b86,25/09/1953,2020-07-09_19h03.50.466,proactive,2020.1.2,Win32,60,5f073de81c76c3308c0e4fb3,5f075b5cc10cab343d94746b,3,,,,,,boot,,,,,,0,51,51,24,1,3,2,,,,,,,,,,,,,,,,,,,,,,,,,,,,,,,,,,,,,,,,,,,,,,,,,,,,,,,,,,,,,,,,,,,,,,,,,,,
,,,,,,,,,,stimuli/images/PICTURE_215.png,LEADER,5973bad6e703200001ad2b86,25/09/1953,2020-07-09_19h03.50.466,proactive,2020.1.2,Win32,60,5f073de81c76c3308c0e4fb3,5f075b5cc10cab343d94746b,3,,,,,,boot,,,,,,0,52,52,43,1,5,2,,,,,,,,,,,,,,,,,,,,,,,,,,,,,,,,,,,,,,,,,,,,,,,,,,,,,,,,,,,,,,,,,,,,,,,,,,,
,,,,,,,,,,stimuli/images/PICTURE_297.png,BODY,5973bad6e703200001ad2b86,25/09/1953,2020-07-09_19h03.50.466,proactive,2020.1.2,Win32,60,5f073de81c76c3308c0e4fb3,5f075b5cc10cab343d94746b,3,,,,,,aeroplane,,,,,,0,53,53,51,1,6,2,,,,,,,,,,,,,,,,,,,,,,,,,,,,,,,,,,,,,,,,,,,,,,,,,,,,,,,,,,,,,,,,,,,,,,,,,,,
,,,,,,,,,,stimuli/images/PICTURE_509.png,APPLE,5973bad6e703200001ad2b86,25/09/1953,2020-07-09_19h03.50.466,proactive,2020.1.2,Win32,60,5f073de81c76c3308c0e4fb3,5f075b5cc10cab343d94746b,3,,,,,,telephone,,,,,,0,54,54,38,1,4,2,,,,,,,,,,,,,,,,,,,,,,,,,,,,,,,,,,,,,,,,,,,,,,,,,,,,,,,,,,,,,,,,,,,,,,,,,,,
,,,,,,,,,,stimuli/images/PICTURE_509.png,SHOTS,5973bad6e703200001ad2b86,25/09/1953,2020-07-09_19h03.50.466,proactive,2020.1.2,Win32,60,5f073de81c76c3308c0e4fb3,5f075b5cc10cab343d94746b,3,,,,,,telephone,,,,,,0,55,55,7,1,1,2,,,,,,,,,,,,,,,,,,,,,,,,,,,,,,,,,,,,,,,,,,,,,,,,,,,,,,,,,,,,,,,,,,,,,,,,,,,
,,,,,,,,,,stimuli/images/PICTURE_750.png,POLICY,5973bad6e703200001ad2b86,25/09/1953,2020-07-09_19h03.50.466,proactive,2020.1.2,Win32,60,5f073de81c76c3308c0e4fb3,5f075b5cc10cab343d94746b,3,,,,,,kettle,,,,,,0,56,56,44,1,5,2,,,,,,,,,,,,,,,,,,,,,,,,,,,,,,,,,,,,,,,,,,,,,,,,,,,,,,,,,,,,,,,,,,,,,,,,,,,
,,,,,,,,,,stimuli/images/PICTURE_296.png,CLOCK,5973bad6e703200001ad2b86,25/09/1953,2020-07-09_19h03.50.466,proactive,2020.1.2,Win32,60,5f073de81c76c3308c0e4fb3,5f075b5cc10cab343d94746b,3,,,,,,bolt,,,,,,0,57,57,18,1,2,2,,,,,,,,,,,,,,,,,,,,,,,,,,,,,,,,,,,,,,,,,,,,,,,,,,,,,,,,,,,,,,,,,,,,,,,,,,,
,,,,,,,,,,stimuli/images/PICTURE_564.png,PLENTY,5973bad6e703200001ad2b86,25/09/1953,2020-07-09_19h03.50.466,proactive,2020.1.2,Win32,60,5f073de81c76c3308c0e4fb3,5f075b5cc10cab343d94746b,3,,,,,,spoon,,,,,,0,58,58,11,1,2,2,,,,,,,,,,,,,,,,,,,,,,,,,,,,,,,,,,,,,,,,,,,,,,,,,,,,,,,,,,,,,,,,,,,,,,,,,,,
,,?,0.002045,0,,,,,,stimuli/images/PICTURE_654.png,COPS,5973bad6e703200001ad2b86,25/09/1953,2020-07-09_19h03.50.466,proactive,2020.1.2,Win32,60,5f073de81c76c3308c0e4fb3,5f075b5cc10cab343d94746b,3,,,,,,pencil,,,,,,,,,,,2,2,0,0,0,10,1,,,,,,,,,,,,,,,,,,,,,,,,,,,,,,,,,,,,,,,,,,,,,,,,,,,,,,,,,,,,,,,,,,,,,,
,,?,0.00232,0,,,,,,stimuli/images/PICTURE_2.png,AREA,5973bad6e703200001ad2b86,25/09/1953,2020-07-09_19h03.50.466,proactive,2020.1.2,Win32,60,5f073de81c76c3308c0e4fb3,5f075b5cc10cab343d94746b,3,,,,,,tyre,,,,,,,,,,,4,2,0,1,1,32,1,,,,,,,,,,,,,,,,,,,,,,,,,,,,,,,,,,,,,,,,,,,,,,,,,,,,,,,,,,,,,,,,,,,,,,
,,?,0.001855,0,,,,,,stimuli/images/PICTURE_509.png,SHOTS,5973bad6e703200001ad2b86,25/09/1953,2020-07-09_19h03.50.466,proactive,2020.1.2,Win32,60,5f073de81c76c3308c0e4fb3,5f075b5cc10cab343d94746b,3,,,,,,telephone,,,,,,,,,,,1,2,0,2,2,7,1,,,,,,,,,,,,,,,,,,,,,,,,,,,,,,,,,,,,,,,,,,,,,,,,,,,,,,,,,,,,,,,,,,,,,,
,,?,0.001775,0,,,,,,stimuli/images/PICTURE_311.png,FLESH,5973bad6e703200001ad2b86,25/09/1953,2020-07-09_19h03.50.466,proactive,2020.1.2,Win32,60,5f073de81c76c3308c0e4fb3,5f075b5cc10cab343d94746b,3,,,,,,razor,,,,,,,,,,,1,2,0,3,3,3,1,,,,,,,,,,,,,,,,,,,,,,,,,,,,,,,,,,,,,,,,,,,,,,,,,,,,,,,,,,,,,,,,,,,,,,
,,?,0.00167,0,,,,,,stimuli/images/PICTURE_160.png,HOTEL,5973bad6e703200001ad2b86,25/09/1953,2020-07-09_19h03.50.466,proactive,2020.1.2,Win32,60,5f073de81c76c3308c0e4fb3,5f075b5cc10cab343d94746b,3,,,,,,wheelbarrow,,,,,,,,,,,2,2,0,4,4,16,1,,,,,,,,,,,,,,,,,,,,,,,,,,,,,,,,,,,,,,,,,,,,,,,,,,,,,,,,,,,,,,,,,,,,,,
,,?,0.00416,0,,,,,,stimuli/images/PICTURE_509.png,APPLE,5973bad6e703200001ad2b86,25/09/1953,2020-07-09_19h03.50.466,proactive,2020.1.2,Win32,60,5f073de81c76c3308c0e4fb3,5f075b5cc10cab343d94746b,3,,,,,,telephone,,,,,,,,,,,4,2,0,5,5,38,1,,,,,,,,,,,,,,,,,,,,,,,,,,,,,,,,,,,,,,,,,,,,,,,,,,,,,,,,,,,,,,,,,,,,,,
,,?,0.001815,0,,,,,,stimuli/images/PICTURE_2.png,YARD,5973bad6e703200001ad2b86,25/09/1953,2020-07-09_19h03.50.466,proactive,2020.1.2,Win32,60,5f073de81c76c3308c0e4fb3,5f075b5cc10cab343d94746b,3,,,,,,tyre,,,,,,,,,,,6,2,0,6,6,55,1,,,,,,,,,,,,,,,,,,,,,,,,,,,,,,,,,,,,,,,,,,,,,,,,,,,,,,,,,,,,,,,,,,,,,,
,,?,0.00172,0,,,,,,stimuli/images/PICTURE_141.png,CLIENT,5973bad6e703200001ad2b86,25/09/1953,2020-07-09_19h03.50.466,proactive,2020.1.2,Win32,60,5f073de81c76c3308c0e4fb3,5f075b5cc10cab343d94746b,3,,,,,,sunflower,,,,,,,,,,,4,2,0,7,7,30,1,,,,,,,,,,,,,,,,,,,,,,,,,,,,,,,,,,,,,,,,,,,,,,,,,,,,,,,,,,,,,,,,,,,,,,
,,?,0.0018,0,,,,,,stimuli/images/PICTURE_708.png,VALLEY,5973bad6e703200001ad2b86,25/09/1953,2020-07-09_19h03.50.466,proactive,2020.1.2,Win32,60,5f073de81c76c3308c0e4fb3,5f075b5cc10cab343d94746b,3,,,,,,monkey,,,,,,,,,,,5,2,0,8,8,45,1,,,,,,,,,,,,,,,,,,,,,,,,,,,,,,,,,,,,,,,,,,,,,,,,,,,,,,,,,,,,,,,,,,,,,,
,,?,0.00174,0,,,,,,stimuli/images/PICTURE_405.png,JUNGLE,5973bad6e703200001ad2b86,25/09/1953,2020-07-09_19h03.50.466,proactive,2020.1.2,Win32,60,5f073de81c76c3308c0e4fb3,5f075b5cc10cab343d94746b,3,,,,,,anchor,,,,,,,,,,,6,2,0,9,9,58,1,,,,,,,,,,,,,,,,,,,,,,,,,,,,,,,,,,,,,,,,,,,,,,,,,,,,,,,,,,,,,,,,,,,,,,
,,?,0.00171,0,,,,,,stimuli/images/PICTURE_348.png,DUDE,5973bad6e703200001ad2b86,25/09/1953,2020-07-09_19h03.50.466,proactive,2020.1.2,Win32,60,5f073de81c76c3308c0e4fb3,5f075b5cc10cab343d94746b,3,,,,,,pepper,,,,,,,,,,,6,2,0,10,10,59,1,,,,,,,,,,,,,,,,,,,,,,,,,,,,,,,,,,,,,,,,,,,,,,,,,,,,,,,,,,,,,,,,,,,,,,
,,COPS,15.00043,1,,,,,,stimuli/images/PICTURE_33.png,COPS,5973bad6e703200001ad2b86,25/09/1953,2020-07-09_19h03.50.466,proactive,2020.1.2,Win32,60,5f073de81c76c3308c0e4fb3,5f075b5cc10cab343d94746b,3,,,,,,frame,,,,,,,,,,,3,2,0,11,11,29,1,,,,,,,,,,,,,,,,,,,,,,,,,,,,,,,,,,,,,,,,,,,,,,,,,,,,,,,,,,,,,,,,,,,,,,
,,?,0.00168,0,,,,,,stimuli/images/PICTURE_504.png,HOUSE,5973bad6e703200001ad2b86,25/09/1953,2020-07-09_19h03.50.466,proactive,2020.1.2,Win32,60,5f073de81c76c3308c0e4fb3,5f075b5cc10cab343d94746b,3,,,,,,wheel,,,,,,,,,,,4,2,0,12,12,36,1,,,,,,,,,,,,,,,,,,,,,,,,,,,,,,,,,,,,,,,,,,,,,,,,,,,,,,,,,,,,,,,,,,,,,,
,,?,0.001755,0,,,,,,stimuli/images/PICTURE_123.png,SALE,5973bad6e703200001ad2b86,25/09/1953,2020-07-09_19h03.50.466,proactive,2020.1.2,Win32,60,5f073de81c76c3308c0e4fb3,5f075b5cc10cab343d94746b,3,,,,,,dart,,,,,,,,,,,1,2,0,13,13,8,1,,,,,,,,,,,,,,,,,,,,,,,,,,,,,,,,,,,,,,,,,,,,,,,,,,,,,,,,,,,,,,,,,,,,,,
,,?,0.00227,0,,,,,,stimuli/images/PICTURE_750.png,POLICY,5973bad6e703200001ad2b86,25/09/1953,2020-07-09_19h03.50.466,proactive,2020.1.2,Win32,60,5f073de81c76c3308c0e4fb3,5f075b5cc10cab343d94746b,3,,,,,,kettle,,,,,,,,,,,5,2,0,14,14,44,1,,,,,,,,,,,,,,,,,,,,,,,,,,,,,,,,,,,,,,,,,,,,,,,,,,,,,,,,,,,,,,,,,,,,,,
,,?,0.002015,0,,,,,,stimuli/images/PICTURE_487.png,POLICY,5973bad6e703200001ad2b86,25/09/1953,2020-07-09_19h03.50.466,proactive,2020.1.2,Win32,60,5f073de81c76c3308c0e4fb3,5f075b5cc10cab343d94746b,3,,,,,,basket,,,,,,,,,,,4,2,0,15,15,34,1,,,,,,,,,,,,,,,,,,,,,,,,,,,,,,,,,,,,,,,,,,,,,,,,,,,,,,,,,,,,,,,,,,,,,,
,,?,0.001785,0,,,,,,stimuli/images/PICTURE_453.png,FAMILY,5973bad6e703200001ad2b86,25/09/1953,2020-07-09_19h03.50.466,proactive,2020.1.2,Win32,60,5f073de81c76c3308c0e4fb3,5f075b5cc10cab343d94746b,3,,,,,,scissors,,,,,,,,,,,5,2,0,16,16,48,1,,,,,,,,,,,,,,,,,,,,,,,,,,,,,,,,,,,,,,,,,,,,,,,,,,,,,,,,,,,,,,,,,,,,,,
,,?,0.00202,0,,,,,,stimuli/images/PICTURE_654.png,YEAR,5973bad6e703200001ad2b86,25/09/1953,2020-07-09_19h03.50.466,proactive,2020.1.2,Win32,60,5f073de81c76c3308c0e4fb3,5f075b5cc10cab343d94746b,3,,,,,,pencil,,,,,,,,,,,5,2,0,17,17,41,1,,,,,,,,,,,,,,,,,,,,,,,,,,,,,,,,,,,,,,,,,,,,,,,,,,,,,,,,,,,,,,,,,,,,,,
,,HOUSE,15.016125,1,,,,,,stimuli/images/PICTURE_177.png,HOUSE,5973bad6e703200001ad2b86,25/09/1953,2020-07-09_19h03.50.466,proactive,2020.1.2,Win32,60,5f073de81c76c3308c0e4fb3,5f075b5cc10cab343d94746b,3,,,,,,mushroom,,,,,,,,,,,3,2,0,18,18,25,1,,,,,,,,,,,,,,,,,,,,,,,,,,,,,,,,,,,,,,,,,,,,,,,,,,,,,,,,,,,,,,,,,,,,,,
,,?,0.00243,0,,,,,,stimuli/images/PICTURE_692.png,DUDE,5973bad6e703200001ad2b86,25/09/1953,2020-07-09_19h03.50.466,proactive,2020.1.2,Win32,60,5f073de81c76c3308c0e4fb3,5f075b5cc10cab343d94746b,3,,,,,,cherry,,,,,,,,,,,5,2,0,19,19,47,1,,,,,,,,,,,,,,,,,,,,,,,,,,,,,,,,,,,,,,,,,,,,,,,,,,,,,,,,,,,,,,,,,,,,,,
,,?,0.00194,0,,,,,,stimuli/images/PICTURE_57.png,CASINO,5973bad6e703200001ad2b86,25/09/1953,2020-07-09_19h03.50.466,proactive,2020.1.2,Win32,60,5f073de81c76c3308c0e4fb3,5f075b5cc10cab343d94746b,3,,,,,,stamp,,,,,,,,,,,2,2,0,20,20,12,1,,,,,,,,,,,,,,,,,,,,,,,,,,,,,,,,,,,,,,,,,,,,,,,,,,,,,,,,,,,,,,,,,,,,,,
,,?,0.001825,0,,,,,,stimuli/images/PICTURE_215.png,FOOD,5973bad6e703200001ad2b86,25/09/1953,2020-07-09_19h03.50.466,proactive,2020.1.2,Win32,60,5f073de81c76c3308c0e4fb3,5f075b5cc10cab343d94746b,3,,,,,,boot,,,,,,,,,,,1,2,0,21,21,5,1,,,,,,,,,,,,,,,,,,,,,,,,,,,,,,,,,,,,,,,,,,,,,,,,,,,,,,,,,,,,,,,,,,,,,,
,,BEAUTY,15.014515,1,,,,,,stimuli/images/PICTURE_470.png,BEAUTY,5973bad6e703200001ad2b86,25/09/1953,2020-07-09_19h03.50.466,proactive,2020.1.2,Win32,60,5f073de81c76c3308c0e4fb3,5f075b5cc10cab343d94746b,3,,,,,,motorbike,,,,,,,,,,,3,2,0,22,22,26,1,,,,,,,,,,,,,,,,,,,,,,,,,,,,,,,,,,,,,,,,,,,,,,,,,,,,,,,,,,,,,,,,,,,,,,
,,?,0.001975,0,,,,,,stimuli/images/PICTURE_677.png,PHOTO,5973bad6e703200001ad2b86,25/09/1953,2020-07-09_19h03.50.466,proactive,2020.1.2,Win32,60,5f073de81c76c3308c0e4fb3,5f075b5cc10cab343d94746b,3,,,,,,map,,,,,,,,,,,2,2,0,23,23,14,1,,,,,,,,,,,,,,,,,,,,,,,,,,,,,,,,,,,,,,,,,,,,,,,,,,,,,,,,,,,,,,,,,,,,,,
,,?,0.007655,0,,,,,,stimuli/images/PICTURE_57.png,CANDY,5973bad6e703200001ad2b86,25/09/1953,2020-07-09_19h03.50.466,proactive,2020.1.2,Win32,60,5f073de81c76c3308c0e4fb3,5f075b5cc10cab343d94746b,3,,,,,,stamp,,,,,,,,,,,6,2,0,24,24,52,1,,,,,,,,,,,,,,,,,,,,,,,,,,,,,,,,,,,,,,,,,,,,,,,,,,,,,,,,,,,,,,,,,,,,,,
,,?,0.00239,0,,,,,,stimuli/images/PICTURE_311.png,TOILET,5973bad6e703200001ad2b86,25/09/1953,2020-07-09_19h03.50.466,proactive,2020.1.2,Win32,60,5f073de81c76c3308c0e4fb3,5f075b5cc10cab343d94746b,3,,,,,,razor,,,,,,,,,,,6,2,0,25,25,54,1,,,,,,,,,,,,,,,,,,,,,,,,,,,,,,,,,,,,,,,,,,,,,,,,,,,,,,,,,,,,,,,,,,,,,,
,,?,0.002085,0,,,,,,stimuli/images/PICTURE_688.png,CLOCK,5973bad6e703200001ad2b86,25/09/1953,2020-07-09_19h03.50.466,proactive,2020.1.2,Win32,60,5f073de81c76c3308c0e4fb3,5f075b5cc10cab343d94746b,3,,,,,,runner,,,,,,,,,,,5,2,0,26,26,42,1,,,,,,,,,,,,,,,,,,,,,,,,,,,,,,,,,,,,,,,,,,,,,,,,,,,,,,,,,,,,,,,,,,,,,,
,,?,0.0018,0,,,,,,stimuli/images/PICTURE_356.png,CANDY,5973bad6e703200001ad2b86,25/09/1953,2020-07-09_19h03.50.466,proactive,2020.1.2,Win32,60,5f073de81c76c3308c0e4fb3,5f075b5cc10cab343d94746b,3,,,,,,pawn,,,,,,,,,,,5,2,0,27,27,46,1,,,,,,,,,,,,,,,,,,,,,,,,,,,,,,,,,,,,,,,,,,,,,,,,,,,,,,,,,,,,,,,,,,,,,,
,,?,0.00248,0,,,,,,stimuli/images/PICTURE_487.png,ROOF,5973bad6e703200001ad2b86,25/09/1953,2020-07-09_19h03.50.466,proactive,2020.1.2,Win32,60,5f073de81c76c3308c0e4fb3,5f075b5cc10cab343d94746b,3,,,,,,basket,,,,,,,,,,,6,2,0,28,28,50,1,,,,,,,,,,,,,,,,,,,,,,,,,,,,,,,,,,,,,,,,,,,,,,,,,,,,,,,,,,,,,,,,,,,,,,
,,?,0.001755,0,,,,,,stimuli/images/PICTURE_314.png,SPEECH,5973bad6e703200001ad2b86,25/09/1953,2020-07-09_19h03.50.466,proactive,2020.1.2,Win32,60,5f073de81c76c3308c0e4fb3,5f075b5cc10cab343d94746b,3,,,,,,perfume,,,,,,,,,,,4,2,0,29,29,35,1,,,,,,,,,,,,,,,,,,,,,,,,,,,,,,,,,,,,,,,,,,,,,,,,,,,,,,,,,,,,,,,,,,,,,,
,,?,0.00198,0,,,,,,stimuli/images/PICTURE_297.png,BODY,5973bad6e703200001ad2b86,25/09/1953,2020-07-09_19h03.50.466,proactive,2020.1.2,Win32,60,5f073de81c76c3308c0e4fb3,5f075b5cc10cab343d94746b,3,,,,,,aeroplane,,,,,,,,,,,6,2,0,30,30,51,1,,,,,,,,,,,,,,,,,,,,,,,,,,,,,,,,,,,,,,,,,,,,,,,,,,,,,,,,,,,,,,,,,,,,,,
,,?,0.001985,0,,,,,,stimuli/images/PICTURE_95.png,NIGHT,5973bad6e703200001ad2b86,25/09/1953,2020-07-09_19h03.50.466,proactive,2020.1.2,Win32,60,5f073de81c76c3308c0e4fb3,5f075b5cc10cab343d94746b,3,,,,,,suitcase,,,,,,,,,,,4,2,0,31,31,37,1,,,,,,,,,,,,,,,,,,,,,,,,,,,,,,,,,,,,,,,,,,,,,,,,,,,,,,,,,,,,,,,,,,,,,,
,,?,0.001605,0,,,,,,stimuli/images/PICTURE_296.png,CLOCK,5973bad6e703200001ad2b86,25/09/1953,2020-07-09_19h03.50.466,proactive,2020.1.2,Win32,60,5f073de81c76c3308c0e4fb3,5f075b5cc10cab343d94746b,3,,,,,,bolt,,,,,,,,,,,2,2,0,32,32,18,1,,,,,,,,,,,,,,,,,,,,,,,,,,,,,,,,,,,,,,,,,,,,,,,,,,,,,,,,,,,,,,,,,,,,,,
,,BOY,15.007115,0,,,,,,stimuli/images/PICTURE_215.png,BOYS,5973bad6e703200001ad2b86,25/09/1953,2020-07-09_19h03.50.466,proactive,2020.1.2,Win32,60,5f073de81c76c3308c0e4fb3,5f075b5cc10cab343d94746b,3,,,,,,boot,,,,,,,,,,,3,2,0,33,33,24,1,,,,,,,,,,,,,,,,,,,,,,,,,,,,,,,,,,,,,,,,,,,,,,,,,,,,,,,,,,,,,,,,,,,,,,
,,?,0.002055,0,,,,,,stimuli/images/PICTURE_564.png,PLENTY,5973bad6e703200001ad2b86,25/09/1953,2020-07-09_19h03.50.466,proactive,2020.1.2,Win32,60,5f073de81c76c3308c0e4fb3,5f075b5cc10cab343d94746b,3,,,,,,spoon,,,,,,,,,,,2,2,0,34,34,11,1,,,,,,,,,,,,,,,,,,,,,,,,,,,,,,,,,,,,,,,,,,,,,,,,,,,,,,,,,,,,,,,,,,,,,,
,,RIVER,15.00874,1,,,,,,stimuli/images/PICTURE_18.png,RIVER,5973bad6e703200001ad2b86,25/09/1953,2020-07-09_19h03.50.466,proactive,2020.1.2,Win32,60,5f073de81c76c3308c0e4fb3,5f075b5cc10cab343d94746b,3,,,,,,planet,,,,,,,,,,,3,2,0,35,35,22,1,,,,,,,,,,,,,,,,,,,,,,,,,,,,,,,,,,,,,,,,,,,,,,,,,,,,,,,,,,,,,,,,,,,,,,
,,?,0.00181,0,,,,,,stimuli/images/PICTURE_32.png,LETTER,5973bad6e703200001ad2b86,25/09/1953,2020-07-09_19h03.50.466,proactive,2020.1.2,Win32,60,5f073de81c76c3308c0e4fb3,5f075b5cc10cab343d94746b,3,,,,,,crown,,,,,,,,,,,6,2,0,36,36,56,1,,,,,,,,,,,,,,,,,,,,,,,,,,,,,,,,,,,,,,,,,,,,,,,,,,,,,,,,,,,,,,,,,,,,,,
,,?,0.00179,0,,,,,,stimuli/images/PICTURE_405.png,HOUSE,5973bad6e703200001ad2b86,25/09/1953,2020-07-09_19h03.50.466,proactive,2020.1.2,Win32,60,5f073de81c76c3308c0e4fb3,5f075b5cc10cab343d94746b,3,,,,,,anchor,,,,,,,,,,,1,2,0,37,37,2,1,,,,,,,,,,,,,,,,,,,,,,,,,,,,,,,,,,,,,,,,,,,,,,,,,,,,,,,,,,,,,,,,,,,,,,
,,GLASS,15.00531,1,,,,,,stimuli/images/PICTURE_667.png,GLASS,5973bad6e703200001ad2b86,25/09/1953,2020-07-09_19h03.50.466,proactive,2020.1.2,Win32,60,5f073de81c76c3308c0e4fb3,5f075b5cc10cab343d94746b,3,,,,,,daisy,,,,,,,,,,,3,2,0,38,38,27,1,,,,,,,,,,,,,,,,,,,,,,,,,,,,,,,,,,,,,,,,,,,,,,,,,,,,,,,,,,,,,,,,,,,,,,
,,NATION,15.018315,0,,,,,,stimuli/images/PICTURE_68.png,KIND,5973bad6e703200001ad2b86,25/09/1953,2020-07-09_19h03.50.466,proactive,2020.1.2,Win32,60,5f073de81c76c3308c0e4fb3,5f075b5cc10cab343d94746b,3,,,,,,candle,,,,,,,,,,,3,2,0,39,39,23,1,,,,,,,,,,,,,,,,,,,,,,,,,,,,,,,,,,,,,,,,,,,,,,,,,,,,,,,,,,,,,,,,,,,,,,
,,?,0.00221,0,,,,,,stimuli/images/PICTURE_285.png,WRITER,5973bad6e703200001ad2b86,25/09/1953,2020-07-09_19h03.50.466,proactive,2020.1.2,Win32,60,5f073de81c76c3308c0e4fb3,5f075b5cc10cab343d94746b,3,,,,,,carrot,,,,,,,,,,,1,2,0,40,40,6,1,,,,,,,,,,,,,,,,,,,,,,,,,,,,,,,,,,,,,,,,,,,,,,,,,,,,,,,,,,,,,,,,,,,,,,
,,?,0.00197,0,,,,,,stimuli/images/PICTURE_655.png,SALE,5973bad6e703200001ad2b86,25/09/1953,2020-07-09_19h03.50.466,proactive,2020.1.2,Win32,60,5f073de81c76c3308c0e4fb3,5f075b5cc10cab343d94746b,3,,,,,,megaphone,,,,,,,,,,,6,2,0,41,41,57,1,,,,,,,,,,,,,,,,,,,,,,,,,,,,,,,,,,,,,,,,,,,,,,,,,,,,,,,,,,,,,,,,,,,,,,
,,?,0.002075,0,,,,,,stimuli/images/PICTURE_403.png,FAMILY,5973bad6e703200001ad2b86,25/09/1953,2020-07-09_19h03.50.466,proactive,2020.1.2,Win32,60,5f073de81c76c3308c0e4fb3,5f075b5cc10cab343d94746b,3,,,,,,cathedral,,,,,,,,,,,1,2,0,42,42,9,1,,,,,,,,,,,,,,,,,,,,,,,,,,,,,,,,,,,,,,,,,,,,,,,,,,,,,,,,,,,,,,,,,,,,,,
,,?,0.001755,0,,,,,,stimuli/images/PICTURE_348.png,TOILET,5973bad6e703200001ad2b86,25/09/1953,2020-07-09_19h03.50.466,proactive,2020.1.2,Win32,60,5f073de81c76c3308c0e4fb3,5f075b5cc10cab343d94746b,3,,,,,,pepper,,,,,,,,,,,1,2,0,43,43,4,1,,,,,,,,,,,,,,,,,,,,,,,,,,,,,,,,,,,,,,,,,,,,,,,,,,,,,,,,,,,,,,,,,,,,,,
,,?,0.001755,0,,,,,,stimuli/images/PICTURE_93.png,GIRL,5973bad6e703200001ad2b86,25/09/1953,2020-07-09_19h03.50.466,proactive,2020.1.2,Win32,60,5f073de81c76c3308c0e4fb3,5f075b5cc10cab343d94746b,3,,,,,,skateboard,,,,,,,,,,,4,2,0,44,44,31,1,,,,,,,,,,,,,,,,,,,,,,,,,,,,,,,,,,,,,,,,,,,,,,,,,,,,,,,,,,,,,,,,,,,,,,
,,?,0.001955,0,,,,,,stimuli/images/PICTURE_491.png,SERIES,5973bad6e703200001ad2b86,25/09/1953,2020-07-09_19h03.50.466,proactive,2020.1.2,Win32,60,5f073de81c76c3308c0e4fb3,5f075b5cc10cab343d94746b,3,,,,,,rug,,,,,,,,,,,4,2,0,45,45,39,1,,,,,,,,,,,,,,,,,,,,,,,,,,,,,,,,,,,,,,,,,,,,,,,,,,,,,,,,,,,,,,,,,,,,,,
,,?,0.00186,0,,,,,,stimuli/images/PICTURE_327.png,LEADER,5973bad6e703200001ad2b86,25/09/1953,2020-07-09_19h03.50.466,proactive,2020.1.2,Win32,60,5f073de81c76c3308c0e4fb3,5f075b5cc10cab343d94746b,3,,,,,,helmet,,,,,,,,,,,2,2,0,46,46,17,1,,,,,,,,,,,,,,,,,,,,,,,,,,,,,,,,,,,,,,,,,,,,,,,,,,,,,,,,,,,,,,,,,,,,,,
,,?,0.00181,0,,,,,,stimuli/images/PICTURE_452.png,COPS,5973bad6e703200001ad2b86,25/09/1953,2020-07-09_19h03.50.466,proactive,2020.1.2,Win32,60,5f073de81c76c3308c0e4fb3,5f075b5cc10cab343d94746b,3,,,,,,watch,,,,,,,,,,,1,2,0,47,47,0,1,,,,,,,,,,,,,,,,,,,,,,,,,,,,,,,,,,,,,,,,,,,,,,,,,,,,,,,,,,,,,,,,,,,,,,
,,?,0.001665,0,,,,,,stimuli/images/PICTURE_215.png,LEADER,5973bad6e703200001ad2b86,25/09/1953,2020-07-09_19h03.50.466,proactive,2020.1.2,Win32,60,5f073de81c76c3308c0e4fb3,5f075b5cc10cab343d94746b,3,,,,,,boot,,,,,,,,,,,5,2,0,48,48,43,1,,,,,,,,,,,,,,,,,,,,,,,,,,,,,,,,,,,,,,,,,,,,,,,,,,,,,,,,,,,,,,,,,,,,,,
,,?,0.00229,0,,,,,,stimuli/images/PICTURE_509.png,BATH,5973bad6e703200001ad2b86,25/09/1953,2020-07-09_19h03.50.466,proactive,2020.1.2,Win32,60,5f073de81c76c3308c0e4fb3,5f075b5cc10cab343d94746b,3,,,,,,telephone,,,,,,,,,,,2,2,0,49,49,15,1,,,,,,,,,,,,,,,,,,,,,,,,,,,,,,,,,,,,,,,,,,,,,,,,,,,,,,,,,,,,,,,,,,,,,,
,,PRINCE,15.011795,1,,,,,,stimuli/images/PICTURE_285.png,PRINCE,5973bad6e703200001ad2b86,25/09/1953,2020-07-09_19h03.50.466,proactive,2020.1.2,Win32,60,5f073de81c76c3308c0e4fb3,5f075b5cc10cab343d94746b,3,,,,,,carrot,,,,,,,,,,,3,2,0,50,50,20,1,,,,,,,,,,,,,,,,,,,,,,,,,,,,,,,,,,,,,,,,,,,,,,,,,,,,,,,,,,,,,,,,,,,,,,
,,?,0.00172,0,,,,,,stimuli/images/PICTURE_255.png,PENNY,5973bad6e703200001ad2b86,25/09/1953,2020-07-09_19h03.50.466,proactive,2020.1.2,Win32,60,5f073de81c76c3308c0e4fb3,5f075b5cc10cab343d94746b,3,,,,,,shovel,,,,,,,,,,,2,2,0,51,51,19,1,,,,,,,,,,,,,,,,,,,,,,,,,,,,,,,,,,,,,,,,,,,,,,,,,,,,,,,,,,,,,,,,,,,,,,
,,SPIRIT,15.00896,0,,,,,,stimuli/images/PICTURE_57.png,NATION,5973bad6e703200001ad2b86,25/09/1953,2020-07-09_19h03.50.466,proactive,2020.1.2,Win32,60,5f073de81c76c3308c0e4fb3,5f075b5cc10cab343d94746b,3,,,,,,stamp,,,,,,,,,,,3,2,0,52,52,21,1,,,,,,,,,,,,,,,,,,,,,,,,,,,,,,,,,,,,,,,,,,,,,,,,,,,,,,,,,,,,,,,,,,,,,,
,,?,0.002105,0,,,,,,stimuli/images/PICTURE_147.png,LEADER,5973bad6e703200001ad2b86,25/09/1953,2020-07-09_19h03.50.466,proactive,2020.1.2,Win32,60,5f073de81c76c3308c0e4fb3,5f075b5cc10cab343d94746b,3,,,,,,hanger,,,,,,,,,,,4,2,0,53,53,33,1,,,,,,,,,,,,,,,,,,,,,,,,,,,,,,,,,,,,,,,,,,,,,,,,,,,,,,,,,,,,,,,,,,,,,,
,,?,0.00216,0,,,,,,stimuli/images/PICTURE_470.png,MOMENT,5973bad6e703200001ad2b86,25/09/1953,2020-07-09_19h03.50.466,proactive,2020.1.2,Win32,60,5f073de81c76c3308c0e4fb3,5f075b5cc10cab343d94746b,3,,,,,,motorbike,,,,,,,,,,,5,2,0,54,54,40,1,,,,,,,,,,,,,,,,,,,,,,,,,,,,,,,,,,,,,,,,,,,,,,,,,,,,,,,,,,,,,,,,,,,,,,
,,?,0.001855,0,,,,,,stimuli/images/PICTURE_509.png,MILLER,5973bad6e703200001ad2b86,25/09/1953,2020-07-09_19h03.50.466,proactive,2020.1.2,Win32,60,5f073de81c76c3308c0e4fb3,5f075b5cc10cab343d94746b,3,,,,,,telephone,,,,,,,,,,,5,2,0,55,55,49,1,,,,,,,,,,,,,,,,,,,,,,,,,,,,,,,,,,,,,,,,,,,,,,,,,,,,,,,,,,,,,,,,,,,,,,
,,SPIRIT,15.01502,1,,,,,,stimuli/images/PICTURE_208.png,SPIRIT,5973bad6e703200001ad2b86,25/09/1953,2020-07-09_19h03.50.466,proactive,2020.1.2,Win32,60,5f073de81c76c3308c0e4fb3,5f075b5cc10cab343d94746b,3,,,,,,microphone,,,,,,,,,,,3,2,0,56,56,28,1,,,,,,,,,,,,,,,,,,,,,,,,,,,,,,,,,,,,,,,,,,,,,,,,,,,,,,,,,,,,,,,,,,,,,,
,,?,0.001985,0,,,,,,stimuli/images/PICTURE_677.png,FAMILY,5973bad6e703200001ad2b86,25/09/1953,2020-07-09_19h03.50.466,proactive,2020.1.2,Win32,60,5f073de81c76c3308c0e4fb3,5f075b5cc10cab343d94746b,3,,,,,,map,,,,,,,,,,,6,2,0,57,57,53,1,,,,,,,,,,,,,,,,,,,,,,,,,,,,,,,,,,,,,,,,,,,,,,,,,,,,,,,,,,,,,,,,,,,,,,
,,?,0.001655,0,,,,,,stimuli/images/PICTURE_405.png,JUNGLE,5973bad6e703200001ad2b86,25/09/1953,2020-07-09_19h03.50.466,proactive,2020.1.2,Win32,60,5f073de81c76c3308c0e4fb3,5f075b5cc10cab343d94746b,3,,,,,,anchor,,,,,,,,,,,2,2,0,58,58,13,1,,,,,,,,,,,,,,,,,,,,,,,,,,,,,,,,,,,,,,,,,,,,,,,,,,,,,,,,,,,,,,,,,,,,,,
,,?,0.002055,0,,,,,,stimuli/images/PICTURE_2.png,JUNGLE,5973bad6e703200001ad2b86,25/09/1953,2020-07-09_19h03.50.466,proactive,2020.1.2,Win32,60,5f073de81c76c3308c0e4fb3,5f075b5cc10cab343d94746b,3,,,,,,tyre,,,,,,,,,,,1,2,0,59,59,1,1,,,,,,,,,,,,,,,,,,,,,,,,,,,,,,,,,,,,,,,,,,,,,,,,,,,,,,,,,,,,,,,,,,,,,,
,,,,,,,,,,,,5973bad6e703200001ad2b86,25/09/1953,2020-07-09_19h03.50.466,proactive,2020.1.2,Win32,60,5f073de81c76c3308c0e4fb3,5f075b5cc10cab343d94746b,3,,,,,,,,,,,,,,,,,,,,,,,,0,1,1,2,1,stimuli/learn-block3.csv,,,,,,,,,,,,,,,,,,,,,,,,,,,,,,,,,,,,,,,,,,,,,,,,,,,,,,,,,,,,,,,,
,,,,,,,,,,stimuli/images/PICTURE_405.png,YEAR,5973bad6e703200001ad2b86,25/09/1953,2020-07-09_19h03.50.466,proactive,2020.1.2,Win32,60,5f073de81c76c3308c0e4fb3,5f075b5cc10cab343d94746b,3,,,,,,anchor,,,,,,0,0,0,34,1,4,1,,,,,,,,,,,,,,,,,,,,,,,,,,,,,,,,,,,,,,,,,,,,,,,,,,,,,,,,,,,,,,,,,,,,,,,,,,,
,,,,,,,,,,stimuli/images/PICTURE_380.png,CANDY,5973bad6e703200001ad2b86,25/09/1953,2020-07-09_19h03.50.466,proactive,2020.1.2,Win32,60,5f073de81c76c3308c0e4fb3,5f075b5cc10cab343d94746b,3,,,,,,gorilla,,,,,,0,1,1,0,1,1,1,,,,,,,,,,,,,,,,,,,,,,,,,,,,,,,,,,,,,,,,,,,,,,,,,,,,,,,,,,,,,,,,,,,,,,,,,,,
,,,,,,,,,,stimuli/images/PICTURE_340.png,LETTER,5973bad6e703200001ad2b86,25/09/1953,2020-07-09_19h03.50.466,proactive,2020.1.2,Win32,60,5f073de81c76c3308c0e4fb3,5f075b5cc10cab343d94746b,3,,,,,,mirror,,,,,,0,2,2,24,1,3,1,,,,,,,,,,,,,,,,,,,,,,,,,,,,,,,,,,,,,,,,,,,,,,,,,,,,,,,,,,,,,,,,,,,,,,,,,,,
,,,,,,,,,,stimuli/images/PICTURE_504.png,ARTIST,5973bad6e703200001ad2b86,25/09/1953,2020-07-09_19h03.50.466,proactive,2020.1.2,Win32,60,5f073de81c76c3308c0e4fb3,5f075b5cc10cab343d94746b,3,,,,,,wheel,,,,,,0,3,3,49,1,5,1,,,,,,,,,,,,,,,,,,,,,,,,,,,,,,,,,,,,,,,,,,,,,,,,,,,,,,,,,,,,,,,,,,,,,,,,,,,
,,,,,,,,,,stimuli/images/PICTURE_95.png,BOYS,5973bad6e703200001ad2b86,25/09/1953,2020-07-09_19h03.50.466,proactive,2020.1.2,Win32,60,5f073de81c76c3308c0e4fb3,5f075b5cc10cab343d94746b,3,,,,,,suitcase,,,,,,0,4,4,1,1,1,1,,,,,,,,,,,,,,,,,,,,,,,,,,,,,,,,,,,,,,,,,,,,,,,,,,,,,,,,,,,,,,,,,,,,,,,,,,,
,,,,,,,,,,stimuli/images/PICTURE_564.png,BATH,5973bad6e703200001ad2b86,25/09/1953,2020-07-09_19h03.50.466,proactive,2020.1.2,Win32,60,5f073de81c76c3308c0e4fb3,5f075b5cc10cab343d94746b,3,,,,,,spoon,,,,,,0,5,5,26,1,3,1,,,,,,,,,,,,,,,,,,,,,,,,,,,,,,,,,,,,,,,,,,,,,,,,,,,,,,,,,,,,,,,,,,,,,,,,,,,
,,,,,,,,,,stimuli/images/PICTURE_42.png,BOYS,5973bad6e703200001ad2b86,25/09/1953,2020-07-09_19h03.50.466,proactive,2020.1.2,Win32,60,5f073de81c76c3308c0e4fb3,5f075b5cc10cab343d94746b,3,,,,,,pear,,,,,,0,6,6,55,1,6,1,,,,,,,,,,,,,,,,,,,,,,,,,,,,,,,,,,,,,,,,,,,,,,,,,,,,,,,,,,,,,,,,,,,,,,,,,,,
,,,,,,,,,,stimuli/images/PICTURE_403.png,WRITER,5973bad6e703200001ad2b86,25/09/1953,2020-07-09_19h03.50.466,proactive,2020.1.2,Win32,60,5f073de81c76c3308c0e4fb3,5f075b5cc10cab343d94746b,3,,,,,,cathedral,,,,,,0,7,7,31,1,4,1,,,,,,,,,,,,,,,,,,,,,,,,,,,,,,,,,,,,,,,,,,,,,,,,,,,,,,,,,,,,,,,,,,,,,,,,,,,
,,,,,,,,,,stimuli/images/PICTURE_403.png,RIVER,5973bad6e703200001ad2b86,25/09/1953,2020-07-09_19h03.50.466,proactive,2020.1.2,Win32,60,5f073de81c76c3308c0e4fb3,5f075b5cc10cab343d94746b,3,,,,,,cathedral,,,,,,0,8,8,40,1,5,1,,,,,,,,,,,,,,,,,,,,,,,,,,,,,,,,,,,,,,,,,,,,,,,,,,,,,,,,,,,,,,,,,,,,,,,,,,,
,,,,,,,,,,stimuli/images/PICTURE_296.png,LOTS,5973bad6e703200001ad2b86,25/09/1953,2020-07-09_19h03.50.466,proactive,2020.1.2,Win32,60,5f073de81c76c3308c0e4fb3,5f075b5cc10cab343d94746b,3,,,,,,bolt,,,,,,0,9,9,9,1,1,1,,,,,,,,,,,,,,,,,,,,,,,,,,,,,,,,,,,,,,,,,,,,,,,,,,,,,,,,,,,,,,,,,,,,,,,,,,,
,,,,,,,,,,stimuli/images/PICTURE_68.png,ROOF,5973bad6e703200001ad2b86,25/09/1953,2020-07-09_19h03.50.466,proactive,2020.1.2,Win32,60,5f073de81c76c3308c0e4fb3,5f075b5cc10cab343d94746b,3,,,,,,candle,,,,,,0,10,10,38,1,4,1,,,,,,,,,,,,,,,,,,,,,,,,,,,,,,,,,,,,,,,,,,,,,,,,,,,,,,,,,,,,,,,,,,,,,,,,,,,
,,,,,,,,,,stimuli/images/PICTURE_296.png,LIFE,5973bad6e703200001ad2b86,25/09/1953,2020-07-09_19h03.50.466,proactive,2020.1.2,Win32,60,5f073de81c76c3308c0e4fb3,5f075b5cc10cab343d94746b,3,,,,,,bolt,,,,,,0,11,11,57,1,6,1,,,,,,,,,,,,,,,,,,,,,,,,,,,,,,,,,,,,,,,,,,,,,,,,,,,,,,,,,,,,,,,,,,,,,,,,,,,
,,,,,,,,,,stimuli/images/PICTURE_708.png,RECORD,5973bad6e703200001ad2b86,25/09/1953,2020-07-09_19h03.50.466,proactive,2020.1.2,Win32,60,5f073de81c76c3308c0e4fb3,5f075b5cc10cab343d94746b,3,,,,,,monkey,,,,,,0,12,12,58,1,6,1,,,,,,,,,,,,,,,,,,,,,,,,,,,,,,,,,,,,,,,,,,,,,,,,,,,,,,,,,,,,,,,,,,,,,,,,,,,
,,,,,,,,,,stimuli/images/PICTURE_203.png,NIGHT,5973bad6e703200001ad2b86,25/09/1953,2020-07-09_19h03.50.466,proactive,2020.1.2,Win32,60,5f073de81c76c3308c0e4fb3,5f075b5cc10cab343d94746b,3,,,,,,cap,,,,,,0,13,13,2,1,1,1,,,,,,,,,,,,,,,,,,,,,,,,,,,,,,,,,,,,,,,,,,,,,,,,,,,,,,,,,,,,,,,,,,,,,,,,,,,
,,,,,,,,,,stimuli/images/PICTURE_449.png,DUDE,5973bad6e703200001ad2b86,25/09/1953,2020-07-09_19h03.50.466,proactive,2020.1.2,Win32,60,5f073de81c76c3308c0e4fb3,5f075b5cc10cab343d94746b,3,,,,,,bench,,,,,,0,14,14,17,1,2,1,,,,,,,,,,,,,,,,,,,,,,,,,,,,,,,,,,,,,,,,,,,,,,,,,,,,,,,,,,,,,,,,,,,,,,,,,,,
,,,,,,,,,,stimuli/images/PICTURE_95.png,MILLER,5973bad6e703200001ad2b86,25/09/1953,2020-07-09_19h03.50.466,proactive,2020.1.2,Win32,60,5f073de81c76c3308c0e4fb3,5f075b5cc10cab343d94746b,3,,,,,,suitcase,,,,,,0,15,15,56,1,6,1,,,,,,,,,,,,,,,,,,,,,,,,,,,,,,,,,,,,,,,,,,,,,,,,,,,,,,,,,,,,,,,,,,,,,,,,,,,
,,,,,,,,,,stimuli/images/PICTURE_750.png,HOTEL,5973bad6e703200001ad2b86,25/09/1953,2020-07-09_19h03.50.466,proactive,2020.1.2,Win32,60,5f073de81c76c3308c0e4fb3,5f075b5cc10cab343d94746b,3,,,,,,kettle,,,,,,0,16,16,27,1,3,1,,,,,,,,,,,,,,,,,,,,,,,,,,,,,,,,,,,,,,,,,,,,,,,,,,,,,,,,,,,,,,,,,,,,,,,,,,,
,,,,,,,,,,stimuli/images/PICTURE_233.png,LOTS,5973bad6e703200001ad2b86,25/09/1953,2020-07-09_19h03.50.466,proactive,2020.1.2,Win32,60,5f073de81c76c3308c0e4fb3,5f075b5cc10cab343d94746b,3,,,,,,salt,,,,,,0,17,17,42,1,5,1,,,,,,,,,,,,,,,,,,,,,,,,,,,,,,,,,,,,,,,,,,,,,,,,,,,,,,,,,,,,,,,,,,,,,,,,,,,
,,,,,,,,,,stimuli/images/PICTURE_675.png,SALE,5973bad6e703200001ad2b86,25/09/1953,2020-07-09_19h03.50.466,proactive,2020.1.2,Win32,60,5f073de81c76c3308c0e4fb3,5f075b5cc10cab343d94746b,3,,,,,,windmill,,,,,,0,18,18,47,1,5,1,,,,,,,,,,,,,,,,,,,,,,,,,,,,,,,,,,,,,,,,,,,,,,,,,,,,,,,,,,,,,,,,,,,,,,,,,,,
,,,,,,,,,,stimuli/images/PICTURE_297.png,RIVER,5973bad6e703200001ad2b86,25/09/1953,2020-07-09_19h03.50.466,proactive,2020.1.2,Win32,60,5f073de81c76c3308c0e4fb3,5f075b5cc10cab343d94746b,3,,,,,,aeroplane,,,,,,0,19,19,39,1,4,1,,,,,,,,,,,,,,,,,,,,,,,,,,,,,,,,,,,,,,,,,,,,,,,,,,,,,,,,,,,,,,,,,,,,,,,,,,,
,,,,,,,,,,stimuli/images/PICTURE_383.png,WRITER,5973bad6e703200001ad2b86,25/09/1953,2020-07-09_19h03.50.466,proactive,2020.1.2,Win32,60,5f073de81c76c3308c0e4fb3,5f075b5cc10cab343d94746b,3,,,,,,coin,,,,,,0,20,20,28,1,3,1,,,,,,,,,,,,,,,,,,,,,,,,,,,,,,,,,,,,,,,,,,,,,,,,,,,,,,,,,,,,,,,,,,,,,,,,,,,
,,,,,,,,,,stimuli/images/PICTURE_339.png,CLIENT,5973bad6e703200001ad2b86,25/09/1953,2020-07-09_19h03.50.466,proactive,2020.1.2,Win32,60,5f073de81c76c3308c0e4fb3,5f075b5cc10cab343d94746b,3,,,,,,backpack,,,,,,0,21,21,11,1,2,1,,,,,,,,,,,,,,,,,,,,,,,,,,,,,,,,,,,,,,,,,,,,,,,,,,,,,,,,,,,,,,,,,,,,,,,,,,,
,,,,,,,,,,stimuli/images/PICTURE_147.png,YEAR,5973bad6e703200001ad2b86,25/09/1953,2020-07-09_19h03.50.466,proactive,2020.1.2,Win32,60,5f073de81c76c3308c0e4fb3,5f075b5cc10cab343d94746b,3,,,,,,hanger,,,,,,0,22,22,21,1,3,1,,,,,,,,,,,,,,,,,,,,,,,,,,,,,,,,,,,,,,,,,,,,,,,,,,,,,,,,,,,,,,,,,,,,,,,,,,,
,,,,,,,,,,stimuli/images/PICTURE_467.png,POLICY,5973bad6e703200001ad2b86,25/09/1953,2020-07-09_19h03.50.466,proactive,2020.1.2,Win32,60,5f073de81c76c3308c0e4fb3,5f075b5cc10cab343d94746b,3,,,,,,peg,,,,,,0,23,23,53,1,6,1,,,,,,,,,,,,,,,,,,,,,,,,,,,,,,,,,,,,,,,,,,,,,,,,,,,,,,,,,,,,,,,,,,,,,,,,,,,
,,,,,,,,,,stimuli/images/PICTURE_491.png,RIVER,5973bad6e703200001ad2b86,25/09/1953,2020-07-09_19h03.50.466,proactive,2020.1.2,Win32,60,5f073de81c76c3308c0e4fb3,5f075b5cc10cab343d94746b,3,,,,,,rug,,,,,,0,24,24,6,1,1,1,,,,,,,,,,,,,,,,,,,,,,,,,,,,,,,,,,,,,,,,,,,,,,,,,,,,,,,,,,,,,,,,,,,,,,,,,,,
,,,,,,,,,,stimuli/images/PICTURE_308.png,FAMILY,5973bad6e703200001ad2b86,25/09/1953,2020-07-09_19h03.50.466,proactive,2020.1.2,Win32,60,5f073de81c76c3308c0e4fb3,5f075b5cc10cab343d94746b,3,,,,,,dice,,,,,,0,25,25,36,1,4,1,,,,,,,,,,,,,,,,,,,,,,,,,,,,,,,,,,,,,,,,,,,,,,,,,,,,,,,,,,,,,,,,,,,,,,,,,,,
,,,,,,,,,,stimuli/images/PICTURE_685.png,PENNY,5973bad6e703200001ad2b86,25/09/1953,2020-07-09_19h03.50.466,proactive,2020.1.2,Win32,60,5f073de81c76c3308c0e4fb3,5f075b5cc10cab343d94746b,3,,,,,,goose,,,,,,0,26,26,4,1,1,1,,,,,,,,,,,,,,,,,,,,,,,,,,,,,,,,,,,,,,,,,,,,,,,,,,,,,,,,,,,,,,,,,,,,,,,,,,,
,,,,,,,,,,stimuli/images/PICTURE_57.png,MOMENT,5973bad6e703200001ad2b86,25/09/1953,2020-07-09_19h03.50.466,proactive,2020.1.2,Win32,60,5f073de81c76c3308c0e4fb3,5f075b5cc10cab343d94746b,3,,,,,,stamp,,,,,,0,27,27,37,1,4,1,,,,,,,,,,,,,,,,,,,,,,,,,,,,,,,,,,,,,,,,,,,,,,,,,,,,,,,,,,,,,,,,,,,,,,,,,,,
,,,,,,,,,,stimuli/images/PICTURE_504.png,COPS,5973bad6e703200001ad2b86,25/09/1953,2020-07-09_19h03.50.466,proactive,2020.1.2,Win32,60,5f073de81c76c3308c0e4fb3,5f075b5cc10cab343d94746b,3,,,,,,wheel,,,,,,0,28,28,52,1,6,1,,,,,,,,,,,,,,,,,,,,,,,,,,,,,,,,,,,,,,,,,,,,,,,,,,,,,,,,,,,,,,,,,,,,,,,,,,,
,,,,,,,,,,stimuli/images/PICTURE_405.png,PLENTY,5973bad6e703200001ad2b86,25/09/1953,2020-07-09_19h03.50.466,proactive,2020.1.2,Win32,60,5f073de81c76c3308c0e4fb3,5f075b5cc10cab343d94746b,3,,,,,,anchor,,,,,,0,29,29,23,1,3,1,,,,,,,,,,,,,,,,,,,,,,,,,,,,,,,,,,,,,,,,,,,,,,,,,,,,,,,,,,,,,,,,,,,,,,,,,,,
,,,,,,,,,,stimuli/images/PICTURE_327.png,SERIES,5973bad6e703200001ad2b86,25/09/1953,2020-07-09_19h03.50.466,proactive,2020.1.2,Win32,60,5f073de81c76c3308c0e4fb3,5f075b5cc10cab343d94746b,3,,,,,,helmet,,,,,,0,30,30,3,1,1,1,,,,,,,,,,,,,,,,,,,,,,,,,,,,,,,,,,,,,,,,,,,,,,,,,,,,,,,,,,,,,,,,,,,,,,,,,,,
,,,,,,,,,,stimuli/images/PICTURE_654.png,MONTH,5973bad6e703200001ad2b86,25/09/1953,2020-07-09_19h03.50.466,proactive,2020.1.2,Win32,60,5f073de81c76c3308c0e4fb3,5f075b5cc10cab343d94746b,3,,,,,,pencil,,,,,,0,31,31,29,1,3,1,,,,,,,,,,,,,,,,,,,,,,,,,,,,,,,,,,,,,,,,,,,,,,,,,,,,,,,,,,,,,,,,,,,,,,,,,,,
,,,,,,,,,,stimuli/images/PICTURE_147.png,WOMEN,5973bad6e703200001ad2b86,25/09/1953,2020-07-09_19h03.50.466,proactive,2020.1.2,Win32,60,5f073de81c76c3308c0e4fb3,5f075b5cc10cab343d94746b,3,,,,,,hanger,,,,,,0,32,32,7,1,1,1,,,,,,,,,,,,,,,,,,,,,,,,,,,,,,,,,,,,,,,,,,,,,,,,,,,,,,,,,,,,,,,,,,,,,,,,,,,
,,,,,,,,,,stimuli/images/PICTURE_340.png,VALLEY,5973bad6e703200001ad2b86,25/09/1953,2020-07-09_19h03.50.466,proactive,2020.1.2,Win32,60,5f073de81c76c3308c0e4fb3,5f075b5cc10cab343d94746b,3,,,,,,mirror,,,,,,0,33,33,54,1,6,1,,,,,,,,,,,,,,,,,,,,,,,,,,,,,,,,,,,,,,,,,,,,,,,,,,,,,,,,,,,,,,,,,,,,,,,,,,,
,,,,,,,,,,stimuli/images/PICTURE_491.png,GLASS,5973bad6e703200001ad2b86,25/09/1953,2020-07-09_19h03.50.466,proactive,2020.1.2,Win32,60,5f073de81c76c3308c0e4fb3,5f075b5cc10cab343d94746b,3,,,,,,rug,,,,,,0,34,34,14,1,2,1,,,,,,,,,,,,,,,,,,,,,,,,,,,,,,,,,,,,,,,,,,,,,,,,,,,,,,,,,,,,,,,,,,,,,,,,,,,
,,,,,,,,,,stimuli/images/PICTURE_68.png,MILE,5973bad6e703200001ad2b86,25/09/1953,2020-07-09_19h03.50.466,proactive,2020.1.2,Win32,60,5f073de81c76c3308c0e4fb3,5f075b5cc10cab343d94746b,3,,,,,,candle,,,,,,0,35,35,51,1,6,1,,,,,,,,,,,,,,,,,,,,,,,,,,,,,,,,,,,,,,,,,,,,,,,,,,,,,,,,,,,,,,,,,,,,,,,,,,,
,,,,,,,,,,stimuli/images/PICTURE_285.png,LIFE,5973bad6e703200001ad2b86,25/09/1953,2020-07-09_19h03.50.466,proactive,2020.1.2,Win32,60,5f073de81c76c3308c0e4fb3,5f075b5cc10cab343d94746b,3,,,,,,carrot,,,,,,0,36,36,33,1,4,1,,,,,,,,,,,,,,,,,,,,,,,,,,,,,,,,,,,,,,,,,,,,,,,,,,,,,,,,,,,,,,,,,,,,,,,,,,,
,,,,,,,,,,stimuli/images/PICTURE_380.png,HONEY,5973bad6e703200001ad2b86,25/09/1953,2020-07-09_19h03.50.466,proactive,2020.1.2,Win32,60,5f073de81c76c3308c0e4fb3,5f075b5cc10cab343d94746b,3,,,,,,gorilla,,,,,,0,37,37,19,1,2,1,,,,,,,,,,,,,,,,,,,,,,,,,,,,,,,,,,,,,,,,,,,,,,,,,,,,,,,,,,,,,,,,,,,,,,,,,,,
,,,,,,,,,,stimuli/images/PICTURE_208.png,SYSTEM,5973bad6e703200001ad2b86,25/09/1953,2020-07-09_19h03.50.466,proactive,2020.1.2,Win32,60,5f073de81c76c3308c0e4fb3,5f075b5cc10cab343d94746b,3,,,,,,microphone,,,,,,0,38,38,32,1,4,1,,,,,,,,,,,,,,,,,,,,,,,,,,,,,,,,,,,,,,,,,,,,,,,,,,,,,,,,,,,,,,,,,,,,,,,,,,,
,,,,,,,,,,stimuli/images/PICTURE_655.png,TOILET,5973bad6e703200001ad2b86,25/09/1953,2020-07-09_19h03.50.466,proactive,2020.1.2,Win32,60,5f073de81c76c3308c0e4fb3,5f075b5cc10cab343d94746b,3,,,,,,megaphone,,,,,,0,39,39,12,1,2,1,,,,,,,,,,,,,,,,,,,,,,,,,,,,,,,,,,,,,,,,,,,,,,,,,,,,,,,,,,,,,,,,,,,,,,,,,,,
,,,,,,,,,,stimuli/images/PICTURE_32.png,PILLS,5973bad6e703200001ad2b86,25/09/1953,2020-07-09_19h03.50.466,proactive,2020.1.2,Win32,60,5f073de81c76c3308c0e4fb3,5f075b5cc10cab343d94746b,3,,,,,,crown,,,,,,0,40,40,18,1,2,1,,,,,,,,,,,,,,,,,,,,,,,,,,,,,,,,,,,,,,,,,,,,,,,,,,,,,,,,,,,,,,,,,,,,,,,,,,,
,,,,,,,,,,stimuli/images/PICTURE_667.png,RIVER,5973bad6e703200001ad2b86,25/09/1953,2020-07-09_19h03.50.466,proactive,2020.1.2,Win32,60,5f073de81c76c3308c0e4fb3,5f075b5cc10cab343d94746b,3,,,,,,daisy,,,,,,0,41,41,10,1,2,1,,,,,,,,,,,,,,,,,,,,,,,,,,,,,,,,,,,,,,,,,,,,,,,,,,,,,,,,,,,,,,,,,,,,,,,,,,,
,,,,,,,,,,stimuli/images/PICTURE_504.png,YEAR,5973bad6e703200001ad2b86,25/09/1953,2020-07-09_19h03.50.466,proactive,2020.1.2,Win32,60,5f073de81c76c3308c0e4fb3,5f075b5cc10cab343d94746b,3,,,,,,wheel,,,,,,0,42,42,13,1,2,1,,,,,,,,,,,,,,,,,,,,,,,,,,,,,,,,,,,,,,,,,,,,,,,,,,,,,,,,,,,,,,,,,,,,,,,,,,,
,,,,,,,,,,stimuli/images/PICTURE_2.png,FLIGHT,5973bad6e703200001ad2b86,25/09/1953,2020-07-09_19h03.50.466,proactive,2020.1.2,Win32,60,5f073de81c76c3308c0e4fb3,5f075b5cc10cab343d94746b,3,,,,,,tyre,,,,,,0,43,43,15,1,2,1,,,,,,,,,,,,,,,,,,,,,,,,,,,,,,,,,,,,,,,,,,,,,,,,,,,,,,,,,,,,,,,,,,,,,,,,,,,
,,,,,,,,,,stimuli/images/PICTURE_403.png,TOILET,5973bad6e703200001ad2b86,25/09/1953,2020-07-09_19h03.50.466,proactive,2020.1.2,Win32,60,5f073de81c76c3308c0e4fb3,5f075b5cc10cab343d94746b,3,,,,,,cathedral,,,,,,0,44,44,25,1,3,1,,,,,,,,,,,,,,,,,,,,,,,,,,,,,,,,,,,,,,,,,,,,,,,,,,,,,,,,,,,,,,,,,,,,,,,,,,,
,,,,,,,,,,stimuli/images/PICTURE_95.png,HONEY,5973bad6e703200001ad2b86,25/09/1953,2020-07-09_19h03.50.466,proactive,2020.1.2,Win32,60,5f073de81c76c3308c0e4fb3,5f075b5cc10cab343d94746b,3,,,,,,suitcase,,,,,,0,45,45,44,1,5,1,,,,,,,,,,,,,,,,,,,,,,,,,,,,,,,,,,,,,,,,,,,,,,,,,,,,,,,,,,,,,,,,,,,,,,,,,,,
,,,,,,,,,,stimuli/images/PICTURE_203.png,GODS,5973bad6e703200001ad2b86,25/09/1953,2020-07-09_19h03.50.466,proactive,2020.1.2,Win32,60,5f073de81c76c3308c0e4fb3,5f075b5cc10cab343d94746b,3,,,,,,cap,,,,,,0,46,46,30,1,4,1,,,,,,,,,,,,,,,,,,,,,,,,,,,,,,,,,,,,,,,,,,,,,,,,,,,,,,,,,,,,,,,,,,,,,,,,,,,
,,,,,,,,,,stimuli/images/PICTURE_327.png,CASINO,5973bad6e703200001ad2b86,25/09/1953,2020-07-09_19h03.50.466,proactive,2020.1.2,Win32,60,5f073de81c76c3308c0e4fb3,5f075b5cc10cab343d94746b,3,,,,,,helmet,,,,,,0,47,47,20,1,3,1,,,,,,,,,,,,,,,,,,,,,,,,,,,,,,,,,,,,,,,,,,,,,,,,,,,,,,,,,,,,,,,,,,,,,,,,,,,
,,,,,,,,,,stimuli/images/PICTURE_383.png,SERIES,5973bad6e703200001ad2b86,25/09/1953,2020-07-09_19h03.50.466,proactive,2020.1.2,Win32,60,5f073de81c76c3308c0e4fb3,5f075b5cc10cab343d94746b,3,,,,,,coin,,,,,,0,48,48,46,1,5,1,,,,,,,,,,,,,,,,,,,,,,,,,,,,,,,,,,,,,,,,,,,,,,,,,,,,,,,,,,,,,,,,,,,,,,,,,,,
,,,,,,,,,,stimuli/images/PICTURE_177.png,WRITER,5973bad6e703200001ad2b86,25/09/1953,2020-07-09_19h03.50.466,proactive,2020.1.2,Win32,60,5f073de81c76c3308c0e4fb3,5f075b5cc10cab343d94746b,3,,,,,,mushroom,,,,,,0,49,49,41,1,5,1,,,,,,,,,,,,,,,,,,,,,,,,,,,,,,,,,,,,,,,,,,,,,,,,,,,,,,,,,,,,,,,,,,,,,,,,,,,
,,,,,,,,,,stimuli/images/PICTURE_33.png,FRIEND,5973bad6e703200001ad2b86,25/09/1953,2020-07-09_19h03.50.466,proactive,2020.1.2,Win32,60,5f073de81c76c3308c0e4fb3,5f075b5cc10cab343d94746b,3,,,,,,frame,,,,,,0,50,50,8,1,1,1,,,,,,,,,,,,,,,,,,,,,,,,,,,,,,,,,,,,,,,,,,,,,,,,,,,,,,,,,,,,,,,,,,,,,,,,,,,
,,,,,,,,,,stimuli/images/PICTURE_469.png,AGENT,5973bad6e703200001ad2b86,25/09/1953,2020-07-09_19h03.50.466,proactive,2020.1.2,Win32,60,5f073de81c76c3308c0e4fb3,5f075b5cc10cab343d94746b,3,,,,,,stool,,,,,,0,51,51,16,1,2,1,,,,,,,,,,,,,,,,,,,,,,,,,,,,,,,,,,,,,,,,,,,,,,,,,,,,,,,,,,,,,,,,,,,,,,,,,,,
,,,,,,,,,,stimuli/images/PICTURE_677.png,APPLE,5973bad6e703200001ad2b86,25/09/1953,2020-07-09_19h03.50.466,proactive,2020.1.2,Win32,60,5f073de81c76c3308c0e4fb3,5f075b5cc10cab343d94746b,3,,,,,,map,,,,,,0,52,52,43,1,5,1,,,,,,,,,,,,,,,,,,,,,,,,,,,,,,,,,,,,,,,,,,,,,,,,,,,,,,,,,,,,,,,,,,,,,,,,,,,
,,,,,,,,,,stimuli/images/PICTURE_85.png,NATION,5973bad6e703200001ad2b86,25/09/1953,2020-07-09_19h03.50.466,proactive,2020.1.2,Win32,60,5f073de81c76c3308c0e4fb3,5f075b5cc10cab343d94746b,3,,,,,,diamond,,,,,,0,53,53,5,1,1,1,,,,,,,,,,,,,,,,,,,,,,,,,,,,,,,,,,,,,,,,,,,,,,,,,,,,,,,,,,,,,,,,,,,,,,,,,,,
,,,,,,,,,,stimuli/images/PICTURE_85.png,TOILET,5973bad6e703200001ad2b86,25/09/1953,2020-07-09_19h03.50.466,proactive,2020.1.2,Win32,60,5f073de81c76c3308c0e4fb3,5f075b5cc10cab343d94746b,3,,,,,,diamond,,,,,,0,54,54,48,1,5,1,,,,,,,,,,,,,,,,,,,,,,,,,,,,,,,,,,,,,,,,,,,,,,,,,,,,,,,,,,,,,,,,,,,,,,,,,,,
,,,,,,,,,,stimuli/images/PICTURE_487.png,GIRL,5973bad6e703200001ad2b86,25/09/1953,2020-07-09_19h03.50.466,proactive,2020.1.2,Win32,60,5f073de81c76c3308c0e4fb3,5f075b5cc10cab343d94746b,3,,,,,,basket,,,,,,0,55,55,45,1,5,1,,,,,,,,,,,,,,,,,,,,,,,,,,,,,,,,,,,,,,,,,,,,,,,,,,,,,,,,,,,,,,,,,,,,,,,,,,,
,,,,,,,,,,stimuli/images/PICTURE_32.png,KIND,5973bad6e703200001ad2b86,25/09/1953,2020-07-09_19h03.50.466,proactive,2020.1.2,Win32,60,5f073de81c76c3308c0e4fb3,5f075b5cc10cab343d94746b,3,,,,,,crown,,,,,,0,56,56,35,1,4,1,,,,,,,,,,,,,,,,,,,,,,,,,,,,,,,,,,,,,,,,,,,,,,,,,,,,,,,,,,,,,,,,,,,,,,,,,,,
,,,,,,,,,,stimuli/images/PICTURE_744.png,WEAPON,5973bad6e703200001ad2b86,25/09/1953,2020-07-09_19h03.50.466,proactive,2020.1.2,Win32,60,5f073de81c76c3308c0e4fb3,5f075b5cc10cab343d94746b,3,,,,,,ring,,,,,,0,57,57,50,1,6,1,,,,,,,,,,,,,,,,,,,,,,,,,,,,,,,,,,,,,,,,,,,,,,,,,,,,,,,,,,,,,,,,,,,,,,,,,,,
,,,,,,,,,,stimuli/images/PICTURE_108.png,FLIGHT,5973bad6e703200001ad2b86,25/09/1953,2020-07-09_19h03.50.466,proactive,2020.1.2,Win32,60,5f073de81c76c3308c0e4fb3,5f075b5cc10cab343d94746b,3,,,,,,calendar,,,,,,0,58,58,59,1,6,1,,,,,,,,,,,,,,,,,,,,,,,,,,,,,,,,,,,,,,,,,,,,,,,,,,,,,,,,,,,,,,,,,,,,,,,,,,,
,,?,0.004145,0,,,,,,stimuli/images/PICTURE_487.png,GIRL,5973bad6e703200001ad2b86,25/09/1953,2020-07-09_19h03.50.466,proactive,2020.1.2,Win32,60,5f073de81c76c3308c0e4fb3,5f075b5cc10cab343d94746b,3,,,,,,basket,,,,,,,,,,,5,1,0,0,0,45,1,,,,,,,,,,,,,,,,,,,,,,,,,,,,,,,,,,,,,,,,,,,,,,,,,,,,,,,,,,,,,,,,,,,,,,
,,?,0.00298,0,,,,,,stimuli/images/PICTURE_285.png,LIFE,5973bad6e703200001ad2b86,25/09/1953,2020-07-09_19h03.50.466,proactive,2020.1.2,Win32,60,5f073de81c76c3308c0e4fb3,5f075b5cc10cab343d94746b,3,,,,,,carrot,,,,,,,,,,,4,1,0,1,1,33,1,,,,,,,,,,,,,,,,,,,,,,,,,,,,,,,,,,,,,,,,,,,,,,,,,,,,,,,,,,,,,,,,,,,,,,
,,?,0.003395,0,,,,,,stimuli/images/PICTURE_68.png,MILE,5973bad6e703200001ad2b86,25/09/1953,2020-07-09_19h03.50.466,proactive,2020.1.2,Win32,60,5f073de81c76c3308c0e4fb3,5f075b5cc10cab343d94746b,3,,,,,,candle,,,,,,,,,,,6,1,0,2,2,51,1,,,,,,,,,,,,,,,,,,,,,,,,,,,,,,,,,,,,,,,,,,,,,,,,,,,,,,,,,,,,,,,,,,,,,,
,,?,0.00249,0,,,,,,stimuli/images/PICTURE_68.png,ROOF,5973bad6e703200001ad2b86,25/09/1953,2020-07-09_19h03.50.466,proactive,2020.1.2,Win32,60,5f073de81c76c3308c0e4fb3,5f075b5cc10cab343d94746b,3,,,,,,candle,,,,,,,,,,,4,1,0,3,3,38,1,,,,,,,,,,,,,,,,,,,,,,,,,,,,,,,,,,,,,,,,,,,,,,,,,,,,,,,,,,,,,,,,,,,,,,
,,?,0.002645,0,,,,,,stimuli/images/PICTURE_308.png,FAMILY,5973bad6e703200001ad2b86,25/09/1953,2020-07-09_19h03.50.466,proactive,2020.1.2,Win32,60,5f073de81c76c3308c0e4fb3,5f075b5cc10cab343d94746b,3,,,,,,dice,,,,,,,,,,,4,1,0,4,4,36,1,,,,,,,,,,,,,,,,,,,,,,,,,,,,,,,,,,,,,,,,,,,,,,,,,,,,,,,,,,,,,,,,,,,,,,
,,?,0.002555,0,,,,,,stimuli/images/PICTURE_327.png,SERIES,5973bad6e703200001ad2b86,25/09/1953,2020-07-09_19h03.50.466,proactive,2020.1.2,Win32,60,5f073de81c76c3308c0e4fb3,5f075b5cc10cab343d94746b,3,,,,,,helmet,,,,,,,,,,,1,1,0,5,5,3,1,,,,,,,,,,,,,,,,,,,,,,,,,,,,,,,,,,,,,,,,,,,,,,,,,,,,,,,,,,,,,,,,,,,,,,
,,?,0.002575,0,,,,,,stimuli/images/PICTURE_296.png,LOTS,5973bad6e703200001ad2b86,25/09/1953,2020-07-09_19h03.50.466,proactive,2020.1.2,Win32,60,5f073de81c76c3308c0e4fb3,5f075b5cc10cab343d94746b,3,,,,,,bolt,,,,,,,,,,,1,1,0,6,6,9,1,,,,,,,,,,,,,,,,,,,,,,,,,,,,,,,,,,,,,,,,,,,,,,,,,,,,,,,,,,,,,,,,,,,,,,
,,?,0.002735,0,,,,,,stimuli/images/PICTURE_467.png,POLICY,5973bad6e703200001ad2b86,25/09/1953,2020-07-09_19h03.50.466,proactive,2020.1.2,Win32,60,5f073de81c76c3308c0e4fb3,5f075b5cc10cab343d94746b,3,,,,,,peg,,,,,,,,,,,6,1,0,7,7,53,1,,,,,,,,,,,,,,,,,,,,,,,,,,,,,,,,,,,,,,,,,,,,,,,,,,,,,,,,,,,,,,,,,,,,,,
,,?,0.002205,0,,,,,,stimuli/images/PICTURE_504.png,ARTIST,5973bad6e703200001ad2b86,25/09/1953,2020-07-09_19h03.50.466,proactive,2020.1.2,Win32,60,5f073de81c76c3308c0e4fb3,5f075b5cc10cab343d94746b,3,,,,,,wheel,,,,,,,,,,,5,1,0,8,8,49,1,,,,,,,,,,,,,,,,,,,,,,,,,,,,,,,,,,,,,,,,,,,,,,,,,,,,,,,,,,,,,,,,,,,,,,
,,?,0.002425,0,,,,,,stimuli/images/PICTURE_32.png,KIND,5973bad6e703200001ad2b86,25/09/1953,2020-07-09_19h03.50.466,proactive,2020.1.2,Win32,60,5f073de81c76c3308c0e4fb3,5f075b5cc10cab343d94746b,3,,,,,,crown,,,,,,,,,,,4,1,0,9,9,35,1,,,,,,,,,,,,,,,,,,,,,,,,,,,,,,,,,,,,,,,,,,,,,,,,,,,,,,,,,,,,,,,,,,,,,,
,,?,0.00182,0,,,,,,stimuli/images/PICTURE_233.png,LOTS,5973bad6e703200001ad2b86,25/09/1953,2020-07-09_19h03.50.466,proactive,2020.1.2,Win32,60,5f073de81c76c3308c0e4fb3,5f075b5cc10cab343d94746b,3,,,,,,salt,,,,,,,,,,,5,1,0,10,10,42,1,,,,,,,,,,,,,,,,,,,,,,,,,,,,,,,,,,,,,,,,,,,,,,,,,,,,,,,,,,,,,,,,,,,,,,
,,?,0.001895,0,,,,,,stimuli/images/PICTURE_95.png,MILLER,5973bad6e703200001ad2b86,25/09/1953,2020-07-09_19h03.50.466,proactive,2020.1.2,Win32,60,5f073de81c76c3308c0e4fb3,5f075b5cc10cab343d94746b,3,,,,,,suitcase,,,,,,,,,,,6,1,0,11,11,56,1,,,,,,,,,,,,,,,,,,,,,,,,,,,,,,,,,,,,,,,,,,,,,,,,,,,,,,,,,,,,,,,,,,,,,,
,,TOILET,15.001585,0,,,,,,stimuli/images/PICTURE_327.png,CASINO,5973bad6e703200001ad2b86,25/09/1953,2020-07-09_19h03.50.466,proactive,2020.1.2,Win32,60,5f073de81c76c3308c0e4fb3,5f075b5cc10cab343d94746b,3,,,,,,helmet,,,,,,,,,,,3,1,0,12,12,20,1,,,,,,,,,,,,,,,,,,,,,,,,,,,,,,,,,,,,,,,,,,,,,,,,,,,,,,,,,,,,,,,,,,,,,,
,,?,0.002185,0,,,,,,stimuli/images/PICTURE_685.png,PENNY,5973bad6e703200001ad2b86,25/09/1953,2020-07-09_19h03.50.466,proactive,2020.1.2,Win32,60,5f073de81c76c3308c0e4fb3,5f075b5cc10cab343d94746b,3,,,,,,goose,,,,,,,,,,,1,1,0,13,13,4,1,,,,,,,,,,,,,,,,,,,,,,,,,,,,,,,,,,,,,,,,,,,,,,,,,,,,,,,,,,,,,,,,,,,,,,
,,?,0.002055,0,,,,,,stimuli/images/PICTURE_708.png,RECORD,5973bad6e703200001ad2b86,25/09/1953,2020-07-09_19h03.50.466,proactive,2020.1.2,Win32,60,5f073de81c76c3308c0e4fb3,5f075b5cc10cab343d94746b,3,,,,,,monkey,,,,,,,,,,,6,1,0,14,14,58,1,,,,,,,,,,,,,,,,,,,,,,,,,,,,,,,,,,,,,,,,,,,,,,,,,,,,,,,,,,,,,,,,,,,,,,
,,?,0.001805,0,,,,,,stimuli/images/PICTURE_380.png,HONEY,5973bad6e703200001ad2b86,25/09/1953,2020-07-09_19h03.50.466,proactive,2020.1.2,Win32,60,5f073de81c76c3308c0e4fb3,5f075b5cc10cab343d94746b,3,,,,,,gorilla,,,,,,,,,,,2,1,0,15,15,19,1,,,,,,,,,,,,,,,,,,,,,,,,,,,,,,,,,,,,,,,,,,,,,,,,,,,,,,,,,,,,,,,,,,,,,,
,,?,0.00192,0,,,,,,stimuli/images/PICTURE_504.png,COPS,5973bad6e703200001ad2b86,25/09/1953,2020-07-09_19h03.50.466,proactive,2020.1.2,Win32,60,5f073de81c76c3308c0e4fb3,5f075b5cc10cab343d94746b,3,,,,,,wheel,,,,,,,,,,,6,1,0,16,16,52,1,,,,,,,,,,,,,,,,,,,,,,,,,,,,,,,,,,,,,,,,,,,,,,,,,,,,,,,,,,,,,,,,,,,,,,
