consent_key.keys,consent_key.rt,recalled,recalled_rt,recall_acc,example_recall.thisRepN,example_recall.thisTrialN,example_recall.thisN,example_recall.thisIndex,example_recall.ran,file,word,participant,please enter your date of birth (dd/mm/yyyy),date,expName,psychopyVersion,OS,frameRate,STUDY_ID,SESSION_ID,list,prac_learn_study_loop.thisRepN,prac_learn_study_loop.thisTrialN,prac_learn_study_loop.thisN,prac_learn_study_loop.thisIndex,prac_learn_study_loop.ran,image,prac_learn_test_loop.thisRepN,prac_learn_test_loop.thisTrialN,prac_learn_test_loop.thisN,prac_learn_test_loop.thisIndex,prac_learn_test_loop.ran,learn_study_loop.thisRepN,learn_study_loop.thisTrialN,learn_study_loop.thisN,learn_study_loop.thisIndex,learn_study_loop.ran,list_no,block_no,learn_test_loop.thisRepN,learn_test_loop.thisTrialN,learn_test_loop.thisN,learn_test_loop.thisIndex,learn_test_loop.ran,learn_blocks.thisRepN,learn_blocks.thisTrialN,learn_blocks.thisN,learn_blocks.thisIndex,learn_blocks.ran,block_csv,key_resp_13.keys,key_resp_13.rt,learn_blocks_loop.thisRepN,learn_blocks_loop.thisTrialN,learn_blocks_loop.thisN,learn_blocks_loop.thisIndex,learn_blocks_loop.ran,final_learn_test.thisRepN,final_learn_test.thisTrialN,final_learn_test.thisN,final_learn_test.thisIndex,final_learn_test.ran,prac_wm_test_loop.thisRepN,prac_wm_test_loop.thisTrialN,prac_wm_test_loop.thisN,prac_wm_test_loop.thisIndex,prac_wm_test_loop.ran,wm_recalled1,wm_recall_rt1,wm_probed1,wm_recall_acc1,wm_recalled2,wm_recall_rt2,wm_probed2,wm_recall_acc2,wm_recalled3,wm_recall_rt3,wm_probed3,wm_recall_acc3,wm_recalled4,wm_recall_rt4,wm_probed4,wm_recall_acc4,prac_wm_trial_loop.thisRepN,prac_wm_trial_loop.thisTrialN,prac_wm_trial_loop.thisN,prac_wm_trial_loop.thisIndex,prac_wm_trial_loop.ran,word1,image1,file1,item_type1,word2,image2,file2,item_type2,word4,image4,file4,item_type4,word3,image3,file3,item_type3,wm_test_loop.thisRepN,wm_test_loop.thisTrialN,wm_test_loop.thisN,wm_test_loop.thisIndex,wm_test_loop.ran,wm_trial_loop.thisRepN,wm_trial_loop.thisTrialN,wm_trial_loop.thisN,wm_trial_loop.thisIndex,wm_trial_loop.ran
y,14.504235,TOUGH,4.4863,1,0,0,0,0,1,stimuli/images/PICTURE_747.png,TOUGH,59bbd2d4178f1b0001828bbb,20/05/1985,2020-07-08_16h30.04.166,proactive,2020.1.2,Linux x86_64,60,5f035e5afe130c270d6ae6dd,5f05e65e084b4d00099f5995,4,,,,,,,,,,,,,,,,,,,,,,,,,,,,,,,,,,,,,,,,,,,,,,,,,,,,,,,,,,,,,,,,,,,,,,,,,,,,,,,,,,,,,,,,,,,,,
,,,,,,,,,,stimuli/images/PICTURE_727.png,CELL,59bbd2d4178f1b0001828bbb,20/05/1985,2020-07-08_16h30.04.166,proactive,2020.1.2,Linux x86_64,60,5f035e5afe130c270d6ae6dd,5f05e65e084b4d00099f5995,4,0,0,0,1,1,hose,,,,,,,,,,,,,,,,,,,,,,,,,,,,,,,,,,,,,,,,,,,,,,,,,,,,,,,,,,,,,,,,,,,,,,,,,,,,,,,,,,,,,,,
,,,,,,,,,,stimuli/images/PICTURE_658.png,DEVIL,59bbd2d4178f1b0001828bbb,20/05/1985,2020-07-08_16h30.04.166,proactive,2020.1.2,Linux x86_64,60,5f035e5afe130c270d6ae6dd,5f05e65e084b4d00099f5995,4,0,1,1,3,1,crow,,,,,,,,,,,,,,,,,,,,,,,,,,,,,,,,,,,,,,,,,,,,,,,,,,,,,,,,,,,,,,,,,,,,,,,,,,,,,,,,,,,,,,,
,,,,,,,,,,stimuli/images/PICTURE_269.png,GENIUS,59bbd2d4178f1b0001828bbb,20/05/1985,2020-07-08_16h30.04.166,proactive,2020.1.2,Linux x86_64,60,5f035e5afe130c270d6ae6dd,5f05e65e084b4d00099f5995,4,0,2,2,0,1,chameleon,,,,,,,,,,,,,,,,,,,,,,,,,,,,,,,,,,,,,,,,,,,,,,,,,,,,,,,,,,,,,,,,,,,,,,,,,,,,,,,,,,,,,,,
,,,,,,,,,,stimuli/images/PICTURE_697.png,KILLER,59bbd2d4178f1b0001828bbb,20/05/1985,2020-07-08_16h30.04.166,proactive,2020.1.2,Linux x86_64,60,5f035e5afe130c270d6ae6dd,5f05e65e084b4d00099f5995,4,0,3,3,4,1,peach,,,,,,,,,,,,,,,,,,,,,,,,,,,,,,,,,,,,,,,,,,,,,,,,,,,,,,,,,,,,,,,,,,,,,,,,,,,,,,,,,,,,,,,
,,KILLER,5.93429,0,,,,,,stimuli/images/PICTURE_658.png,DEVIL,59bbd2d4178f1b0001828bbb,20/05/1985,2020-07-08_16h30.04.166,proactive,2020.1.2,Linux x86_64,60,5f035e5afe130c270d6ae6dd,5f05e65e084b4d00099f5995,4,,,,,,crow,0,0,0,3,1,,,,,,,,,,,,,,,,,,,,,,,,,,,,,,,,,,,,,,,,,,,,,,,,,,,,,,,,,,,,,,,,,,,,,,,,,,,,,,,,,,
,,KILLER,5.0754,1,,,,,,stimuli/images/PICTURE_697.png,KILLER,59bbd2d4178f1b0001828bbb,20/05/1985,2020-07-08_16h30.04.166,proactive,2020.1.2,Linux x86_64,60,5f035e5afe130c270d6ae6dd,5f05e65e084b4d00099f5995,4,,,,,,peach,0,1,1,4,1,,,,,,,,,,,,,,,,,,,,,,,,,,,,,,,,,,,,,,,,,,,,,,,,,,,,,,,,,,,,,,,,,,,,,,,,,,,,,,,,,,
,,GENIUS,2.81519,1,,,,,,stimuli/images/PICTURE_269.png,GENIUS,59bbd2d4178f1b0001828bbb,20/05/1985,2020-07-08_16h30.04.166,proactive,2020.1.2,Linux x86_64,60,5f035e5afe130c270d6ae6dd,5f05e65e084b4d00099f5995,4,,,,,,chameleon,0,2,2,0,1,,,,,,,,,,,,,,,,,,,,,,,,,,,,,,,,,,,,,,,,,,,,,,,,,,,,,,,,,,,,,,,,,,,,,,,,,,,,,,,,,,
,,LOSS,1.680775,1,,,,,,stimuli/images/PICTURE_378.png,LOSS,59bbd2d4178f1b0001828bbb,20/05/1985,2020-07-08_16h30.04.166,proactive,2020.1.2,Linux x86_64,60,5f035e5afe130c270d6ae6dd,5f05e65e084b4d00099f5995,4,,,,,,lobster,0,3,3,2,1,,,,,,,,,,,,,,,,,,,,,,,,,,,,,,,,,,,,,,,,,,,,,,,,,,,,,,,,,,,,,,,,,,,,,,,,,,,,,,,,,,
,,CELL,2.797025,1,,,,,,stimuli/images/PICTURE_727.png,CELL,59bbd2d4178f1b0001828bbb,20/05/1985,2020-07-08_16h30.04.166,proactive,2020.1.2,Linux x86_64,60,5f035e5afe130c270d6ae6dd,5f05e65e084b4d00099f5995,4,,,,,,hose,0,4,4,1,1,,,,,,,,,,,,,,,,,,,,,,,,,,,,,,,,,,,,,,,,,,,,,,,,,,,,,,,,,,,,,,,,,,,,,,,,,,,,,,,,,,
,,,,,,,,,,stimuli/images/PICTURE_509.png,MILLER,59bbd2d4178f1b0001828bbb,20/05/1985,2020-07-08_16h30.04.166,proactive,2020.1.2,Linux x86_64,60,5f035e5afe130c270d6ae6dd,5f05e65e084b4d00099f5995,4,,,,,,telephone,,,,,,0,0,0,49,1,5,2,,,,,,,,,,,,,,,,,,,,,,,,,,,,,,,,,,,,,,,,,,,,,,,,,,,,,,,,,,,,,,,,,,,,,,,,,,,
,,,,,,,,,,stimuli/images/PICTURE_32.png,LETTER,59bbd2d4178f1b0001828bbb,20/05/1985,2020-07-08_16h30.04.166,proactive,2020.1.2,Linux x86_64,60,5f035e5afe130c270d6ae6dd,5f05e65e084b4d00099f5995,4,,,,,,crown,,,,,,0,1,1,56,1,6,2,,,,,,,,,,,,,,,,,,,,,,,,,,,,,,,,,,,,,,,,,,,,,,,,,,,,,,,,,,,,,,,,,,,,,,,,,,,
,,,,,,,,,,stimuli/images/PICTURE_677.png,PHOTO,59bbd2d4178f1b0001828bbb,20/05/1985,2020-07-08_16h30.04.166,proactive,2020.1.2,Linux x86_64,60,5f035e5afe130c270d6ae6dd,5f05e65e084b4d00099f5995,4,,,,,,map,,,,,,0,2,2,14,1,2,2,,,,,,,,,,,,,,,,,,,,,,,,,,,,,,,,,,,,,,,,,,,,,,,,,,,,,,,,,,,,,,,,,,,,,,,,,,,
,,,,,,,,,,stimuli/images/PICTURE_311.png,TOILET,59bbd2d4178f1b0001828bbb,20/05/1985,2020-07-08_16h30.04.166,proactive,2020.1.2,Linux x86_64,60,5f035e5afe130c270d6ae6dd,5f05e65e084b4d00099f5995,4,,,,,,razor,,,,,,0,3,3,54,1,6,2,,,,,,,,,,,,,,,,,,,,,,,,,,,,,,,,,,,,,,,,,,,,,,,,,,,,,,,,,,,,,,,,,,,,,,,,,,,
,,,,,,,,,,stimuli/images/PICTURE_160.png,HOTEL,59bbd2d4178f1b0001828bbb,20/05/1985,2020-07-08_16h30.04.166,proactive,2020.1.2,Linux x86_64,60,5f035e5afe130c270d6ae6dd,5f05e65e084b4d00099f5995,4,,,,,,wheelbarrow,,,,,,0,4,4,16,1,2,2,,,,,,,,,,,,,,,,,,,,,,,,,,,,,,,,,,,,,,,,,,,,,,,,,,,,,,,,,,,,,,,,,,,,,,,,,,,
,,,,,,,,,,stimuli/images/PICTURE_327.png,LEADER,59bbd2d4178f1b0001828bbb,20/05/1985,2020-07-08_16h30.04.166,proactive,2020.1.2,Linux x86_64,60,5f035e5afe130c270d6ae6dd,5f05e65e084b4d00099f5995,4,,,,,,helmet,,,,,,0,5,5,17,1,2,2,,,,,,,,,,,,,,,,,,,,,,,,,,,,,,,,,,,,,,,,,,,,,,,,,,,,,,,,,,,,,,,,,,,,,,,,,,,
,,,,,,,,,,stimuli/images/PICTURE_677.png,FAMILY,59bbd2d4178f1b0001828bbb,20/05/1985,2020-07-08_16h30.04.166,proactive,2020.1.2,Linux x86_64,60,5f035e5afe130c270d6ae6dd,5f05e65e084b4d00099f5995,4,,,,,,map,,,,,,0,6,6,53,1,6,2,,,,,,,,,,,,,,,,,,,,,,,,,,,,,,,,,,,,,,,,,,,,,,,,,,,,,,,,,,,,,,,,,,,,,,,,,,,
,,,,,,,,,,stimuli/images/PICTURE_470.png,BEAUTY,59bbd2d4178f1b0001828bbb,20/05/1985,2020-07-08_16h30.04.166,proactive,2020.1.2,Linux x86_64,60,5f035e5afe130c270d6ae6dd,5f05e65e084b4d00099f5995,4,,,,,,motorbike,,,,,,0,7,7,26,1,3,2,,,,,,,,,,,,,,,,,,,,,,,,,,,,,,,,,,,,,,,,,,,,,,,,,,,,,,,,,,,,,,,,,,,,,,,,,,,
,,,,,,,,,,stimuli/images/PICTURE_405.png,JUNGLE,59bbd2d4178f1b0001828bbb,20/05/1985,2020-07-08_16h30.04.166,proactive,2020.1.2,Linux x86_64,60,5f035e5afe130c270d6ae6dd,5f05e65e084b4d00099f5995,4,,,,,,anchor,,,,,,0,8,8,13,1,2,2,,,,,,,,,,,,,,,,,,,,,,,,,,,,,,,,,,,,,,,,,,,,,,,,,,,,,,,,,,,,,,,,,,,,,,,,,,,
,,,,,,,,,,stimuli/images/PICTURE_403.png,FAMILY,59bbd2d4178f1b0001828bbb,20/05/1985,2020-07-08_16h30.04.166,proactive,2020.1.2,Linux x86_64,60,5f035e5afe130c270d6ae6dd,5f05e65e084b4d00099f5995,4,,,,,,cathedral,,,,,,0,9,9,9,1,1,2,,,,,,,,,,,,,,,,,,,,,,,,,,,,,,,,,,,,,,,,,,,,,,,,,,,,,,,,,,,,,,,,,,,,,,,,,,,
,,,,,,,,,,stimuli/images/PICTURE_33.png,COPS,59bbd2d4178f1b0001828bbb,20/05/1985,2020-07-08_16h30.04.166,proactive,2020.1.2,Linux x86_64,60,5f035e5afe130c270d6ae6dd,5f05e65e084b4d00099f5995,4,,,,,,frame,,,,,,0,10,10,29,1,3,2,,,,,,,,,,,,,,,,,,,,,,,,,,,,,,,,,,,,,,,,,,,,,,,,,,,,,,,,,,,,,,,,,,,,,,,,,,,
,,,,,,,,,,stimuli/images/PICTURE_655.png,SALE,59bbd2d4178f1b0001828bbb,20/05/1985,2020-07-08_16h30.04.166,proactive,2020.1.2,Linux x86_64,60,5f035e5afe130c270d6ae6dd,5f05e65e084b4d00099f5995,4,,,,,,megaphone,,,,,,0,11,11,57,1,6,2,,,,,,,,,,,,,,,,,,,,,,,,,,,,,,,,,,,,,,,,,,,,,,,,,,,,,,,,,,,,,,,,,,,,,,,,,,,
,,,,,,,,,,stimuli/images/PICTURE_57.png,CANDY,59bbd2d4178f1b0001828bbb,20/05/1985,2020-07-08_16h30.04.166,proactive,2020.1.2,Linux x86_64,60,5f035e5afe130c270d6ae6dd,5f05e65e084b4d00099f5995,4,,,,,,stamp,,,,,,0,12,12,52,1,6,2,,,,,,,,,,,,,,,,,,,,,,,,,,,,,,,,,,,,,,,,,,,,,,,,,,,,,,,,,,,,,,,,,,,,,,,,,,,
,,,,,,,,,,stimuli/images/PICTURE_2.png,JUNGLE,59bbd2d4178f1b0001828bbb,20/05/1985,2020-07-08_16h30.04.166,proactive,2020.1.2,Linux x86_64,60,5f035e5afe130c270d6ae6dd,5f05e65e084b4d00099f5995,4,,,,,,tyre,,,,,,0,13,13,1,1,1,2,,,,,,,,,,,,,,,,,,,,,,,,,,,,,,,,,,,,,,,,,,,,,,,,,,,,,,,,,,,,,,,,,,,,,,,,,,,
,,,,,,,,,,stimuli/images/PICTURE_255.png,PENNY,59bbd2d4178f1b0001828bbb,20/05/1985,2020-07-08_16h30.04.166,proactive,2020.1.2,Linux x86_64,60,5f035e5afe130c270d6ae6dd,5f05e65e084b4d00099f5995,4,,,,,,shovel,,,,,,0,14,14,19,1,2,2,,,,,,,,,,,,,,,,,,,,,,,,,,,,,,,,,,,,,,,,,,,,,,,,,,,,,,,,,,,,,,,,,,,,,,,,,,,
,,,,,,,,,,stimuli/images/PICTURE_453.png,FAMILY,59bbd2d4178f1b0001828bbb,20/05/1985,2020-07-08_16h30.04.166,proactive,2020.1.2,Linux x86_64,60,5f035e5afe130c270d6ae6dd,5f05e65e084b4d00099f5995,4,,,,,,scissors,,,,,,0,15,15,48,1,5,2,,,,,,,,,,,,,,,,,,,,,,,,,,,,,,,,,,,,,,,,,,,,,,,,,,,,,,,,,,,,,,,,,,,,,,,,,,,
,,,,,,,,,,stimuli/images/PICTURE_285.png,PRINCE,59bbd2d4178f1b0001828bbb,20/05/1985,2020-07-08_16h30.04.166,proactive,2020.1.2,Linux x86_64,60,5f035e5afe130c270d6ae6dd,5f05e65e084b4d00099f5995,4,,,,,,carrot,,,,,,0,16,16,20,1,3,2,,,,,,,,,,,,,,,,,,,,,,,,,,,,,,,,,,,,,,,,,,,,,,,,,,,,,,,,,,,,,,,,,,,,,,,,,,,
,,,,,,,,,,stimuli/images/PICTURE_509.png,SHOTS,59bbd2d4178f1b0001828bbb,20/05/1985,2020-07-08_16h30.04.166,proactive,2020.1.2,Linux x86_64,60,5f035e5afe130c270d6ae6dd,5f05e65e084b4d00099f5995,4,,,,,,telephone,,,,,,0,17,17,7,1,1,2,,,,,,,,,,,,,,,,,,,,,,,,,,,,,,,,,,,,,,,,,,,,,,,,,,,,,,,,,,,,,,,,,,,,,,,,,,,
,,,,,,,,,,stimuli/images/PICTURE_348.png,TOILET,59bbd2d4178f1b0001828bbb,20/05/1985,2020-07-08_16h30.04.166,proactive,2020.1.2,Linux x86_64,60,5f035e5afe130c270d6ae6dd,5f05e65e084b4d00099f5995,4,,,,,,pepper,,,,,,0,18,18,4,1,1,2,,,,,,,,,,,,,,,,,,,,,,,,,,,,,,,,,,,,,,,,,,,,,,,,,,,,,,,,,,,,,,,,,,,,,,,,,,,
,,,,,,,,,,stimuli/images/PICTURE_509.png,BATH,59bbd2d4178f1b0001828bbb,20/05/1985,2020-07-08_16h30.04.166,proactive,2020.1.2,Linux x86_64,60,5f035e5afe130c270d6ae6dd,5f05e65e084b4d00099f5995,4,,,,,,telephone,,,,,,0,19,19,15,1,2,2,,,,,,,,,,,,,,,,,,,,,,,,,,,,,,,,,,,,,,,,,,,,,,,,,,,,,,,,,,,,,,,,,,,,,,,,,,,
,,,,,,,,,,stimuli/images/PICTURE_356.png,CANDY,59bbd2d4178f1b0001828bbb,20/05/1985,2020-07-08_16h30.04.166,proactive,2020.1.2,Linux x86_64,60,5f035e5afe130c270d6ae6dd,5f05e65e084b4d00099f5995,4,,,,,,pawn,,,,,,0,20,20,46,1,5,2,,,,,,,,,,,,,,,,,,,,,,,,,,,,,,,,,,,,,,,,,,,,,,,,,,,,,,,,,,,,,,,,,,,,,,,,,,,
,,,,,,,,,,stimuli/images/PICTURE_487.png,ROOF,59bbd2d4178f1b0001828bbb,20/05/1985,2020-07-08_16h30.04.166,proactive,2020.1.2,Linux x86_64,60,5f035e5afe130c270d6ae6dd,5f05e65e084b4d00099f5995,4,,,,,,basket,,,,,,0,21,21,50,1,6,2,,,,,,,,,,,,,,,,,,,,,,,,,,,,,,,,,,,,,,,,,,,,,,,,,,,,,,,,,,,,,,,,,,,,,,,,,,,
,,,,,,,,,,stimuli/images/PICTURE_311.png,FLESH,59bbd2d4178f1b0001828bbb,20/05/1985,2020-07-08_16h30.04.166,proactive,2020.1.2,Linux x86_64,60,5f035e5afe130c270d6ae6dd,5f05e65e084b4d00099f5995,4,,,,,,razor,,,,,,0,22,22,3,1,1,2,,,,,,,,,,,,,,,,,,,,,,,,,,,,,,,,,,,,,,,,,,,,,,,,,,,,,,,,,,,,,,,,,,,,,,,,,,,
,,,,,,,,,,stimuli/images/PICTURE_470.png,MOMENT,59bbd2d4178f1b0001828bbb,20/05/1985,2020-07-08_16h30.04.166,proactive,2020.1.2,Linux x86_64,60,5f035e5afe130c270d6ae6dd,5f05e65e084b4d00099f5995,4,,,,,,motorbike,,,,,,0,23,23,40,1,5,2,,,,,,,,,,,,,,,,,,,,,,,,,,,,,,,,,,,,,,,,,,,,,,,,,,,,,,,,,,,,,,,,,,,,,,,,,,,
,,,,,,,,,,stimuli/images/PICTURE_688.png,CLOCK,59bbd2d4178f1b0001828bbb,20/05/1985,2020-07-08_16h30.04.166,proactive,2020.1.2,Linux x86_64,60,5f035e5afe130c270d6ae6dd,5f05e65e084b4d00099f5995,4,,,,,,runner,,,,,,0,24,24,42,1,5,2,,,,,,,,,,,,,,,,,,,,,,,,,,,,,,,,,,,,,,,,,,,,,,,,,,,,,,,,,,,,,,,,,,,,,,,,,,,
,,,,,,,,,,stimuli/images/PICTURE_405.png,HOUSE,59bbd2d4178f1b0001828bbb,20/05/1985,2020-07-08_16h30.04.166,proactive,2020.1.2,Linux x86_64,60,5f035e5afe130c270d6ae6dd,5f05e65e084b4d00099f5995,4,,,,,,anchor,,,,,,0,25,25,2,1,1,2,,,,,,,,,,,,,,,,,,,,,,,,,,,,,,,,,,,,,,,,,,,,,,,,,,,,,,,,,,,,,,,,,,,,,,,,,,,
,,,,,,,,,,stimuli/images/PICTURE_491.png,SERIES,59bbd2d4178f1b0001828bbb,20/05/1985,2020-07-08_16h30.04.166,proactive,2020.1.2,Linux x86_64,60,5f035e5afe130c270d6ae6dd,5f05e65e084b4d00099f5995,4,,,,,,rug,,,,,,0,26,26,39,1,4,2,,,,,,,,,,,,,,,,,,,,,,,,,,,,,,,,,,,,,,,,,,,,,,,,,,,,,,,,,,,,,,,,,,,,,,,,,,,
,,,,,,,,,,stimuli/images/PICTURE_452.png,COPS,59bbd2d4178f1b0001828bbb,20/05/1985,2020-07-08_16h30.04.166,proactive,2020.1.2,Linux x86_64,60,5f035e5afe130c270d6ae6dd,5f05e65e084b4d00099f5995,4,,,,,,watch,,,,,,0,27,27,0,1,1,2,,,,,,,,,,,,,,,,,,,,,,,,,,,,,,,,,,,,,,,,,,,,,,,,,,,,,,,,,,,,,,,,,,,,,,,,,,,
,,,,,,,,,,stimuli/images/PICTURE_509.png,APPLE,59bbd2d4178f1b0001828bbb,20/05/1985,2020-07-08_16h30.04.166,proactive,2020.1.2,Linux x86_64,60,5f035e5afe130c270d6ae6dd,5f05e65e084b4d00099f5995,4,,,,,,telephone,,,,,,0,28,28,38,1,4,2,,,,,,,,,,,,,,,,,,,,,,,,,,,,,,,,,,,,,,,,,,,,,,,,,,,,,,,,,,,,,,,,,,,,,,,,,,,
,,,,,,,,,,stimuli/images/PICTURE_141.png,CLIENT,59bbd2d4178f1b0001828bbb,20/05/1985,2020-07-08_16h30.04.166,proactive,2020.1.2,Linux x86_64,60,5f035e5afe130c270d6ae6dd,5f05e65e084b4d00099f5995,4,,,,,,sunflower,,,,,,0,29,29,30,1,4,2,,,,,,,,,,,,,,,,,,,,,,,,,,,,,,,,,,,,,,,,,,,,,,,,,,,,,,,,,,,,,,,,,,,,,,,,,,,
,,,,,,,,,,stimuli/images/PICTURE_348.png,DUDE,59bbd2d4178f1b0001828bbb,20/05/1985,2020-07-08_16h30.04.166,proactive,2020.1.2,Linux x86_64,60,5f035e5afe130c270d6ae6dd,5f05e65e084b4d00099f5995,4,,,,,,pepper,,,,,,0,30,30,59,1,6,2,,,,,,,,,,,,,,,,,,,,,,,,,,,,,,,,,,,,,,,,,,,,,,,,,,,,,,,,,,,,,,,,,,,,,,,,,,,
,,,,,,,,,,stimuli/images/PICTURE_654.png,COPS,59bbd2d4178f1b0001828bbb,20/05/1985,2020-07-08_16h30.04.166,proactive,2020.1.2,Linux x86_64,60,5f035e5afe130c270d6ae6dd,5f05e65e084b4d00099f5995,4,,,,,,pencil,,,,,,0,31,31,10,1,2,2,,,,,,,,,,,,,,,,,,,,,,,,,,,,,,,,,,,,,,,,,,,,,,,,,,,,,,,,,,,,,,,,,,,,,,,,,,,
,,,,,,,,,,stimuli/images/PICTURE_487.png,POLICY,59bbd2d4178f1b0001828bbb,20/05/1985,2020-07-08_16h30.04.166,proactive,2020.1.2,Linux x86_64,60,5f035e5afe130c270d6ae6dd,5f05e65e084b4d00099f5995,4,,,,,,basket,,,,,,0,32,32,34,1,4,2,,,,,,,,,,,,,,,,,,,,,,,,,,,,,,,,,,,,,,,,,,,,,,,,,,,,,,,,,,,,,,,,,,,,,,,,,,,
,,,,,,,,,,stimuli/images/PICTURE_177.png,HOUSE,59bbd2d4178f1b0001828bbb,20/05/1985,2020-07-08_16h30.04.166,proactive,2020.1.2,Linux x86_64,60,5f035e5afe130c270d6ae6dd,5f05e65e084b4d00099f5995,4,,,,,,mushroom,,,,,,0,33,33,25,1,3,2,,,,,,,,,,,,,,,,,,,,,,,,,,,,,,,,,,,,,,,,,,,,,,,,,,,,,,,,,,,,,,,,,,,,,,,,,,,
,,,,,,,,,,stimuli/images/PICTURE_57.png,CASINO,59bbd2d4178f1b0001828bbb,20/05/1985,2020-07-08_16h30.04.166,proactive,2020.1.2,Linux x86_64,60,5f035e5afe130c270d6ae6dd,5f05e65e084b4d00099f5995,4,,,,,,stamp,,,,,,0,34,34,12,1,2,2,,,,,,,,,,,,,,,,,,,,,,,,,,,,,,,,,,,,,,,,,,,,,,,,,,,,,,,,,,,,,,,,,,,,,,,,,,,
,,,,,,,,,,stimuli/images/PICTURE_215.png,LEADER,59bbd2d4178f1b0001828bbb,20/05/1985,2020-07-08_16h30.04.166,proactive,2020.1.2,Linux x86_64,60,5f035e5afe130c270d6ae6dd,5f05e65e084b4d00099f5995,4,,,,,,boot,,,,,,0,35,35,43,1,5,2,,,,,,,,,,,,,,,,,,,,,,,,,,,,,,,,,,,,,,,,,,,,,,,,,,,,,,,,,,,,,,,,,,,,,,,,,,,
,,,,,,,,,,stimuli/images/PICTURE_692.png,DUDE,59bbd2d4178f1b0001828bbb,20/05/1985,2020-07-08_16h30.04.166,proactive,2020.1.2,Linux x86_64,60,5f035e5afe130c270d6ae6dd,5f05e65e084b4d00099f5995,4,,,,,,cherry,,,,,,0,36,36,47,1,5,2,,,,,,,,,,,,,,,,,,,,,,,,,,,,,,,,,,,,,,,,,,,,,,,,,,,,,,,,,,,,,,,,,,,,,,,,,,,
,,,,,,,,,,stimuli/images/PICTURE_18.png,RIVER,59bbd2d4178f1b0001828bbb,20/05/1985,2020-07-08_16h30.04.166,proactive,2020.1.2,Linux x86_64,60,5f035e5afe130c270d6ae6dd,5f05e65e084b4d00099f5995,4,,,,,,planet,,,,,,0,37,37,22,1,3,2,,,,,,,,,,,,,,,,,,,,,,,,,,,,,,,,,,,,,,,,,,,,,,,,,,,,,,,,,,,,,,,,,,,,,,,,,,,
,,,,,,,,,,stimuli/images/PICTURE_95.png,NIGHT,59bbd2d4178f1b0001828bbb,20/05/1985,2020-07-08_16h30.04.166,proactive,2020.1.2,Linux x86_64,60,5f035e5afe130c270d6ae6dd,5f05e65e084b4d00099f5995,4,,,,,,suitcase,,,,,,0,38,38,37,1,4,2,,,,,,,,,,,,,,,,,,,,,,,,,,,,,,,,,,,,,,,,,,,,,,,,,,,,,,,,,,,,,,,,,,,,,,,,,,,
,,,,,,,,,,stimuli/images/PICTURE_504.png,HOUSE,59bbd2d4178f1b0001828bbb,20/05/1985,2020-07-08_16h30.04.166,proactive,2020.1.2,Linux x86_64,60,5f035e5afe130c270d6ae6dd,5f05e65e084b4d00099f5995,4,,,,,,wheel,,,,,,0,39,39,36,1,4,2,,,,,,,,,,,,,,,,,,,,,,,,,,,,,,,,,,,,,,,,,,,,,,,,,,,,,,,,,,,,,,,,,,,,,,,,,,,
,,,,,,,,,,stimuli/images/PICTURE_667.png,GLASS,59bbd2d4178f1b0001828bbb,20/05/1985,2020-07-08_16h30.04.166,proactive,2020.1.2,Linux x86_64,60,5f035e5afe130c270d6ae6dd,5f05e65e084b4d00099f5995,4,,,,,,daisy,,,,,,0,40,40,27,1,3,2,,,,,,,,,,,,,,,,,,,,,,,,,,,,,,,,,,,,,,,,,,,,,,,,,,,,,,,,,,,,,,,,,,,,,,,,,,,
,,,,,,,,,,stimuli/images/PICTURE_57.png,NATION,59bbd2d4178f1b0001828bbb,20/05/1985,2020-07-08_16h30.04.166,proactive,2020.1.2,Linux x86_64,60,5f035e5afe130c270d6ae6dd,5f05e65e084b4d00099f5995,4,,,,,,stamp,,,,,,0,41,41,21,1,3,2,,,,,,,,,,,,,,,,,,,,,,,,,,,,,,,,,,,,,,,,,,,,,,,,,,,,,,,,,,,,,,,,,,,,,,,,,,,
,,,,,,,,,,stimuli/images/PICTURE_296.png,CLOCK,59bbd2d4178f1b0001828bbb,20/05/1985,2020-07-08_16h30.04.166,proactive,2020.1.2,Linux x86_64,60,5f035e5afe130c270d6ae6dd,5f05e65e084b4d00099f5995,4,,,,,,bolt,,,,,,0,42,42,18,1,2,2,,,,,,,,,,,,,,,,,,,,,,,,,,,,,,,,,,,,,,,,,,,,,,,,,,,,,,,,,,,,,,,,,,,,,,,,,,,
,,,,,,,,,,stimuli/images/PICTURE_215.png,FOOD,59bbd2d4178f1b0001828bbb,20/05/1985,2020-07-08_16h30.04.166,proactive,2020.1.2,Linux x86_64,60,5f035e5afe130c270d6ae6dd,5f05e65e084b4d00099f5995,4,,,,,,boot,,,,,,0,43,43,5,1,1,2,,,,,,,,,,,,,,,,,,,,,,,,,,,,,,,,,,,,,,,,,,,,,,,,,,,,,,,,,,,,,,,,,,,,,,,,,,,
,,,,,,,,,,stimuli/images/PICTURE_123.png,SALE,59bbd2d4178f1b0001828bbb,20/05/1985,2020-07-08_16h30.04.166,proactive,2020.1.2,Linux x86_64,60,5f035e5afe130c270d6ae6dd,5f05e65e084b4d00099f5995,4,,,,,,dart,,,,,,0,44,44,8,1,1,2,,,,,,,,,,,,,,,,,,,,,,,,,,,,,,,,,,,,,,,,,,,,,,,,,,,,,,,,,,,,,,,,,,,,,,,,,,,
,,,,,,,,,,stimuli/images/PICTURE_297.png,BODY,59bbd2d4178f1b0001828bbb,20/05/1985,2020-07-08_16h30.04.166,proactive,2020.1.2,Linux x86_64,60,5f035e5afe130c270d6ae6dd,5f05e65e084b4d00099f5995,4,,,,,,aeroplane,,,,,,0,45,45,51,1,6,2,,,,,,,,,,,,,,,,,,,,,,,,,,,,,,,,,,,,,,,,,,,,,,,,,,,,,,,,,,,,,,,,,,,,,,,,,,,
,,,,,,,,,,stimuli/images/PICTURE_68.png,KIND,59bbd2d4178f1b0001828bbb,20/05/1985,2020-07-08_16h30.04.166,proactive,2020.1.2,Linux x86_64,60,5f035e5afe130c270d6ae6dd,5f05e65e084b4d00099f5995,4,,,,,,candle,,,,,,0,46,46,23,1,3,2,,,,,,,,,,,,,,,,,,,,,,,,,,,,,,,,,,,,,,,,,,,,,,,,,,,,,,,,,,,,,,,,,,,,,,,,,,,
,,,,,,,,,,stimuli/images/PICTURE_708.png,VALLEY,59bbd2d4178f1b0001828bbb,20/05/1985,2020-07-08_16h30.04.166,proactive,2020.1.2,Linux x86_64,60,5f035e5afe130c270d6ae6dd,5f05e65e084b4d00099f5995,4,,,,,,monkey,,,,,,0,47,47,45,1,5,2,,,,,,,,,,,,,,,,,,,,,,,,,,,,,,,,,,,,,,,,,,,,,,,,,,,,,,,,,,,,,,,,,,,,,,,,,,,
,,,,,,,,,,stimuli/images/PICTURE_2.png,AREA,59bbd2d4178f1b0001828bbb,20/05/1985,2020-07-08_16h30.04.166,proactive,2020.1.2,Linux x86_64,60,5f035e5afe130c270d6ae6dd,5f05e65e084b4d00099f5995,4,,,,,,tyre,,,,,,0,48,48,32,1,4,2,,,,,,,,,,,,,,,,,,,,,,,,,,,,,,,,,,,,,,,,,,,,,,,,,,,,,,,,,,,,,,,,,,,,,,,,,,,
,,,,,,,,,,stimuli/images/PICTURE_93.png,GIRL,59bbd2d4178f1b0001828bbb,20/05/1985,2020-07-08_16h30.04.166,proactive,2020.1.2,Linux x86_64,60,5f035e5afe130c270d6ae6dd,5f05e65e084b4d00099f5995,4,,,,,,skateboard,,,,,,0,49,49,31,1,4,2,,,,,,,,,,,,,,,,,,,,,,,,,,,,,,,,,,,,,,,,,,,,,,,,,,,,,,,,,,,,,,,,,,,,,,,,,,,
,,,,,,,,,,stimuli/images/PICTURE_405.png,JUNGLE,59bbd2d4178f1b0001828bbb,20/05/1985,2020-07-08_16h30.04.166,proactive,2020.1.2,Linux x86_64,60,5f035e5afe130c270d6ae6dd,5f05e65e084b4d00099f5995,4,,,,,,anchor,,,,,,0,50,50,58,1,6,2,,,,,,,,,,,,,,,,,,,,,,,,,,,,,,,,,,,,,,,,,,,,,,,,,,,,,,,,,,,,,,,,,,,,,,,,,,,
,,,,,,,,,,stimuli/images/PICTURE_314.png,SPEECH,59bbd2d4178f1b0001828bbb,20/05/1985,2020-07-08_16h30.04.166,proactive,2020.1.2,Linux x86_64,60,5f035e5afe130c270d6ae6dd,5f05e65e084b4d00099f5995,4,,,,,,perfume,,,,,,0,51,51,35,1,4,2,,,,,,,,,,,,,,,,,,,,,,,,,,,,,,,,,,,,,,,,,,,,,,,,,,,,,,,,,,,,,,,,,,,,,,,,,,,
,,,,,,,,,,stimuli/images/PICTURE_2.png,YARD,59bbd2d4178f1b0001828bbb,20/05/1985,2020-07-08_16h30.04.166,proactive,2020.1.2,Linux x86_64,60,5f035e5afe130c270d6ae6dd,5f05e65e084b4d00099f5995,4,,,,,,tyre,,,,,,0,52,52,55,1,6,2,,,,,,,,,,,,,,,,,,,,,,,,,,,,,,,,,,,,,,,,,,,,,,,,,,,,,,,,,,,,,,,,,,,,,,,,,,,
,,,,,,,,,,stimuli/images/PICTURE_654.png,YEAR,59bbd2d4178f1b0001828bbb,20/05/1985,2020-07-08_16h30.04.166,proactive,2020.1.2,Linux x86_64,60,5f035e5afe130c270d6ae6dd,5f05e65e084b4d00099f5995,4,,,,,,pencil,,,,,,0,53,53,41,1,5,2,,,,,,,,,,,,,,,,,,,,,,,,,,,,,,,,,,,,,,,,,,,,,,,,,,,,,,,,,,,,,,,,,,,,,,,,,,,
,,,,,,,,,,stimuli/images/PICTURE_215.png,BOYS,59bbd2d4178f1b0001828bbb,20/05/1985,2020-07-08_16h30.04.166,proactive,2020.1.2,Linux x86_64,60,5f035e5afe130c270d6ae6dd,5f05e65e084b4d00099f5995,4,,,,,,boot,,,,,,0,54,54,24,1,3,2,,,,,,,,,,,,,,,,,,,,,,,,,,,,,,,,,,,,,,,,,,,,,,,,,,,,,,,,,,,,,,,,,,,,,,,,,,,
,,,,,,,,,,stimuli/images/PICTURE_208.png,SPIRIT,59bbd2d4178f1b0001828bbb,20/05/1985,2020-07-08_16h30.04.166,proactive,2020.1.2,Linux x86_64,60,5f035e5afe130c270d6ae6dd,5f05e65e084b4d00099f5995,4,,,,,,microphone,,,,,,0,55,55,28,1,3,2,,,,,,,,,,,,,,,,,,,,,,,,,,,,,,,,,,,,,,,,,,,,,,,,,,,,,,,,,,,,,,,,,,,,,,,,,,,
,,,,,,,,,,stimuli/images/PICTURE_564.png,PLENTY,59bbd2d4178f1b0001828bbb,20/05/1985,2020-07-08_16h30.04.166,proactive,2020.1.2,Linux x86_64,60,5f035e5afe130c270d6ae6dd,5f05e65e084b4d00099f5995,4,,,,,,spoon,,,,,,0,56,56,11,1,2,2,,,,,,,,,,,,,,,,,,,,,,,,,,,,,,,,,,,,,,,,,,,,,,,,,,,,,,,,,,,,,,,,,,,,,,,,,,,
,,,,,,,,,,stimuli/images/PICTURE_147.png,LEADER,59bbd2d4178f1b0001828bbb,20/05/1985,2020-07-08_16h30.04.166,proactive,2020.1.2,Linux x86_64,60,5f035e5afe130c270d6ae6dd,5f05e65e084b4d00099f5995,4,,,,,,hanger,,,,,,0,57,57,33,1,4,2,,,,,,,,,,,,,,,,,,,,,,,,,,,,,,,,,,,,,,,,,,,,,,,,,,,,,,,,,,,,,,,,,,,,,,,,,,,
,,,,,,,,,,stimuli/images/PICTURE_750.png,POLICY,59bbd2d4178f1b0001828bbb,20/05/1985,2020-07-08_16h30.04.166,proactive,2020.1.2,Linux x86_64,60,5f035e5afe130c270d6ae6dd,5f05e65e084b4d00099f5995,4,,,,,,kettle,,,,,,0,58,58,44,1,5,2,,,,,,,,,,,,,,,,,,,,,,,,,,,,,,,,,,,,,,,,,,,,,,,,,,,,,,,,,,,,,,,,,,,,,,,,,,,
,,?,0.00246,0,,,,,,stimuli/images/PICTURE_255.png,PENNY,59bbd2d4178f1b0001828bbb,20/05/1985,2020-07-08_16h30.04.166,proactive,2020.1.2,Linux x86_64,60,5f035e5afe130c270d6ae6dd,5f05e65e084b4d00099f5995,4,,,,,,shovel,,,,,,,,,,,2,2,0,0,0,19,1,,,,,,,,,,,,,,,,,,,,,,,,,,,,,,,,,,,,,,,,,,,,,,,,,,,,,,,,,,,,,,,,,,,,,,
,,?,0.00238,0,,,,,,stimuli/images/PICTURE_215.png,FOOD,59bbd2d4178f1b0001828bbb,20/05/1985,2020-07-08_16h30.04.166,proactive,2020.1.2,Linux x86_64,60,5f035e5afe130c270d6ae6dd,5f05e65e084b4d00099f5995,4,,,,,,boot,,,,,,,,,,,1,2,0,1,1,5,1,,,,,,,,,,,,,,,,,,,,,,,,,,,,,,,,,,,,,,,,,,,,,,,,,,,,,,,,,,,,,,,,,,,,,,
,,?,0.00283,0,,,,,,stimuli/images/PICTURE_654.png,COPS,59bbd2d4178f1b0001828bbb,20/05/1985,2020-07-08_16h30.04.166,proactive,2020.1.2,Linux x86_64,60,5f035e5afe130c270d6ae6dd,5f05e65e084b4d00099f5995,4,,,,,,pencil,,,,,,,,,,,2,2,0,2,2,10,1,,,,,,,,,,,,,,,,,,,,,,,,,,,,,,,,,,,,,,,,,,,,,,,,,,,,,,,,,,,,,,,,,,,,,,
,,?,0.002315,0,,,,,,stimuli/images/PICTURE_453.png,FAMILY,59bbd2d4178f1b0001828bbb,20/05/1985,2020-07-08_16h30.04.166,proactive,2020.1.2,Linux x86_64,60,5f035e5afe130c270d6ae6dd,5f05e65e084b4d00099f5995,4,,,,,,scissors,,,,,,,,,,,5,2,0,3,3,48,1,,,,,,,,,,,,,,,,,,,,,,,,,,,,,,,,,,,,,,,,,,,,,,,,,,,,,,,,,,,,,,,,,,,,,,
,,?,0.002575,0,,,,,,stimuli/images/PICTURE_68.png,KIND,59bbd2d4178f1b0001828bbb,20/05/1985,2020-07-08_16h30.04.166,proactive,2020.1.2,Linux x86_64,60,5f035e5afe130c270d6ae6dd,5f05e65e084b4d00099f5995,4,,,,,,candle,,,,,,,,,,,3,2,0,4,4,23,1,,,,,,,,,,,,,,,,,,,,,,,,,,,,,,,,,,,,,,,,,,,,,,,,,,,,,,,,,,,,,,,,,,,,,,
,,AREA,6.989825,1,,,,,,stimuli/images/PICTURE_2.png,AREA,59bbd2d4178f1b0001828bbb,20/05/1985,2020-07-08_16h30.04.166,proactive,2020.1.2,Linux x86_64,60,5f035e5afe130c270d6ae6dd,5f05e65e084b4d00099f5995,4,,,,,,tyre,,,,,,,,,,,4,2,0,5,5,32,1,,,,,,,,,,,,,,,,,,,,,,,,,,,,,,,,,,,,,,,,,,,,,,,,,,,,,,,,,,,,,,,,,,,,,,
,,?,0.002195,0,,,,,,stimuli/images/PICTURE_160.png,HOTEL,59bbd2d4178f1b0001828bbb,20/05/1985,2020-07-08_16h30.04.166,proactive,2020.1.2,Linux x86_64,60,5f035e5afe130c270d6ae6dd,5f05e65e084b4d00099f5995,4,,,,,,wheelbarrow,,,,,,,,,,,2,2,0,6,6,16,1,,,,,,,,,,,,,,,,,,,,,,,,,,,,,,,,,,,,,,,,,,,,,,,,,,,,,,,,,,,,,,,,,,,,,,
,,?,0.003505,0,,,,,,stimuli/images/PICTURE_692.png,DUDE,59bbd2d4178f1b0001828bbb,20/05/1985,2020-07-08_16h30.04.166,proactive,2020.1.2,Linux x86_64,60,5f035e5afe130c270d6ae6dd,5f05e65e084b4d00099f5995,4,,,,,,cherry,,,,,,,,,,,5,2,0,7,7,47,1,,,,,,,,,,,,,,,,,,,,,,,,,,,,,,,,,,,,,,,,,,,,,,,,,,,,,,,,,,,,,,,,,,,,,,
,,?,0.002765,0,,,,,,stimuli/images/PICTURE_470.png,MOMENT,59bbd2d4178f1b0001828bbb,20/05/1985,2020-07-08_16h30.04.166,proactive,2020.1.2,Linux x86_64,60,5f035e5afe130c270d6ae6dd,5f05e65e084b4d00099f5995,4,,,,,,motorbike,,,,,,,,,,,5,2,0,8,8,40,1,,,,,,,,,,,,,,,,,,,,,,,,,,,,,,,,,,,,,,,,,,,,,,,,,,,,,,,,,,,,,,,,,,,,,,
,,CLIENT,2.421155,1,,,,,,stimuli/images/PICTURE_141.png,CLIENT,59bbd2d4178f1b0001828bbb,20/05/1985,2020-07-08_16h30.04.166,proactive,2020.1.2,Linux x86_64,60,5f035e5afe130c270d6ae6dd,5f05e65e084b4d00099f5995,4,,,,,,sunflower,,,,,,,,,,,4,2,0,9,9,30,1,,,,,,,,,,,,,,,,,,,,,,,,,,,,,,,,,,,,,,,,,,,,,,,,,,,,,,,,,,,,,,,,,,,,,,
,,HOUSE,2.41365,1,,,,,,stimuli/images/PICTURE_504.png,HOUSE,59bbd2d4178f1b0001828bbb,20/05/1985,2020-07-08_16h30.04.166,proactive,2020.1.2,Linux x86_64,60,5f035e5afe130c270d6ae6dd,5f05e65e084b4d00099f5995,4,,,,,,wheel,,,,,,,,,,,4,2,0,10,10,36,1,,,,,,,,,,,,,,,,,,,,,,,,,,,,,,,,,,,,,,,,,,,,,,,,,,,,,,,,,,,,,,,,,,,,,,
,,?,0.002385,0,,,,,,stimuli/images/PICTURE_32.png,LETTER,59bbd2d4178f1b0001828bbb,20/05/1985,2020-07-08_16h30.04.166,proactive,2020.1.2,Linux x86_64,60,5f035e5afe130c270d6ae6dd,5f05e65e084b4d00099f5995,4,,,,,,crown,,,,,,,,,,,6,2,0,11,11,56,1,,,,,,,,,,,,,,,,,,,,,,,,,,,,,,,,,,,,,,,,,,,,,,,,,,,,,,,,,,,,,,,,,,,,,,
,,?,0.00239,0,,,,,,stimuli/images/PICTURE_285.png,WRITER,59bbd2d4178f1b0001828bbb,20/05/1985,2020-07-08_16h30.04.166,proactive,2020.1.2,Linux x86_64,60,5f035e5afe130c270d6ae6dd,5f05e65e084b4d00099f5995,4,,,,,,carrot,,,,,,,,,,,1,2,0,12,12,6,1,,,,,,,,,,,,,,,,,,,,,,,,,,,,,,,,,,,,,,,,,,,,,,,,,,,,,,,,,,,,,,,,,,,,,,
,,?,0.004655,0,,,,,,stimuli/images/PICTURE_296.png,CLOCK,59bbd2d4178f1b0001828bbb,20/05/1985,2020-07-08_16h30.04.166,proactive,2020.1.2,Linux x86_64,60,5f035e5afe130c270d6ae6dd,5f05e65e084b4d00099f5995,4,,,,,,bolt,,,,,,,,,,,2,2,0,13,13,18,1,,,,,,,,,,,,,,,,,,,,,,,,,,,,,,,,,,,,,,,,,,,,,,,,,,,,,,,,,,,,,,,,,,,,,,
,,LEADER,2.4925,1,,,,,,stimuli/images/PICTURE_147.png,LEADER,59bbd2d4178f1b0001828bbb,20/05/1985,2020-07-08_16h30.04.166,proactive,2020.1.2,Linux x86_64,60,5f035e5afe130c270d6ae6dd,5f05e65e084b4d00099f5995,4,,,,,,hanger,,,,,,,,,,,4,2,0,14,14,33,1,,,,,,,,,,,,,,,,,,,,,,,,,,,,,,,,,,,,,,,,,,,,,,,,,,,,,,,,,,,,,,,,,,,,,,
,,?,0.00421,0,,,,,,stimuli/images/PICTURE_311.png,FLESH,59bbd2d4178f1b0001828bbb,20/05/1985,2020-07-08_16h30.04.166,proactive,2020.1.2,Linux x86_64,60,5f035e5afe130c270d6ae6dd,5f05e65e084b4d00099f5995,4,,,,,,razor,,,,,,,,,,,1,2,0,15,15,3,1,,,,,,,,,,,,,,,,,,,,,,,,,,,,,,,,,,,,,,,,,,,,,,,,,,,,,,,,,,,,,,,,,,,,,,
,,?,0.0025,0,,,,,,stimuli/images/PICTURE_2.png,YARD,59bbd2d4178f1b0001828bbb,20/05/1985,2020-07-08_16h30.04.166,proactive,2020.1.2,Linux x86_64,60,5f035e5afe130c270d6ae6dd,5f05e65e084b4d00099f5995,4,,,,,,tyre,,,,,,,,,,,6,2,0,16,16,55,1,,,,,,,,,,,,,,,,,,,,,,,,,,,,,,,,,,,,,,,,,,,,,,,,,,,,,,,,,,,,,,,,,,,,,,
,,?,0.00265,0,,,,,,stimuli/images/PICTURE_177.png,HOUSE,59bbd2d4178f1b0001828bbb,20/05/1985,2020-07-08_16h30.04.166,proactive,2020.1.2,Linux x86_64,60,5f035e5afe130c270d6ae6dd,5f05e65e084b4d00099f5995,4,,,,,,mushroom,,,,,,,,,,,3,2,0,17,17,25,1,,,,,,,,,,,,,,,,,,,,,,,,,,,,,,,,,,,,,,,,,,,,,,,,,,,,,,,,,,,,,,,,,,,,,,
,,POLICY,4.06993,1,,,,,,stimuli/images/PICTURE_487.png,POLICY,59bbd2d4178f1b0001828bbb,20/05/1985,2020-07-08_16h30.04.166,proactive,2020.1.2,Linux x86_64,60,5f035e5afe130c270d6ae6dd,5f05e65e084b4d00099f5995,4,,,,,,basket,,,,,,,,,,,4,2,0,18,18,34,1,,,,,,,,,,,,,,,,,,,,,,,,,,,,,,,,,,,,,,,,,,,,,,,,,,,,,,,,,,,,,,,,,,,,,,
,,?,0.003165,0,,,,,,stimuli/images/PICTURE_2.png,JUNGLE,59bbd2d4178f1b0001828bbb,20/05/1985,2020-07-08_16h30.04.166,proactive,2020.1.2,Linux x86_64,60,5f035e5afe130c270d6ae6dd,5f05e65e084b4d00099f5995,4,,,,,,tyre,,,,,,,,,,,1,2,0,19,19,1,1,,,,,,,,,,,,,,,,,,,,,,,,,,,,,,,,,,,,,,,,,,,,,,,,,,,,,,,,,,,,,,,,,,,,,,
,,?,0.00271,0,,,,,,stimuli/images/PICTURE_348.png,DUDE,59bbd2d4178f1b0001828bbb,20/05/1985,2020-07-08_16h30.04.166,proactive,2020.1.2,Linux x86_64,60,5f035e5afe130c270d6ae6dd,5f05e65e084b4d00099f5995,4,,,,,,pepper,,,,,,,,,,,6,2,0,20,20,59,1,,,,,,,,,,,,,,,,,,,,,,,,,,,,,,,,,,,,,,,,,,,,,,,,,,,,,,,,,,,,,,,,,,,,,,
,,?,0.00216,0,,,,,,stimuli/images/PICTURE_750.png,POLICY,59bbd2d4178f1b0001828bbb,20/05/1985,2020-07-08_16h30.04.166,proactive,2020.1.2,Linux x86_64,60,5f035e5afe130c270d6ae6dd,5f05e65e084b4d00099f5995,4,,,,,,kettle,,,,,,,,,,,5,2,0,21,21,44,1,,,,,,,,,,,,,,,,,,,,,,,,,,,,,,,,,,,,,,,,,,,,,,,,,,,,,,,,,,,,,,,,,,,,,,
,,?,0.00338,0,,,,,,stimuli/images/PICTURE_33.png,COPS,59bbd2d4178f1b0001828bbb,20/05/1985,2020-07-08_16h30.04.166,proactive,2020.1.2,Linux x86_64,60,5f035e5afe130c270d6ae6dd,5f05e65e084b4d00099f5995,4,,,,,,frame,,,,,,,,,,,3,2,0,22,22,29,1,,,,,,,,,,,,,,,,,,,,,,,,,,,,,,,,,,,,,,,,,,,,,,,,,,,,,,,,,,,,,,,,,,,,,,
,,?,0.00325,0,,,,,,stimuli/images/PICTURE_654.png,YEAR,59bbd2d4178f1b0001828bbb,20/05/1985,2020-07-08_16h30.04.166,proactive,2020.1.2,Linux x86_64,60,5f035e5afe130c270d6ae6dd,5f05e65e084b4d00099f5995,4,,,,,,pencil,,,,,,,,,,,5,2,0,23,23,41,1,,,,,,,,,,,,,,,,,,,,,,,,,,,,,,,,,,,,,,,,,,,,,,,,,,,,,,,,,,,,,,,,,,,,,,
,,?,0.002735,0,,,,,,stimuli/images/PICTURE_356.png,CANDY,59bbd2d4178f1b0001828bbb,20/05/1985,2020-07-08_16h30.04.166,proactive,2020.1.2,Linux x86_64,60,5f035e5afe130c270d6ae6dd,5f05e65e084b4d00099f5995,4,,,,,,pawn,,,,,,,,,,,5,2,0,24,24,46,1,,,,,,,,,,,,,,,,,,,,,,,,,,,,,,,,,,,,,,,,,,,,,,,,,,,,,,,,,,,,,,,,,,,,,,
,,?,0.002665,0,,,,,,stimuli/images/PICTURE_57.png,CASINO,59bbd2d4178f1b0001828bbb,20/05/1985,2020-07-08_16h30.04.166,proactive,2020.1.2,Linux x86_64,60,5f035e5afe130c270d6ae6dd,5f05e65e084b4d00099f5995,4,,,,,,stamp,,,,,,,,,,,2,2,0,25,25,12,1,,,,,,,,,,,,,,,,,,,,,,,,,,,,,,,,,,,,,,,,,,,,,,,,,,,,,,,,,,,,,,,,,,,,,,
,,?,0.0027,0,,,,,,stimuli/images/PICTURE_509.png,MILLER,59bbd2d4178f1b0001828bbb,20/05/1985,2020-07-08_16h30.04.166,proactive,2020.1.2,Linux x86_64,60,5f035e5afe130c270d6ae6dd,5f05e65e084b4d00099f5995,4,,,,,,telephone,,,,,,,,,,,5,2,0,26,26,49,1,,,,,,,,,,,,,,,,,,,,,,,,,,,,,,,,,,,,,,,,,,,,,,,,,,,,,,,,,,,,,,,,,,,,,,
,,?,0.00273,0,,,,,,stimuli/images/PICTURE_470.png,BEAUTY,59bbd2d4178f1b0001828bbb,20/05/1985,2020-07-08_16h30.04.166,proactive,2020.1.2,Linux x86_64,60,5f035e5afe130c270d6ae6dd,5f05e65e084b4d00099f5995,4,,,,,,motorbike,,,,,,,,,,,3,2,0,27,27,26,1,,,,,,,,,,,,,,,,,,,,,,,,,,,,,,,,,,,,,,,,,,,,,,,,,,,,,,,,,,,,,,,,,,,,,,
,,GIRL,2.03597,1,,,,,,stimuli/images/PICTURE_93.png,GIRL,59bbd2d4178f1b0001828bbb,20/05/1985,2020-07-08_16h30.04.166,proactive,2020.1.2,Linux x86_64,60,5f035e5afe130c270d6ae6dd,5f05e65e084b4d00099f5995,4,,,,,,skateboard,,,,,,,,,,,4,2,0,28,28,31,1,,,,,,,,,,,,,,,,,,,,,,,,,,,,,,,,,,,,,,,,,,,,,,,,,,,,,,,,,,,,,,,,,,,,,,
,,?,0.019295,0,,,,,,stimuli/images/PICTURE_688.png,CLOCK,59bbd2d4178f1b0001828bbb,20/05/1985,2020-07-08_16h30.04.166,proactive,2020.1.2,Linux x86_64,60,5f035e5afe130c270d6ae6dd,5f05e65e084b4d00099f5995,4,,,,,,runner,,,,,,,,,,,5,2,0,29,29,42,1,,,,,,,,,,,,,,,,,,,,,,,,,,,,,,,,,,,,,,,,,,,,,,,,,,,,,,,,,,,,,,,,,,,,,,
,,APPLE,2.6399,1,,,,,,stimuli/images/PICTURE_509.png,APPLE,59bbd2d4178f1b0001828bbb,20/05/1985,2020-07-08_16h30.04.166,proactive,2020.1.2,Linux x86_64,60,5f035e5afe130c270d6ae6dd,5f05e65e084b4d00099f5995,4,,,,,,telephone,,,,,,,,,,,4,2,0,30,30,38,1,,,,,,,,,,,,,,,,,,,,,,,,,,,,,,,,,,,,,,,,,,,,,,,,,,,,,,,,,,,,,,,,,,,,,,
,,NIGHT,2.44324,1,,,,,,stimuli/images/PICTURE_95.png,NIGHT,59bbd2d4178f1b0001828bbb,20/05/1985,2020-07-08_16h30.04.166,proactive,2020.1.2,Linux x86_64,60,5f035e5afe130c270d6ae6dd,5f05e65e084b4d00099f5995,4,,,,,,suitcase,,,,,,,,,,,4,2,0,31,31,37,1,,,,,,,,,,,,,,,,,,,,,,,,,,,,,,,,,,,,,,,,,,,,,,,,,,,,,,,,,,,,,,,,,,,,,,
,,?,0.00251,0,,,,,,stimuli/images/PICTURE_285.png,PRINCE,59bbd2d4178f1b0001828bbb,20/05/1985,2020-07-08_16h30.04.166,proactive,2020.1.2,Linux x86_64,60,5f035e5afe130c270d6ae6dd,5f05e65e084b4d00099f5995,4,,,,,,carrot,,,,,,,,,,,3,2,0,32,32,20,1,,,,,,,,,,,,,,,,,,,,,,,,,,,,,,,,,,,,,,,,,,,,,,,,,,,,,,,,,,,,,,,,,,,,,,
,,?,0.00234,0,,,,,,stimuli/images/PICTURE_297.png,BODY,59bbd2d4178f1b0001828bbb,20/05/1985,2020-07-08_16h30.04.166,proactive,2020.1.2,Linux x86_64,60,5f035e5afe130c270d6ae6dd,5f05e65e084b4d00099f5995,4,,,,,,aeroplane,,,,,,,,,,,6,2,0,33,33,51,1,,,,,,,,,,,,,,,,,,,,,,,,,,,,,,,,,,,,,,,,,,,,,,,,,,,,,,,,,,,,,,,,,,,,,,
,,?,0.00233,0,,,,,,stimuli/images/PICTURE_215.png,LEADER,59bbd2d4178f1b0001828bbb,20/05/1985,2020-07-08_16h30.04.166,proactive,2020.1.2,Linux x86_64,60,5f035e5afe130c270d6ae6dd,5f05e65e084b4d00099f5995,4,,,,,,boot,,,,,,,,,,,5,2,0,34,34,43,1,,,,,,,,,,,,,,,,,,,,,,,,,,,,,,,,,,,,,,,,,,,,,,,,,,,,,,,,,,,,,,,,,,,,,,
,,?,0.00267,0,,,,,,stimuli/images/PICTURE_57.png,CANDY,59bbd2d4178f1b0001828bbb,20/05/1985,2020-07-08_16h30.04.166,proactive,2020.1.2,Linux x86_64,60,5f035e5afe130c270d6ae6dd,5f05e65e084b4d00099f5995,4,,,,,,stamp,,,,,,,,,,,6,2,0,35,35,52,1,,,,,,,,,,,,,,,,,,,,,,,,,,,,,,,,,,,,,,,,,,,,,,,,,,,,,,,,,,,,,,,,,,,,,,
,,?,0.002595,0,,,,,,stimuli/images/PICTURE_311.png,TOILET,59bbd2d4178f1b0001828bbb,20/05/1985,2020-07-08_16h30.04.166,proactive,2020.1.2,Linux x86_64,60,5f035e5afe130c270d6ae6dd,5f05e65e084b4d00099f5995,4,,,,,,razor,,,,,,,,,,,6,2,0,36,36,54,1,,,,,,,,,,,,,,,,,,,,,,,,,,,,,,,,,,,,,,,,,,,,,,,,,,,,,,,,,,,,,,,,,,,,,,
,,?,0.00385,0,,,,,,stimuli/images/PICTURE_677.png,PHOTO,59bbd2d4178f1b0001828bbb,20/05/1985,2020-07-08_16h30.04.166,proactive,2020.1.2,Linux x86_64,60,5f035e5afe130c270d6ae6dd,5f05e65e084b4d00099f5995,4,,,,,,map,,,,,,,,,,,2,2,0,37,37,14,1,,,,,,,,,,,,,,,,,,,,,,,,,,,,,,,,,,,,,,,,,,,,,,,,,,,,,,,,,,,,,,,,,,,,,,
,,?,0.00299,0,,,,,,stimuli/images/PICTURE_452.png,COPS,59bbd2d4178f1b0001828bbb,20/05/1985,2020-07-08_16h30.04.166,proactive,2020.1.2,Linux x86_64,60,5f035e5afe130c270d6ae6dd,5f05e65e084b4d00099f5995,4,,,,,,watch,,,,,,,,,,,1,2,0,38,38,0,1,,,,,,,,,,,,,,,,,,,,,,,,,,,,,,,,,,,,,,,,,,,,,,,,,,,,,,,,,,,,,,,,,,,,,,
,,?,0.00271,0,,,,,,stimuli/images/PICTURE_708.png,VALLEY,59bbd2d4178f1b0001828bbb,20/05/1985,2020-07-08_16h30.04.166,proactive,2020.1.2,Linux x86_64,60,5f035e5afe130c270d6ae6dd,5f05e65e084b4d00099f5995,4,,,,,,monkey,,,,,,,,,,,5,2,0,39,39,45,1,,,,,,,,,,,,,,,,,,,,,,,,,,,,,,,,,,,,,,,,,,,,,,,,,,,,,,,,,,,,,,,,,,,,,,
,,?,0.00235,0,,,,,,stimuli/images/PICTURE_405.png,JUNGLE,59bbd2d4178f1b0001828bbb,20/05/1985,2020-07-08_16h30.04.166,proactive,2020.1.2,Linux x86_64,60,5f035e5afe130c270d6ae6dd,5f05e65e084b4d00099f5995,4,,,,,,anchor,,,,,,,,,,,2,2,0,40,40,13,1,,,,,,,,,,,,,,,,,,,,,,,,,,,,,,,,,,,,,,,,,,,,,,,,,,,,,,,,,,,,,,,,,,,,,,
,,?,0.00252,0,,,,,,stimuli/images/PICTURE_655.png,SALE,59bbd2d4178f1b0001828bbb,20/05/1985,2020-07-08_16h30.04.166,proactive,2020.1.2,Linux x86_64,60,5f035e5afe130c270d6ae6dd,5f05e65e084b4d00099f5995,4,,,,,,megaphone,,,,,,,,,,,6,2,0,41,41,57,1,,,,,,,,,,,,,,,,,,,,,,,,,,,,,,,,,,,,,,,,,,,,,,,,,,,,,,,,,,,,,,,,,,,,,,
,,?,0.00291,0,,,,,,stimuli/images/PICTURE_123.png,SALE,59bbd2d4178f1b0001828bbb,20/05/1985,2020-07-08_16h30.04.166,proactive,2020.1.2,Linux x86_64,60,5f035e5afe130c270d6ae6dd,5f05e65e084b4d00099f5995,4,,,,,,dart,,,,,,,,,,,1,2,0,42,42,8,1,,,,,,,,,,,,,,,,,,,,,,,,,,,,,,,,,,,,,,,,,,,,,,,,,,,,,,,,,,,,,,,,,,,,,,
,,?,0.00322,0,,,,,,stimuli/images/PICTURE_208.png,SPIRIT,59bbd2d4178f1b0001828bbb,20/05/1985,2020-07-08_16h30.04.166,proactive,2020.1.2,Linux x86_64,60,5f035e5afe130c270d6ae6dd,5f05e65e084b4d00099f5995,4,,,,,,microphone,,,,,,,,,,,3,2,0,43,43,28,1,,,,,,,,,,,,,,,,,,,,,,,,,,,,,,,,,,,,,,,,,,,,,,,,,,,,,,,,,,,,,,,,,,,,,,
,,?,0.002895,0,,,,,,stimuli/images/PICTURE_327.png,LEADER,59bbd2d4178f1b0001828bbb,20/05/1985,2020-07-08_16h30.04.166,proactive,2020.1.2,Linux x86_64,60,5f035e5afe130c270d6ae6dd,5f05e65e084b4d00099f5995,4,,,,,,helmet,,,,,,,,,,,2,2,0,44,44,17,1,,,,,,,,,,,,,,,,,,,,,,,,,,,,,,,,,,,,,,,,,,,,,,,,,,,,,,,,,,,,,,,,,,,,,,
,,?,0.00252,0,,,,,,stimuli/images/PICTURE_487.png,ROOF,59bbd2d4178f1b0001828bbb,20/05/1985,2020-07-08_16h30.04.166,proactive,2020.1.2,Linux x86_64,60,5f035e5afe130c270d6ae6dd,5f05e65e084b4d00099f5995,4,,,,,,basket,,,,,,,,,,,6,2,0,45,45,50,1,,,,,,,,,,,,,,,,,,,,,,,,,,,,,,,,,,,,,,,,,,,,,,,,,,,,,,,,,,,,,,,,,,,,,,
,,?,0.00481,0,,,,,,stimuli/images/PICTURE_509.png,BATH,59bbd2d4178f1b0001828bbb,20/05/1985,2020-07-08_16h30.04.166,proactive,2020.1.2,Linux x86_64,60,5f035e5afe130c270d6ae6dd,5f05e65e084b4d00099f5995,4,,,,,,telephone,,,,,,,,,,,2,2,0,46,46,15,1,,,,,,,,,,,,,,,,,,,,,,,,,,,,,,,,,,,,,,,,,,,,,,,,,,,,,,,,,,,,,,,,,,,,,,
,,?,0.002505,0,,,,,,stimuli/images/PICTURE_405.png,HOUSE,59bbd2d4178f1b0001828bbb,20/05/1985,2020-07-08_16h30.04.166,proactive,2020.1.2,Linux x86_64,60,5f035e5afe130c270d6ae6dd,5f05e65e084b4d00099f5995,4,,,,,,anchor,,,,,,,,,,,1,2,0,47,47,2,1,,,,,,,,,,,,,,,,,,,,,,,,,,,,,,,,,,,,,,,,,,,,,,,,,,,,,,,,,,,,,,,,,,,,,,
,,?,0.002475,0,,,,,,stimuli/images/PICTURE_18.png,RIVER,59bbd2d4178f1b0001828bbb,20/05/1985,2020-07-08_16h30.04.166,proactive,2020.1.2,Linux x86_64,60,5f035e5afe130c270d6ae6dd,5f05e65e084b4d00099f5995,4,,,,,,planet,,,,,,,,,,,3,2,0,48,48,22,1,,,,,,,,,,,,,,,,,,,,,,,,,,,,,,,,,,,,,,,,,,,,,,,,,,,,,,,,,,,,,,,,,,,,,,
,,?,0.00275,0,,,,,,stimuli/images/PICTURE_403.png,FAMILY,59bbd2d4178f1b0001828bbb,20/05/1985,2020-07-08_16h30.04.166,proactive,2020.1.2,Linux x86_64,60,5f035e5afe130c270d6ae6dd,5f05e65e084b4d00099f5995,4,,,,,,cathedral,,,,,,,,,,,1,2,0,49,49,9,1,,,,,,,,,,,,,,,,,,,,,,,,,,,,,,,,,,,,,,,,,,,,,,,,,,,,,,,,,,,,,,,,,,,,,,
,,?,0.00761,0,,,,,,stimuli/images/PICTURE_509.png,SHOTS,59bbd2d4178f1b0001828bbb,20/05/1985,2020-07-08_16h30.04.166,proactive,2020.1.2,Linux x86_64,60,5f035e5afe130c270d6ae6dd,5f05e65e084b4d00099f5995,4,,,,,,telephone,,,,,,,,,,,1,2,0,50,50,7,1,,,,,,,,,,,,,,,,,,,,,,,,,,,,,,,,,,,,,,,,,,,,,,,,,,,,,,,,,,,,,,,,,,,,,,
,,?,0.003565,0,,,,,,stimuli/images/PICTURE_57.png,NATION,59bbd2d4178f1b0001828bbb,20/05/1985,2020-07-08_16h30.04.166,proactive,2020.1.2,Linux x86_64,60,5f035e5afe130c270d6ae6dd,5f05e65e084b4d00099f5995,4,,,,,,stamp,,,,,,,,,,,3,2,0,51,51,21,1,,,,,,,,,,,,,,,,,,,,,,,,,,,,,,,,,,,,,,,,,,,,,,,,,,,,,,,,,,,,,,,,,,,,,,
,,?,0.002825,0,,,,,,stimuli/images/PICTURE_348.png,TOILET,59bbd2d4178f1b0001828bbb,20/05/1985,2020-07-08_16h30.04.166,proactive,2020.1.2,Linux x86_64,60,5f035e5afe130c270d6ae6dd,5f05e65e084b4d00099f5995,4,,,,,,pepper,,,,,,,,,,,1,2,0,52,52,4,1,,,,,,,,,,,,,,,,,,,,,,,,,,,,,,,,,,,,,,,,,,,,,,,,,,,,,,,,,,,,,,,,,,,,,,
,,SERIES,2.532415,1,,,,,,stimuli/images/PICTURE_491.png,SERIES,59bbd2d4178f1b0001828bbb,20/05/1985,2020-07-08_16h30.04.166,proactive,2020.1.2,Linux x86_64,60,5f035e5afe130c270d6ae6dd,5f05e65e084b4d00099f5995,4,,,,,,rug,,,,,,,,,,,4,2,0,53,53,39,1,,,,,,,,,,,,,,,,,,,,,,,,,,,,,,,,,,,,,,,,,,,,,,,,,,,,,,,,,,,,,,,,,,,,,,
,,SPEECH,2.76245,1,,,,,,stimuli/images/PICTURE_314.png,SPEECH,59bbd2d4178f1b0001828bbb,20/05/1985,2020-07-08_16h30.04.166,proactive,2020.1.2,Linux x86_64,60,5f035e5afe130c270d6ae6dd,5f05e65e084b4d00099f5995,4,,,,,,perfume,,,,,,,,,,,4,2,0,54,54,35,1,,,,,,,,,,,,,,,,,,,,,,,,,,,,,,,,,,,,,,,,,,,,,,,,,,,,,,,,,,,,,,,,,,,,,,
,,?,0.002315,0,,,,,,stimuli/images/PICTURE_677.png,FAMILY,59bbd2d4178f1b0001828bbb,20/05/1985,2020-07-08_16h30.04.166,proactive,2020.1.2,Linux x86_64,60,5f035e5afe130c270d6ae6dd,5f05e65e084b4d00099f5995,4,,,,,,map,,,,,,,,,,,6,2,0,55,55,53,1,,,,,,,,,,,,,,,,,,,,,,,,,,,,,,,,,,,,,,,,,,,,,,,,,,,,,,,,,,,,,,,,,,,,,,
,,?,0.002115,0,,,,,,stimuli/images/PICTURE_667.png,GLASS,59bbd2d4178f1b0001828bbb,20/05/1985,2020-07-08_16h30.04.166,proactive,2020.1.2,Linux x86_64,60,5f035e5afe130c270d6ae6dd,5f05e65e084b4d00099f5995,4,,,,,,daisy,,,,,,,,,,,3,2,0,56,56,27,1,,,,,,,,,,,,,,,,,,,,,,,,,,,,,,,,,,,,,,,,,,,,,,,,,,,,,,,,,,,,,,,,,,,,,,
,,?,0.001665,0,,,,,,stimuli/images/PICTURE_215.png,BOYS,59bbd2d4178f1b0001828bbb,20/05/1985,2020-07-08_16h30.04.166,proactive,2020.1.2,Linux x86_64,60,5f035e5afe130c270d6ae6dd,5f05e65e084b4d00099f5995,4,,,,,,boot,,,,,,,,,,,3,2,0,57,57,24,1,,,,,,,,,,,,,,,,,,,,,,,,,,,,,,,,,,,,,,,,,,,,,,,,,,,,,,,,,,,,,,,,,,,,,,
,,?,0.001705,0,,,,,,stimuli/images/PICTURE_564.png,PLENTY,59bbd2d4178f1b0001828bbb,20/05/1985,2020-07-08_16h30.04.166,proactive,2020.1.2,Linux x86_64,60,5f035e5afe130c270d6ae6dd,5f05e65e084b4d00099f5995,4,,,,,,spoon,,,,,,,,,,,2,2,0,58,58,11,1,,,,,,,,,,,,,,,,,,,,,,,,,,,,,,,,,,,,,,,,,,,,,,,,,,,,,,,,,,,,,,,,,,,,,,
,,?,0.00175,0,,,,,,stimuli/images/PICTURE_405.png,JUNGLE,59bbd2d4178f1b0001828bbb,20/05/1985,2020-07-08_16h30.04.166,proactive,2020.1.2,Linux x86_64,60,5f035e5afe130c270d6ae6dd,5f05e65e084b4d00099f5995,4,,,,,,anchor,,,,,,,,,,,6,2,0,59,59,58,1,,,,,,,,,,,,,,,,,,,,,,,,,,,,,,,,,,,,,,,,,,,,,,,,,,,,,,,,,,,,,,,,,,,,,,
,,,,,,,,,,,,59bbd2d4178f1b0001828bbb,20/05/1985,2020-07-08_16h30.04.166,proactive,2020.1.2,Linux x86_64,60,5f035e5afe130c270d6ae6dd,5f05e65e084b4d00099f5995,4,,,,,,,,,,,,,,,,,,,,,,,,0,0,0,2,1,stimuli/learn-block3.csv,,,,,,,,,,,,,,,,,,,,,,,,,,,,,,,,,,,,,,,,,,,,,,,,,,,,,,,,,,,,,,,,
,,,,,,,,,,stimuli/images/PICTURE_356.png,DANGER,59bbd2d4178f1b0001828bbb,20/05/1985,2020-07-08_16h30.04.166,proactive,2020.1.2,Linux x86_64,60,5f035e5afe130c270d6ae6dd,5f05e65e084b4d00099f5995,4,,,,,,pawn,,,,,,0,0,0,55,1,6,0,,,,,,,,,,,,,,,,,,,,,,,,,,,,,,,,,,,,,,,,,,,,,,,,,,,,,,,,,,,,,,,,,,,,,,,,,,,
,,,,,,,,,,stimuli/images/PICTURE_208.png,MONTH,59bbd2d4178f1b0001828bbb,20/05/1985,2020-07-08_16h30.04.166,proactive,2020.1.2,Linux x86_64,60,5f035e5afe130c270d6ae6dd,5f05e65e084b4d00099f5995,4,,,,,,microphone,,,,,,0,1,1,53,1,6,0,,,,,,,,,,,,,,,,,,,,,,,,,,,,,,,,,,,,,,,,,,,,,,,,,,,,,,,,,,,,,,,,,,,,,,,,,,,
,,,,,,,,,,stimuli/images/PICTURE_708.png,PENNY,59bbd2d4178f1b0001828bbb,20/05/1985,2020-07-08_16h30.04.166,proactive,2020.1.2,Linux x86_64,60,5f035e5afe130c270d6ae6dd,5f05e65e084b4d00099f5995,4,,,,,,monkey,,,,,,0,2,2,31,1,4,0,,,,,,,,,,,,,,,,,,,,,,,,,,,,,,,,,,,,,,,,,,,,,,,,,,,,,,,,,,,,,,,,,,,,,,,,,,,
,,,,,,,,,,stimuli/images/PICTURE_208.png,LOTS,59bbd2d4178f1b0001828bbb,20/05/1985,2020-07-08_16h30.04.166,proactive,2020.1.2,Linux x86_64,60,5f035e5afe130c270d6ae6dd,5f05e65e084b4d00099f5995,4,,,,,,microphone,,,,,,0,3,3,10,1,2,0,,,,,,,,,,,,,,,,,,,,,,,,,,,,,,,,,,,,,,,,,,,,,,,,,,,,,,,,,,,,,,,,,,,,,,,,,,,
,,,,,,,,,,stimuli/images/PICTURE_147.png,MOMENT,59bbd2d4178f1b0001828bbb,20/05/1985,2020-07-08_16h30.04.166,proactive,2020.1.2,Linux x86_64,60,5f035e5afe130c270d6ae6dd,5f05e65e084b4d00099f5995,4,,,,,,hanger,,,,,,0,4,4,51,1,6,0,,,,,,,,,,,,,,,,,,,,,,,,,,,,,,,,,,,,,,,,,,,,,,,,,,,,,,,,,,,,,,,,,,,,,,,,,,,
,,,,,,,,,,stimuli/images/PICTURE_123.png,ADVICE,59bbd2d4178f1b0001828bbb,20/05/1985,2020-07-08_16h30.04.166,proactive,2020.1.2,Linux x86_64,60,5f035e5afe130c270d6ae6dd,5f05e65e084b4d00099f5995,4,,,,,,dart,,,,,,0,5,5,40,1,5,0,,,,,,,,,,,,,,,,,,,,,,,,,,,,,,,,,,,,,,,,,,,,,,,,,,,,,,,,,,,,,,,,,,,,,,,,,,,
,,,,,,,,,,stimuli/images/PICTURE_692.png,MONTH,59bbd2d4178f1b0001828bbb,20/05/1985,2020-07-08_16h30.04.166,proactive,2020.1.2,Linux x86_64,60,5f035e5afe130c270d6ae6dd,5f05e65e084b4d00099f5995,4,,,,,,cherry,,,,,,0,6,6,16,1,2,0,,,,,,,,,,,,,,,,,,,,,,,,,,,,,,,,,,,,,,,,,,,,,,,,,,,,,,,,,,,,,,,,,,,,,,,,,,,
,,,,,,,,,,stimuli/images/PICTURE_469.png,ARTIST,59bbd2d4178f1b0001828bbb,20/05/1985,2020-07-08_16h30.04.166,proactive,2020.1.2,Linux x86_64,60,5f035e5afe130c270d6ae6dd,5f05e65e084b4d00099f5995,4,,,,,,stool,,,,,,0,7,7,6,1,1,0,,,,,,,,,,,,,,,,,,,,,,,,,,,,,,,,,,,,,,,,,,,,,,,,,,,,,,,,,,,,,,,,,,,,,,,,,,,
,,,,,,,,,,stimuli/images/PICTURE_708.png,YARD,59bbd2d4178f1b0001828bbb,20/05/1985,2020-07-08_16h30.04.166,proactive,2020.1.2,Linux x86_64,60,5f035e5afe130c270d6ae6dd,5f05e65e084b4d00099f5995,4,,,,,,monkey,,,,,,0,8,8,29,1,3,0,,,,,,,,,,,,,,,,,,,,,,,,,,,,,,,,,,,,,,,,,,,,,,,,,,,,,,,,,,,,,,,,,,,,,,,,,,,
,,,,,,,,,,stimuli/images/PICTURE_667.png,BATH,59bbd2d4178f1b0001828bbb,20/05/1985,2020-07-08_16h30.04.166,proactive,2020.1.2,Linux x86_64,60,5f035e5afe130c270d6ae6dd,5f05e65e084b4d00099f5995,4,,,,,,daisy,,,,,,0,9,9,4,1,1,0,,,,,,,,,,,,,,,,,,,,,,,,,,,,,,,,,,,,,,,,,,,,,,,,,,,,,,,,,,,,,,,,,,,,,,,,,,,
,,,,,,,,,,stimuli/images/PICTURE_32.png,JUNGLE,59bbd2d4178f1b0001828bbb,20/05/1985,2020-07-08_16h30.04.166,proactive,2020.1.2,Linux x86_64,60,5f035e5afe130c270d6ae6dd,5f05e65e084b4d00099f5995,4,,,,,,crown,,,,,,0,10,10,45,1,5,0,,,,,,,,,,,,,,,,,,,,,,,,,,,,,,,,,,,,,,,,,,,,,,,,,,,,,,,,,,,,,,,,,,,,,,,,,,,
,,,,,,,,,,stimuli/images/PICTURE_255.png,AREA,59bbd2d4178f1b0001828bbb,20/05/1985,2020-07-08_16h30.04.166,proactive,2020.1.2,Linux x86_64,60,5f035e5afe130c270d6ae6dd,5f05e65e084b4d00099f5995,4,,,,,,shovel,,,,,,0,11,11,22,1,3,0,,,,,,,,,,,,,,,,,,,,,,,,,,,,,,,,,,,,,,,,,,,,,,,,,,,,,,,,,,,,,,,,,,,,,,,,,,,
,,,,,,,,,,stimuli/images/PICTURE_467.png,DEMON,59bbd2d4178f1b0001828bbb,20/05/1985,2020-07-08_16h30.04.166,proactive,2020.1.2,Linux x86_64,60,5f035e5afe130c270d6ae6dd,5f05e65e084b4d00099f5995,4,,,,,,peg,,,,,,0,12,12,23,1,3,0,,,,,,,,,,,,,,,,,,,,,,,,,,,,,,,,,,,,,,,,,,,,,,,,,,,,,,,,,,,,,,,,,,,,,,,,,,,
,,,,,,,,,,stimuli/images/PICTURE_380.png,DEATH,59bbd2d4178f1b0001828bbb,20/05/1985,2020-07-08_16h30.04.166,proactive,2020.1.2,Linux x86_64,60,5f035e5afe130c270d6ae6dd,5f05e65e084b4d00099f5995,4,,,,,,gorilla,,,,,,0,13,13,49,1,5,0,,,,,,,,,,,,,,,,,,,,,,,,,,,,,,,,,,,,,,,,,,,,,,,,,,,,,,,,,,,,,,,,,,,,,,,,,,,
,,,,,,,,,,stimuli/images/PICTURE_654.png,VALLEY,59bbd2d4178f1b0001828bbb,20/05/1985,2020-07-08_16h30.04.166,proactive,2020.1.2,Linux x86_64,60,5f035e5afe130c270d6ae6dd,5f05e65e084b4d00099f5995,4,,,,,,pencil,,,,,,0,14,14,1,1,1,0,,,,,,,,,,,,,,,,,,,,,,,,,,,,,,,,,,,,,,,,,,,,,,,,,,,,,,,,,,,,,,,,,,,,,,,,,,,
,,,,,,,,,,stimuli/images/PICTURE_688.png,WOMEN,59bbd2d4178f1b0001828bbb,20/05/1985,2020-07-08_16h30.04.166,proactive,2020.1.2,Linux x86_64,60,5f035e5afe130c270d6ae6dd,5f05e65e084b4d00099f5995,4,,,,,,runner,,,,,,0,15,15,14,1,2,0,,,,,,,,,,,,,,,,,,,,,,,,,,,,,,,,,,,,,,,,,,,,,,,,,,,,,,,,,,,,,,,,,,,,,,,,,,,
,,,,,,,,,,stimuli/images/PICTURE_208.png,THING,59bbd2d4178f1b0001828bbb,20/05/1985,2020-07-08_16h30.04.166,proactive,2020.1.2,Linux x86_64,60,5f035e5afe130c270d6ae6dd,5f05e65e084b4d00099f5995,4,,,,,,microphone,,,,,,0,16,16,47,1,5,0,,,,,,,,,,,,,,,,,,,,,,,,,,,,,,,,,,,,,,,,,,,,,,,,,,,,,,,,,,,,,,,,,,,,,,,,,,,
,,,,,,,,,,stimuli/images/PICTURE_160.png,LEADER,59bbd2d4178f1b0001828bbb,20/05/1985,2020-07-08_16h30.04.166,proactive,2020.1.2,Linux x86_64,60,5f035e5afe130c270d6ae6dd,5f05e65e084b4d00099f5995,4,,,,,,wheelbarrow,,,,,,0,17,17,3,1,1,0,,,,,,,,,,,,,,,,,,,,,,,,,,,,,,,,,,,,,,,,,,,,,,,,,,,,,,,,,,,,,,,,,,,,,,,,,,,
,,,,,,,,,,stimuli/images/PICTURE_68.png,MILE,59bbd2d4178f1b0001828bbb,20/05/1985,2020-07-08_16h30.04.166,proactive,2020.1.2,Linux x86_64,60,5f035e5afe130c270d6ae6dd,5f05e65e084b4d00099f5995,4,,,,,,candle,,,,,,0,18,18,44,1,5,0,,,,,,,,,,,,,,,,,,,,,,,,,,,,,,,,,,,,,,,,,,,,,,,,,,,,,,,,,,,,,,,,,,,,,,,,,,,
,,,,,,,,,,stimuli/images/PICTURE_469.png,LETTER,59bbd2d4178f1b0001828bbb,20/05/1985,2020-07-08_16h30.04.166,proactive,2020.1.2,Linux x86_64,60,5f035e5afe130c270d6ae6dd,5f05e65e084b4d00099f5995,4,,,,,,stool,,,,,,0,19,19,42,1,5,0,,,,,,,,,,,,,,,,,,,,,,,,,,,,,,,,,,,,,,,,,,,,,,,,,,,,,,,,,,,,,,,,,,,,,,,,,,,
,,,,,,,,,,stimuli/images/PICTURE_285.png,ADVICE,59bbd2d4178f1b0001828bbb,20/05/1985,2020-07-08_16h30.04.166,proactive,2020.1.2,Linux x86_64,60,5f035e5afe130c270d6ae6dd,5f05e65e084b4d00099f5995,4,,,,,,carrot,,,,,,0,20,20,12,1,2,0,,,,,,,,,,,,,,,,,,,,,,,,,,,,,,,,,,,,,,,,,,,,,,,,,,,,,,,,,,,,,,,,,,,,,,,,,,,
,,,,,,,,,,stimuli/images/PICTURE_380.png,PHOTO,59bbd2d4178f1b0001828bbb,20/05/1985,2020-07-08_16h30.04.166,proactive,2020.1.2,Linux x86_64,60,5f035e5afe130c270d6ae6dd,5f05e65e084b4d00099f5995,4,,,,,,gorilla,,,,,,0,21,21,52,1,6,0,,,,,,,,,,,,,,,,,,,,,,,,,,,,,,,,,,,,,,,,,,,,,,,,,,,,,,,,,,,,,,,,,,,,,,,,,,,
,,,,,,,,,,stimuli/images/PICTURE_177.png,CARS,59bbd2d4178f1b0001828bbb,20/05/1985,2020-07-08_16h30.04.166,proactive,2020.1.2,Linux x86_64,60,5f035e5afe130c270d6ae6dd,5f05e65e084b4d00099f5995,4,,,,,,mushroom,,,,,,0,22,22,35,1,4,0,,,,,,,,,,,,,,,,,,,,,,,,,,,,,,,,,,,,,,,,,,,,,,,,,,,,,,,,,,,,,,,,,,,,,,,,,,,
,,,,,,,,,,stimuli/images/PICTURE_677.png,MILE,59bbd2d4178f1b0001828bbb,20/05/1985,2020-07-08_16h30.04.166,proactive,2020.1.2,Linux x86_64,60,5f035e5afe130c270d6ae6dd,5f05e65e084b4d00099f5995,4,,,,,,map,,,,,,0,23,23,30,1,4,0,,,,,,,,,,,,,,,,,,,,,,,,,,,,,,,,,,,,,,,,,,,,,,,,,,,,,,,,,,,,,,,,,,,,,,,,,,,
,,,,,,,,,,stimuli/images/PICTURE_95.png,STYLE,59bbd2d4178f1b0001828bbb,20/05/1985,2020-07-08_16h30.04.166,proactive,2020.1.2,Linux x86_64,60,5f035e5afe130c270d6ae6dd,5f05e65e084b4d00099f5995,4,,,,,,suitcase,,,,,,0,24,24,25,1,3,0,,,,,,,,,,,,,,,,,,,,,,,,,,,,,,,,,,,,,,,,,,,,,,,,,,,,,,,,,,,,,,,,,,,,,,,,,,,
,,,,,,,,,,stimuli/images/PICTURE_504.png,BODY,59bbd2d4178f1b0001828bbb,20/05/1985,2020-07-08_16h30.04.166,proactive,2020.1.2,Linux x86_64,60,5f035e5afe130c270d6ae6dd,5f05e65e084b4d00099f5995,4,,,,,,wheel,,,,,,0,25,25,8,1,1,0,,,,,,,,,,,,,,,,,,,,,,,,,,,,,,,,,,,,,,,,,,,,,,,,,,,,,,,,,,,,,,,,,,,,,,,,,,,
,,,,,,,,,,stimuli/images/PICTURE_151.png,GIRL,59bbd2d4178f1b0001828bbb,20/05/1985,2020-07-08_16h30.04.166,proactive,2020.1.2,Linux x86_64,60,5f035e5afe130c270d6ae6dd,5f05e65e084b4d00099f5995,4,,,,,,tray,,,,,,0,26,26,19,1,2,0,,,,,,,,,,,,,,,,,,,,,,,,,,,,,,,,,,,,,,,,,,,,,,,,,,,,,,,,,,,,,,,,,,,,,,,,,,,
,,,,,,,,,,stimuli/images/PICTURE_509.png,PHOTO,59bbd2d4178f1b0001828bbb,20/05/1985,2020-07-08_16h30.04.166,proactive,2020.1.2,Linux x86_64,60,5f035e5afe130c270d6ae6dd,5f05e65e084b4d00099f5995,4,,,,,,telephone,,,,,,0,27,27,21,1,3,0,,,,,,,,,,,,,,,,,,,,,,,,,,,,,,,,,,,,,,,,,,,,,,,,,,,,,,,,,,,,,,,,,,,,,,,,,,,
,,,,,,,,,,stimuli/images/PICTURE_233.png,IDEAS,59bbd2d4178f1b0001828bbb,20/05/1985,2020-07-08_16h30.04.166,proactive,2020.1.2,Linux x86_64,60,5f035e5afe130c270d6ae6dd,5f05e65e084b4d00099f5995,4,,,,,,salt,,,,,,0,28,28,28,1,3,0,,,,,,,,,,,,,,,,,,,,,,,,,,,,,,,,,,,,,,,,,,,,,,,,,,,,,,,,,,,,,,,,,,,,,,,,,,,
,,,,,,,,,,stimuli/images/PICTURE_248.png,DOZEN,59bbd2d4178f1b0001828bbb,20/05/1985,2020-07-08_16h30.04.166,proactive,2020.1.2,Linux x86_64,60,5f035e5afe130c270d6ae6dd,5f05e65e084b4d00099f5995,4,,,,,,cart,,,,,,0,29,29,39,1,4,0,,,,,,,,,,,,,,,,,,,,,,,,,,,,,,,,,,,,,,,,,,,,,,,,,,,,,,,,,,,,,,,,,,,,,,,,,,,
,,,,,,,,,,stimuli/images/PICTURE_744.png,SAKE,59bbd2d4178f1b0001828bbb,20/05/1985,2020-07-08_16h30.04.166,proactive,2020.1.2,Linux x86_64,60,5f035e5afe130c270d6ae6dd,5f05e65e084b4d00099f5995,4,,,,,,ring,,,,,,0,30,30,17,1,2,0,,,,,,,,,,,,,,,,,,,,,,,,,,,,,,,,,,,,,,,,,,,,,,,,,,,,,,,,,,,,,,,,,,,,,,,,,,,
,,,,,,,,,,stimuli/images/PICTURE_487.png,FLIGHT,59bbd2d4178f1b0001828bbb,20/05/1985,2020-07-08_16h30.04.166,proactive,2020.1.2,Linux x86_64,60,5f035e5afe130c270d6ae6dd,5f05e65e084b4d00099f5995,4,,,,,,basket,,,,,,0,31,31,9,1,1,0,,,,,,,,,,,,,,,,,,,,,,,,,,,,,,,,,,,,,,,,,,,,,,,,,,,,,,,,,,,,,,,,,,,,,,,,,,,
,,,,,,,,,,stimuli/images/PICTURE_311.png,BEAUTY,59bbd2d4178f1b0001828bbb,20/05/1985,2020-07-08_16h30.04.166,proactive,2020.1.2,Linux x86_64,60,5f035e5afe130c270d6ae6dd,5f05e65e084b4d00099f5995,4,,,,,,razor,,,,,,0,32,32,13,1,2,0,,,,,,,,,,,,,,,,,,,,,,,,,,,,,,,,,,,,,,,,,,,,,,,,,,,,,,,,,,,,,,,,,,,,,,,,,,,
,,,,,,,,,,stimuli/images/PICTURE_160.png,FEET,59bbd2d4178f1b0001828bbb,20/05/1985,2020-07-08_16h30.04.166,proactive,2020.1.2,Linux x86_64,60,5f035e5afe130c270d6ae6dd,5f05e65e084b4d00099f5995,4,,,,,,wheelbarrow,,,,,,0,33,33,58,1,6,0,,,,,,,,,,,,,,,,,,,,,,,,,,,,,,,,,,,,,,,,,,,,,,,,,,,,,,,,,,,,,,,,,,,,,,,,,,,
,,,,,,,,,,stimuli/images/PICTURE_491.png,ROOF,59bbd2d4178f1b0001828bbb,20/05/1985,2020-07-08_16h30.04.166,proactive,2020.1.2,Linux x86_64,60,5f035e5afe130c270d6ae6dd,5f05e65e084b4d00099f5995,4,,,,,,rug,,,,,,0,34,34,24,1,3,0,,,,,,,,,,,,,,,,,,,,,,,,,,,,,,,,,,,,,,,,,,,,,,,,,,,,,,,,,,,,,,,,,,,,,,,,,,,
,,,,,,,,,,stimuli/images/PICTURE_708.png,CLIENT,59bbd2d4178f1b0001828bbb,20/05/1985,2020-07-08_16h30.04.166,proactive,2020.1.2,Linux x86_64,60,5f035e5afe130c270d6ae6dd,5f05e65e084b4d00099f5995,4,,,,,,monkey,,,,,,0,35,35,5,1,1,0,,,,,,,,,,,,,,,,,,,,,,,,,,,,,,,,,,,,,,,,,,,,,,,,,,,,,,,,,,,,,,,,,,,,,,,,,,,
,,,,,,,,,,stimuli/images/PICTURE_215.png,PLENTY,59bbd2d4178f1b0001828bbb,20/05/1985,2020-07-08_16h30.04.166,proactive,2020.1.2,Linux x86_64,60,5f035e5afe130c270d6ae6dd,5f05e65e084b4d00099f5995,4,,,,,,boot,,,,,,0,36,36,37,1,4,0,,,,,,,,,,,,,,,,,,,,,,,,,,,,,,,,,,,,,,,,,,,,,,,,,,,,,,,,,,,,,,,,,,,,,,,,,,,
,,,,,,,,,,stimuli/images/PICTURE_348.png,SPEECH,59bbd2d4178f1b0001828bbb,20/05/1985,2020-07-08_16h30.04.166,proactive,2020.1.2,Linux x86_64,60,5f035e5afe130c270d6ae6dd,5f05e65e084b4d00099f5995,4,,,,,,pepper,,,,,,0,37,37,20,1,3,0,,,,,,,,,,,,,,,,,,,,,,,,,,,,,,,,,,,,,,,,,,,,,,,,,,,,,,,,,,,,,,,,,,,,,,,,,,,
,,,,,,,,,,stimuli/images/PICTURE_308.png,KIND,59bbd2d4178f1b0001828bbb,20/05/1985,2020-07-08_16h30.04.166,proactive,2020.1.2,Linux x86_64,60,5f035e5afe130c270d6ae6dd,5f05e65e084b4d00099f5995,4,,,,,,dice,,,,,,0,38,38,54,1,6,0,,,,,,,,,,,,,,,,,,,,,,,,,,,,,,,,,,,,,,,,,,,,,,,,,,,,,,,,,,,,,,,,,,,,,,,,,,,
,,,,,,,,,,stimuli/images/PICTURE_203.png,ARTIST,59bbd2d4178f1b0001828bbb,20/05/1985,2020-07-08_16h30.04.166,proactive,2020.1.2,Linux x86_64,60,5f035e5afe130c270d6ae6dd,5f05e65e084b4d00099f5995,4,,,,,,cap,,,,,,0,39,39,26,1,3,0,,,,,,,,,,,,,,,,,,,,,,,,,,,,,,,,,,,,,,,,,,,,,,,,,,,,,,,,,,,,,,,,,,,,,,,,,,,
,,,,,,,,,,stimuli/images/PICTURE_314.png,SAKE,59bbd2d4178f1b0001828bbb,20/05/1985,2020-07-08_16h30.04.166,proactive,2020.1.2,Linux x86_64,60,5f035e5afe130c270d6ae6dd,5f05e65e084b4d00099f5995,4,,,,,,perfume,,,,,,0,40,40,7,1,1,0,,,,,,,,,,,,,,,,,,,,,,,,,,,,,,,,,,,,,,,,,,,,,,,,,,,,,,,,,,,,,,,,,,,,,,,,,,,
,,,,,,,,,,stimuli/images/PICTURE_491.png,WRITER,59bbd2d4178f1b0001828bbb,20/05/1985,2020-07-08_16h30.04.166,proactive,2020.1.2,Linux x86_64,60,5f035e5afe130c270d6ae6dd,5f05e65e084b4d00099f5995,4,,,,,,rug,,,,,,0,41,41,57,1,6,0,,,,,,,,,,,,,,,,,,,,,,,,,,,,,,,,,,,,,,,,,,,,,,,,,,,,,,,,,,,,,,,,,,,,,,,,,,,
,,,,,,,,,,stimuli/images/PICTURE_453.png,PLENTY,59bbd2d4178f1b0001828bbb,20/05/1985,2020-07-08_16h30.04.166,proactive,2020.1.2,Linux x86_64,60,5f035e5afe130c270d6ae6dd,5f05e65e084b4d00099f5995,4,,,,,,scissors,,,,,,0,42,42,56,1,6,0,,,,,,,,,,,,,,,,,,,,,,,,,,,,,,,,,,,,,,,,,,,,,,,,,,,,,,,,,,,,,,,,,,,,,,,,,,,
,,,,,,,,,,stimuli/images/PICTURE_308.png,ESTATE,59bbd2d4178f1b0001828bbb,20/05/1985,2020-07-08_16h30.04.166,proactive,2020.1.2,Linux x86_64,60,5f035e5afe130c270d6ae6dd,5f05e65e084b4d00099f5995,4,,,,,,dice,,,,,,0,43,43,46,1,5,0,,,,,,,,,,,,,,,,,,,,,,,,,,,,,,,,,,,,,,,,,,,,,,,,,,,,,,,,,,,,,,,,,,,,,,,,,,,
,,,,,,,,,,stimuli/images/PICTURE_233.png,WOMEN,59bbd2d4178f1b0001828bbb,20/05/1985,2020-07-08_16h30.04.166,proactive,2020.1.2,Linux x86_64,60,5f035e5afe130c270d6ae6dd,5f05e65e084b4d00099f5995,4,,,,,,salt,,,,,,0,44,44,38,1,4,0,,,,,,,,,,,,,,,,,,,,,,,,,,,,,,,,,,,,,,,,,,,,,,,,,,,,,,,,,,,,,,,,,,,,,,,,,,,
,,,,,,,,,,stimuli/images/PICTURE_314.png,GODS,59bbd2d4178f1b0001828bbb,20/05/1985,2020-07-08_16h30.04.166,proactive,2020.1.2,Linux x86_64,60,5f035e5afe130c270d6ae6dd,5f05e65e084b4d00099f5995,4,,,,,,perfume,,,,,,0,45,45,11,1,2,0,,,,,,,,,,,,,,,,,,,,,,,,,,,,,,,,,,,,,,,,,,,,,,,,,,,,,,,,,,,,,,,,,,,,,,,,,,,
,,,,,,,,,,stimuli/images/PICTURE_453.png,DUDE,59bbd2d4178f1b0001828bbb,20/05/1985,2020-07-08_16h30.04.166,proactive,2020.1.2,Linux x86_64,60,5f035e5afe130c270d6ae6dd,5f05e65e084b4d00099f5995,4,,,,,,scissors,,,,,,0,46,46,27,1,3,0,,,,,,,,,,,,,,,,,,,,,,,,,,,,,,,,,,,,,,,,,,,,,,,,,,,,,,,,,,,,,,,,,,,,,,,,,,,
,,,,,,,,,,stimuli/images/PICTURE_675.png,WEAPON,59bbd2d4178f1b0001828bbb,20/05/1985,2020-07-08_16h30.04.166,proactive,2020.1.2,Linux x86_64,60,5f035e5afe130c270d6ae6dd,5f05e65e084b4d00099f5995,4,,,,,,windmill,,,,,,0,47,47,32,1,4,0,,,,,,,,,,,,,,,,,,,,,,,,,,,,,,,,,,,,,,,,,,,,,,,,,,,,,,,,,,,,,,,,,,,,,,,,,,,
,,,,,,,,,,stimuli/images/PICTURE_688.png,CASINO,59bbd2d4178f1b0001828bbb,20/05/1985,2020-07-08_16h30.04.166,proactive,2020.1.2,Linux x86_64,60,5f035e5afe130c270d6ae6dd,5f05e65e084b4d00099f5995,4,,,,,,runner,,,,,,0,48,48,2,1,1,0,,,,,,,,,,,,,,,,,,,,,,,,,,,,,,,,,,,,,,,,,,,,,,,,,,,,,,,,,,,,,,,,,,,,,,,,,,,
,,,,,,,,,,stimuli/images/PICTURE_327.png,BEAUTY,59bbd2d4178f1b0001828bbb,20/05/1985,2020-07-08_16h30.04.166,proactive,2020.1.2,Linux x86_64,60,5f035e5afe130c270d6ae6dd,5f05e65e084b4d00099f5995,4,,,,,,helmet,,,,,,0,49,49,48,1,5,0,,,,,,,,,,,,,,,,,,,,,,,,,,,,,,,,,,,,,,,,,,,,,,,,,,,,,,,,,,,,,,,,,,,,,,,,,,,
,,,,,,,,,,stimuli/images/PICTURE_449.png,THING,59bbd2d4178f1b0001828bbb,20/05/1985,2020-07-08_16h30.04.166,proactive,2020.1.2,Linux x86_64,60,5f035e5afe130c270d6ae6dd,5f05e65e084b4d00099f5995,4,,,,,,bench,,,,,,0,50,50,59,1,6,0,,,,,,,,,,,,,,,,,,,,,,,,,,,,,,,,,,,,,,,,,,,,,,,,,,,,,,,,,,,,,,,,,,,,,,,,,,,
,,,,,,,,,,stimuli/images/PICTURE_85.png,THING,59bbd2d4178f1b0001828bbb,20/05/1985,2020-07-08_16h30.04.166,proactive,2020.1.2,Linux x86_64,60,5f035e5afe130c270d6ae6dd,5f05e65e084b4d00099f5995,4,,,,,,diamond,,,,,,0,51,51,15,1,2,0,,,,,,,,,,,,,,,,,,,,,,,,,,,,,,,,,,,,,,,,,,,,,,,,,,,,,,,,,,,,,,,,,,,,,,,,,,,
,,,,,,,,,,stimuli/images/PICTURE_470.png,CASINO,59bbd2d4178f1b0001828bbb,20/05/1985,2020-07-08_16h30.04.166,proactive,2020.1.2,Linux x86_64,60,5f035e5afe130c270d6ae6dd,5f05e65e084b4d00099f5995,4,,,,,,motorbike,,,,,,0,52,52,36,1,4,0,,,,,,,,,,,,,,,,,,,,,,,,,,,,,,,,,,,,,,,,,,,,,,,,,,,,,,,,,,,,,,,,,,,,,,,,,,,
,,,,,,,,,,stimuli/images/PICTURE_311.png,FRIEND,59bbd2d4178f1b0001828bbb,20/05/1985,2020-07-08_16h30.04.166,proactive,2020.1.2,Linux x86_64,60,5f035e5afe130c270d6ae6dd,5f05e65e084b4d00099f5995,4,,,,,,razor,,,,,,0,53,53,34,1,4,0,,,,,,,,,,,,,,,,,,,,,,,,,,,,,,,,,,,,,,,,,,,,,,,,,,,,,,,,,,,,,,,,,,,,,,,,,,,
,,,,,,,,,,stimuli/images/PICTURE_488.png,STYLE,59bbd2d4178f1b0001828bbb,20/05/1985,2020-07-08_16h30.04.166,proactive,2020.1.2,Linux x86_64,60,5f035e5afe130c270d6ae6dd,5f05e65e084b4d00099f5995,4,,,,,,sun,,,,,,0,54,54,33,1,4,0,,,,,,,,,,,,,,,,,,,,,,,,,,,,,,,,,,,,,,,,,,,,,,,,,,,,,,,,,,,,,,,,,,,,,,,,,,,
,,,,,,,,,,stimuli/images/PICTURE_744.png,SYSTEM,59bbd2d4178f1b0001828bbb,20/05/1985,2020-07-08_16h30.04.166,proactive,2020.1.2,Linux x86_64,60,5f035e5afe130c270d6ae6dd,5f05e65e084b4d00099f5995,4,,,,,,ring,,,,,,0,55,55,43,1,5,0,,,,,,,,,,,,,,,,,,,,,,,,,,,,,,,,,,,,,,,,,,,,,,,,,,,,,,,,,,,,,,,,,,,,,,,,,,,
,,,,,,,,,,stimuli/images/PICTURE_123.png,ADVICE,59bbd2d4178f1b0001828bbb,20/05/1985,2020-07-08_16h30.04.166,proactive,2020.1.2,Linux x86_64,60,5f035e5afe130c270d6ae6dd,5f05e65e084b4d00099f5995,4,,,,,,dart,,,,,,0,56,56,50,1,6,0,,,,,,,,,,,,,,,,,,,,,,,,,,,,,,,,,,,,,,,,,,,,,,,,,,,,,,,,,,,,,,,,,,,,,,,,,,,
,,,,,,,,,,stimuli/images/PICTURE_339.png,PLENTY,59bbd2d4178f1b0001828bbb,20/05/1985,2020-07-08_16h30.04.166,proactive,2020.1.2,Linux x86_64,60,5f035e5afe130c270d6ae6dd,5f05e65e084b4d00099f5995,4,,,,,,backpack,,,,,,0,57,57,0,1,1,0,,,,,,,,,,,,,,,,,,,,,,,,,,,,,,,,,,,,,,,,,,,,,,,,,,,,,,,,,,,,,,,,,,,,,,,,,,,
,,,,,,,,,,stimuli/images/PICTURE_667.png,PLENTY,59bbd2d4178f1b0001828bbb,20/05/1985,2020-07-08_16h30.04.166,proactive,2020.1.2,Linux x86_64,60,5f035e5afe130c270d6ae6dd,5f05e65e084b4d00099f5995,4,,,,,,daisy,,,,,,0,58,58,41,1,5,0,,,,,,,,,,,,,,,,,,,,,,,,,,,,,,,,,,,,,,,,,,,,,,,,,,,,,,,,,,,,,,,,,,,,,,,,,,,
,,?,0.00359,0,,,,,,stimuli/images/PICTURE_469.png,LETTER,59bbd2d4178f1b0001828bbb,20/05/1985,2020-07-08_16h30.04.166,proactive,2020.1.2,Linux x86_64,60,5f035e5afe130c270d6ae6dd,5f05e65e084b4d00099f5995,4,,,,,,stool,,,,,,,,,,,5,0,0,0,0,42,1,,,,,,,,,,,,,,,,,,,,,,,,,,,,,,,,,,,,,,,,,,,,,,,,,,,,,,,,,,,,,,,,,,,,,,
,,?,0.002305,0,,,,,,stimuli/images/PICTURE_208.png,MONTH,59bbd2d4178f1b0001828bbb,20/05/1985,2020-07-08_16h30.04.166,proactive,2020.1.2,Linux x86_64,60,5f035e5afe130c270d6ae6dd,5f05e65e084b4d00099f5995,4,,,,,,microphone,,,,,,,,,,,6,0,0,1,1,53,1,,,,,,,,,,,,,,,,,,,,,,,,,,,,,,,,,,,,,,,,,,,,,,,,,,,,,,,,,,,,,,,,,,,,,,
,,?,0.00289,0,,,,,,stimuli/images/PICTURE_692.png,MONTH,59bbd2d4178f1b0001828bbb,20/05/1985,2020-07-08_16h30.04.166,proactive,2020.1.2,Linux x86_64,60,5f035e5afe130c270d6ae6dd,5f05e65e084b4d00099f5995,4,,,,,,cherry,,,,,,,,,,,2,0,0,2,2,16,1,,,,,,,,,,,,,,,,,,,,,,,,,,,,,,,,,,,,,,,,,,,,,,,,,,,,,,,,,,,,,,,,,,,,,,
,,?,0.002735,0,,,,,,stimuli/images/PICTURE_667.png,PLENTY,59bbd2d4178f1b0001828bbb,20/05/1985,2020-07-08_16h30.04.166,proactive,2020.1.2,Linux x86_64,60,5f035e5afe130c270d6ae6dd,5f05e65e084b4d00099f5995,4,,,,,,daisy,,,,,,,,,,,5,0,0,3,3,41,1,,,,,,,,,,,,,,,,,,,,,,,,,,,,,,,,,,,,,,,,,,,,,,,,,,,,,,,,,,,,,,,,,,,,,,
,,WOMEN,3.76155,1,,,,,,stimuli/images/PICTURE_233.png,WOMEN,59bbd2d4178f1b0001828bbb,20/05/1985,2020-07-08_16h30.04.166,proactive,2020.1.2,Linux x86_64,60,5f035e5afe130c270d6ae6dd,5f05e65e084b4d00099f5995,4,,,,,,salt,,,,,,,,,,,4,0,0,4,4,38,1,,,,,,,,,,,,,,,,,,,,,,,,,,,,,,,,,,,,,,,,,,,,,,,,,,,,,,,,,,,,,,,,,,,,,,
,,?,0.002655,0,,,,,,stimuli/images/PICTURE_491.png,WRITER,59bbd2d4178f1b0001828bbb,20/05/1985,2020-07-08_16h30.04.166,proactive,2020.1.2,Linux x86_64,60,5f035e5afe130c270d6ae6dd,5f05e65e084b4d00099f5995,4,,,,,,rug,,,,,,,,,,,6,0,0,5,5,57,1,,,,,,,,,,,,,,,,,,,,,,,,,,,,,,,,,,,,,,,,,,,,,,,,,,,,,,,,,,,,,,,,,,,,,,
,,?,0.00222,0,,,,,,stimuli/images/PICTURE_160.png,LEADER,59bbd2d4178f1b0001828bbb,20/05/1985,2020-07-08_16h30.04.166,proactive,2020.1.2,Linux x86_64,60,5f035e5afe130c270d6ae6dd,5f05e65e084b4d00099f5995,4,,,,,,wheelbarrow,,,,,,,,,,,1,0,0,6,6,3,1,,,,,,,,,,,,,,,,,,,,,,,,,,,,,,,,,,,,,,,,,,,,,,,,,,,,,,,,,,,,,,,,,,,,,,
,,?,0.00175,0,,,,,,stimuli/images/PICTURE_95.png,STYLE,59bbd2d4178f1b0001828bbb,20/05/1985,2020-07-08_16h30.04.166,proactive,2020.1.2,Linux x86_64,60,5f035e5afe130c270d6ae6dd,5f05e65e084b4d00099f5995,4,,,,,,suitcase,,,,,,,,,,,3,0,0,7,7,25,1,,,,,,,,,,,,,,,,,,,,,,,,,,,,,,,,,,,,,,,,,,,,,,,,,,,,,,,,,,,,,,,,,,,,,,
,,?,0.001745,0,,,,,,stimuli/images/PICTURE_160.png,FEET,59bbd2d4178f1b0001828bbb,20/05/1985,2020-07-08_16h30.04.166,proactive,2020.1.2,Linux x86_64,60,5f035e5afe130c270d6ae6dd,5f05e65e084b4d00099f5995,4,,,,,,wheelbarrow,,,,,,,,,,,6,0,0,8,8,58,1,,,,,,,,,,,,,,,,,,,,,,,,,,,,,,,,,,,,,,,,,,,,,,,,,,,,,,,,,,,,,,,,,,,,,,
,,?,0.001775,0,,,,,,stimuli/images/PICTURE_654.png,VALLEY,59bbd2d4178f1b0001828bbb,20/05/1985,2020-07-08_16h30.04.166,proactive,2020.1.2,Linux x86_64,60,5f035e5afe130c270d6ae6dd,5f05e65e084b4d00099f5995,4,,,,,,pencil,,,,,,,,,,,1,0,0,9,9,1,1,,,,,,,,,,,,,,,,,,,,,,,,,,,,,,,,,,,,,,,,,,,,,,,,,,,,,,,,,,,,,,,,,,,,,,
,,?,0.001785,0,,,,,,stimuli/images/PICTURE_453.png,PLENTY,59bbd2d4178f1b0001828bbb,20/05/1985,2020-07-08_16h30.04.166,proactive,2020.1.2,Linux x86_64,60,5f035e5afe130c270d6ae6dd,5f05e65e084b4d00099f5995,4,,,,,,scissors,,,,,,,,,,,6,0,0,10,10,56,1,,,,,,,,,,,,,,,,,,,,,,,,,,,,,,,,,,,,,,,,,,,,,,,,,,,,,,,,,,,,,,,,,,,,,,
,,?,0.00503,0,,,,,,stimuli/images/PICTURE_314.png,SAKE,59bbd2d4178f1b0001828bbb,20/05/1985,2020-07-08_16h30.04.166,proactive,2020.1.2,Linux x86_64,60,5f035e5afe130c270d6ae6dd,5f05e65e084b4d00099f5995,4,,,,,,perfume,,,,,,,,,,,1,0,0,11,11,7,1,,,,,,,,,,,,,,,,,,,,,,,,,,,,,,,,,,,,,,,,,,,,,,,,,,,,,,,,,,,,,,,,,,,,,,
,,CASINO,2.291385,1,,,,,,stimuli/images/PICTURE_470.png,CASINO,59bbd2d4178f1b0001828bbb,20/05/1985,2020-07-08_16h30.04.166,proactive,2020.1.2,Linux x86_64,60,5f035e5afe130c270d6ae6dd,5f05e65e084b4d00099f5995,4,,,,,,motorbike,,,,,,,,,,,4,0,0,12,12,36,1,,,,,,,,,,,,,,,,,,,,,,,,,,,,,,,,,,,,,,,,,,,,,,,,,,,,,,,,,,,,,,,,,,,,,,
,,?,0.00249,0,,,,,,stimuli/images/PICTURE_688.png,WOMEN,59bbd2d4178f1b0001828bbb,20/05/1985,2020-07-08_16h30.04.166,proactive,2020.1.2,Linux x86_64,60,5f035e5afe130c270d6ae6dd,5f05e65e084b4d00099f5995,4,,,,,,runner,,,,,,,,,,,2,0,0,13,13,14,1,,,,,,,,,,,,,,,,,,,,,,,,,,,,,,,,,,,,,,,,,,,,,,,,,,,,,,,,,,,,,,,,,,,,,,
,,?,0.00221,0,,,,,,stimuli/images/PICTURE_32.png,JUNGLE,59bbd2d4178f1b0001828bbb,20/05/1985,2020-07-08_16h30.04.166,proactive,2020.1.2,Linux x86_64,60,5f035e5afe130c270d6ae6dd,5f05e65e084b4d00099f5995,4,,,,,,crown,,,,,,,,,,,5,0,0,14,14,45,1,,,,,,,,,,,,,,,,,,,,,,,,,,,,,,,,,,,,,,,,,,,,,,,,,,,,,,,,,,,,,,,,,,,,,,
,,?,0.001685,0,,,,,,stimuli/images/PICTURE_708.png,CLIENT,59bbd2d4178f1b0001828bbb,20/05/1985,2020-07-08_16h30.04.166,proactive,2020.1.2,Linux x86_64,60,5f035e5afe130c270d6ae6dd,5f05e65e084b4d00099f5995,4,,,,,,monkey,,,,,,,,,,,1,0,0,15,15,5,1,,,,,,,,,,,,,,,,,,,,,,,,,,,,,,,,,,,,,,,,,,,,,,,,,,,,,,,,,,,,,,,,,,,,,,
,,?,0.001735,0,,,,,,stimuli/images/PICTURE_339.png,PLENTY,59bbd2d4178f1b0001828bbb,20/05/1985,2020-07-08_16h30.04.166,proactive,2020.1.2,Linux x86_64,60,5f035e5afe130c270d6ae6dd,5f05e65e084b4d00099f5995,4,,,,,,backpack,,,,,,,,,,,1,0,0,16,16,0,1,,,,,,,,,,,,,,,,,,,,,,,,,,,,,,,,,,,,,,,,,,,,,,,,,,,,,,,,,,,,,,,,,,,,,,
,,?,0.00173,0,,,,,,stimuli/images/PICTURE_744.png,SYSTEM,59bbd2d4178f1b0001828bbb,20/05/1985,2020-07-08_16h30.04.166,proactive,2020.1.2,Linux x86_64,60,5f035e5afe130c270d6ae6dd,5f05e65e084b4d00099f5995,4,,,,,,ring,,,,,,,,,,,5,0,0,17,17,43,1,,,,,,,,,,,,,,,,,,,,,,,,,,,,,,,,,,,,,,,,,,,,,,,,,,,,,,,,,,,,,,,,,,,,,,
,,?,0.00167,0,,,,,,stimuli/images/PICTURE_255.png,AREA,59bbd2d4178f1b0001828bbb,20/05/1985,2020-07-08_16h30.04.166,proactive,2020.1.2,Linux x86_64,60,5f035e5afe130c270d6ae6dd,5f05e65e084b4d00099f5995,4,,,,,,shovel,,,,,,,,,,,3,0,0,18,18,22,1,,,,,,,,,,,,,,,,,,,,,,,,,,,,,,,,,,,,,,,,,,,,,,,,,,,,,,,,,,,,,,,,,,,,,,
,,?,0.002055,0,,,,,,stimuli/images/PICTURE_302.png,FAMILY,59bbd2d4178f1b0001828bbb,20/05/1985,2020-07-08_16h30.04.166,proactive,2020.1.2,Linux x86_64,60,5f035e5afe130c270d6ae6dd,5f05e65e084b4d00099f5995,4,,,,,,taxi,,,,,,,,,,,2,0,0,19,19,18,1,,,,,,,,,,,,,,,,,,,,,,,,,,,,,,,,,,,,,,,,,,,,,,,,,,,,,,,,,,,,,,,,,,,,,,
,,?,0.00165,0,,,,,,stimuli/images/PICTURE_308.png,KIND,59bbd2d4178f1b0001828bbb,20/05/1985,2020-07-08_16h30.04.166,proactive,2020.1.2,Linux x86_64,60,5f035e5afe130c270d6ae6dd,5f05e65e084b4d00099f5995,4,,,,,,dice,,,,,,,,,,,6,0,0,20,20,54,1,,,,,,,,,,,,,,,,,,,,,,,,,,,,,,,,,,,,,,,,,,,,,,,,,,,,,,,,,,,,,,,,,,,,,,
,,MILE,2.14125,1,,,,,,stimuli/images/PICTURE_677.png,MILE,59bbd2d4178f1b0001828bbb,20/05/1985,2020-07-08_16h30.04.166,proactive,2020.1.2,Linux x86_64,60,5f035e5afe130c270d6ae6dd,5f05e65e084b4d00099f5995,4,,,,,,map,,,,,,,,,,,4,0,0,21,21,30,1,,,,,,,,,,,,,,,,,,,,,,,,,,,,,,,,,,,,,,,,,,,,,,,,,,,,,,,,,,,,,,,,,,,,,,
,,PLENTY,2.43023,1,,,,,,stimuli/images/PICTURE_215.png,PLENTY,59bbd2d4178f1b0001828bbb,20/05/1985,2020-07-08_16h30.04.166,proactive,2020.1.2,Linux x86_64,60,5f035e5afe130c270d6ae6dd,5f05e65e084b4d00099f5995,4,,,,,,boot,,,,,,,,,,,4,0,0,22,22,37,1,,,,,,,,,,,,,,,,,,,,,,,,,,,,,,,,,,,,,,,,,,,,,,,,,,,,,,,,,,,,,,,,,,,,,,
,,?,0.00231,0,,,,,,stimuli/images/PICTURE_123.png,ADVICE,59bbd2d4178f1b0001828bbb,20/05/1985,2020-07-08_16h30.04.166,proactive,2020.1.2,Linux x86_64,60,5f035e5afe130c270d6ae6dd,5f05e65e084b4d00099f5995,4,,,,,,dart,,,,,,,,,,,5,0,0,23,23,40,1,,,,,,,,,,,,,,,,,,,,,,,,,,,,,,,,,,,,,,,,,,,,,,,,,,,,,,,,,,,,,,,,,,,,,,
,,?,0.003265,0,,,,,,stimuli/images/PICTURE_308.png,ESTATE,59bbd2d4178f1b0001828bbb,20/05/1985,2020-07-08_16h30.04.166,proactive,2020.1.2,Linux x86_64,60,5f035e5afe130c270d6ae6dd,5f05e65e084b4d00099f5995,4,,,,,,dice,,,,,,,,,,,5,0,0,24,24,46,1,,,,,,,,,,,,,,,,,,,,,,,,,,,,,,,,,,,,,,,,,,,,,,,,,,,,,,,,,,,,,,,,,,,,,,
,,?,0.002625,0,,,,,,stimuli/images/PICTURE_380.png,DEATH,59bbd2d4178f1b0001828bbb,20/05/1985,2020-07-08_16h30.04.166,proactive,2020.1.2,Linux x86_64,60,5f035e5afe130c270d6ae6dd,5f05e65e084b4d00099f5995,4,,,,,,gorilla,,,,,,,,,,,5,0,0,25,25,49,1,,,,,,,,,,,,,,,,,,,,,,,,,,,,,,,,,,,,,,,,,,,,,,,,,,,,,,,,,,,,,,,,,,,,,,
,,?,0.00259,0,,,,,,stimuli/images/PICTURE_208.png,LOTS,59bbd2d4178f1b0001828bbb,20/05/1985,2020-07-08_16h30.04.166,proactive,2020.1.2,Linux x86_64,60,5f035e5afe130c270d6ae6dd,5f05e65e084b4d00099f5995,4,,,,,,microphone,,,,,,,,,,,2,0,0,26,26,10,1,,,,,,,,,,,,,,,,,,,,,,,,,,,,,,,,,,,,,,,,,,,,,,,,,,,,,,,,,,,,,,,,,,,,,,
,,DOZEN,2.511645,1,,,,,,stimuli/images/PICTURE_248.png,DOZEN,59bbd2d4178f1b0001828bbb,20/05/1985,2020-07-08_16h30.04.166,proactive,2020.1.2,Linux x86_64,60,5f035e5afe130c270d6ae6dd,5f05e65e084b4d00099f5995,4,,,,,,cart,,,,,,,,,,,4,0,0,27,27,39,1,,,,,,,,,,,,,,,,,,,,,,,,,,,,,,,,,,,,,,,,,,,,,,,,,,,,,,,,,,,,,,,,,,,,,,
,,?,0.001795,0,,,,,,stimuli/images/PICTURE_233.png,IDEAS,59bbd2d4178f1b0001828bbb,20/05/1985,2020-07-08_16h30.04.166,proactive,2020.1.2,Linux x86_64,60,5f035e5afe130c270d6ae6dd,5f05e65e084b4d00099f5995,4,,,,,,salt,,,,,,,,,,,3,0,0,28,28,28,1,,,,,,,,,,,,,,,,,,,,,,,,,,,,,,,,,,,,,,,,,,,,,,,,,,,,,,,,,,,,,,,,,,,,,,
,,?,0.002165,0,,,,,,stimuli/images/PICTURE_348.png,SPEECH,59bbd2d4178f1b0001828bbb,20/05/1985,2020-07-08_16h30.04.166,proactive,2020.1.2,Linux x86_64,60,5f035e5afe130c270d6ae6dd,5f05e65e084b4d00099f5995,4,,,,,,pepper,,,,,,,,,,,3,0,0,29,29,20,1,,,,,,,,,,,,,,,,,,,,,,,,,,,,,,,,,,,,,,,,,,,,,,,,,,,,,,,,,,,,,,,,,,,,,,
,,?,0.001985,0,,,,,,stimuli/images/PICTURE_744.png,SAKE,59bbd2d4178f1b0001828bbb,20/05/1985,2020-07-08_16h30.04.166,proactive,2020.1.2,Linux x86_64,60,5f035e5afe130c270d6ae6dd,5f05e65e084b4d00099f5995,4,,,,,,ring,,,,,,,,,,,2,0,0,30,30,17,1,,,,,,,,,,,,,,,,,,,,,,,,,,,,,,,,,,,,,,,,,,,,,,,,,,,,,,,,,,,,,,,,,,,,,,
,,FRIEND,2.181465,1,,,,,,stimuli/images/PICTURE_311.png,FRIEND,59bbd2d4178f1b0001828bbb,20/05/1985,2020-07-08_16h30.04.166,proactive,2020.1.2,Linux x86_64,60,5f035e5afe130c270d6ae6dd,5f05e65e084b4d00099f5995,4,,,,,,razor,,,,,,,,,,,4,0,0,31,31,34,1,,,,,,,,,,,,,,,,,,,,,,,,,,,,,,,,,,,,,,,,,,,,,,,,,,,,,,,,,,,,,,,,,,,,,,
,,?,0.002,0,,,,,,stimuli/images/PICTURE_203.png,ARTIST,59bbd2d4178f1b0001828bbb,20/05/1985,2020-07-08_16h30.04.166,proactive,2020.1.2,Linux x86_64,60,5f035e5afe130c270d6ae6dd,5f05e65e084b4d00099f5995,4,,,,,,cap,,,,,,,,,,,3,0,0,32,32,26,1,,,,,,,,,,,,,,,,,,,,,,,,,,,,,,,,,,,,,,,,,,,,,,,,,,,,,,,,,,,,,,,,,,,,,,
,,?,0.001745,0,,,,,,stimuli/images/PICTURE_708.png,YARD,59bbd2d4178f1b0001828bbb,20/05/1985,2020-07-08_16h30.04.166,proactive,2020.1.2,Linux x86_64,60,5f035e5afe130c270d6ae6dd,5f05e65e084b4d00099f5995,4,,,,,,monkey,,,,,,,,,,,3,0,0,33,33,29,1,,,,,,,,,,,,,,,,,,,,,,,,,,,,,,,,,,,,,,,,,,,,,,,,,,,,,,,,,,,,,,,,,,,,,,
,,?,0.00165,0,,,,,,stimuli/images/PICTURE_504.png,BODY,59bbd2d4178f1b0001828bbb,20/05/1985,2020-07-08_16h30.04.166,proactive,2020.1.2,Linux x86_64,60,5f035e5afe130c270d6ae6dd,5f05e65e084b4d00099f5995,4,,,,,,wheel,,,,,,,,,,,1,0,0,34,34,8,1,,,,,,,,,,,,,,,,,,,,,,,,,,,,,,,,,,,,,,,,,,,,,,,,,,,,,,,,,,,,,,,,,,,,,,
,,?,0.00271,0,,,,,,stimuli/images/PICTURE_667.png,BATH,59bbd2d4178f1b0001828bbb,20/05/1985,2020-07-08_16h30.04.166,proactive,2020.1.2,Linux x86_64,60,5f035e5afe130c270d6ae6dd,5f05e65e084b4d00099f5995,4,,,,,,daisy,,,,,,,,,,,1,0,0,35,35,4,1,,,,,,,,,,,,,,,,,,,,,,,,,,,,,,,,,,,,,,,,,,,,,,,,,,,,,,,,,,,,,,,,,,,,,,
,,?,0.00165,0,,,,,,stimuli/images/PICTURE_449.png,THING,59bbd2d4178f1b0001828bbb,20/05/1985,2020-07-08_16h30.04.166,proactive,2020.1.2,Linux x86_64,60,5f035e5afe130c270d6ae6dd,5f05e65e084b4d00099f5995,4,,,,,,bench,,,,,,,,,,,6,0,0,36,36,59,1,,,,,,,,,,,,,,,,,,,,,,,,,,,,,,,,,,,,,,,,,,,,,,,,,,,,,,,,,,,,,,,,,,,,,,
,,STYLE,2.30579,1,,,,,,stimuli/images/PICTURE_488.png,STYLE,59bbd2d4178f1b0001828bbb,20/05/1985,2020-07-08_16h30.04.166,proactive,2020.1.2,Linux x86_64,60,5f035e5afe130c270d6ae6dd,5f05e65e084b4d00099f5995,4,,,,,,sun,,,,,,,,,,,4,0,0,37,37,33,1,,,,,,,,,,,,,,,,,,,,,,,,,,,,,,,,,,,,,,,,,,,,,,,,,,,,,,,,,,,,,,,,,,,,,,
,,?,0.00331,0,,,,,,stimuli/images/PICTURE_208.png,THING,59bbd2d4178f1b0001828bbb,20/05/1985,2020-07-08_16h30.04.166,proactive,2020.1.2,Linux x86_64,60,5f035e5afe130c270d6ae6dd,5f05e65e084b4d00099f5995,4,,,,,,microphone,,,,,,,,,,,5,0,0,38,38,47,1,,,,,,,,,,,,,,,,,,,,,,,,,,,,,,,,,,,,,,,,,,,,,,,,,,,,,,,,,,,,,,,,,,,,,,
,,?,0.002685,0,,,,,,stimuli/images/PICTURE_311.png,BEAUTY,59bbd2d4178f1b0001828bbb,20/05/1985,2020-07-08_16h30.04.166,proactive,2020.1.2,Linux x86_64,60,5f035e5afe130c270d6ae6dd,5f05e65e084b4d00099f5995,4,,,,,,razor,,,,,,,,,,,2,0,0,39,39,13,1,,,,,,,,,,,,,,,,,,,,,,,,,,,,,,,,,,,,,,,,,,,,,,,,,,,,,,,,,,,,,,,,,,,,,,
,,?,0.002615,0,,,,,,stimuli/images/PICTURE_314.png,GODS,59bbd2d4178f1b0001828bbb,20/05/1985,2020-07-08_16h30.04.166,proactive,2020.1.2,Linux x86_64,60,5f035e5afe130c270d6ae6dd,5f05e65e084b4d00099f5995,4,,,,,,perfume,,,,,,,,,,,2,0,0,40,40,11,1,,,,,,,,,,,,,,,,,,,,,,,,,,,,,,,,,,,,,,,,,,,,,,,,,,,,,,,,,,,,,,,,,,,,,,
,,?,0.00214,0,,,,,,stimuli/images/PICTURE_356.png,DANGER,59bbd2d4178f1b0001828bbb,20/05/1985,2020-07-08_16h30.04.166,proactive,2020.1.2,Linux x86_64,60,5f035e5afe130c270d6ae6dd,5f05e65e084b4d00099f5995,4,,,,,,pawn,,,,,,,,,,,6,0,0,41,41,55,1,,,,,,,,,,,,,,,,,,,,,,,,,,,,,,,,,,,,,,,,,,,,,,,,,,,,,,,,,,,,,,,,,,,,,,
,,?,0.002195,0,,,,,,stimuli/images/PICTURE_327.png,BEAUTY,59bbd2d4178f1b0001828bbb,20/05/1985,2020-07-08_16h30.04.166,proactive,2020.1.2,Linux x86_64,60,5f035e5afe130c270d6ae6dd,5f05e65e084b4d00099f5995,4,,,,,,helmet,,,,,,,,,,,5,0,0,42,42,48,1,,,,,,,,,,,,,,,,,,,,,,,,,,,,,,,,,,,,,,,,,,,,,,,,,,,,,,,,,,,,,,,,,,,,,,
,,?,0.002315,0,,,,,,stimuli/images/PICTURE_285.png,ADVICE,59bbd2d4178f1b0001828bbb,20/05/1985,2020-07-08_16h30.04.166,proactive,2020.1.2,Linux x86_64,60,5f035e5afe130c270d6ae6dd,5f05e65e084b4d00099f5995,4,,,,,,carrot,,,,,,,,,,,2,0,0,43,43,12,1,,,,,,,,,,,,,,,,,,,,,,,,,,,,,,,,,,,,,,,,,,,,,,,,,,,,,,,,,,,,,,,,,,,,,,
,,?,0.002175,0,,,,,,stimuli/images/PICTURE_68.png,MILE,59bbd2d4178f1b0001828bbb,20/05/1985,2020-07-08_16h30.04.166,proactive,2020.1.2,Linux x86_64,60,5f035e5afe130c270d6ae6dd,5f05e65e084b4d00099f5995,4,,,,,,candle,,,,,,,,,,,5,0,0,44,44,44,1,,,,,,,,,,,,,,,,,,,,,,,,,,,,,,,,,,,,,,,,,,,,,,,,,,,,,,,,,,,,,,,,,,,,,,
,,?,0.002545,0,,,,,,stimuli/images/PICTURE_688.png,CASINO,59bbd2d4178f1b0001828bbb,20/05/1985,2020-07-08_16h30.04.166,proactive,2020.1.2,Linux x86_64,60,5f035e5afe130c270d6ae6dd,5f05e65e084b4d00099f5995,4,,,,,,runner,,,,,,,,,,,1,0,0,45,45,2,1,,,,,,,,,,,,,,,,,,,,,,,,,,,,,,,,,,,,,,,,,,,,,,,,,,,,,,,,,,,,,,,,,,,,,,
,,?,0.002945,0,,,,,,stimuli/images/PICTURE_123.png,ADVICE,59bbd2d4178f1b0001828bbb,20/05/1985,2020-07-08_16h30.04.166,proactive,2020.1.2,Linux x86_64,60,5f035e5afe130c270d6ae6dd,5f05e65e084b4d00099f5995,4,,,,,,dart,,,,,,,,,,,6,0,0,46,46,50,1,,,,,,,,,,,,,,,,,,,,,,,,,,,,,,,,,,,,,,,,,,,,,,,,,,,,,,,,,,,,,,,,,,,,,,
,,PENNY,2.18849,1,,,,,,stimuli/images/PICTURE_708.png,PENNY,59bbd2d4178f1b0001828bbb,20/05/1985,2020-07-08_16h30.04.166,proactive,2020.1.2,Linux x86_64,60,5f035e5afe130c270d6ae6dd,5f05e65e084b4d00099f5995,4,,,,,,monkey,,,,,,,,,,,4,0,0,47,47,31,1,,,,,,,,,,,,,,,,,,,,,,,,,,,,,,,,,,,,,,,,,,,,,,,,,,,,,,,,,,,,,,,,,,,,,,
,,WEAPON,2.680395,1,,,,,,stimuli/images/PICTURE_675.png,WEAPON,59bbd2d4178f1b0001828bbb,20/05/1985,2020-07-08_16h30.04.166,proactive,2020.1.2,Linux x86_64,60,5f035e5afe130c270d6ae6dd,5f05e65e084b4d00099f5995,4,,,,,,windmill,,,,,,,,,,,4,0,0,48,48,32,1,,,,,,,,,,,,,,,,,,,,,,,,,,,,,,,,,,,,,,,,,,,,,,,,,,,,,,,,,,,,,,,,,,,,,,
,,?,0.003435,0,,,,,,stimuli/images/PICTURE_469.png,ARTIST,59bbd2d4178f1b0001828bbb,20/05/1985,2020-07-08_16h30.04.166,proactive,2020.1.2,Linux x86_64,60,5f035e5afe130c270d6ae6dd,5f05e65e084b4d00099f5995,4,,,,,,stool,,,,,,,,,,,1,0,0,49,49,6,1,,,,,,,,,,,,,,,,,,,,,,,,,,,,,,,,,,,,,,,,,,,,,,,,,,,,,,,,,,,,,,,,,,,,,,
,,?,0.002955,0,,,,,,stimuli/images/PICTURE_491.png,ROOF,59bbd2d4178f1b0001828bbb,20/05/1985,2020-07-08_16h30.04.166,proactive,2020.1.2,Linux x86_64,60,5f035e5afe130c270d6ae6dd,5f05e65e084b4d00099f5995,4,,,,,,rug,,,,,,,,,,,3,0,0,50,50,24,1,,,,,,,,,,,,,,,,,,,,,,,,,,,,,,,,,,,,,,,,,,,,,,,,,,,,,,,,,,,,,,,,,,,,,,
,,?,0.003075,0,,,,,,stimuli/images/PICTURE_453.png,DUDE,59bbd2d4178f1b0001828bbb,20/05/1985,2020-07-08_16h30.04.166,proactive,2020.1.2,Linux x86_64,60,5f035e5afe130c270d6ae6dd,5f05e65e084b4d00099f5995,4,,,,,,scissors,,,,,,,,,,,3,0,0,51,51,27,1,,,,,,,,,,,,,,,,,,,,,,,,,,,,,,,,,,,,,,,,,,,,,,,,,,,,,,,,,,,,,,,,,,,,,,
,,?,0.002205,0,,,,,,stimuli/images/PICTURE_487.png,FLIGHT,59bbd2d4178f1b0001828bbb,20/05/1985,2020-07-08_16h30.04.166,proactive,2020.1.2,Linux x86_64,60,5f035e5afe130c270d6ae6dd,5f05e65e084b4d00099f5995,4,,,,,,basket,,,,,,,,,,,1,0,0,52,52,9,1,,,,,,,,,,,,,,,,,,,,,,,,,,,,,,,,,,,,,,,,,,,,,,,,,,,,,,,,,,,,,,,,,,,,,,
,,?,0.00221,0,,,,,,stimuli/images/PICTURE_509.png,PHOTO,59bbd2d4178f1b0001828bbb,20/05/1985,2020-07-08_16h30.04.166,proactive,2020.1.2,Linux x86_64,60,5f035e5afe130c270d6ae6dd,5f05e65e084b4d00099f5995,4,,,,,,telephone,,,,,,,,,,,3,0,0,53,53,21,1,,,,,,,,,,,,,,,,,,,,,,,,,,,,,,,,,,,,,,,,,,,,,,,,,,,,,,,,,,,,,,,,,,,,,,
,,?,0.002275,0,,,,,,stimuli/images/PICTURE_151.png,GIRL,59bbd2d4178f1b0001828bbb,20/05/1985,2020-07-08_16h30.04.166,proactive,2020.1.2,Linux x86_64,60,5f035e5afe130c270d6ae6dd,5f05e65e084b4d00099f5995,4,,,,,,tray,,,,,,,,,,,2,0,0,54,54,19,1,,,,,,,,,,,,,,,,,,,,,,,,,,,,,,,,,,,,,,,,,,,,,,,,,,,,,,,,,,,,,,,,,,,,,,
,,?,0.002135,0,,,,,,stimuli/images/PICTURE_147.png,MOMENT,59bbd2d4178f1b0001828bbb,20/05/1985,2020-07-08_16h30.04.166,proactive,2020.1.2,Linux x86_64,60,5f035e5afe130c270d6ae6dd,5f05e65e084b4d00099f5995,4,,,,,,hanger,,,,,,,,,,,6,0,0,55,55,51,1,,,,,,,,,,,,,,,,,,,,,,,,,,,,,,,,,,,,,,,,,,,,,,,,,,,,,,,,,,,,,,,,,,,,,,
,,?,0.0021,0,,,,,,stimuli/images/PICTURE_467.png,DEMON,59bbd2d4178f1b0001828bbb,20/05/1985,2020-07-08_16h30.04.166,proactive,2020.1.2,Linux x86_64,60,5f035e5afe130c270d6ae6dd,5f05e65e084b4d00099f5995,4,,,,,,peg,,,,,,,,,,,3,0,0,56,56,23,1,,,,,,,,,,,,,,,,,,,,,,,,,,,,,,,,,,,,,,,,,,,,,,,,,,,,,,,,,,,,,,,,,,,,,,
,,?,0.00273,0,,,,,,stimuli/images/PICTURE_85.png,THING,59bbd2d4178f1b0001828bbb,20/05/1985,2020-07-08_16h30.04.166,proactive,2020.1.2,Linux x86_64,60,5f035e5afe130c270d6ae6dd,5f05e65e084b4d00099f5995,4,,,,,,diamond,,,,,,,,,,,2,0,0,57,57,15,1,,,,,,,,,,,,,,,,,,,,,,,,,,,,,,,,,,,,,,,,,,,,,,,,,,,,,,,,,,,,,,,,,,,,,,
,,CARS,2.77652,1,,,,,,stimuli/images/PICTURE_177.png,CARS,59bbd2d4178f1b0001828bbb,20/05/1985,2020-07-08_16h30.04.166,proactive,2020.1.2,Linux x86_64,60,5f035e5afe130c270d6ae6dd,5f05e65e084b4d00099f5995,4,,,,,,mushroom,,,,,,,,,,,4,0,0,58,58,35,1,,,,,,,,,,,,,,,,,,,,,,,,,,,,,,,,,,,,,,,,,,,,,,,,,,,,,,,,,,,,,,,,,,,,,,
,,?,0.00229,0,,,,,,stimuli/images/PICTURE_380.png,PHOTO,59bbd2d4178f1b0001828bbb,20/05/1985,2020-07-08_16h30.04.166,proactive,2020.1.2,Linux x86_64,60,5f035e5afe130c270d6ae6dd,5f05e65e084b4d00099f5995,4,,,,,,gorilla,,,,,,,,,,,6,0,0,59,59,52,1,,,,,,,,,,,,,,,,,,,,,,,,,,,,,,,,,,,,,,,,,,,,,,,,,,,,,,,,,,,,,,,,,,,,,,
,,,,,,,,,,,,59bbd2d4178f1b0001828bbb,20/05/1985,2020-07-08_16h30.04.166,proactive,2020.1.2,Linux x86_64,60,5f035e5afe130c270d6ae6dd,5f05e65e084b4d00099f5995,4,,,,,,,,,,,,,,,,,,,,,,,,0,1,1,0,1,stimuli/learn-block1.csv,,,,,,,,,,,,,,,,,,,,,,,,,,,,,,,,,,,,,,,,,,,,,,,,,,,,,,,,,,,,,,,,
,,,,,,,,,,stimuli/images/PICTURE_504.png,COPS,59bbd2d4178f1b0001828bbb,20/05/1985,2020-07-08_16h30.04.166,proactive,2020.1.2,Linux x86_64,60,5f035e5afe130c270d6ae6dd,5f05e65e084b4d00099f5995,4,,,,,,wheel,,,,,,0,0,0,52,1,6,1,,,,,,,,,,,,,,,,,,,,,,,,,,,,,,,,,,,,,,,,,,,,,,,,,,,,,,,,,,,,,,,,,,,,,,,,,,,
,,,,,,,,,,stimuli/images/PICTURE_340.png,LETTER,59bbd2d4178f1b0001828bbb,20/05/1985,2020-07-08_16h30.04.166,proactive,2020.1.2,Linux x86_64,60,5f035e5afe130c270d6ae6dd,5f05e65e084b4d00099f5995,4,,,,,,mirror,,,,,,0,1,1,24,1,3,1,,,,,,,,,,,,,,,,,,,,,,,,,,,,,,,,,,,,,,,,,,,,,,,,,,,,,,,,,,,,,,,,,,,,,,,,,,,
,,,,,,,,,,stimuli/images/PICTURE_85.png,NATION,59bbd2d4178f1b0001828bbb,20/05/1985,2020-07-08_16h30.04.166,proactive,2020.1.2,Linux x86_64,60,5f035e5afe130c270d6ae6dd,5f05e65e084b4d00099f5995,4,,,,,,diamond,,,,,,0,2,2,5,1,1,1,,,,,,,,,,,,,,,,,,,,,,,,,,,,,,,,,,,,,,,,,,,,,,,,,,,,,,,,,,,,,,,,,,,,,,,,,,,
,,,,,,,,,,stimuli/images/PICTURE_68.png,ROOF,59bbd2d4178f1b0001828bbb,20/05/1985,2020-07-08_16h30.04.166,proactive,2020.1.2,Linux x86_64,60,5f035e5afe130c270d6ae6dd,5f05e65e084b4d00099f5995,4,,,,,,candle,,,,,,0,3,3,38,1,4,1,,,,,,,,,,,,,,,,,,,,,,,,,,,,,,,,,,,,,,,,,,,,,,,,,,,,,,,,,,,,,,,,,,,,,,,,,,,
,,,,,,,,,,stimuli/images/PICTURE_467.png,POLICY,59bbd2d4178f1b0001828bbb,20/05/1985,2020-07-08_16h30.04.166,proactive,2020.1.2,Linux x86_64,60,5f035e5afe130c270d6ae6dd,5f05e65e084b4d00099f5995,4,,,,,,peg,,,,,,0,4,4,53,1,6,1,,,,,,,,,,,,,,,,,,,,,,,,,,,,,,,,,,,,,,,,,,,,,,,,,,,,,,,,,,,,,,,,,,,,,,,,,,,
,,,,,,,,,,stimuli/images/PICTURE_564.png,BATH,59bbd2d4178f1b0001828bbb,20/05/1985,2020-07-08_16h30.04.166,proactive,2020.1.2,Linux x86_64,60,5f035e5afe130c270d6ae6dd,5f05e65e084b4d00099f5995,4,,,,,,spoon,,,,,,0,5,5,26,1,3,1,,,,,,,,,,,,,,,,,,,,,,,,,,,,,,,,,,,,,,,,,,,,,,,,,,,,,,,,,,,,,,,,,,,,,,,,,,,
,,,,,,,,,,stimuli/images/PICTURE_108.png,POLICY,59bbd2d4178f1b0001828bbb,20/05/1985,2020-07-08_16h30.04.166,proactive,2020.1.2,Linux x86_64,60,5f035e5afe130c270d6ae6dd,5f05e65e084b4d00099f5995,4,,,,,,calendar,,,,,,0,6,6,22,1,3,1,,,,,,,,,,,,,,,,,,,,,,,,,,,,,,,,,,,,,,,,,,,,,,,,,,,,,,,,,,,,,,,,,,,,,,,,,,,
,,,,,,,,,,stimuli/images/PICTURE_504.png,YEAR,59bbd2d4178f1b0001828bbb,20/05/1985,2020-07-08_16h30.04.166,proactive,2020.1.2,Linux x86_64,60,5f035e5afe130c270d6ae6dd,5f05e65e084b4d00099f5995,4,,,,,,wheel,,,,,,0,7,7,13,1,2,1,,,,,,,,,,,,,,,,,,,,,,,,,,,,,,,,,,,,,,,,,,,,,,,,,,,,,,,,,,,,,,,,,,,,,,,,,,,
,,,,,,,,,,stimuli/images/PICTURE_33.png,FRIEND,59bbd2d4178f1b0001828bbb,20/05/1985,2020-07-08_16h30.04.166,proactive,2020.1.2,Linux x86_64,60,5f035e5afe130c270d6ae6dd,5f05e65e084b4d00099f5995,4,,,,,,frame,,,,,,0,8,8,8,1,1,1,,,,,,,,,,,,,,,,,,,,,,,,,,,,,,,,,,,,,,,,,,,,,,,,,,,,,,,,,,,,,,,,,,,,,,,,,,,
,,,,,,,,,,stimuli/images/PICTURE_339.png,CLIENT,59bbd2d4178f1b0001828bbb,20/05/1985,2020-07-08_16h30.04.166,proactive,2020.1.2,Linux x86_64,60,5f035e5afe130c270d6ae6dd,5f05e65e084b4d00099f5995,4,,,,,,backpack,,,,,,0,9,9,11,1,2,1,,,,,,,,,,,,,,,,,,,,,,,,,,,,,,,,,,,,,,,,,,,,,,,,,,,,,,,,,,,,,,,,,,,,,,,,,,,
,,,,,,,,,,stimuli/images/PICTURE_491.png,RIVER,59bbd2d4178f1b0001828bbb,20/05/1985,2020-07-08_16h30.04.166,proactive,2020.1.2,Linux x86_64,60,5f035e5afe130c270d6ae6dd,5f05e65e084b4d00099f5995,4,,,,,,rug,,,,,,0,10,10,6,1,1,1,,,,,,,,,,,,,,,,,,,,,,,,,,,,,,,,,,,,,,,,,,,,,,,,,,,,,,,,,,,,,,,,,,,,,,,,,,,
,,,,,,,,,,stimuli/images/PICTURE_405.png,YEAR,59bbd2d4178f1b0001828bbb,20/05/1985,2020-07-08_16h30.04.166,proactive,2020.1.2,Linux x86_64,60,5f035e5afe130c270d6ae6dd,5f05e65e084b4d00099f5995,4,,,,,,anchor,,,,,,0,11,11,34,1,4,1,,,,,,,,,,,,,,,,,,,,,,,,,,,,,,,,,,,,,,,,,,,,,,,,,,,,,,,,,,,,,,,,,,,,,,,,,,,
,,,,,,,,,,stimuli/images/PICTURE_449.png,DUDE,59bbd2d4178f1b0001828bbb,20/05/1985,2020-07-08_16h30.04.166,proactive,2020.1.2,Linux x86_64,60,5f035e5afe130c270d6ae6dd,5f05e65e084b4d00099f5995,4,,,,,,bench,,,,,,0,12,12,17,1,2,1,,,,,,,,,,,,,,,,,,,,,,,,,,,,,,,,,,,,,,,,,,,,,,,,,,,,,,,,,,,,,,,,,,,,,,,,,,,
,,,,,,,,,,stimuli/images/PICTURE_203.png,NIGHT,59bbd2d4178f1b0001828bbb,20/05/1985,2020-07-08_16h30.04.166,proactive,2020.1.2,Linux x86_64,60,5f035e5afe130c270d6ae6dd,5f05e65e084b4d00099f5995,4,,,,,,cap,,,,,,0,13,13,2,1,1,1,,,,,,,,,,,,,,,,,,,,,,,,,,,,,,,,,,,,,,,,,,,,,,,,,,,,,,,,,,,,,,,,,,,,,,,,,,,
,,,,,,,,,,stimuli/images/PICTURE_667.png,RIVER,59bbd2d4178f1b0001828bbb,20/05/1985,2020-07-08_16h30.04.166,proactive,2020.1.2,Linux x86_64,60,5f035e5afe130c270d6ae6dd,5f05e65e084b4d00099f5995,4,,,,,,daisy,,,,,,0,14,14,10,1,2,1,,,,,,,,,,,,,,,,,,,,,,,,,,,,,,,,,,,,,,,,,,,,,,,,,,,,,,,,,,,,,,,,,,,,,,,,,,,
,,,,,,,,,,stimuli/images/PICTURE_297.png,RIVER,59bbd2d4178f1b0001828bbb,20/05/1985,2020-07-08_16h30.04.166,proactive,2020.1.2,Linux x86_64,60,5f035e5afe130c270d6ae6dd,5f05e65e084b4d00099f5995,4,,,,,,aeroplane,,,,,,0,15,15,39,1,4,1,,,,,,,,,,,,,,,,,,,,,,,,,,,,,,,,,,,,,,,,,,,,,,,,,,,,,,,,,,,,,,,,,,,,,,,,,,,
,,,,,,,,,,stimuli/images/PICTURE_750.png,HOTEL,59bbd2d4178f1b0001828bbb,20/05/1985,2020-07-08_16h30.04.166,proactive,2020.1.2,Linux x86_64,60,5f035e5afe130c270d6ae6dd,5f05e65e084b4d00099f5995,4,,,,,,kettle,,,,,,0,16,16,27,1,3,1,,,,,,,,,,,,,,,,,,,,,,,,,,,,,,,,,,,,,,,,,,,,,,,,,,,,,,,,,,,,,,,,,,,,,,,,,,,
,,,,,,,,,,stimuli/images/PICTURE_654.png,MONTH,59bbd2d4178f1b0001828bbb,20/05/1985,2020-07-08_16h30.04.166,proactive,2020.1.2,Linux x86_64,60,5f035e5afe130c270d6ae6dd,5f05e65e084b4d00099f5995,4,,,,,,pencil,,,,,,0,17,17,29,1,3,1,,,,,,,,,,,,,,,,,,,,,,,,,,,,,,,,,,,,,,,,,,,,,,,,,,,,,,,,,,,,,,,,,,,,,,,,,,,
,,,,,,,,,,stimuli/images/PICTURE_327.png,SERIES,59bbd2d4178f1b0001828bbb,20/05/1985,2020-07-08_16h30.04.166,proactive,2020.1.2,Linux x86_64,60,5f035e5afe130c270d6ae6dd,5f05e65e084b4d00099f5995,4,,,,,,helmet,,,,,,0,18,18,3,1,1,1,,,,,,,,,,,,,,,,,,,,,,,,,,,,,,,,,,,,,,,,,,,,,,,,,,,,,,,,,,,,,,,,,,,,,,,,,,,
,,,,,,,,,,stimuli/images/PICTURE_677.png,APPLE,59bbd2d4178f1b0001828bbb,20/05/1985,2020-07-08_16h30.04.166,proactive,2020.1.2,Linux x86_64,60,5f035e5afe130c270d6ae6dd,5f05e65e084b4d00099f5995,4,,,,,,map,,,,,,0,19,19,43,1,5,1,,,,,,,,,,,,,,,,,,,,,,,,,,,,,,,,,,,,,,,,,,,,,,,,,,,,,,,,,,,,,,,,,,,,,,,,,,,
,,,,,,,,,,stimuli/images/PICTURE_296.png,LIFE,59bbd2d4178f1b0001828bbb,20/05/1985,2020-07-08_16h30.04.166,proactive,2020.1.2,Linux x86_64,60,5f035e5afe130c270d6ae6dd,5f05e65e084b4d00099f5995,4,,,,,,bolt,,,,,,0,20,20,57,1,6,1,,,,,,,,,,,,,,,,,,,,,,,,,,,,,,,,,,,,,,,,,,,,,,,,,,,,,,,,,,,,,,,,,,,,,,,,,,,
,,,,,,,,,,stimuli/images/PICTURE_685.png,PENNY,59bbd2d4178f1b0001828bbb,20/05/1985,2020-07-08_16h30.04.166,proactive,2020.1.2,Linux x86_64,60,5f035e5afe130c270d6ae6dd,5f05e65e084b4d00099f5995,4,,,,,,goose,,,,,,0,21,21,4,1,1,1,,,,,,,,,,,,,,,,,,,,,,,,,,,,,,,,,,,,,,,,,,,,,,,,,,,,,,,,,,,,,,,,,,,,,,,,,,,
,,,,,,,,,,stimuli/images/PICTURE_2.png,FLIGHT,59bbd2d4178f1b0001828bbb,20/05/1985,2020-07-08_16h30.04.166,proactive,2020.1.2,Linux x86_64,60,5f035e5afe130c270d6ae6dd,5f05e65e084b4d00099f5995,4,,,,,,tyre,,,,,,0,22,22,15,1,2,1,,,,,,,,,,,,,,,,,,,,,,,,,,,,,,,,,,,,,,,,,,,,,,,,,,,,,,,,,,,,,,,,,,,,,,,,,,,
,,,,,,,,,,stimuli/images/PICTURE_327.png,CASINO,59bbd2d4178f1b0001828bbb,20/05/1985,2020-07-08_16h30.04.166,proactive,2020.1.2,Linux x86_64,60,5f035e5afe130c270d6ae6dd,5f05e65e084b4d00099f5995,4,,,,,,helmet,,,,,,0,23,23,20,1,3,1,,,,,,,,,,,,,,,,,,,,,,,,,,,,,,,,,,,,,,,,,,,,,,,,,,,,,,,,,,,,,,,,,,,,,,,,,,,
,,,,,,,,,,stimuli/images/PICTURE_380.png,CANDY,59bbd2d4178f1b0001828bbb,20/05/1985,2020-07-08_16h30.04.166,proactive,2020.1.2,Linux x86_64,60,5f035e5afe130c270d6ae6dd,5f05e65e084b4d00099f5995,4,,,,,,gorilla,,,,,,0,24,24,0,1,1,1,,,,,,,,,,,,,,,,,,,,,,,,,,,,,,,,,,,,,,,,,,,,,,,,,,,,,,,,,,,,,,,,,,,,,,,,,,,
,,,,,,,,,,stimuli/images/PICTURE_380.png,HONEY,59bbd2d4178f1b0001828bbb,20/05/1985,2020-07-08_16h30.04.166,proactive,2020.1.2,Linux x86_64,60,5f035e5afe130c270d6ae6dd,5f05e65e084b4d00099f5995,4,,,,,,gorilla,,,,,,0,25,25,19,1,2,1,,,,,,,,,,,,,,,,,,,,,,,,,,,,,,,,,,,,,,,,,,,,,,,,,,,,,,,,,,,,,,,,,,,,,,,,,,,
,,,,,,,,,,stimuli/images/PICTURE_32.png,PILLS,59bbd2d4178f1b0001828bbb,20/05/1985,2020-07-08_16h30.04.166,proactive,2020.1.2,Linux x86_64,60,5f035e5afe130c270d6ae6dd,5f05e65e084b4d00099f5995,4,,,,,,crown,,,,,,0,26,26,18,1,2,1,,,,,,,,,,,,,,,,,,,,,,,,,,,,,,,,,,,,,,,,,,,,,,,,,,,,,,,,,,,,,,,,,,,,,,,,,,,
,,,,,,,,,,stimuli/images/PICTURE_57.png,MOMENT,59bbd2d4178f1b0001828bbb,20/05/1985,2020-07-08_16h30.04.166,proactive,2020.1.2,Linux x86_64,60,5f035e5afe130c270d6ae6dd,5f05e65e084b4d00099f5995,4,,,,,,stamp,,,,,,0,27,27,37,1,4,1,,,,,,,,,,,,,,,,,,,,,,,,,,,,,,,,,,,,,,,,,,,,,,,,,,,,,,,,,,,,,,,,,,,,,,,,,,,
,,,,,,,,,,stimuli/images/PICTURE_147.png,WOMEN,59bbd2d4178f1b0001828bbb,20/05/1985,2020-07-08_16h30.04.166,proactive,2020.1.2,Linux x86_64,60,5f035e5afe130c270d6ae6dd,5f05e65e084b4d00099f5995,4,,,,,,hanger,,,,,,0,28,28,7,1,1,1,,,,,,,,,,,,,,,,,,,,,,,,,,,,,,,,,,,,,,,,,,,,,,,,,,,,,,,,,,,,,,,,,,,,,,,,,,,
,,,,,,,,,,stimuli/images/PICTURE_233.png,LOTS,59bbd2d4178f1b0001828bbb,20/05/1985,2020-07-08_16h30.04.166,proactive,2020.1.2,Linux x86_64,60,5f035e5afe130c270d6ae6dd,5f05e65e084b4d00099f5995,4,,,,,,salt,,,,,,0,29,29,42,1,5,1,,,,,,,,,,,,,,,,,,,,,,,,,,,,,,,,,,,,,,,,,,,,,,,,,,,,,,,,,,,,,,,,,,,,,,,,,,,
,,,,,,,,,,stimuli/images/PICTURE_403.png,RIVER,59bbd2d4178f1b0001828bbb,20/05/1985,2020-07-08_16h30.04.166,proactive,2020.1.2,Linux x86_64,60,5f035e5afe130c270d6ae6dd,5f05e65e084b4d00099f5995,4,,,,,,cathedral,,,,,,0,30,30,40,1,5,1,,,,,,,,,,,,,,,,,,,,,,,,,,,,,,,,,,,,,,,,,,,,,,,,,,,,,,,,,,,,,,,,,,,,,,,,,,,
,,,,,,,,,,stimuli/images/PICTURE_403.png,WRITER,59bbd2d4178f1b0001828bbb,20/05/1985,2020-07-08_16h30.04.166,proactive,2020.1.2,Linux x86_64,60,5f035e5afe130c270d6ae6dd,5f05e65e084b4d00099f5995,4,,,,,,cathedral,,,,,,0,31,31,31,1,4,1,,,,,,,,,,,,,,,,,,,,,,,,,,,,,,,,,,,,,,,,,,,,,,,,,,,,,,,,,,,,,,,,,,,,,,,,,,,
,,,,,,,,,,stimuli/images/PICTURE_296.png,LOTS,59bbd2d4178f1b0001828bbb,20/05/1985,2020-07-08_16h30.04.166,proactive,2020.1.2,Linux x86_64,60,5f035e5afe130c270d6ae6dd,5f05e65e084b4d00099f5995,4,,,,,,bolt,,,,,,0,32,32,9,1,1,1,,,,,,,,,,,,,,,,,,,,,,,,,,,,,,,,,,,,,,,,,,,,,,,,,,,,,,,,,,,,,,,,,,,,,,,,,,,
,,,,,,,,,,stimuli/images/PICTURE_203.png,GODS,59bbd2d4178f1b0001828bbb,20/05/1985,2020-07-08_16h30.04.166,proactive,2020.1.2,Linux x86_64,60,5f035e5afe130c270d6ae6dd,5f05e65e084b4d00099f5995,4,,,,,,cap,,,,,,0,33,33,30,1,4,1,,,,,,,,,,,,,,,,,,,,,,,,,,,,,,,,,,,,,,,,,,,,,,,,,,,,,,,,,,,,,,,,,,,,,,,,,,,
,,,,,,,,,,stimuli/images/PICTURE_32.png,KIND,59bbd2d4178f1b0001828bbb,20/05/1985,2020-07-08_16h30.04.166,proactive,2020.1.2,Linux x86_64,60,5f035e5afe130c270d6ae6dd,5f05e65e084b4d00099f5995,4,,,,,,crown,,,,,,0,34,34,35,1,4,1,,,,,,,,,,,,,,,,,,,,,,,,,,,,,,,,,,,,,,,,,,,,,,,,,,,,,,,,,,,,,,,,,,,,,,,,,,,
,,,,,,,,,,stimuli/images/PICTURE_491.png,GLASS,59bbd2d4178f1b0001828bbb,20/05/1985,2020-07-08_16h30.04.166,proactive,2020.1.2,Linux x86_64,60,5f035e5afe130c270d6ae6dd,5f05e65e084b4d00099f5995,4,,,,,,rug,,,,,,0,35,35,14,1,2,1,,,,,,,,,,,,,,,,,,,,,,,,,,,,,,,,,,,,,,,,,,,,,,,,,,,,,,,,,,,,,,,,,,,,,,,,,,,
,,,,,,,,,,stimuli/images/PICTURE_504.png,ARTIST,59bbd2d4178f1b0001828bbb,20/05/1985,2020-07-08_16h30.04.166,proactive,2020.1.2,Linux x86_64,60,5f035e5afe130c270d6ae6dd,5f05e65e084b4d00099f5995,4,,,,,,wheel,,,,,,0,36,36,49,1,5,1,,,,,,,,,,,,,,,,,,,,,,,,,,,,,,,,,,,,,,,,,,,,,,,,,,,,,,,,,,,,,,,,,,,,,,,,,,,
,,,,,,,,,,stimuli/images/PICTURE_655.png,TOILET,59bbd2d4178f1b0001828bbb,20/05/1985,2020-07-08_16h30.04.166,proactive,2020.1.2,Linux x86_64,60,5f035e5afe130c270d6ae6dd,5f05e65e084b4d00099f5995,4,,,,,,megaphone,,,,,,0,37,37,12,1,2,1,,,,,,,,,,,,,,,,,,,,,,,,,,,,,,,,,,,,,,,,,,,,,,,,,,,,,,,,,,,,,,,,,,,,,,,,,,,
,,,,,,,,,,stimuli/images/PICTURE_42.png,BOYS,59bbd2d4178f1b0001828bbb,20/05/1985,2020-07-08_16h30.04.166,proactive,2020.1.2,Linux x86_64,60,5f035e5afe130c270d6ae6dd,5f05e65e084b4d00099f5995,4,,,,,,pear,,,,,,0,38,38,55,1,6,1,,,,,,,,,,,,,,,,,,,,,,,,,,,,,,,,,,,,,,,,,,,,,,,,,,,,,,,,,,,,,,,,,,,,,,,,,,,
,,,,,,,,,,stimuli/images/PICTURE_68.png,MILE,59bbd2d4178f1b0001828bbb,20/05/1985,2020-07-08_16h30.04.166,proactive,2020.1.2,Linux x86_64,60,5f035e5afe130c270d6ae6dd,5f05e65e084b4d00099f5995,4,,,,,,candle,,,,,,0,39,39,51,1,6,1,,,,,,,,,,,,,,,,,,,,,,,,,,,,,,,,,,,,,,,,,,,,,,,,,,,,,,,,,,,,,,,,,,,,,,,,,,,
,,,,,,,,,,stimuli/images/PICTURE_340.png,VALLEY,59bbd2d4178f1b0001828bbb,20/05/1985,2020-07-08_16h30.04.166,proactive,2020.1.2,Linux x86_64,60,5f035e5afe130c270d6ae6dd,5f05e65e084b4d00099f5995,4,,,,,,mirror,,,,,,0,40,40,54,1,6,1,,,,,,,,,,,,,,,,,,,,,,,,,,,,,,,,,,,,,,,,,,,,,,,,,,,,,,,,,,,,,,,,,,,,,,,,,,,
,,,,,,,,,,stimuli/images/PICTURE_744.png,WEAPON,59bbd2d4178f1b0001828bbb,20/05/1985,2020-07-08_16h30.04.166,proactive,2020.1.2,Linux x86_64,60,5f035e5afe130c270d6ae6dd,5f05e65e084b4d00099f5995,4,,,,,,ring,,,,,,0,41,41,50,1,6,1,,,,,,,,,,,,,,,,,,,,,,,,,,,,,,,,,,,,,,,,,,,,,,,,,,,,,,,,,,,,,,,,,,,,,,,,,,,
,,,,,,,,,,stimuli/images/PICTURE_95.png,BOYS,59bbd2d4178f1b0001828bbb,20/05/1985,2020-07-08_16h30.04.166,proactive,2020.1.2,Linux x86_64,60,5f035e5afe130c270d6ae6dd,5f05e65e084b4d00099f5995,4,,,,,,suitcase,,,,,,0,42,42,1,1,1,1,,,,,,,,,,,,,,,,,,,,,,,,,,,,,,,,,,,,,,,,,,,,,,,,,,,,,,,,,,,,,,,,,,,,,,,,,,,
,,,,,,,,,,stimuli/images/PICTURE_383.png,SERIES,59bbd2d4178f1b0001828bbb,20/05/1985,2020-07-08_16h30.04.166,proactive,2020.1.2,Linux x86_64,60,5f035e5afe130c270d6ae6dd,5f05e65e084b4d00099f5995,4,,,,,,coin,,,,,,0,43,43,46,1,5,1,,,,,,,,,,,,,,,,,,,,,,,,,,,,,,,,,,,,,,,,,,,,,,,,,,,,,,,,,,,,,,,,,,,,,,,,,,,
,,,,,,,,,,stimuli/images/PICTURE_405.png,PLENTY,59bbd2d4178f1b0001828bbb,20/05/1985,2020-07-08_16h30.04.166,proactive,2020.1.2,Linux x86_64,60,5f035e5afe130c270d6ae6dd,5f05e65e084b4d00099f5995,4,,,,,,anchor,,,,,,0,44,44,23,1,3,1,,,,,,,,,,,,,,,,,,,,,,,,,,,,,,,,,,,,,,,,,,,,,,,,,,,,,,,,,,,,,,,,,,,,,,,,,,,
,,,,,,,,,,stimuli/images/PICTURE_403.png,TOILET,59bbd2d4178f1b0001828bbb,20/05/1985,2020-07-08_16h30.04.166,proactive,2020.1.2,Linux x86_64,60,5f035e5afe130c270d6ae6dd,5f05e65e084b4d00099f5995,4,,,,,,cathedral,,,,,,0,45,45,25,1,3,1,,,,,,,,,,,,,,,,,,,,,,,,,,,,,,,,,,,,,,,,,,,,,,,,,,,,,,,,,,,,,,,,,,,,,,,,,,,
,,,,,,,,,,stimuli/images/PICTURE_108.png,FLIGHT,59bbd2d4178f1b0001828bbb,20/05/1985,2020-07-08_16h30.04.166,proactive,2020.1.2,Linux x86_64,60,5f035e5afe130c270d6ae6dd,5f05e65e084b4d00099f5995,4,,,,,,calendar,,,,,,0,46,46,59,1,6,1,,,,,,,,,,,,,,,,,,,,,,,,,,,,,,,,,,,,,,,,,,,,,,,,,,,,,,,,,,,,,,,,,,,,,,,,,,,
,,,,,,,,,,stimuli/images/PICTURE_85.png,TOILET,59bbd2d4178f1b0001828bbb,20/05/1985,2020-07-08_16h30.04.166,proactive,2020.1.2,Linux x86_64,60,5f035e5afe130c270d6ae6dd,5f05e65e084b4d00099f5995,4,,,,,,diamond,,,,,,0,47,47,48,1,5,1,,,,,,,,,,,,,,,,,,,,,,,,,,,,,,,,,,,,,,,,,,,,,,,,,,,,,,,,,,,,,,,,,,,,,,,,,,,
,,,,,,,,,,stimuli/images/PICTURE_285.png,LIFE,59bbd2d4178f1b0001828bbb,20/05/1985,2020-07-08_16h30.04.166,proactive,2020.1.2,Linux x86_64,60,5f035e5afe130c270d6ae6dd,5f05e65e084b4d00099f5995,4,,,,,,carrot,,,,,,0,48,48,33,1,4,1,,,,,,,,,,,,,,,,,,,,,,,,,,,,,,,,,,,,,,,,,,,,,,,,,,,,,,,,,,,,,,,,,,,,,,,,,,,
,,,,,,,,,,stimuli/images/PICTURE_308.png,FAMILY,59bbd2d4178f1b0001828bbb,20/05/1985,2020-07-08_16h30.04.166,proactive,2020.1.2,Linux x86_64,60,5f035e5afe130c270d6ae6dd,5f05e65e084b4d00099f5995,4,,,,,,dice,,,,,,0,49,49,36,1,4,1,,,,,,,,,,,,,,,,,,,,,,,,,,,,,,,,,,,,,,,,,,,,,,,,,,,,,,,,,,,,,,,,,,,,,,,,,,,
,,,,,,,,,,stimuli/images/PICTURE_675.png,SALE,59bbd2d4178f1b0001828bbb,20/05/1985,2020-07-08_16h30.04.166,proactive,2020.1.2,Linux x86_64,60,5f035e5afe130c270d6ae6dd,5f05e65e084b4d00099f5995,4,,,,,,windmill,,,,,,0,50,50,47,1,5,1,,,,,,,,,,,,,,,,,,,,,,,,,,,,,,,,,,,,,,,,,,,,,,,,,,,,,,,,,,,,,,,,,,,,,,,,,,,
,,,,,,,,,,stimuli/images/PICTURE_147.png,YEAR,59bbd2d4178f1b0001828bbb,20/05/1985,2020-07-08_16h30.04.166,proactive,2020.1.2,Linux x86_64,60,5f035e5afe130c270d6ae6dd,5f05e65e084b4d00099f5995,4,,,,,,hanger,,,,,,0,51,51,21,1,3,1,,,,,,,,,,,,,,,,,,,,,,,,,,,,,,,,,,,,,,,,,,,,,,,,,,,,,,,,,,,,,,,,,,,,,,,,,,,
,,,,,,,,,,stimuli/images/PICTURE_487.png,GIRL,59bbd2d4178f1b0001828bbb,20/05/1985,2020-07-08_16h30.04.166,proactive,2020.1.2,Linux x86_64,60,5f035e5afe130c270d6ae6dd,5f05e65e084b4d00099f5995,4,,,,,,basket,,,,,,0,52,52,45,1,5,1,,,,,,,,,,,,,,,,,,,,,,,,,,,,,,,,,,,,,,,,,,,,,,,,,,,,,,,,,,,,,,,,,,,,,,,,,,,
,,,,,,,,,,stimuli/images/PICTURE_708.png,RECORD,59bbd2d4178f1b0001828bbb,20/05/1985,2020-07-08_16h30.04.166,proactive,2020.1.2,Linux x86_64,60,5f035e5afe130c270d6ae6dd,5f05e65e084b4d00099f5995,4,,,,,,monkey,,,,,,0,53,53,58,1,6,1,,,,,,,,,,,,,,,,,,,,,,,,,,,,,,,,,,,,,,,,,,,,,,,,,,,,,,,,,,,,,,,,,,,,,,,,,,,
,,,,,,,,,,stimuli/images/PICTURE_95.png,MILLER,59bbd2d4178f1b0001828bbb,20/05/1985,2020-07-08_16h30.04.166,proactive,2020.1.2,Linux x86_64,60,5f035e5afe130c270d6ae6dd,5f05e65e084b4d00099f5995,4,,,,,,suitcase,,,,,,0,54,54,56,1,6,1,,,,,,,,,,,,,,,,,,,,,,,,,,,,,,,,,,,,,,,,,,,,,,,,,,,,,,,,,,,,,,,,,,,,,,,,,,,
,,,,,,,,,,stimuli/images/PICTURE_177.png,WRITER,59bbd2d4178f1b0001828bbb,20/05/1985,2020-07-08_16h30.04.166,proactive,2020.1.2,Linux x86_64,60,5f035e5afe130c270d6ae6dd,5f05e65e084b4d00099f5995,4,,,,,,mushroom,,,,,,0,55,55,41,1,5,1,,,,,,,,,,,,,,,,,,,,,,,,,,,,,,,,,,,,,,,,,,,,,,,,,,,,,,,,,,,,,,,,,,,,,,,,,,,
,,,,,,,,,,stimuli/images/PICTURE_469.png,AGENT,59bbd2d4178f1b0001828bbb,20/05/1985,2020-07-08_16h30.04.166,proactive,2020.1.2,Linux x86_64,60,5f035e5afe130c270d6ae6dd,5f05e65e084b4d00099f5995,4,,,,,,stool,,,,,,0,56,56,16,1,2,1,,,,,,,,,,,,,,,,,,,,,,,,,,,,,,,,,,,,,,,,,,,,,,,,,,,,,,,,,,,,,,,,,,,,,,,,,,,
,,,,,,,,,,stimuli/images/PICTURE_383.png,WRITER,59bbd2d4178f1b0001828bbb,20/05/1985,2020-07-08_16h30.04.166,proactive,2020.1.2,Linux x86_64,60,5f035e5afe130c270d6ae6dd,5f05e65e084b4d00099f5995,4,,,,,,coin,,,,,,0,57,57,28,1,3,1,,,,,,,,,,,,,,,,,,,,,,,,,,,,,,,,,,,,,,,,,,,,,,,,,,,,,,,,,,,,,,,,,,,,,,,,,,,
,,,,,,,,,,stimuli/images/PICTURE_95.png,HONEY,59bbd2d4178f1b0001828bbb,20/05/1985,2020-07-08_16h30.04.166,proactive,2020.1.2,Linux x86_64,60,5f035e5afe130c270d6ae6dd,5f05e65e084b4d00099f5995,4,,,,,,suitcase,,,,,,0,58,58,44,1,5,1,,,,,,,,,,,,,,,,,,,,,,,,,,,,,,,,,,,,,,,,,,,,,,,,,,,,,,,,,,,,,,,,,,,,,,,,,,,
,,?,0.00192,0,,,,,,stimuli/images/PICTURE_327.png,SERIES,59bbd2d4178f1b0001828bbb,20/05/1985,2020-07-08_16h30.04.166,proactive,2020.1.2,Linux x86_64,60,5f035e5afe130c270d6ae6dd,5f05e65e084b4d00099f5995,4,,,,,,helmet,,,,,,,,,,,1,1,0,0,0,3,1,,,,,,,,,,,,,,,,,,,,,,,,,,,,,,,,,,,,,,,,,,,,,,,,,,,,,,,,,,,,,,,,,,,,,,
,,?,0.001775,0,,,,,,stimuli/images/PICTURE_340.png,LETTER,59bbd2d4178f1b0001828bbb,20/05/1985,2020-07-08_16h30.04.166,proactive,2020.1.2,Linux x86_64,60,5f035e5afe130c270d6ae6dd,5f05e65e084b4d00099f5995,4,,,,,,mirror,,,,,,,,,,,3,1,0,1,1,24,1,,,,,,,,,,,,,,,,,,,,,,,,,,,,,,,,,,,,,,,,,,,,,,,,,,,,,,,,,,,,,,,,,,,,,,
,,?,0.001885,0,,,,,,stimuli/images/PICTURE_655.png,TOILET,59bbd2d4178f1b0001828bbb,20/05/1985,2020-07-08_16h30.04.166,proactive,2020.1.2,Linux x86_64,60,5f035e5afe130c270d6ae6dd,5f05e65e084b4d00099f5995,4,,,,,,megaphone,,,,,,,,,,,2,1,0,2,2,12,1,,,,,,,,,,,,,,,,,,,,,,,,,,,,,,,,,,,,,,,,,,,,,,,,,,,,,,,,,,,,,,,,,,,,,,
,,?,0.00182,0,,,,,,stimuli/images/PICTURE_340.png,VALLEY,59bbd2d4178f1b0001828bbb,20/05/1985,2020-07-08_16h30.04.166,proactive,2020.1.2,Linux x86_64,60,5f035e5afe130c270d6ae6dd,5f05e65e084b4d00099f5995,4,,,,,,mirror,,,,,,,,,,,6,1,0,3,3,54,1,,,,,,,,,,,,,,,,,,,,,,,,,,,,,,,,,,,,,,,,,,,,,,,,,,,,,,,,,,,,,,,,,,,,,,
,,?,0.00176,0,,,,,,stimuli/images/PICTURE_708.png,RECORD,59bbd2d4178f1b0001828bbb,20/05/1985,2020-07-08_16h30.04.166,proactive,2020.1.2,Linux x86_64,60,5f035e5afe130c270d6ae6dd,5f05e65e084b4d00099f5995,4,,,,,,monkey,,,,,,,,,,,6,1,0,4,4,58,1,,,,,,,,,,,,,,,,,,,,,,,,,,,,,,,,,,,,,,,,,,,,,,,,,,,,,,,,,,,,,,,,,,,,,,
,,?,0.001805,0,,,,,,stimuli/images/PICTURE_667.png,RIVER,59bbd2d4178f1b0001828bbb,20/05/1985,2020-07-08_16h30.04.166,proactive,2020.1.2,Linux x86_64,60,5f035e5afe130c270d6ae6dd,5f05e65e084b4d00099f5995,4,,,,,,daisy,,,,,,,,,,,2,1,0,5,5,10,1,,,,,,,,,,,,,,,,,,,,,,,,,,,,,,,,,,,,,,,,,,,,,,,,,,,,,,,,,,,,,,,,,,,,,,
,,?,0.0019,0,,,,,,stimuli/images/PICTURE_380.png,CANDY,59bbd2d4178f1b0001828bbb,20/05/1985,2020-07-08_16h30.04.166,proactive,2020.1.2,Linux x86_64,60,5f035e5afe130c270d6ae6dd,5f05e65e084b4d00099f5995,4,,,,,,gorilla,,,,,,,,,,,1,1,0,6,6,0,1,,,,,,,,,,,,,,,,,,,,,,,,,,,,,,,,,,,,,,,,,,,,,,,,,,,,,,,,,,,,,,,,,,,,,,
,,?,0.00188,0,,,,,,stimuli/images/PICTURE_147.png,YEAR,59bbd2d4178f1b0001828bbb,20/05/1985,2020-07-08_16h30.04.166,proactive,2020.1.2,Linux x86_64,60,5f035e5afe130c270d6ae6dd,5f05e65e084b4d00099f5995,4,,,,,,hanger,,,,,,,,,,,3,1,0,7,7,21,1,,,,,,,,,,,,,,,,,,,,,,,,,,,,,,,,,,,,,,,,,,,,,,,,,,,,,,,,,,,,,,,,,,,,,,
,,?,0.00183,0,,,,,,stimuli/images/PICTURE_296.png,LOTS,59bbd2d4178f1b0001828bbb,20/05/1985,2020-07-08_16h30.04.166,proactive,2020.1.2,Linux x86_64,60,5f035e5afe130c270d6ae6dd,5f05e65e084b4d00099f5995,4,,,,,,bolt,,,,,,,,,,,1,1,0,8,8,9,1,,,,,,,,,,,,,,,,,,,,,,,,,,,,,,,,,,,,,,,,,,,,,,,,,,,,,,,,,,,,,,,,,,,,,,
,,?,0.00193,0,,,,,,stimuli/images/PICTURE_85.png,NATION,59bbd2d4178f1b0001828bbb,20/05/1985,2020-07-08_16h30.04.166,proactive,2020.1.2,Linux x86_64,60,5f035e5afe130c270d6ae6dd,5f05e65e084b4d00099f5995,4,,,,,,diamond,,,,,,,,,,,1,1,0,9,9,5,1,,,,,,,,,,,,,,,,,,,,,,,,,,,,,,,,,,,,,,,,,,,,,,,,,,,,,,,,,,,,,,,,,,,,,,
