consent_key.keys,consent_key.rt,recalled,recalled_rt,recall_acc,example_recall.thisRepN,example_recall.thisTrialN,example_recall.thisN,example_recall.thisIndex,example_recall.ran,file,word,participant,date,expName,psychopyVersion,OS,frameRate,STUDY_ID,SESSION_ID,list,prac_learn_study_loop.thisRepN,prac_learn_study_loop.thisTrialN,prac_learn_study_loop.thisN,prac_learn_study_loop.thisIndex,prac_learn_study_loop.ran,image,prac_learn_test_loop.thisRepN,prac_learn_test_loop.thisTrialN,prac_learn_test_loop.thisN,prac_learn_test_loop.thisIndex,prac_learn_test_loop.ran,learn_study_loop.thisRepN,learn_study_loop.thisTrialN,learn_study_loop.thisN,learn_study_loop.thisIndex,learn_study_loop.ran,list_no,block_no,learn_test_loop.thisRepN,learn_test_loop.thisTrialN,learn_test_loop.thisN,learn_test_loop.thisIndex,learn_test_loop.ran,learn_blocks.thisRepN,learn_blocks.thisTrialN,learn_blocks.thisN,learn_blocks.thisIndex,learn_blocks.ran,block_csv,key_resp_13.keys,key_resp_13.rt,learn_blocks_loop.thisRepN,learn_blocks_loop.thisTrialN,learn_blocks_loop.thisN,learn_blocks_loop.thisIndex,learn_blocks_loop.ran,final_learn_test.thisRepN,final_learn_test.thisTrialN,final_learn_test.thisN,final_learn_test.thisIndex,final_learn_test.ran,prac_wm_test_loop.thisRepN,prac_wm_test_loop.thisTrialN,prac_wm_test_loop.thisN,prac_wm_test_loop.thisIndex,prac_wm_test_loop.ran,wm_recalled1,wm_recall_rt1,wm_probed1,wm_recall_acc1,wm_recalled2,wm_recall_rt2,wm_probed2,wm_recall_acc2,wm_recalled3,wm_recall_rt3,wm_probed3,wm_recall_acc3,wm_recalled4,wm_recall_rt4,wm_probed4,wm_recall_acc4,prac_wm_trial_loop.thisRepN,prac_wm_trial_loop.thisTrialN,prac_wm_trial_loop.thisN,prac_wm_trial_loop.thisIndex,prac_wm_trial_loop.ran,word1,image1,file1,item_type1,word2,image2,file2,item_type2,word4,image4,file4,item_type4,word3,image3,file3,item_type3,wm_test_loop.thisRepN,wm_test_loop.thisTrialN,wm_test_loop.thisN,wm_test_loop.thisIndex,wm_test_loop.ran,wm_trial_loop.thisRepN,wm_trial_loop.thisTrialN,wm_trial_loop.thisN,wm_trial_loop.thisIndex,wm_trial_loop.ran
y,3.896355,TOUGH,2.9588,1,0,0,0,0,1,stimuli/images/PICTURE_747.png,TOUGH,5a6fa677c2eb6c00017e042e,2020-06-30_11h44.54.564,proactive,2020.1.2,Win32,60,5efb791ed4cb570da489e737,5efb871502c30e103feb79be,2,,,,,,,,,,,,,,,,,,,,,,,,,,,,,,,,,,,,,,,,,,,,,,,,,,,,,,,,,,,,,,,,,,,,,,,,,,,,,,,,,,,,,,,,,,,,,
,,,,,,,,,,stimuli/images/PICTURE_269.png,GENIUS,5a6fa677c2eb6c00017e042e,2020-06-30_11h44.54.564,proactive,2020.1.2,Win32,60,5efb791ed4cb570da489e737,5efb871502c30e103feb79be,2,0,0,0,0,1,chameleon,,,,,,,,,,,,,,,,,,,,,,,,,,,,,,,,,,,,,,,,,,,,,,,,,,,,,,,,,,,,,,,,,,,,,,,,,,,,,,,,,,,,,,,
,,,,,,,,,,stimuli/images/PICTURE_658.png,DEVIL,5a6fa677c2eb6c00017e042e,2020-06-30_11h44.54.564,proactive,2020.1.2,Win32,60,5efb791ed4cb570da489e737,5efb871502c30e103feb79be,2,0,1,1,3,1,crow,,,,,,,,,,,,,,,,,,,,,,,,,,,,,,,,,,,,,,,,,,,,,,,,,,,,,,,,,,,,,,,,,,,,,,,,,,,,,,,,,,,,,,,
,,,,,,,,,,stimuli/images/PICTURE_378.png,LOSS,5a6fa677c2eb6c00017e042e,2020-06-30_11h44.54.564,proactive,2020.1.2,Win32,60,5efb791ed4cb570da489e737,5efb871502c30e103feb79be,2,0,2,2,2,1,lobster,,,,,,,,,,,,,,,,,,,,,,,,,,,,,,,,,,,,,,,,,,,,,,,,,,,,,,,,,,,,,,,,,,,,,,,,,,,,,,,,,,,,,,,
,,,,,,,,,,stimuli/images/PICTURE_697.png,KILLER,5a6fa677c2eb6c00017e042e,2020-06-30_11h44.54.564,proactive,2020.1.2,Win32,60,5efb791ed4cb570da489e737,5efb871502c30e103feb79be,2,0,3,3,4,1,peach,,,,,,,,,,,,,,,,,,,,,,,,,,,,,,,,,,,,,,,,,,,,,,,,,,,,,,,,,,,,,,,,,,,,,,,,,,,,,,,,,,,,,,,
,,GENIUS,3.348455,0,,,,,,stimuli/images/PICTURE_697.png,KILLER,5a6fa677c2eb6c00017e042e,2020-06-30_11h44.54.564,proactive,2020.1.2,Win32,60,5efb791ed4cb570da489e737,5efb871502c30e103feb79be,2,,,,,,peach,0,0,0,4,1,,,,,,,,,,,,,,,,,,,,,,,,,,,,,,,,,,,,,,,,,,,,,,,,,,,,,,,,,,,,,,,,,,,,,,,,,,,,,,,,,,
,,GENIUS,4.38264,1,,,,,,stimuli/images/PICTURE_269.png,GENIUS,5a6fa677c2eb6c00017e042e,2020-06-30_11h44.54.564,proactive,2020.1.2,Win32,60,5efb791ed4cb570da489e737,5efb871502c30e103feb79be,2,,,,,,chameleon,0,1,1,0,1,,,,,,,,,,,,,,,,,,,,,,,,,,,,,,,,,,,,,,,,,,,,,,,,,,,,,,,,,,,,,,,,,,,,,,,,,,,,,,,,,,
,,DEVIL,2.049625,1,,,,,,stimuli/images/PICTURE_658.png,DEVIL,5a6fa677c2eb6c00017e042e,2020-06-30_11h44.54.564,proactive,2020.1.2,Win32,60,5efb791ed4cb570da489e737,5efb871502c30e103feb79be,2,,,,,,crow,0,2,2,3,1,,,,,,,,,,,,,,,,,,,,,,,,,,,,,,,,,,,,,,,,,,,,,,,,,,,,,,,,,,,,,,,,,,,,,,,,,,,,,,,,,,
,,LOSS,1.7831,1,,,,,,stimuli/images/PICTURE_378.png,LOSS,5a6fa677c2eb6c00017e042e,2020-06-30_11h44.54.564,proactive,2020.1.2,Win32,60,5efb791ed4cb570da489e737,5efb871502c30e103feb79be,2,,,,,,lobster,0,3,3,2,1,,,,,,,,,,,,,,,,,,,,,,,,,,,,,,,,,,,,,,,,,,,,,,,,,,,,,,,,,,,,,,,,,,,,,,,,,,,,,,,,,,
,,CELL,1.9996,1,,,,,,stimuli/images/PICTURE_727.png,CELL,5a6fa677c2eb6c00017e042e,2020-06-30_11h44.54.564,proactive,2020.1.2,Win32,60,5efb791ed4cb570da489e737,5efb871502c30e103feb79be,2,,,,,,hose,0,4,4,1,1,,,,,,,,,,,,,,,,,,,,,,,,,,,,,,,,,,,,,,,,,,,,,,,,,,,,,,,,,,,,,,,,,,,,,,,,,,,,,,,,,,
,,,,,,,,,,stimuli/images/PICTURE_308.png,KIND,5a6fa677c2eb6c00017e042e,2020-06-30_11h44.54.564,proactive,2020.1.2,Win32,60,5efb791ed4cb570da489e737,5efb871502c30e103feb79be,2,,,,,,dice,,,,,,0,0,0,54,1,6,0,,,,,,,,,,,,,,,,,,,,,,,,,,,,,,,,,,,,,,,,,,,,,,,,,,,,,,,,,,,,,,,,,,,,,,,,,,,
,,,,,,,,,,stimuli/images/PICTURE_308.png,ESTATE,5a6fa677c2eb6c00017e042e,2020-06-30_11h44.54.564,proactive,2020.1.2,Win32,60,5efb791ed4cb570da489e737,5efb871502c30e103feb79be,2,,,,,,dice,,,,,,0,1,1,46,1,5,0,,,,,,,,,,,,,,,,,,,,,,,,,,,,,,,,,,,,,,,,,,,,,,,,,,,,,,,,,,,,,,,,,,,,,,,,,,,
,,,,,,,,,,stimuli/images/PICTURE_744.png,SAKE,5a6fa677c2eb6c00017e042e,2020-06-30_11h44.54.564,proactive,2020.1.2,Win32,60,5efb791ed4cb570da489e737,5efb871502c30e103feb79be,2,,,,,,ring,,,,,,0,2,2,17,1,2,0,,,,,,,,,,,,,,,,,,,,,,,,,,,,,,,,,,,,,,,,,,,,,,,,,,,,,,,,,,,,,,,,,,,,,,,,,,,
,,,,,,,,,,stimuli/images/PICTURE_469.png,ARTIST,5a6fa677c2eb6c00017e042e,2020-06-30_11h44.54.564,proactive,2020.1.2,Win32,60,5efb791ed4cb570da489e737,5efb871502c30e103feb79be,2,,,,,,stool,,,,,,0,3,3,6,1,1,0,,,,,,,,,,,,,,,,,,,,,,,,,,,,,,,,,,,,,,,,,,,,,,,,,,,,,,,,,,,,,,,,,,,,,,,,,,,
,,,,,,,,,,stimuli/images/PICTURE_708.png,PENNY,5a6fa677c2eb6c00017e042e,2020-06-30_11h44.54.564,proactive,2020.1.2,Win32,60,5efb791ed4cb570da489e737,5efb871502c30e103feb79be,2,,,,,,monkey,,,,,,0,4,4,31,1,4,0,,,,,,,,,,,,,,,,,,,,,,,,,,,,,,,,,,,,,,,,,,,,,,,,,,,,,,,,,,,,,,,,,,,,,,,,,,,
,,,,,,,,,,stimuli/images/PICTURE_248.png,DOZEN,5a6fa677c2eb6c00017e042e,2020-06-30_11h44.54.564,proactive,2020.1.2,Win32,60,5efb791ed4cb570da489e737,5efb871502c30e103feb79be,2,,,,,,cart,,,,,,0,5,5,39,1,4,0,,,,,,,,,,,,,,,,,,,,,,,,,,,,,,,,,,,,,,,,,,,,,,,,,,,,,,,,,,,,,,,,,,,,,,,,,,,
,,,,,,,,,,stimuli/images/PICTURE_491.png,WRITER,5a6fa677c2eb6c00017e042e,2020-06-30_11h44.54.564,proactive,2020.1.2,Win32,60,5efb791ed4cb570da489e737,5efb871502c30e103feb79be,2,,,,,,rug,,,,,,0,6,6,57,1,6,0,,,,,,,,,,,,,,,,,,,,,,,,,,,,,,,,,,,,,,,,,,,,,,,,,,,,,,,,,,,,,,,,,,,,,,,,,,,
,,,,,,,,,,stimuli/images/PICTURE_487.png,FLIGHT,5a6fa677c2eb6c00017e042e,2020-06-30_11h44.54.564,proactive,2020.1.2,Win32,60,5efb791ed4cb570da489e737,5efb871502c30e103feb79be,2,,,,,,basket,,,,,,0,7,7,9,1,1,0,,,,,,,,,,,,,,,,,,,,,,,,,,,,,,,,,,,,,,,,,,,,,,,,,,,,,,,,,,,,,,,,,,,,,,,,,,,
,,,,,,,,,,stimuli/images/PICTURE_692.png,MONTH,5a6fa677c2eb6c00017e042e,2020-06-30_11h44.54.564,proactive,2020.1.2,Win32,60,5efb791ed4cb570da489e737,5efb871502c30e103feb79be,2,,,,,,cherry,,,,,,0,8,8,16,1,2,0,,,,,,,,,,,,,,,,,,,,,,,,,,,,,,,,,,,,,,,,,,,,,,,,,,,,,,,,,,,,,,,,,,,,,,,,,,,
,,,,,,,,,,stimuli/images/PICTURE_160.png,LEADER,5a6fa677c2eb6c00017e042e,2020-06-30_11h44.54.564,proactive,2020.1.2,Win32,60,5efb791ed4cb570da489e737,5efb871502c30e103feb79be,2,,,,,,wheelbarrow,,,,,,0,9,9,3,1,1,0,,,,,,,,,,,,,,,,,,,,,,,,,,,,,,,,,,,,,,,,,,,,,,,,,,,,,,,,,,,,,,,,,,,,,,,,,,,
,,,,,,,,,,stimuli/images/PICTURE_68.png,MILE,5a6fa677c2eb6c00017e042e,2020-06-30_11h44.54.564,proactive,2020.1.2,Win32,60,5efb791ed4cb570da489e737,5efb871502c30e103feb79be,2,,,,,,candle,,,,,,0,10,10,44,1,5,0,,,,,,,,,,,,,,,,,,,,,,,,,,,,,,,,,,,,,,,,,,,,,,,,,,,,,,,,,,,,,,,,,,,,,,,,,,,
,,,,,,,,,,stimuli/images/PICTURE_233.png,IDEAS,5a6fa677c2eb6c00017e042e,2020-06-30_11h44.54.564,proactive,2020.1.2,Win32,60,5efb791ed4cb570da489e737,5efb871502c30e103feb79be,2,,,,,,salt,,,,,,0,11,11,28,1,3,0,,,,,,,,,,,,,,,,,,,,,,,,,,,,,,,,,,,,,,,,,,,,,,,,,,,,,,,,,,,,,,,,,,,,,,,,,,,
,,,,,,,,,,stimuli/images/PICTURE_667.png,PLENTY,5a6fa677c2eb6c00017e042e,2020-06-30_11h44.54.564,proactive,2020.1.2,Win32,60,5efb791ed4cb570da489e737,5efb871502c30e103feb79be,2,,,,,,daisy,,,,,,0,12,12,41,1,5,0,,,,,,,,,,,,,,,,,,,,,,,,,,,,,,,,,,,,,,,,,,,,,,,,,,,,,,,,,,,,,,,,,,,,,,,,,,,
,,,,,,,,,,stimuli/images/PICTURE_348.png,SPEECH,5a6fa677c2eb6c00017e042e,2020-06-30_11h44.54.564,proactive,2020.1.2,Win32,60,5efb791ed4cb570da489e737,5efb871502c30e103feb79be,2,,,,,,pepper,,,,,,0,13,13,20,1,3,0,,,,,,,,,,,,,,,,,,,,,,,,,,,,,,,,,,,,,,,,,,,,,,,,,,,,,,,,,,,,,,,,,,,,,,,,,,,
,,,,,,,,,,stimuli/images/PICTURE_654.png,VALLEY,5a6fa677c2eb6c00017e042e,2020-06-30_11h44.54.564,proactive,2020.1.2,Win32,60,5efb791ed4cb570da489e737,5efb871502c30e103feb79be,2,,,,,,pencil,,,,,,0,14,14,1,1,1,0,,,,,,,,,,,,,,,,,,,,,,,,,,,,,,,,,,,,,,,,,,,,,,,,,,,,,,,,,,,,,,,,,,,,,,,,,,,
,,,,,,,,,,stimuli/images/PICTURE_203.png,ARTIST,5a6fa677c2eb6c00017e042e,2020-06-30_11h44.54.564,proactive,2020.1.2,Win32,60,5efb791ed4cb570da489e737,5efb871502c30e103feb79be,2,,,,,,cap,,,,,,0,15,15,26,1,3,0,,,,,,,,,,,,,,,,,,,,,,,,,,,,,,,,,,,,,,,,,,,,,,,,,,,,,,,,,,,,,,,,,,,,,,,,,,,
,,,,,,,,,,stimuli/images/PICTURE_688.png,WOMEN,5a6fa677c2eb6c00017e042e,2020-06-30_11h44.54.564,proactive,2020.1.2,Win32,60,5efb791ed4cb570da489e737,5efb871502c30e103feb79be,2,,,,,,runner,,,,,,0,16,16,14,1,2,0,,,,,,,,,,,,,,,,,,,,,,,,,,,,,,,,,,,,,,,,,,,,,,,,,,,,,,,,,,,,,,,,,,,,,,,,,,,
,,,,,,,,,,stimuli/images/PICTURE_675.png,WEAPON,5a6fa677c2eb6c00017e042e,2020-06-30_11h44.54.564,proactive,2020.1.2,Win32,60,5efb791ed4cb570da489e737,5efb871502c30e103feb79be,2,,,,,,windmill,,,,,,0,17,17,32,1,4,0,,,,,,,,,,,,,,,,,,,,,,,,,,,,,,,,,,,,,,,,,,,,,,,,,,,,,,,,,,,,,,,,,,,,,,,,,,,
,,,,,,,,,,stimuli/images/PICTURE_509.png,PHOTO,5a6fa677c2eb6c00017e042e,2020-06-30_11h44.54.564,proactive,2020.1.2,Win32,60,5efb791ed4cb570da489e737,5efb871502c30e103feb79be,2,,,,,,telephone,,,,,,0,18,18,21,1,3,0,,,,,,,,,,,,,,,,,,,,,,,,,,,,,,,,,,,,,,,,,,,,,,,,,,,,,,,,,,,,,,,,,,,,,,,,,,,
,,,,,,,,,,stimuli/images/PICTURE_314.png,GODS,5a6fa677c2eb6c00017e042e,2020-06-30_11h44.54.564,proactive,2020.1.2,Win32,60,5efb791ed4cb570da489e737,5efb871502c30e103feb79be,2,,,,,,perfume,,,,,,0,19,19,11,1,2,0,,,,,,,,,,,,,,,,,,,,,,,,,,,,,,,,,,,,,,,,,,,,,,,,,,,,,,,,,,,,,,,,,,,,,,,,,,,
,,,,,,,,,,stimuli/images/PICTURE_504.png,BODY,5a6fa677c2eb6c00017e042e,2020-06-30_11h44.54.564,proactive,2020.1.2,Win32,60,5efb791ed4cb570da489e737,5efb871502c30e103feb79be,2,,,,,,wheel,,,,,,0,20,20,8,1,1,0,,,,,,,,,,,,,,,,,,,,,,,,,,,,,,,,,,,,,,,,,,,,,,,,,,,,,,,,,,,,,,,,,,,,,,,,,,,
,,,,,,,,,,stimuli/images/PICTURE_123.png,ADVICE,5a6fa677c2eb6c00017e042e,2020-06-30_11h44.54.564,proactive,2020.1.2,Win32,60,5efb791ed4cb570da489e737,5efb871502c30e103feb79be,2,,,,,,dart,,,,,,0,21,21,40,1,5,0,,,,,,,,,,,,,,,,,,,,,,,,,,,,,,,,,,,,,,,,,,,,,,,,,,,,,,,,,,,,,,,,,,,,,,,,,,,
,,,,,,,,,,stimuli/images/PICTURE_85.png,THING,5a6fa677c2eb6c00017e042e,2020-06-30_11h44.54.564,proactive,2020.1.2,Win32,60,5efb791ed4cb570da489e737,5efb871502c30e103feb79be,2,,,,,,diamond,,,,,,0,22,22,15,1,2,0,,,,,,,,,,,,,,,,,,,,,,,,,,,,,,,,,,,,,,,,,,,,,,,,,,,,,,,,,,,,,,,,,,,,,,,,,,,
,,,,,,,,,,stimuli/images/PICTURE_449.png,THING,5a6fa677c2eb6c00017e042e,2020-06-30_11h44.54.564,proactive,2020.1.2,Win32,60,5efb791ed4cb570da489e737,5efb871502c30e103feb79be,2,,,,,,bench,,,,,,0,23,23,59,1,6,0,,,,,,,,,,,,,,,,,,,,,,,,,,,,,,,,,,,,,,,,,,,,,,,,,,,,,,,,,,,,,,,,,,,,,,,,,,,
,,,,,,,,,,stimuli/images/PICTURE_314.png,SAKE,5a6fa677c2eb6c00017e042e,2020-06-30_11h44.54.564,proactive,2020.1.2,Win32,60,5efb791ed4cb570da489e737,5efb871502c30e103feb79be,2,,,,,,perfume,,,,,,0,24,24,7,1,1,0,,,,,,,,,,,,,,,,,,,,,,,,,,,,,,,,,,,,,,,,,,,,,,,,,,,,,,,,,,,,,,,,,,,,,,,,,,,
,,,,,,,,,,stimuli/images/PICTURE_708.png,CLIENT,5a6fa677c2eb6c00017e042e,2020-06-30_11h44.54.564,proactive,2020.1.2,Win32,60,5efb791ed4cb570da489e737,5efb871502c30e103feb79be,2,,,,,,monkey,,,,,,0,25,25,5,1,1,0,,,,,,,,,,,,,,,,,,,,,,,,,,,,,,,,,,,,,,,,,,,,,,,,,,,,,,,,,,,,,,,,,,,,,,,,,,,
,,,,,,,,,,stimuli/images/PICTURE_208.png,THING,5a6fa677c2eb6c00017e042e,2020-06-30_11h44.54.564,proactive,2020.1.2,Win32,60,5efb791ed4cb570da489e737,5efb871502c30e103feb79be,2,,,,,,microphone,,,,,,0,26,26,47,1,5,0,,,,,,,,,,,,,,,,,,,,,,,,,,,,,,,,,,,,,,,,,,,,,,,,,,,,,,,,,,,,,,,,,,,,,,,,,,,
,,,,,,,,,,stimuli/images/PICTURE_488.png,STYLE,5a6fa677c2eb6c00017e042e,2020-06-30_11h44.54.564,proactive,2020.1.2,Win32,60,5efb791ed4cb570da489e737,5efb871502c30e103feb79be,2,,,,,,sun,,,,,,0,27,27,33,1,4,0,,,,,,,,,,,,,,,,,,,,,,,,,,,,,,,,,,,,,,,,,,,,,,,,,,,,,,,,,,,,,,,,,,,,,,,,,,,
,,,,,,,,,,stimuli/images/PICTURE_208.png,LOTS,5a6fa677c2eb6c00017e042e,2020-06-30_11h44.54.564,proactive,2020.1.2,Win32,60,5efb791ed4cb570da489e737,5efb871502c30e103feb79be,2,,,,,,microphone,,,,,,0,28,28,10,1,2,0,,,,,,,,,,,,,,,,,,,,,,,,,,,,,,,,,,,,,,,,,,,,,,,,,,,,,,,,,,,,,,,,,,,,,,,,,,,
,,,,,,,,,,stimuli/images/PICTURE_453.png,DUDE,5a6fa677c2eb6c00017e042e,2020-06-30_11h44.54.564,proactive,2020.1.2,Win32,60,5efb791ed4cb570da489e737,5efb871502c30e103feb79be,2,,,,,,scissors,,,,,,0,29,29,27,1,3,0,,,,,,,,,,,,,,,,,,,,,,,,,,,,,,,,,,,,,,,,,,,,,,,,,,,,,,,,,,,,,,,,,,,,,,,,,,,
,,,,,,,,,,stimuli/images/PICTURE_744.png,SYSTEM,5a6fa677c2eb6c00017e042e,2020-06-30_11h44.54.564,proactive,2020.1.2,Win32,60,5efb791ed4cb570da489e737,5efb871502c30e103feb79be,2,,,,,,ring,,,,,,0,30,30,43,1,5,0,,,,,,,,,,,,,,,,,,,,,,,,,,,,,,,,,,,,,,,,,,,,,,,,,,,,,,,,,,,,,,,,,,,,,,,,,,,
,,,,,,,,,,stimuli/images/PICTURE_327.png,BEAUTY,5a6fa677c2eb6c00017e042e,2020-06-30_11h44.54.564,proactive,2020.1.2,Win32,60,5efb791ed4cb570da489e737,5efb871502c30e103feb79be,2,,,,,,helmet,,,,,,0,31,31,48,1,5,0,,,,,,,,,,,,,,,,,,,,,,,,,,,,,,,,,,,,,,,,,,,,,,,,,,,,,,,,,,,,,,,,,,,,,,,,,,,
,,,,,,,,,,stimuli/images/PICTURE_380.png,DEATH,5a6fa677c2eb6c00017e042e,2020-06-30_11h44.54.564,proactive,2020.1.2,Win32,60,5efb791ed4cb570da489e737,5efb871502c30e103feb79be,2,,,,,,gorilla,,,,,,0,32,32,49,1,5,0,,,,,,,,,,,,,,,,,,,,,,,,,,,,,,,,,,,,,,,,,,,,,,,,,,,,,,,,,,,,,,,,,,,,,,,,,,,
,,,,,,,,,,stimuli/images/PICTURE_177.png,CARS,5a6fa677c2eb6c00017e042e,2020-06-30_11h44.54.564,proactive,2020.1.2,Win32,60,5efb791ed4cb570da489e737,5efb871502c30e103feb79be,2,,,,,,mushroom,,,,,,0,33,33,35,1,4,0,,,,,,,,,,,,,,,,,,,,,,,,,,,,,,,,,,,,,,,,,,,,,,,,,,,,,,,,,,,,,,,,,,,,,,,,,,,
,,,,,,,,,,stimuli/images/PICTURE_233.png,WOMEN,5a6fa677c2eb6c00017e042e,2020-06-30_11h44.54.564,proactive,2020.1.2,Win32,60,5efb791ed4cb570da489e737,5efb871502c30e103feb79be,2,,,,,,salt,,,,,,0,34,34,38,1,4,0,,,,,,,,,,,,,,,,,,,,,,,,,,,,,,,,,,,,,,,,,,,,,,,,,,,,,,,,,,,,,,,,,,,,,,,,,,,
,,,,,,,,,,stimuli/images/PICTURE_491.png,ROOF,5a6fa677c2eb6c00017e042e,2020-06-30_11h44.54.564,proactive,2020.1.2,Win32,60,5efb791ed4cb570da489e737,5efb871502c30e103feb79be,2,,,,,,rug,,,,,,0,35,35,24,1,3,0,,,,,,,,,,,,,,,,,,,,,,,,,,,,,,,,,,,,,,,,,,,,,,,,,,,,,,,,,,,,,,,,,,,,,,,,,,,
,,,,,,,,,,stimuli/images/PICTURE_339.png,PLENTY,5a6fa677c2eb6c00017e042e,2020-06-30_11h44.54.564,proactive,2020.1.2,Win32,60,5efb791ed4cb570da489e737,5efb871502c30e103feb79be,2,,,,,,backpack,,,,,,0,36,36,0,1,1,0,,,,,,,,,,,,,,,,,,,,,,,,,,,,,,,,,,,,,,,,,,,,,,,,,,,,,,,,,,,,,,,,,,,,,,,,,,,
,,,,,,,,,,stimuli/images/PICTURE_151.png,GIRL,5a6fa677c2eb6c00017e042e,2020-06-30_11h44.54.564,proactive,2020.1.2,Win32,60,5efb791ed4cb570da489e737,5efb871502c30e103feb79be,2,,,,,,tray,,,,,,0,37,37,19,1,2,0,,,,,,,,,,,,,,,,,,,,,,,,,,,,,,,,,,,,,,,,,,,,,,,,,,,,,,,,,,,,,,,,,,,,,,,,,,,
,,,,,,,,,,stimuli/images/PICTURE_467.png,DEMON,5a6fa677c2eb6c00017e042e,2020-06-30_11h44.54.564,proactive,2020.1.2,Win32,60,5efb791ed4cb570da489e737,5efb871502c30e103feb79be,2,,,,,,peg,,,,,,0,38,38,23,1,3,0,,,,,,,,,,,,,,,,,,,,,,,,,,,,,,,,,,,,,,,,,,,,,,,,,,,,,,,,,,,,,,,,,,,,,,,,,,,
,,,,,,,,,,stimuli/images/PICTURE_311.png,BEAUTY,5a6fa677c2eb6c00017e042e,2020-06-30_11h44.54.564,proactive,2020.1.2,Win32,60,5efb791ed4cb570da489e737,5efb871502c30e103feb79be,2,,,,,,razor,,,,,,0,39,39,13,1,2,0,,,,,,,,,,,,,,,,,,,,,,,,,,,,,,,,,,,,,,,,,,,,,,,,,,,,,,,,,,,,,,,,,,,,,,,,,,,
,,,,,,,,,,stimuli/images/PICTURE_208.png,MONTH,5a6fa677c2eb6c00017e042e,2020-06-30_11h44.54.564,proactive,2020.1.2,Win32,60,5efb791ed4cb570da489e737,5efb871502c30e103feb79be,2,,,,,,microphone,,,,,,0,40,40,53,1,6,0,,,,,,,,,,,,,,,,,,,,,,,,,,,,,,,,,,,,,,,,,,,,,,,,,,,,,,,,,,,,,,,,,,,,,,,,,,,
,,,,,,,,,,stimuli/images/PICTURE_302.png,FAMILY,5a6fa677c2eb6c00017e042e,2020-06-30_11h44.54.564,proactive,2020.1.2,Win32,60,5efb791ed4cb570da489e737,5efb871502c30e103feb79be,2,,,,,,taxi,,,,,,0,41,41,18,1,2,0,,,,,,,,,,,,,,,,,,,,,,,,,,,,,,,,,,,,,,,,,,,,,,,,,,,,,,,,,,,,,,,,,,,,,,,,,,,
,,,,,,,,,,stimuli/images/PICTURE_285.png,ADVICE,5a6fa677c2eb6c00017e042e,2020-06-30_11h44.54.564,proactive,2020.1.2,Win32,60,5efb791ed4cb570da489e737,5efb871502c30e103feb79be,2,,,,,,carrot,,,,,,0,42,42,12,1,2,0,,,,,,,,,,,,,,,,,,,,,,,,,,,,,,,,,,,,,,,,,,,,,,,,,,,,,,,,,,,,,,,,,,,,,,,,,,,
,,,,,,,,,,stimuli/images/PICTURE_255.png,AREA,5a6fa677c2eb6c00017e042e,2020-06-30_11h44.54.564,proactive,2020.1.2,Win32,60,5efb791ed4cb570da489e737,5efb871502c30e103feb79be,2,,,,,,shovel,,,,,,0,43,43,22,1,3,0,,,,,,,,,,,,,,,,,,,,,,,,,,,,,,,,,,,,,,,,,,,,,,,,,,,,,,,,,,,,,,,,,,,,,,,,,,,
,,,,,,,,,,stimuli/images/PICTURE_123.png,ADVICE,5a6fa677c2eb6c00017e042e,2020-06-30_11h44.54.564,proactive,2020.1.2,Win32,60,5efb791ed4cb570da489e737,5efb871502c30e103feb79be,2,,,,,,dart,,,,,,0,44,44,50,1,6,0,,,,,,,,,,,,,,,,,,,,,,,,,,,,,,,,,,,,,,,,,,,,,,,,,,,,,,,,,,,,,,,,,,,,,,,,,,,
,,,,,,,,,,stimuli/images/PICTURE_147.png,MOMENT,5a6fa677c2eb6c00017e042e,2020-06-30_11h44.54.564,proactive,2020.1.2,Win32,60,5efb791ed4cb570da489e737,5efb871502c30e103feb79be,2,,,,,,hanger,,,,,,0,45,45,51,1,6,0,,,,,,,,,,,,,,,,,,,,,,,,,,,,,,,,,,,,,,,,,,,,,,,,,,,,,,,,,,,,,,,,,,,,,,,,,,,
,,,,,,,,,,stimuli/images/PICTURE_708.png,YARD,5a6fa677c2eb6c00017e042e,2020-06-30_11h44.54.564,proactive,2020.1.2,Win32,60,5efb791ed4cb570da489e737,5efb871502c30e103feb79be,2,,,,,,monkey,,,,,,0,46,46,29,1,3,0,,,,,,,,,,,,,,,,,,,,,,,,,,,,,,,,,,,,,,,,,,,,,,,,,,,,,,,,,,,,,,,,,,,,,,,,,,,
,,,,,,,,,,stimuli/images/PICTURE_356.png,DANGER,5a6fa677c2eb6c00017e042e,2020-06-30_11h44.54.564,proactive,2020.1.2,Win32,60,5efb791ed4cb570da489e737,5efb871502c30e103feb79be,2,,,,,,pawn,,,,,,0,47,47,55,1,6,0,,,,,,,,,,,,,,,,,,,,,,,,,,,,,,,,,,,,,,,,,,,,,,,,,,,,,,,,,,,,,,,,,,,,,,,,,,,
,,,,,,,,,,stimuli/images/PICTURE_470.png,CASINO,5a6fa677c2eb6c00017e042e,2020-06-30_11h44.54.564,proactive,2020.1.2,Win32,60,5efb791ed4cb570da489e737,5efb871502c30e103feb79be,2,,,,,,motorbike,,,,,,0,48,48,36,1,4,0,,,,,,,,,,,,,,,,,,,,,,,,,,,,,,,,,,,,,,,,,,,,,,,,,,,,,,,,,,,,,,,,,,,,,,,,,,,
,,,,,,,,,,stimuli/images/PICTURE_380.png,PHOTO,5a6fa677c2eb6c00017e042e,2020-06-30_11h44.54.564,proactive,2020.1.2,Win32,60,5efb791ed4cb570da489e737,5efb871502c30e103feb79be,2,,,,,,gorilla,,,,,,0,49,49,52,1,6,0,,,,,,,,,,,,,,,,,,,,,,,,,,,,,,,,,,,,,,,,,,,,,,,,,,,,,,,,,,,,,,,,,,,,,,,,,,,
,,,,,,,,,,stimuli/images/PICTURE_32.png,JUNGLE,5a6fa677c2eb6c00017e042e,2020-06-30_11h44.54.564,proactive,2020.1.2,Win32,60,5efb791ed4cb570da489e737,5efb871502c30e103feb79be,2,,,,,,crown,,,,,,0,50,50,45,1,5,0,,,,,,,,,,,,,,,,,,,,,,,,,,,,,,,,,,,,,,,,,,,,,,,,,,,,,,,,,,,,,,,,,,,,,,,,,,,
,,,,,,,,,,stimuli/images/PICTURE_453.png,PLENTY,5a6fa677c2eb6c00017e042e,2020-06-30_11h44.54.564,proactive,2020.1.2,Win32,60,5efb791ed4cb570da489e737,5efb871502c30e103feb79be,2,,,,,,scissors,,,,,,0,51,51,56,1,6,0,,,,,,,,,,,,,,,,,,,,,,,,,,,,,,,,,,,,,,,,,,,,,,,,,,,,,,,,,,,,,,,,,,,,,,,,,,,
,,,,,,,,,,stimuli/images/PICTURE_215.png,PLENTY,5a6fa677c2eb6c00017e042e,2020-06-30_11h44.54.564,proactive,2020.1.2,Win32,60,5efb791ed4cb570da489e737,5efb871502c30e103feb79be,2,,,,,,boot,,,,,,0,52,52,37,1,4,0,,,,,,,,,,,,,,,,,,,,,,,,,,,,,,,,,,,,,,,,,,,,,,,,,,,,,,,,,,,,,,,,,,,,,,,,,,,
,,,,,,,,,,stimuli/images/PICTURE_95.png,STYLE,5a6fa677c2eb6c00017e042e,2020-06-30_11h44.54.564,proactive,2020.1.2,Win32,60,5efb791ed4cb570da489e737,5efb871502c30e103feb79be,2,,,,,,suitcase,,,,,,0,53,53,25,1,3,0,,,,,,,,,,,,,,,,,,,,,,,,,,,,,,,,,,,,,,,,,,,,,,,,,,,,,,,,,,,,,,,,,,,,,,,,,,,
,,,,,,,,,,stimuli/images/PICTURE_677.png,MILE,5a6fa677c2eb6c00017e042e,2020-06-30_11h44.54.564,proactive,2020.1.2,Win32,60,5efb791ed4cb570da489e737,5efb871502c30e103feb79be,2,,,,,,map,,,,,,0,54,54,30,1,4,0,,,,,,,,,,,,,,,,,,,,,,,,,,,,,,,,,,,,,,,,,,,,,,,,,,,,,,,,,,,,,,,,,,,,,,,,,,,
,,,,,,,,,,stimuli/images/PICTURE_688.png,CASINO,5a6fa677c2eb6c00017e042e,2020-06-30_11h44.54.564,proactive,2020.1.2,Win32,60,5efb791ed4cb570da489e737,5efb871502c30e103feb79be,2,,,,,,runner,,,,,,0,55,55,2,1,1,0,,,,,,,,,,,,,,,,,,,,,,,,,,,,,,,,,,,,,,,,,,,,,,,,,,,,,,,,,,,,,,,,,,,,,,,,,,,
,,,,,,,,,,stimuli/images/PICTURE_469.png,LETTER,5a6fa677c2eb6c00017e042e,2020-06-30_11h44.54.564,proactive,2020.1.2,Win32,60,5efb791ed4cb570da489e737,5efb871502c30e103feb79be,2,,,,,,stool,,,,,,0,56,56,42,1,5,0,,,,,,,,,,,,,,,,,,,,,,,,,,,,,,,,,,,,,,,,,,,,,,,,,,,,,,,,,,,,,,,,,,,,,,,,,,,
,,,,,,,,,,stimuli/images/PICTURE_667.png,BATH,5a6fa677c2eb6c00017e042e,2020-06-30_11h44.54.564,proactive,2020.1.2,Win32,60,5efb791ed4cb570da489e737,5efb871502c30e103feb79be,2,,,,,,daisy,,,,,,0,57,57,4,1,1,0,,,,,,,,,,,,,,,,,,,,,,,,,,,,,,,,,,,,,,,,,,,,,,,,,,,,,,,,,,,,,,,,,,,,,,,,,,,
,,,,,,,,,,stimuli/images/PICTURE_160.png,FEET,5a6fa677c2eb6c00017e042e,2020-06-30_11h44.54.564,proactive,2020.1.2,Win32,60,5efb791ed4cb570da489e737,5efb871502c30e103feb79be,2,,,,,,wheelbarrow,,,,,,0,58,58,58,1,6,0,,,,,,,,,,,,,,,,,,,,,,,,,,,,,,,,,,,,,,,,,,,,,,,,,,,,,,,,,,,,,,,,,,,,,,,,,,,
,,?,0.000795,0,,,,,,stimuli/images/PICTURE_453.png,PLENTY,5a6fa677c2eb6c00017e042e,2020-06-30_11h44.54.564,proactive,2020.1.2,Win32,60,5efb791ed4cb570da489e737,5efb871502c30e103feb79be,2,,,,,,scissors,,,,,,,,,,,6,0,0,0,0,56,1,,,,,,,,,,,,,,,,,,,,,,,,,,,,,,,,,,,,,,,,,,,,,,,,,,,,,,,,,,,,,,,,,,,,,,
,,?,0.000475,0,,,,,,stimuli/images/PICTURE_339.png,PLENTY,5a6fa677c2eb6c00017e042e,2020-06-30_11h44.54.564,proactive,2020.1.2,Win32,60,5efb791ed4cb570da489e737,5efb871502c30e103feb79be,2,,,,,,backpack,,,,,,,,,,,1,0,0,1,1,0,1,,,,,,,,,,,,,,,,,,,,,,,,,,,,,,,,,,,,,,,,,,,,,,,,,,,,,,,,,,,,,,,,,,,,,,
,,FAMILY,5.14416,1,,,,,,stimuli/images/PICTURE_302.png,FAMILY,5a6fa677c2eb6c00017e042e,2020-06-30_11h44.54.564,proactive,2020.1.2,Win32,60,5efb791ed4cb570da489e737,5efb871502c30e103feb79be,2,,,,,,taxi,,,,,,,,,,,2,0,0,2,2,18,1,,,,,,,,,,,,,,,,,,,,,,,,,,,,,,,,,,,,,,,,,,,,,,,,,,,,,,,,,,,,,,,,,,,,,,
,,?,0.000685,0,,,,,,stimuli/images/PICTURE_509.png,PHOTO,5a6fa677c2eb6c00017e042e,2020-06-30_11h44.54.564,proactive,2020.1.2,Win32,60,5efb791ed4cb570da489e737,5efb871502c30e103feb79be,2,,,,,,telephone,,,,,,,,,,,3,0,0,3,3,21,1,,,,,,,,,,,,,,,,,,,,,,,,,,,,,,,,,,,,,,,,,,,,,,,,,,,,,,,,,,,,,,,,,,,,,,
,,MEN,1.76468,0,,,,,,stimuli/images/PICTURE_688.png,WOMEN,5a6fa677c2eb6c00017e042e,2020-06-30_11h44.54.564,proactive,2020.1.2,Win32,60,5efb791ed4cb570da489e737,5efb871502c30e103feb79be,2,,,,,,runner,,,,,,,,,,,2,0,0,4,4,14,1,,,,,,,,,,,,,,,,,,,,,,,,,,,,,,,,,,,,,,,,,,,,,,,,,,,,,,,,,,,,,,,,,,,,,,
,,?,0.00069,0,,,,,,stimuli/images/PICTURE_654.png,VALLEY,5a6fa677c2eb6c00017e042e,2020-06-30_11h44.54.564,proactive,2020.1.2,Win32,60,5efb791ed4cb570da489e737,5efb871502c30e103feb79be,2,,,,,,pencil,,,,,,,,,,,1,0,0,5,5,1,1,,,,,,,,,,,,,,,,,,,,,,,,,,,,,,,,,,,,,,,,,,,,,,,,,,,,,,,,,,,,,,,,,,,,,,
,,?,0.00046,0,,,,,,stimuli/images/PICTURE_708.png,CLIENT,5a6fa677c2eb6c00017e042e,2020-06-30_11h44.54.564,proactive,2020.1.2,Win32,60,5efb791ed4cb570da489e737,5efb871502c30e103feb79be,2,,,,,,monkey,,,,,,,,,,,1,0,0,6,6,5,1,,,,,,,,,,,,,,,,,,,,,,,,,,,,,,,,,,,,,,,,,,,,,,,,,,,,,,,,,,,,,,,,,,,,,,
,,?,0.001565,0,,,,,,stimuli/images/PICTURE_380.png,DEATH,5a6fa677c2eb6c00017e042e,2020-06-30_11h44.54.564,proactive,2020.1.2,Win32,60,5efb791ed4cb570da489e737,5efb871502c30e103feb79be,2,,,,,,gorilla,,,,,,,,,,,5,0,0,7,7,49,1,,,,,,,,,,,,,,,,,,,,,,,,,,,,,,,,,,,,,,,,,,,,,,,,,,,,,,,,,,,,,,,,,,,,,,
,,LOVE,5.678125,0,,,,,,stimuli/images/PICTURE_692.png,MONTH,5a6fa677c2eb6c00017e042e,2020-06-30_11h44.54.564,proactive,2020.1.2,Win32,60,5efb791ed4cb570da489e737,5efb871502c30e103feb79be,2,,,,,,cherry,,,,,,,,,,,2,0,0,8,8,16,1,,,,,,,,,,,,,,,,,,,,,,,,,,,,,,,,,,,,,,,,,,,,,,,,,,,,,,,,,,,,,,,,,,,,,,
,,?,0.0007,0,,,,,,stimuli/images/PICTURE_123.png,ADVICE,5a6fa677c2eb6c00017e042e,2020-06-30_11h44.54.564,proactive,2020.1.2,Win32,60,5efb791ed4cb570da489e737,5efb871502c30e103feb79be,2,,,,,,dart,,,,,,,,,,,6,0,0,9,9,50,1,,,,,,,,,,,,,,,,,,,,,,,,,,,,,,,,,,,,,,,,,,,,,,,,,,,,,,,,,,,,,,,,,,,,,,
,,?,0.000455,0,,,,,,stimuli/images/PICTURE_470.png,CASINO,5a6fa677c2eb6c00017e042e,2020-06-30_11h44.54.564,proactive,2020.1.2,Win32,60,5efb791ed4cb570da489e737,5efb871502c30e103feb79be,2,,,,,,motorbike,,,,,,,,,,,4,0,0,10,10,36,1,,,,,,,,,,,,,,,,,,,,,,,,,,,,,,,,,,,,,,,,,,,,,,,,,,,,,,,,,,,,,,,,,,,,,,
,,?,0.000475,0,,,,,,stimuli/images/PICTURE_504.png,BODY,5a6fa677c2eb6c00017e042e,2020-06-30_11h44.54.564,proactive,2020.1.2,Win32,60,5efb791ed4cb570da489e737,5efb871502c30e103feb79be,2,,,,,,wheel,,,,,,,,,,,1,0,0,11,11,8,1,,,,,,,,,,,,,,,,,,,,,,,,,,,,,,,,,,,,,,,,,,,,,,,,,,,,,,,,,,,,,,,,,,,,,,
,,?,0.00045,0,,,,,,stimuli/images/PICTURE_380.png,PHOTO,5a6fa677c2eb6c00017e042e,2020-06-30_11h44.54.564,proactive,2020.1.2,Win32,60,5efb791ed4cb570da489e737,5efb871502c30e103feb79be,2,,,,,,gorilla,,,,,,,,,,,6,0,0,12,12,52,1,,,,,,,,,,,,,,,,,,,,,,,,,,,,,,,,,,,,,,,,,,,,,,,,,,,,,,,,,,,,,,,,,,,,,,
,,LOVE,5.544595,0,,,,,,stimuli/images/PICTURE_285.png,ADVICE,5a6fa677c2eb6c00017e042e,2020-06-30_11h44.54.564,proactive,2020.1.2,Win32,60,5efb791ed4cb570da489e737,5efb871502c30e103feb79be,2,,,,,,carrot,,,,,,,,,,,2,0,0,13,13,12,1,,,,,,,,,,,,,,,,,,,,,,,,,,,,,,,,,,,,,,,,,,,,,,,,,,,,,,,,,,,,,,,,,,,,,,
,,?,0.000655,0,,,,,,stimuli/images/PICTURE_208.png,MONTH,5a6fa677c2eb6c00017e042e,2020-06-30_11h44.54.564,proactive,2020.1.2,Win32,60,5efb791ed4cb570da489e737,5efb871502c30e103feb79be,2,,,,,,microphone,,,,,,,,,,,6,0,0,14,14,53,1,,,,,,,,,,,,,,,,,,,,,,,,,,,,,,,,,,,,,,,,,,,,,,,,,,,,,,,,,,,,,,,,,,,,,,
,,?,0.001085,0,,,,,,stimuli/images/PICTURE_314.png,SAKE,5a6fa677c2eb6c00017e042e,2020-06-30_11h44.54.564,proactive,2020.1.2,Win32,60,5efb791ed4cb570da489e737,5efb871502c30e103feb79be,2,,,,,,perfume,,,,,,,,,,,1,0,0,15,15,7,1,,,,,,,,,,,,,,,,,,,,,,,,,,,,,,,,,,,,,,,,,,,,,,,,,,,,,,,,,,,,,,,,,,,,,,
,,?,0.00058,0,,,,,,stimuli/images/PICTURE_208.png,THING,5a6fa677c2eb6c00017e042e,2020-06-30_11h44.54.564,proactive,2020.1.2,Win32,60,5efb791ed4cb570da489e737,5efb871502c30e103feb79be,2,,,,,,microphone,,,,,,,,,,,5,0,0,16,16,47,1,,,,,,,,,,,,,,,,,,,,,,,,,,,,,,,,,,,,,,,,,,,,,,,,,,,,,,,,,,,,,,,,,,,,,,
,,?,0.00056,0,,,,,,stimuli/images/PICTURE_356.png,DANGER,5a6fa677c2eb6c00017e042e,2020-06-30_11h44.54.564,proactive,2020.1.2,Win32,60,5efb791ed4cb570da489e737,5efb871502c30e103feb79be,2,,,,,,pawn,,,,,,,,,,,6,0,0,17,17,55,1,,,,,,,,,,,,,,,,,,,,,,,,,,,,,,,,,,,,,,,,,,,,,,,,,,,,,,,,,,,,,,,,,,,,,,
,,TOUGH,4.027325,0,,,,,,stimuli/images/PICTURE_85.png,THING,5a6fa677c2eb6c00017e042e,2020-06-30_11h44.54.564,proactive,2020.1.2,Win32,60,5efb791ed4cb570da489e737,5efb871502c30e103feb79be,2,,,,,,diamond,,,,,,,,,,,2,0,0,18,18,15,1,,,,,,,,,,,,,,,,,,,,,,,,,,,,,,,,,,,,,,,,,,,,,,,,,,,,,,,,,,,,,,,,,,,,,,
,,LOVE,3.582535,0,,,,,,stimuli/images/PICTURE_208.png,LOTS,5a6fa677c2eb6c00017e042e,2020-06-30_11h44.54.564,proactive,2020.1.2,Win32,60,5efb791ed4cb570da489e737,5efb871502c30e103feb79be,2,,,,,,microphone,,,,,,,,,,,2,0,0,19,19,10,1,,,,,,,,,,,,,,,,,,,,,,,,,,,,,,,,,,,,,,,,,,,,,,,,,,,,,,,,,,,,,,,,,,,,,,
,,?,0.000675,0,,,,,,stimuli/images/PICTURE_160.png,FEET,5a6fa677c2eb6c00017e042e,2020-06-30_11h44.54.564,proactive,2020.1.2,Win32,60,5efb791ed4cb570da489e737,5efb871502c30e103feb79be,2,,,,,,wheelbarrow,,,,,,,,,,,6,0,0,20,20,58,1,,,,,,,,,,,,,,,,,,,,,,,,,,,,,,,,,,,,,,,,,,,,,,,,,,,,,,,,,,,,,,,,,,,,,,
,,?,0.00044,0,,,,,,stimuli/images/PICTURE_469.png,LETTER,5a6fa677c2eb6c00017e042e,2020-06-30_11h44.54.564,proactive,2020.1.2,Win32,60,5efb791ed4cb570da489e737,5efb871502c30e103feb79be,2,,,,,,stool,,,,,,,,,,,5,0,0,21,21,42,1,,,,,,,,,,,,,,,,,,,,,,,,,,,,,,,,,,,,,,,,,,,,,,,,,,,,,,,,,,,,,,,,,,,,,,
,,?,0.00041,0,,,,,,stimuli/images/PICTURE_215.png,PLENTY,5a6fa677c2eb6c00017e042e,2020-06-30_11h44.54.564,proactive,2020.1.2,Win32,60,5efb791ed4cb570da489e737,5efb871502c30e103feb79be,2,,,,,,boot,,,,,,,,,,,4,0,0,22,22,37,1,,,,,,,,,,,,,,,,,,,,,,,,,,,,,,,,,,,,,,,,,,,,,,,,,,,,,,,,,,,,,,,,,,,,,,
,,?,0.000425,0,,,,,,stimuli/images/PICTURE_688.png,CASINO,5a6fa677c2eb6c00017e042e,2020-06-30_11h44.54.564,proactive,2020.1.2,Win32,60,5efb791ed4cb570da489e737,5efb871502c30e103feb79be,2,,,,,,runner,,,,,,,,,,,1,0,0,23,23,2,1,,,,,,,,,,,,,,,,,,,,,,,,,,,,,,,,,,,,,,,,,,,,,,,,,,,,,,,,,,,,,,,,,,,,,,
,,CLEAN,3.71193,0,,,,,,stimuli/images/PICTURE_311.png,BEAUTY,5a6fa677c2eb6c00017e042e,2020-06-30_11h44.54.564,proactive,2020.1.2,Win32,60,5efb791ed4cb570da489e737,5efb871502c30e103feb79be,2,,,,,,razor,,,,,,,,,,,2,0,0,24,24,13,1,,,,,,,,,,,,,,,,,,,,,,,,,,,,,,,,,,,,,,,,,,,,,,,,,,,,,,,,,,,,,,,,,,,,,,
,,?,0.000605,0,,,,,,stimuli/images/PICTURE_32.png,JUNGLE,5a6fa677c2eb6c00017e042e,2020-06-30_11h44.54.564,proactive,2020.1.2,Win32,60,5efb791ed4cb570da489e737,5efb871502c30e103feb79be,2,,,,,,crown,,,,,,,,,,,5,0,0,25,25,45,1,,,,,,,,,,,,,,,,,,,,,,,,,,,,,,,,,,,,,,,,,,,,,,,,,,,,,,,,,,,,,,,,,,,,,,
,,?,0.000425,0,,,,,,stimuli/images/PICTURE_708.png,PENNY,5a6fa677c2eb6c00017e042e,2020-06-30_11h44.54.564,proactive,2020.1.2,Win32,60,5efb791ed4cb570da489e737,5efb871502c30e103feb79be,2,,,,,,monkey,,,,,,,,,,,4,0,0,26,26,31,1,,,,,,,,,,,,,,,,,,,,,,,,,,,,,,,,,,,,,,,,,,,,,,,,,,,,,,,,,,,,,,,,,,,,,,
,,?,0.00042,0,,,,,,stimuli/images/PICTURE_123.png,ADVICE,5a6fa677c2eb6c00017e042e,2020-06-30_11h44.54.564,proactive,2020.1.2,Win32,60,5efb791ed4cb570da489e737,5efb871502c30e103feb79be,2,,,,,,dart,,,,,,,,,,,5,0,0,27,27,40,1,,,,,,,,,,,,,,,,,,,,,,,,,,,,,,,,,,,,,,,,,,,,,,,,,,,,,,,,,,,,,,,,,,,,,,
,,?,0.00055,0,,,,,,stimuli/images/PICTURE_487.png,FLIGHT,5a6fa677c2eb6c00017e042e,2020-06-30_11h44.54.564,proactive,2020.1.2,Win32,60,5efb791ed4cb570da489e737,5efb871502c30e103feb79be,2,,,,,,basket,,,,,,,,,,,1,0,0,28,28,9,1,,,,,,,,,,,,,,,,,,,,,,,,,,,,,,,,,,,,,,,,,,,,,,,,,,,,,,,,,,,,,,,,,,,,,,
,,GRILL,4.828175,0,,,,,,stimuli/images/PICTURE_151.png,GIRL,5a6fa677c2eb6c00017e042e,2020-06-30_11h44.54.564,proactive,2020.1.2,Win32,60,5efb791ed4cb570da489e737,5efb871502c30e103feb79be,2,,,,,,tray,,,,,,,,,,,2,0,0,29,29,19,1,,,,,,,,,,,,,,,,,,,,,,,,,,,,,,,,,,,,,,,,,,,,,,,,,,,,,,,,,,,,,,,,,,,,,,
,,?,0.00055,0,,,,,,stimuli/images/PICTURE_348.png,SPEECH,5a6fa677c2eb6c00017e042e,2020-06-30_11h44.54.564,proactive,2020.1.2,Win32,60,5efb791ed4cb570da489e737,5efb871502c30e103feb79be,2,,,,,,pepper,,,,,,,,,,,3,0,0,30,30,20,1,,,,,,,,,,,,,,,,,,,,,,,,,,,,,,,,,,,,,,,,,,,,,,,,,,,,,,,,,,,,,,,,,,,,,,
,,?,0.00033,0,,,,,,stimuli/images/PICTURE_255.png,AREA,5a6fa677c2eb6c00017e042e,2020-06-30_11h44.54.564,proactive,2020.1.2,Win32,60,5efb791ed4cb570da489e737,5efb871502c30e103feb79be,2,,,,,,shovel,,,,,,,,,,,3,0,0,31,31,22,1,,,,,,,,,,,,,,,,,,,,,,,,,,,,,,,,,,,,,,,,,,,,,,,,,,,,,,,,,,,,,,,,,,,,,,
,,?,0.000365,0,,,,,,stimuli/images/PICTURE_453.png,DUDE,5a6fa677c2eb6c00017e042e,2020-06-30_11h44.54.564,proactive,2020.1.2,Win32,60,5efb791ed4cb570da489e737,5efb871502c30e103feb79be,2,,,,,,scissors,,,,,,,,,,,3,0,0,32,32,27,1,,,,,,,,,,,,,,,,,,,,,,,,,,,,,,,,,,,,,,,,,,,,,,,,,,,,,,,,,,,,,,,,,,,,,,
,,?,0.00036,0,,,,,,stimuli/images/PICTURE_95.png,STYLE,5a6fa677c2eb6c00017e042e,2020-06-30_11h44.54.564,proactive,2020.1.2,Win32,60,5efb791ed4cb570da489e737,5efb871502c30e103feb79be,2,,,,,,suitcase,,,,,,,,,,,3,0,0,33,33,25,1,,,,,,,,,,,,,,,,,,,,,,,,,,,,,,,,,,,,,,,,,,,,,,,,,,,,,,,,,,,,,,,,,,,,,,
,,?,0.000365,0,,,,,,stimuli/images/PICTURE_68.png,MILE,5a6fa677c2eb6c00017e042e,2020-06-30_11h44.54.564,proactive,2020.1.2,Win32,60,5efb791ed4cb570da489e737,5efb871502c30e103feb79be,2,,,,,,candle,,,,,,,,,,,5,0,0,34,34,44,1,,,,,,,,,,,,,,,,,,,,,,,,,,,,,,,,,,,,,,,,,,,,,,,,,,,,,,,,,,,,,,,,,,,,,,
,,?,0.00035,0,,,,,,stimuli/images/PICTURE_675.png,WEAPON,5a6fa677c2eb6c00017e042e,2020-06-30_11h44.54.564,proactive,2020.1.2,Win32,60,5efb791ed4cb570da489e737,5efb871502c30e103feb79be,2,,,,,,windmill,,,,,,,,,,,4,0,0,35,35,32,1,,,,,,,,,,,,,,,,,,,,,,,,,,,,,,,,,,,,,,,,,,,,,,,,,,,,,,,,,,,,,,,,,,,,,,
,,SAKE,1.376385,1,,,,,,stimuli/images/PICTURE_744.png,SAKE,5a6fa677c2eb6c00017e042e,2020-06-30_11h44.54.564,proactive,2020.1.2,Win32,60,5efb791ed4cb570da489e737,5efb871502c30e103feb79be,2,,,,,,ring,,,,,,,,,,,2,0,0,36,36,17,1,,,,,,,,,,,,,,,,,,,,,,,,,,,,,,,,,,,,,,,,,,,,,,,,,,,,,,,,,,,,,,,,,,,,,,
,,?,0.00062,0,,,,,,stimuli/images/PICTURE_177.png,CARS,5a6fa677c2eb6c00017e042e,2020-06-30_11h44.54.564,proactive,2020.1.2,Win32,60,5efb791ed4cb570da489e737,5efb871502c30e103feb79be,2,,,,,,mushroom,,,,,,,,,,,4,0,0,37,37,35,1,,,,,,,,,,,,,,,,,,,,,,,,,,,,,,,,,,,,,,,,,,,,,,,,,,,,,,,,,,,,,,,,,,,,,,
,,?,0.000505,0,,,,,,stimuli/images/PICTURE_708.png,YARD,5a6fa677c2eb6c00017e042e,2020-06-30_11h44.54.564,proactive,2020.1.2,Win32,60,5efb791ed4cb570da489e737,5efb871502c30e103feb79be,2,,,,,,monkey,,,,,,,,,,,3,0,0,38,38,29,1,,,,,,,,,,,,,,,,,,,,,,,,,,,,,,,,,,,,,,,,,,,,,,,,,,,,,,,,,,,,,,,,,,,,,,
,,?,0.00107,0,,,,,,stimuli/images/PICTURE_327.png,BEAUTY,5a6fa677c2eb6c00017e042e,2020-06-30_11h44.54.564,proactive,2020.1.2,Win32,60,5efb791ed4cb570da489e737,5efb871502c30e103feb79be,2,,,,,,helmet,,,,,,,,,,,5,0,0,39,39,48,1,,,,,,,,,,,,,,,,,,,,,,,,,,,,,,,,,,,,,,,,,,,,,,,,,,,,,,,,,,,,,,,,,,,,,,
,,?,0.000435,0,,,,,,stimuli/images/PICTURE_160.png,LEADER,5a6fa677c2eb6c00017e042e,2020-06-30_11h44.54.564,proactive,2020.1.2,Win32,60,5efb791ed4cb570da489e737,5efb871502c30e103feb79be,2,,,,,,wheelbarrow,,,,,,,,,,,1,0,0,40,40,3,1,,,,,,,,,,,,,,,,,,,,,,,,,,,,,,,,,,,,,,,,,,,,,,,,,,,,,,,,,,,,,,,,,,,,,,
,,?,0.000425,0,,,,,,stimuli/images/PICTURE_491.png,ROOF,5a6fa677c2eb6c00017e042e,2020-06-30_11h44.54.564,proactive,2020.1.2,Win32,60,5efb791ed4cb570da489e737,5efb871502c30e103feb79be,2,,,,,,rug,,,,,,,,,,,3,0,0,41,41,24,1,,,,,,,,,,,,,,,,,,,,,,,,,,,,,,,,,,,,,,,,,,,,,,,,,,,,,,,,,,,,,,,,,,,,,,
,,CLEAN,2.82697,0,,,,,,stimuli/images/PICTURE_314.png,GODS,5a6fa677c2eb6c00017e042e,2020-06-30_11h44.54.564,proactive,2020.1.2,Win32,60,5efb791ed4cb570da489e737,5efb871502c30e103feb79be,2,,,,,,perfume,,,,,,,,,,,2,0,0,42,42,11,1,,,,,,,,,,,,,,,,,,,,,,,,,,,,,,,,,,,,,,,,,,,,,,,,,,,,,,,,,,,,,,,,,,,,,,
,,?,0.00111,0,,,,,,stimuli/images/PICTURE_744.png,SYSTEM,5a6fa677c2eb6c00017e042e,2020-06-30_11h44.54.564,proactive,2020.1.2,Win32,60,5efb791ed4cb570da489e737,5efb871502c30e103feb79be,2,,,,,,ring,,,,,,,,,,,5,0,0,43,43,43,1,,,,,,,,,,,,,,,,,,,,,,,,,,,,,,,,,,,,,,,,,,,,,,,,,,,,,,,,,,,,,,,,,,,,,,
,,?,0.000455,0,,,,,,stimuli/images/PICTURE_233.png,WOMEN,5a6fa677c2eb6c00017e042e,2020-06-30_11h44.54.564,proactive,2020.1.2,Win32,60,5efb791ed4cb570da489e737,5efb871502c30e103feb79be,2,,,,,,salt,,,,,,,,,,,4,0,0,44,44,38,1,,,,,,,,,,,,,,,,,,,,,,,,,,,,,,,,,,,,,,,,,,,,,,,,,,,,,,,,,,,,,,,,,,,,,,
,,?,0.000415,0,,,,,,stimuli/images/PICTURE_203.png,ARTIST,5a6fa677c2eb6c00017e042e,2020-06-30_11h44.54.564,proactive,2020.1.2,Win32,60,5efb791ed4cb570da489e737,5efb871502c30e103feb79be,2,,,,,,cap,,,,,,,,,,,3,0,0,45,45,26,1,,,,,,,,,,,,,,,,,,,,,,,,,,,,,,,,,,,,,,,,,,,,,,,,,,,,,,,,,,,,,,,,,,,,,,
,,?,0.000385,0,,,,,,stimuli/images/PICTURE_308.png,ESTATE,5a6fa677c2eb6c00017e042e,2020-06-30_11h44.54.564,proactive,2020.1.2,Win32,60,5efb791ed4cb570da489e737,5efb871502c30e103feb79be,2,,,,,,dice,,,,,,,,,,,5,0,0,46,46,46,1,,,,,,,,,,,,,,,,,,,,,,,,,,,,,,,,,,,,,,,,,,,,,,,,,,,,,,,,,,,,,,,,,,,,,,
,,?,0.000365,0,,,,,,stimuli/images/PICTURE_308.png,KIND,5a6fa677c2eb6c00017e042e,2020-06-30_11h44.54.564,proactive,2020.1.2,Win32,60,5efb791ed4cb570da489e737,5efb871502c30e103feb79be,2,,,,,,dice,,,,,,,,,,,6,0,0,47,47,54,1,,,,,,,,,,,,,,,,,,,,,,,,,,,,,,,,,,,,,,,,,,,,,,,,,,,,,,,,,,,,,,,,,,,,,,
,,?,0.000345,0,,,,,,stimuli/images/PICTURE_467.png,DEMON,5a6fa677c2eb6c00017e042e,2020-06-30_11h44.54.564,proactive,2020.1.2,Win32,60,5efb791ed4cb570da489e737,5efb871502c30e103feb79be,2,,,,,,peg,,,,,,,,,,,3,0,0,48,48,23,1,,,,,,,,,,,,,,,,,,,,,,,,,,,,,,,,,,,,,,,,,,,,,,,,,,,,,,,,,,,,,,,,,,,,,,
,,?,0.00034,0,,,,,,stimuli/images/PICTURE_667.png,BATH,5a6fa677c2eb6c00017e042e,2020-06-30_11h44.54.564,proactive,2020.1.2,Win32,60,5efb791ed4cb570da489e737,5efb871502c30e103feb79be,2,,,,,,daisy,,,,,,,,,,,1,0,0,49,49,4,1,,,,,,,,,,,,,,,,,,,,,,,,,,,,,,,,,,,,,,,,,,,,,,,,,,,,,,,,,,,,,,,,,,,,,,
,,?,0.00033,0,,,,,,stimuli/images/PICTURE_677.png,MILE,5a6fa677c2eb6c00017e042e,2020-06-30_11h44.54.564,proactive,2020.1.2,Win32,60,5efb791ed4cb570da489e737,5efb871502c30e103feb79be,2,,,,,,map,,,,,,,,,,,4,0,0,50,50,30,1,,,,,,,,,,,,,,,,,,,,,,,,,,,,,,,,,,,,,,,,,,,,,,,,,,,,,,,,,,,,,,,,,,,,,,
,,?,0.00036,0,,,,,,stimuli/images/PICTURE_491.png,WRITER,5a6fa677c2eb6c00017e042e,2020-06-30_11h44.54.564,proactive,2020.1.2,Win32,60,5efb791ed4cb570da489e737,5efb871502c30e103feb79be,2,,,,,,rug,,,,,,,,,,,6,0,0,51,51,57,1,,,,,,,,,,,,,,,,,,,,,,,,,,,,,,,,,,,,,,,,,,,,,,,,,,,,,,,,,,,,,,,,,,,,,,
,,?,0.000335,0,,,,,,stimuli/images/PICTURE_233.png,IDEAS,5a6fa677c2eb6c00017e042e,2020-06-30_11h44.54.564,proactive,2020.1.2,Win32,60,5efb791ed4cb570da489e737,5efb871502c30e103feb79be,2,,,,,,salt,,,,,,,,,,,3,0,0,52,52,28,1,,,,,,,,,,,,,,,,,,,,,,,,,,,,,,,,,,,,,,,,,,,,,,,,,,,,,,,,,,,,,,,,,,,,,,
,,?,0.000345,0,,,,,,stimuli/images/PICTURE_449.png,THING,5a6fa677c2eb6c00017e042e,2020-06-30_11h44.54.564,proactive,2020.1.2,Win32,60,5efb791ed4cb570da489e737,5efb871502c30e103feb79be,2,,,,,,bench,,,,,,,,,,,6,0,0,53,53,59,1,,,,,,,,,,,,,,,,,,,,,,,,,,,,,,,,,,,,,,,,,,,,,,,,,,,,,,,,,,,,,,,,,,,,,,
,,?,0.000405,0,,,,,,stimuli/images/PICTURE_147.png,MOMENT,5a6fa677c2eb6c00017e042e,2020-06-30_11h44.54.564,proactive,2020.1.2,Win32,60,5efb791ed4cb570da489e737,5efb871502c30e103feb79be,2,,,,,,hanger,,,,,,,,,,,6,0,0,54,54,51,1,,,,,,,,,,,,,,,,,,,,,,,,,,,,,,,,,,,,,,,,,,,,,,,,,,,,,,,,,,,,,,,,,,,,,,
,,?,0.000535,0,,,,,,stimuli/images/PICTURE_248.png,DOZEN,5a6fa677c2eb6c00017e042e,2020-06-30_11h44.54.564,proactive,2020.1.2,Win32,60,5efb791ed4cb570da489e737,5efb871502c30e103feb79be,2,,,,,,cart,,,,,,,,,,,4,0,0,55,55,39,1,,,,,,,,,,,,,,,,,,,,,,,,,,,,,,,,,,,,,,,,,,,,,,,,,,,,,,,,,,,,,,,,,,,,,,
,,?,0.000335,0,,,,,,stimuli/images/PICTURE_667.png,PLENTY,5a6fa677c2eb6c00017e042e,2020-06-30_11h44.54.564,proactive,2020.1.2,Win32,60,5efb791ed4cb570da489e737,5efb871502c30e103feb79be,2,,,,,,daisy,,,,,,,,,,,5,0,0,56,56,41,1,,,,,,,,,,,,,,,,,,,,,,,,,,,,,,,,,,,,,,,,,,,,,,,,,,,,,,,,,,,,,,,,,,,,,,
,,?,0.00033,0,,,,,,stimuli/images/PICTURE_469.png,ARTIST,5a6fa677c2eb6c00017e042e,2020-06-30_11h44.54.564,proactive,2020.1.2,Win32,60,5efb791ed4cb570da489e737,5efb871502c30e103feb79be,2,,,,,,stool,,,,,,,,,,,1,0,0,57,57,6,1,,,,,,,,,,,,,,,,,,,,,,,,,,,,,,,,,,,,,,,,,,,,,,,,,,,,,,,,,,,,,,,,,,,,,,
,,?,0.000355,0,,,,,,stimuli/images/PICTURE_488.png,STYLE,5a6fa677c2eb6c00017e042e,2020-06-30_11h44.54.564,proactive,2020.1.2,Win32,60,5efb791ed4cb570da489e737,5efb871502c30e103feb79be,2,,,,,,sun,,,,,,,,,,,4,0,0,58,58,33,1,,,,,,,,,,,,,,,,,,,,,,,,,,,,,,,,,,,,,,,,,,,,,,,,,,,,,,,,,,,,,,,,,,,,,,
,,?,0.000465,0,,,,,,stimuli/images/PICTURE_311.png,FRIEND,5a6fa677c2eb6c00017e042e,2020-06-30_11h44.54.564,proactive,2020.1.2,Win32,60,5efb791ed4cb570da489e737,5efb871502c30e103feb79be,2,,,,,,razor,,,,,,,,,,,4,0,0,59,59,34,1,,,,,,,,,,,,,,,,,,,,,,,,,,,,,,,,,,,,,,,,,,,,,,,,,,,,,,,,,,,,,,,,,,,,,,
,,,,,,,,,,,,5a6fa677c2eb6c00017e042e,2020-06-30_11h44.54.564,proactive,2020.1.2,Win32,60,5efb791ed4cb570da489e737,5efb871502c30e103feb79be,2,,,,,,,,,,,,,,,,,,,,,,,,0,0,0,0,1,stimuli/learn-block1.csv,,,,,,,,,,,,,,,,,,,,,,,,,,,,,,,,,,,,,,,,,,,,,,,,,,,,,,,,,,,,,,,,
,,,,,,,,,,stimuli/images/PICTURE_677.png,PHOTO,5a6fa677c2eb6c00017e042e,2020-06-30_11h44.54.564,proactive,2020.1.2,Win32,60,5efb791ed4cb570da489e737,5efb871502c30e103feb79be,2,,,,,,map,,,,,,0,0,0,14,1,2,2,,,,,,,,,,,,,,,,,,,,,,,,,,,,,,,,,,,,,,,,,,,,,,,,,,,,,,,,,,,,,,,,,,,,,,,,,,,
,,,,,,,,,,stimuli/images/PICTURE_453.png,FAMILY,5a6fa677c2eb6c00017e042e,2020-06-30_11h44.54.564,proactive,2020.1.2,Win32,60,5efb791ed4cb570da489e737,5efb871502c30e103feb79be,2,,,,,,scissors,,,,,,0,1,1,48,1,5,2,,,,,,,,,,,,,,,,,,,,,,,,,,,,,,,,,,,,,,,,,,,,,,,,,,,,,,,,,,,,,,,,,,,,,,,,,,,
,,,,,,,,,,stimuli/images/PICTURE_123.png,SALE,5a6fa677c2eb6c00017e042e,2020-06-30_11h44.54.564,proactive,2020.1.2,Win32,60,5efb791ed4cb570da489e737,5efb871502c30e103feb79be,2,,,,,,dart,,,,,,0,2,2,8,1,1,2,,,,,,,,,,,,,,,,,,,,,,,,,,,,,,,,,,,,,,,,,,,,,,,,,,,,,,,,,,,,,,,,,,,,,,,,,,,
,,,,,,,,,,stimuli/images/PICTURE_654.png,COPS,5a6fa677c2eb6c00017e042e,2020-06-30_11h44.54.564,proactive,2020.1.2,Win32,60,5efb791ed4cb570da489e737,5efb871502c30e103feb79be,2,,,,,,pencil,,,,,,0,3,3,10,1,2,2,,,,,,,,,,,,,,,,,,,,,,,,,,,,,,,,,,,,,,,,,,,,,,,,,,,,,,,,,,,,,,,,,,,,,,,,,,,
,,,,,,,,,,stimuli/images/PICTURE_208.png,SPIRIT,5a6fa677c2eb6c00017e042e,2020-06-30_11h44.54.564,proactive,2020.1.2,Win32,60,5efb791ed4cb570da489e737,5efb871502c30e103feb79be,2,,,,,,microphone,,,,,,0,4,4,28,1,3,2,,,,,,,,,,,,,,,,,,,,,,,,,,,,,,,,,,,,,,,,,,,,,,,,,,,,,,,,,,,,,,,,,,,,,,,,,,,
,,,,,,,,,,stimuli/images/PICTURE_2.png,AREA,5a6fa677c2eb6c00017e042e,2020-06-30_11h44.54.564,proactive,2020.1.2,Win32,60,5efb791ed4cb570da489e737,5efb871502c30e103feb79be,2,,,,,,tyre,,,,,,0,5,5,32,1,4,2,,,,,,,,,,,,,,,,,,,,,,,,,,,,,,,,,,,,,,,,,,,,,,,,,,,,,,,,,,,,,,,,,,,,,,,,,,,
,,,,,,,,,,stimuli/images/PICTURE_311.png,FLESH,5a6fa677c2eb6c00017e042e,2020-06-30_11h44.54.564,proactive,2020.1.2,Win32,60,5efb791ed4cb570da489e737,5efb871502c30e103feb79be,2,,,,,,razor,,,,,,0,6,6,3,1,1,2,,,,,,,,,,,,,,,,,,,,,,,,,,,,,,,,,,,,,,,,,,,,,,,,,,,,,,,,,,,,,,,,,,,,,,,,,,,
,,,,,,,,,,stimuli/images/PICTURE_487.png,ROOF,5a6fa677c2eb6c00017e042e,2020-06-30_11h44.54.564,proactive,2020.1.2,Win32,60,5efb791ed4cb570da489e737,5efb871502c30e103feb79be,2,,,,,,basket,,,,,,0,7,7,50,1,6,2,,,,,,,,,,,,,,,,,,,,,,,,,,,,,,,,,,,,,,,,,,,,,,,,,,,,,,,,,,,,,,,,,,,,,,,,,,,
,,,,,,,,,,stimuli/images/PICTURE_68.png,KIND,5a6fa677c2eb6c00017e042e,2020-06-30_11h44.54.564,proactive,2020.1.2,Win32,60,5efb791ed4cb570da489e737,5efb871502c30e103feb79be,2,,,,,,candle,,,,,,0,8,8,23,1,3,2,,,,,,,,,,,,,,,,,,,,,,,,,,,,,,,,,,,,,,,,,,,,,,,,,,,,,,,,,,,,,,,,,,,,,,,,,,,
,,,,,,,,,,stimuli/images/PICTURE_93.png,GIRL,5a6fa677c2eb6c00017e042e,2020-06-30_11h44.54.564,proactive,2020.1.2,Win32,60,5efb791ed4cb570da489e737,5efb871502c30e103feb79be,2,,,,,,skateboard,,,,,,0,9,9,31,1,4,2,,,,,,,,,,,,,,,,,,,,,,,,,,,,,,,,,,,,,,,,,,,,,,,,,,,,,,,,,,,,,,,,,,,,,,,,,,,
,,,,,,,,,,stimuli/images/PICTURE_677.png,FAMILY,5a6fa677c2eb6c00017e042e,2020-06-30_11h44.54.564,proactive,2020.1.2,Win32,60,5efb791ed4cb570da489e737,5efb871502c30e103feb79be,2,,,,,,map,,,,,,0,10,10,53,1,6,2,,,,,,,,,,,,,,,,,,,,,,,,,,,,,,,,,,,,,,,,,,,,,,,,,,,,,,,,,,,,,,,,,,,,,,,,,,,
,,,,,,,,,,stimuli/images/PICTURE_215.png,BOYS,5a6fa677c2eb6c00017e042e,2020-06-30_11h44.54.564,proactive,2020.1.2,Win32,60,5efb791ed4cb570da489e737,5efb871502c30e103feb79be,2,,,,,,boot,,,,,,0,11,11,24,1,3,2,,,,,,,,,,,,,,,,,,,,,,,,,,,,,,,,,,,,,,,,,,,,,,,,,,,,,,,,,,,,,,,,,,,,,,,,,,,
,,,,,,,,,,stimuli/images/PICTURE_141.png,CLIENT,5a6fa677c2eb6c00017e042e,2020-06-30_11h44.54.564,proactive,2020.1.2,Win32,60,5efb791ed4cb570da489e737,5efb871502c30e103feb79be,2,,,,,,sunflower,,,,,,0,12,12,30,1,4,2,,,,,,,,,,,,,,,,,,,,,,,,,,,,,,,,,,,,,,,,,,,,,,,,,,,,,,,,,,,,,,,,,,,,,,,,,,,
,,,,,,,,,,stimuli/images/PICTURE_215.png,FOOD,5a6fa677c2eb6c00017e042e,2020-06-30_11h44.54.564,proactive,2020.1.2,Win32,60,5efb791ed4cb570da489e737,5efb871502c30e103feb79be,2,,,,,,boot,,,,,,0,13,13,5,1,1,2,,,,,,,,,,,,,,,,,,,,,,,,,,,,,,,,,,,,,,,,,,,,,,,,,,,,,,,,,,,,,,,,,,,,,,,,,,,
,,,,,,,,,,stimuli/images/PICTURE_667.png,GLASS,5a6fa677c2eb6c00017e042e,2020-06-30_11h44.54.564,proactive,2020.1.2,Win32,60,5efb791ed4cb570da489e737,5efb871502c30e103feb79be,2,,,,,,daisy,,,,,,0,14,14,27,1,3,2,,,,,,,,,,,,,,,,,,,,,,,,,,,,,,,,,,,,,,,,,,,,,,,,,,,,,,,,,,,,,,,,,,,,,,,,,,,
,,,,,,,,,,stimuli/images/PICTURE_403.png,FAMILY,5a6fa677c2eb6c00017e042e,2020-06-30_11h44.54.564,proactive,2020.1.2,Win32,60,5efb791ed4cb570da489e737,5efb871502c30e103feb79be,2,,,,,,cathedral,,,,,,0,15,15,9,1,1,2,,,,,,,,,,,,,,,,,,,,,,,,,,,,,,,,,,,,,,,,,,,,,,,,,,,,,,,,,,,,,,,,,,,,,,,,,,,
,,,,,,,,,,stimuli/images/PICTURE_18.png,RIVER,5a6fa677c2eb6c00017e042e,2020-06-30_11h44.54.564,proactive,2020.1.2,Win32,60,5efb791ed4cb570da489e737,5efb871502c30e103feb79be,2,,,,,,planet,,,,,,0,16,16,22,1,3,2,,,,,,,,,,,,,,,,,,,,,,,,,,,,,,,,,,,,,,,,,,,,,,,,,,,,,,,,,,,,,,,,,,,,,,,,,,,
,,,,,,,,,,stimuli/images/PICTURE_2.png,JUNGLE,5a6fa677c2eb6c00017e042e,2020-06-30_11h44.54.564,proactive,2020.1.2,Win32,60,5efb791ed4cb570da489e737,5efb871502c30e103feb79be,2,,,,,,tyre,,,,,,0,17,17,1,1,1,2,,,,,,,,,,,,,,,,,,,,,,,,,,,,,,,,,,,,,,,,,,,,,,,,,,,,,,,,,,,,,,,,,,,,,,,,,,,
,,,,,,,,,,stimuli/images/PICTURE_654.png,YEAR,5a6fa677c2eb6c00017e042e,2020-06-30_11h44.54.564,proactive,2020.1.2,Win32,60,5efb791ed4cb570da489e737,5efb871502c30e103feb79be,2,,,,,,pencil,,,,,,0,18,18,41,1,5,2,,,,,,,,,,,,,,,,,,,,,,,,,,,,,,,,,,,,,,,,,,,,,,,,,,,,,,,,,,,,,,,,,,,,,,,,,,,
,,,,,,,,,,stimuli/images/PICTURE_57.png,CASINO,5a6fa677c2eb6c00017e042e,2020-06-30_11h44.54.564,proactive,2020.1.2,Win32,60,5efb791ed4cb570da489e737,5efb871502c30e103feb79be,2,,,,,,stamp,,,,,,0,19,19,12,1,2,2,,,,,,,,,,,,,,,,,,,,,,,,,,,,,,,,,,,,,,,,,,,,,,,,,,,,,,,,,,,,,,,,,,,,,,,,,,,
,,,,,,,,,,stimuli/images/PICTURE_688.png,CLOCK,5a6fa677c2eb6c00017e042e,2020-06-30_11h44.54.564,proactive,2020.1.2,Win32,60,5efb791ed4cb570da489e737,5efb871502c30e103feb79be,2,,,,,,runner,,,,,,0,20,20,42,1,5,2,,,,,,,,,,,,,,,,,,,,,,,,,,,,,,,,,,,,,,,,,,,,,,,,,,,,,,,,,,,,,,,,,,,,,,,,,,,
,,,,,,,,,,stimuli/images/PICTURE_470.png,BEAUTY,5a6fa677c2eb6c00017e042e,2020-06-30_11h44.54.564,proactive,2020.1.2,Win32,60,5efb791ed4cb570da489e737,5efb871502c30e103feb79be,2,,,,,,motorbike,,,,,,0,21,21,26,1,3,2,,,,,,,,,,,,,,,,,,,,,,,,,,,,,,,,,,,,,,,,,,,,,,,,,,,,,,,,,,,,,,,,,,,,,,,,,,,
,,,,,,,,,,stimuli/images/PICTURE_57.png,CANDY,5a6fa677c2eb6c00017e042e,2020-06-30_11h44.54.564,proactive,2020.1.2,Win32,60,5efb791ed4cb570da489e737,5efb871502c30e103feb79be,2,,,,,,stamp,,,,,,0,22,22,52,1,6,2,,,,,,,,,,,,,,,,,,,,,,,,,,,,,,,,,,,,,,,,,,,,,,,,,,,,,,,,,,,,,,,,,,,,,,,,,,,
,,,,,,,,,,stimuli/images/PICTURE_32.png,LETTER,5a6fa677c2eb6c00017e042e,2020-06-30_11h44.54.564,proactive,2020.1.2,Win32,60,5efb791ed4cb570da489e737,5efb871502c30e103feb79be,2,,,,,,crown,,,,,,0,23,23,56,1,6,2,,,,,,,,,,,,,,,,,,,,,,,,,,,,,,,,,,,,,,,,,,,,,,,,,,,,,,,,,,,,,,,,,,,,,,,,,,,
,,,,,,,,,,stimuli/images/PICTURE_285.png,PRINCE,5a6fa677c2eb6c00017e042e,2020-06-30_11h44.54.564,proactive,2020.1.2,Win32,60,5efb791ed4cb570da489e737,5efb871502c30e103feb79be,2,,,,,,carrot,,,,,,0,24,24,20,1,3,2,,,,,,,,,,,,,,,,,,,,,,,,,,,,,,,,,,,,,,,,,,,,,,,,,,,,,,,,,,,,,,,,,,,,,,,,,,,
,,,,,,,,,,stimuli/images/PICTURE_405.png,HOUSE,5a6fa677c2eb6c00017e042e,2020-06-30_11h44.54.564,proactive,2020.1.2,Win32,60,5efb791ed4cb570da489e737,5efb871502c30e103feb79be,2,,,,,,anchor,,,,,,0,25,25,2,1,1,2,,,,,,,,,,,,,,,,,,,,,,,,,,,,,,,,,,,,,,,,,,,,,,,,,,,,,,,,,,,,,,,,,,,,,,,,,,,
,,,,,,,,,,stimuli/images/PICTURE_487.png,POLICY,5a6fa677c2eb6c00017e042e,2020-06-30_11h44.54.564,proactive,2020.1.2,Win32,60,5efb791ed4cb570da489e737,5efb871502c30e103feb79be,2,,,,,,basket,,,,,,0,26,26,34,1,4,2,,,,,,,,,,,,,,,,,,,,,,,,,,,,,,,,,,,,,,,,,,,,,,,,,,,,,,,,,,,,,,,,,,,,,,,,,,,
,,,,,,,,,,stimuli/images/PICTURE_509.png,APPLE,5a6fa677c2eb6c00017e042e,2020-06-30_11h44.54.564,proactive,2020.1.2,Win32,60,5efb791ed4cb570da489e737,5efb871502c30e103feb79be,2,,,,,,telephone,,,,,,0,27,27,38,1,4,2,,,,,,,,,,,,,,,,,,,,,,,,,,,,,,,,,,,,,,,,,,,,,,,,,,,,,,,,,,,,,,,,,,,,,,,,,,,
,,,,,,,,,,stimuli/images/PICTURE_255.png,PENNY,5a6fa677c2eb6c00017e042e,2020-06-30_11h44.54.564,proactive,2020.1.2,Win32,60,5efb791ed4cb570da489e737,5efb871502c30e103feb79be,2,,,,,,shovel,,,,,,0,28,28,19,1,2,2,,,,,,,,,,,,,,,,,,,,,,,,,,,,,,,,,,,,,,,,,,,,,,,,,,,,,,,,,,,,,,,,,,,,,,,,,,,
,,,,,,,,,,stimuli/images/PICTURE_147.png,LEADER,5a6fa677c2eb6c00017e042e,2020-06-30_11h44.54.564,proactive,2020.1.2,Win32,60,5efb791ed4cb570da489e737,5efb871502c30e103feb79be,2,,,,,,hanger,,,,,,0,29,29,33,1,4,2,,,,,,,,,,,,,,,,,,,,,,,,,,,,,,,,,,,,,,,,,,,,,,,,,,,,,,,,,,,,,,,,,,,,,,,,,,,
,,,,,,,,,,stimuli/images/PICTURE_405.png,JUNGLE,5a6fa677c2eb6c00017e042e,2020-06-30_11h44.54.564,proactive,2020.1.2,Win32,60,5efb791ed4cb570da489e737,5efb871502c30e103feb79be,2,,,,,,anchor,,,,,,0,30,30,58,1,6,2,,,,,,,,,,,,,,,,,,,,,,,,,,,,,,,,,,,,,,,,,,,,,,,,,,,,,,,,,,,,,,,,,,,,,,,,,,,
,,,,,,,,,,stimuli/images/PICTURE_57.png,NATION,5a6fa677c2eb6c00017e042e,2020-06-30_11h44.54.564,proactive,2020.1.2,Win32,60,5efb791ed4cb570da489e737,5efb871502c30e103feb79be,2,,,,,,stamp,,,,,,0,31,31,21,1,3,2,,,,,,,,,,,,,,,,,,,,,,,,,,,,,,,,,,,,,,,,,,,,,,,,,,,,,,,,,,,,,,,,,,,,,,,,,,,
,,,,,,,,,,stimuli/images/PICTURE_470.png,MOMENT,5a6fa677c2eb6c00017e042e,2020-06-30_11h44.54.564,proactive,2020.1.2,Win32,60,5efb791ed4cb570da489e737,5efb871502c30e103feb79be,2,,,,,,motorbike,,,,,,0,32,32,40,1,5,2,,,,,,,,,,,,,,,,,,,,,,,,,,,,,,,,,,,,,,,,,,,,,,,,,,,,,,,,,,,,,,,,,,,,,,,,,,,
,,,,,,,,,,stimuli/images/PICTURE_405.png,JUNGLE,5a6fa677c2eb6c00017e042e,2020-06-30_11h44.54.564,proactive,2020.1.2,Win32,60,5efb791ed4cb570da489e737,5efb871502c30e103feb79be,2,,,,,,anchor,,,,,,0,33,33,13,1,2,2,,,,,,,,,,,,,,,,,,,,,,,,,,,,,,,,,,,,,,,,,,,,,,,,,,,,,,,,,,,,,,,,,,,,,,,,,,,
,,,,,,,,,,stimuli/images/PICTURE_311.png,TOILET,5a6fa677c2eb6c00017e042e,2020-06-30_11h44.54.564,proactive,2020.1.2,Win32,60,5efb791ed4cb570da489e737,5efb871502c30e103feb79be,2,,,,,,razor,,,,,,0,34,34,54,1,6,2,,,,,,,,,,,,,,,,,,,,,,,,,,,,,,,,,,,,,,,,,,,,,,,,,,,,,,,,,,,,,,,,,,,,,,,,,,,
,,,,,,,,,,stimuli/images/PICTURE_750.png,POLICY,5a6fa677c2eb6c00017e042e,2020-06-30_11h44.54.564,proactive,2020.1.2,Win32,60,5efb791ed4cb570da489e737,5efb871502c30e103feb79be,2,,,,,,kettle,,,,,,0,35,35,44,1,5,2,,,,,,,,,,,,,,,,,,,,,,,,,,,,,,,,,,,,,,,,,,,,,,,,,,,,,,,,,,,,,,,,,,,,,,,,,,,
,,,,,,,,,,stimuli/images/PICTURE_564.png,PLENTY,5a6fa677c2eb6c00017e042e,2020-06-30_11h44.54.564,proactive,2020.1.2,Win32,60,5efb791ed4cb570da489e737,5efb871502c30e103feb79be,2,,,,,,spoon,,,,,,0,36,36,11,1,2,2,,,,,,,,,,,,,,,,,,,,,,,,,,,,,,,,,,,,,,,,,,,,,,,,,,,,,,,,,,,,,,,,,,,,,,,,,,,
,,,,,,,,,,stimuli/images/PICTURE_452.png,COPS,5a6fa677c2eb6c00017e042e,2020-06-30_11h44.54.564,proactive,2020.1.2,Win32,60,5efb791ed4cb570da489e737,5efb871502c30e103feb79be,2,,,,,,watch,,,,,,0,37,37,0,1,1,2,,,,,,,,,,,,,,,,,,,,,,,,,,,,,,,,,,,,,,,,,,,,,,,,,,,,,,,,,,,,,,,,,,,,,,,,,,,
,,,,,,,,,,stimuli/images/PICTURE_95.png,NIGHT,5a6fa677c2eb6c00017e042e,2020-06-30_11h44.54.564,proactive,2020.1.2,Win32,60,5efb791ed4cb570da489e737,5efb871502c30e103feb79be,2,,,,,,suitcase,,,,,,0,38,38,37,1,4,2,,,,,,,,,,,,,,,,,,,,,,,,,,,,,,,,,,,,,,,,,,,,,,,,,,,,,,,,,,,,,,,,,,,,,,,,,,,
,,,,,,,,,,stimuli/images/PICTURE_296.png,CLOCK,5a6fa677c2eb6c00017e042e,2020-06-30_11h44.54.564,proactive,2020.1.2,Win32,60,5efb791ed4cb570da489e737,5efb871502c30e103feb79be,2,,,,,,bolt,,,,,,0,39,39,18,1,2,2,,,,,,,,,,,,,,,,,,,,,,,,,,,,,,,,,,,,,,,,,,,,,,,,,,,,,,,,,,,,,,,,,,,,,,,,,,,
,,,,,,,,,,stimuli/images/PICTURE_708.png,VALLEY,5a6fa677c2eb6c00017e042e,2020-06-30_11h44.54.564,proactive,2020.1.2,Win32,60,5efb791ed4cb570da489e737,5efb871502c30e103feb79be,2,,,,,,monkey,,,,,,0,40,40,45,1,5,2,,,,,,,,,,,,,,,,,,,,,,,,,,,,,,,,,,,,,,,,,,,,,,,,,,,,,,,,,,,,,,,,,,,,,,,,,,,
,,,,,,,,,,stimuli/images/PICTURE_314.png,SPEECH,5a6fa677c2eb6c00017e042e,2020-06-30_11h44.54.564,proactive,2020.1.2,Win32,60,5efb791ed4cb570da489e737,5efb871502c30e103feb79be,2,,,,,,perfume,,,,,,0,41,41,35,1,4,2,,,,,,,,,,,,,,,,,,,,,,,,,,,,,,,,,,,,,,,,,,,,,,,,,,,,,,,,,,,,,,,,,,,,,,,,,,,
,,,,,,,,,,stimuli/images/PICTURE_655.png,SALE,5a6fa677c2eb6c00017e042e,2020-06-30_11h44.54.564,proactive,2020.1.2,Win32,60,5efb791ed4cb570da489e737,5efb871502c30e103feb79be,2,,,,,,megaphone,,,,,,0,42,42,57,1,6,2,,,,,,,,,,,,,,,,,,,,,,,,,,,,,,,,,,,,,,,,,,,,,,,,,,,,,,,,,,,,,,,,,,,,,,,,,,,
,,,,,,,,,,stimuli/images/PICTURE_215.png,LEADER,5a6fa677c2eb6c00017e042e,2020-06-30_11h44.54.564,proactive,2020.1.2,Win32,60,5efb791ed4cb570da489e737,5efb871502c30e103feb79be,2,,,,,,boot,,,,,,0,43,43,43,1,5,2,,,,,,,,,,,,,,,,,,,,,,,,,,,,,,,,,,,,,,,,,,,,,,,,,,,,,,,,,,,,,,,,,,,,,,,,,,,
,,,,,,,,,,stimuli/images/PICTURE_356.png,CANDY,5a6fa677c2eb6c00017e042e,2020-06-30_11h44.54.564,proactive,2020.1.2,Win32,60,5efb791ed4cb570da489e737,5efb871502c30e103feb79be,2,,,,,,pawn,,,,,,0,44,44,46,1,5,2,,,,,,,,,,,,,,,,,,,,,,,,,,,,,,,,,,,,,,,,,,,,,,,,,,,,,,,,,,,,,,,,,,,,,,,,,,,
,,,,,,,,,,stimuli/images/PICTURE_491.png,SERIES,5a6fa677c2eb6c00017e042e,2020-06-30_11h44.54.564,proactive,2020.1.2,Win32,60,5efb791ed4cb570da489e737,5efb871502c30e103feb79be,2,,,,,,rug,,,,,,0,45,45,39,1,4,2,,,,,,,,,,,,,,,,,,,,,,,,,,,,,,,,,,,,,,,,,,,,,,,,,,,,,,,,,,,,,,,,,,,,,,,,,,,
,,,,,,,,,,stimuli/images/PICTURE_327.png,LEADER,5a6fa677c2eb6c00017e042e,2020-06-30_11h44.54.564,proactive,2020.1.2,Win32,60,5efb791ed4cb570da489e737,5efb871502c30e103feb79be,2,,,,,,helmet,,,,,,0,46,46,17,1,2,2,,,,,,,,,,,,,,,,,,,,,,,,,,,,,,,,,,,,,,,,,,,,,,,,,,,,,,,,,,,,,,,,,,,,,,,,,,,
,,,,,,,,,,stimuli/images/PICTURE_348.png,TOILET,5a6fa677c2eb6c00017e042e,2020-06-30_11h44.54.564,proactive,2020.1.2,Win32,60,5efb791ed4cb570da489e737,5efb871502c30e103feb79be,2,,,,,,pepper,,,,,,0,47,47,4,1,1,2,,,,,,,,,,,,,,,,,,,,,,,,,,,,,,,,,,,,,,,,,,,,,,,,,,,,,,,,,,,,,,,,,,,,,,,,,,,
,,,,,,,,,,stimuli/images/PICTURE_509.png,MILLER,5a6fa677c2eb6c00017e042e,2020-06-30_11h44.54.564,proactive,2020.1.2,Win32,60,5efb791ed4cb570da489e737,5efb871502c30e103feb79be,2,,,,,,telephone,,,,,,0,48,48,49,1,5,2,,,,,,,,,,,,,,,,,,,,,,,,,,,,,,,,,,,,,,,,,,,,,,,,,,,,,,,,,,,,,,,,,,,,,,,,,,,
,,,,,,,,,,stimuli/images/PICTURE_692.png,DUDE,5a6fa677c2eb6c00017e042e,2020-06-30_11h44.54.564,proactive,2020.1.2,Win32,60,5efb791ed4cb570da489e737,5efb871502c30e103feb79be,2,,,,,,cherry,,,,,,0,49,49,47,1,5,2,,,,,,,,,,,,,,,,,,,,,,,,,,,,,,,,,,,,,,,,,,,,,,,,,,,,,,,,,,,,,,,,,,,,,,,,,,,
,,,,,,,,,,stimuli/images/PICTURE_177.png,HOUSE,5a6fa677c2eb6c00017e042e,2020-06-30_11h44.54.564,proactive,2020.1.2,Win32,60,5efb791ed4cb570da489e737,5efb871502c30e103feb79be,2,,,,,,mushroom,,,,,,0,50,50,25,1,3,2,,,,,,,,,,,,,,,,,,,,,,,,,,,,,,,,,,,,,,,,,,,,,,,,,,,,,,,,,,,,,,,,,,,,,,,,,,,
,,,,,,,,,,stimuli/images/PICTURE_2.png,YARD,5a6fa677c2eb6c00017e042e,2020-06-30_11h44.54.564,proactive,2020.1.2,Win32,60,5efb791ed4cb570da489e737,5efb871502c30e103feb79be,2,,,,,,tyre,,,,,,0,51,51,55,1,6,2,,,,,,,,,,,,,,,,,,,,,,,,,,,,,,,,,,,,,,,,,,,,,,,,,,,,,,,,,,,,,,,,,,,,,,,,,,,
,,,,,,,,,,stimuli/images/PICTURE_348.png,DUDE,5a6fa677c2eb6c00017e042e,2020-06-30_11h44.54.564,proactive,2020.1.2,Win32,60,5efb791ed4cb570da489e737,5efb871502c30e103feb79be,2,,,,,,pepper,,,,,,0,52,52,59,1,6,2,,,,,,,,,,,,,,,,,,,,,,,,,,,,,,,,,,,,,,,,,,,,,,,,,,,,,,,,,,,,,,,,,,,,,,,,,,,
,,,,,,,,,,stimuli/images/PICTURE_285.png,WRITER,5a6fa677c2eb6c00017e042e,2020-06-30_11h44.54.564,proactive,2020.1.2,Win32,60,5efb791ed4cb570da489e737,5efb871502c30e103feb79be,2,,,,,,carrot,,,,,,0,53,53,6,1,1,2,,,,,,,,,,,,,,,,,,,,,,,,,,,,,,,,,,,,,,,,,,,,,,,,,,,,,,,,,,,,,,,,,,,,,,,,,,,
,,,,,,,,,,stimuli/images/PICTURE_160.png,HOTEL,5a6fa677c2eb6c00017e042e,2020-06-30_11h44.54.564,proactive,2020.1.2,Win32,60,5efb791ed4cb570da489e737,5efb871502c30e103feb79be,2,,,,,,wheelbarrow,,,,,,0,54,54,16,1,2,2,,,,,,,,,,,,,,,,,,,,,,,,,,,,,,,,,,,,,,,,,,,,,,,,,,,,,,,,,,,,,,,,,,,,,,,,,,,
,,,,,,,,,,stimuli/images/PICTURE_297.png,BODY,5a6fa677c2eb6c00017e042e,2020-06-30_11h44.54.564,proactive,2020.1.2,Win32,60,5efb791ed4cb570da489e737,5efb871502c30e103feb79be,2,,,,,,aeroplane,,,,,,0,55,55,51,1,6,2,,,,,,,,,,,,,,,,,,,,,,,,,,,,,,,,,,,,,,,,,,,,,,,,,,,,,,,,,,,,,,,,,,,,,,,,,,,
,,,,,,,,,,stimuli/images/PICTURE_509.png,BATH,5a6fa677c2eb6c00017e042e,2020-06-30_11h44.54.564,proactive,2020.1.2,Win32,60,5efb791ed4cb570da489e737,5efb871502c30e103feb79be,2,,,,,,telephone,,,,,,0,56,56,15,1,2,2,,,,,,,,,,,,,,,,,,,,,,,,,,,,,,,,,,,,,,,,,,,,,,,,,,,,,,,,,,,,,,,,,,,,,,,,,,,
,,,,,,,,,,stimuli/images/PICTURE_33.png,COPS,5a6fa677c2eb6c00017e042e,2020-06-30_11h44.54.564,proactive,2020.1.2,Win32,60,5efb791ed4cb570da489e737,5efb871502c30e103feb79be,2,,,,,,frame,,,,,,0,57,57,29,1,3,2,,,,,,,,,,,,,,,,,,,,,,,,,,,,,,,,,,,,,,,,,,,,,,,,,,,,,,,,,,,,,,,,,,,,,,,,,,,
,,,,,,,,,,stimuli/images/PICTURE_504.png,HOUSE,5a6fa677c2eb6c00017e042e,2020-06-30_11h44.54.564,proactive,2020.1.2,Win32,60,5efb791ed4cb570da489e737,5efb871502c30e103feb79be,2,,,,,,wheel,,,,,,0,58,58,36,1,4,2,,,,,,,,,,,,,,,,,,,,,,,,,,,,,,,,,,,,,,,,,,,,,,,,,,,,,,,,,,,,,,,,,,,,,,,,,,,
,,?,0.00057,0,,,,,,stimuli/images/PICTURE_57.png,CANDY,5a6fa677c2eb6c00017e042e,2020-06-30_11h44.54.564,proactive,2020.1.2,Win32,60,5efb791ed4cb570da489e737,5efb871502c30e103feb79be,2,,,,,,stamp,,,,,,,,,,,6,2,0,0,0,52,1,,,,,,,,,,,,,,,,,,,,,,,,,,,,,,,,,,,,,,,,,,,,,,,,,,,,,,,,,,,,,,,,,,,,,,
,,WORLD,3.59575,0,,,,,,stimuli/images/PICTURE_57.png,CASINO,5a6fa677c2eb6c00017e042e,2020-06-30_11h44.54.564,proactive,2020.1.2,Win32,60,5efb791ed4cb570da489e737,5efb871502c30e103feb79be,2,,,,,,stamp,,,,,,,,,,,2,2,0,1,1,12,1,,,,,,,,,,,,,,,,,,,,,,,,,,,,,,,,,,,,,,,,,,,,,,,,,,,,,,,,,,,,,,,,,,,,,,
,,?,0.00068,0,,,,,,stimuli/images/PICTURE_123.png,SALE,5a6fa677c2eb6c00017e042e,2020-06-30_11h44.54.564,proactive,2020.1.2,Win32,60,5efb791ed4cb570da489e737,5efb871502c30e103feb79be,2,,,,,,dart,,,,,,,,,,,1,2,0,2,2,8,1,,,,,,,,,,,,,,,,,,,,,,,,,,,,,,,,,,,,,,,,,,,,,,,,,,,,,,,,,,,,,,,,,,,,,,
,,?,0.00047,0,,,,,,stimuli/images/PICTURE_452.png,COPS,5a6fa677c2eb6c00017e042e,2020-06-30_11h44.54.564,proactive,2020.1.2,Win32,60,5efb791ed4cb570da489e737,5efb871502c30e103feb79be,2,,,,,,watch,,,,,,,,,,,1,2,0,3,3,0,1,,,,,,,,,,,,,,,,,,,,,,,,,,,,,,,,,,,,,,,,,,,,,,,,,,,,,,,,,,,,,,,,,,,,,,
,,?,0.000415,0,,,,,,stimuli/images/PICTURE_215.png,BOYS,5a6fa677c2eb6c00017e042e,2020-06-30_11h44.54.564,proactive,2020.1.2,Win32,60,5efb791ed4cb570da489e737,5efb871502c30e103feb79be,2,,,,,,boot,,,,,,,,,,,3,2,0,4,4,24,1,,,,,,,,,,,,,,,,,,,,,,,,,,,,,,,,,,,,,,,,,,,,,,,,,,,,,,,,,,,,,,,,,,,,,,
,,?,0.000535,0,,,,,,stimuli/images/PICTURE_405.png,JUNGLE,5a6fa677c2eb6c00017e042e,2020-06-30_11h44.54.564,proactive,2020.1.2,Win32,60,5efb791ed4cb570da489e737,5efb871502c30e103feb79be,2,,,,,,anchor,,,,,,,,,,,6,2,0,5,5,58,1,,,,,,,,,,,,,,,,,,,,,,,,,,,,,,,,,,,,,,,,,,,,,,,,,,,,,,,,,,,,,,,,,,,,,,
,,LOST,5.22716,0,,,,,,stimuli/images/PICTURE_654.png,COPS,5a6fa677c2eb6c00017e042e,2020-06-30_11h44.54.564,proactive,2020.1.2,Win32,60,5efb791ed4cb570da489e737,5efb871502c30e103feb79be,2,,,,,,pencil,,,,,,,,,,,2,2,0,6,6,10,1,,,,,,,,,,,,,,,,,,,,,,,,,,,,,,,,,,,,,,,,,,,,,,,,,,,,,,,,,,,,,,,,,,,,,,
,,?,0.000635,0,,,,,,stimuli/images/PICTURE_33.png,COPS,5a6fa677c2eb6c00017e042e,2020-06-30_11h44.54.564,proactive,2020.1.2,Win32,60,5efb791ed4cb570da489e737,5efb871502c30e103feb79be,2,,,,,,frame,,,,,,,,,,,3,2,0,7,7,29,1,,,,,,,,,,,,,,,,,,,,,,,,,,,,,,,,,,,,,,,,,,,,,,,,,,,,,,,,,,,,,,,,,,,,,,
,,?,0.00134,0,,,,,,stimuli/images/PICTURE_509.png,SHOTS,5a6fa677c2eb6c00017e042e,2020-06-30_11h44.54.564,proactive,2020.1.2,Win32,60,5efb791ed4cb570da489e737,5efb871502c30e103feb79be,2,,,,,,telephone,,,,,,,,,,,1,2,0,8,8,7,1,,,,,,,,,,,,,,,,,,,,,,,,,,,,,,,,,,,,,,,,,,,,,,,,,,,,,,,,,,,,,,,,,,,,,,
,,?,0.000465,0,,,,,,stimuli/images/PICTURE_314.png,SPEECH,5a6fa677c2eb6c00017e042e,2020-06-30_11h44.54.564,proactive,2020.1.2,Win32,60,5efb791ed4cb570da489e737,5efb871502c30e103feb79be,2,,,,,,perfume,,,,,,,,,,,4,2,0,9,9,35,1,,,,,,,,,,,,,,,,,,,,,,,,,,,,,,,,,,,,,,,,,,,,,,,,,,,,,,,,,,,,,,,,,,,,,,
,,?,0.00039,0,,,,,,stimuli/images/PICTURE_654.png,YEAR,5a6fa677c2eb6c00017e042e,2020-06-30_11h44.54.564,proactive,2020.1.2,Win32,60,5efb791ed4cb570da489e737,5efb871502c30e103feb79be,2,,,,,,pencil,,,,,,,,,,,5,2,0,10,10,41,1,,,,,,,,,,,,,,,,,,,,,,,,,,,,,,,,,,,,,,,,,,,,,,,,,,,,,,,,,,,,,,,,,,,,,,
,,?,0.000335,0,,,,,,stimuli/images/PICTURE_688.png,CLOCK,5a6fa677c2eb6c00017e042e,2020-06-30_11h44.54.564,proactive,2020.1.2,Win32,60,5efb791ed4cb570da489e737,5efb871502c30e103feb79be,2,,,,,,runner,,,,,,,,,,,5,2,0,11,11,42,1,,,,,,,,,,,,,,,,,,,,,,,,,,,,,,,,,,,,,,,,,,,,,,,,,,,,,,,,,,,,,,,,,,,,,,
,,?,0.000405,0,,,,,,stimuli/images/PICTURE_491.png,SERIES,5a6fa677c2eb6c00017e042e,2020-06-30_11h44.54.564,proactive,2020.1.2,Win32,60,5efb791ed4cb570da489e737,5efb871502c30e103feb79be,2,,,,,,rug,,,,,,,,,,,4,2,0,12,12,39,1,,,,,,,,,,,,,,,,,,,,,,,,,,,,,,,,,,,,,,,,,,,,,,,,,,,,,,,,,,,,,,,,,,,,,,
,,?,0.00037,0,,,,,,stimuli/images/PICTURE_403.png,FAMILY,5a6fa677c2eb6c00017e042e,2020-06-30_11h44.54.564,proactive,2020.1.2,Win32,60,5efb791ed4cb570da489e737,5efb871502c30e103feb79be,2,,,,,,cathedral,,,,,,,,,,,1,2,0,13,13,9,1,,,,,,,,,,,,,,,,,,,,,,,,,,,,,,,,,,,,,,,,,,,,,,,,,,,,,,,,,,,,,,,,,,,,,,
,,?,0.00038,0,,,,,,stimuli/images/PICTURE_2.png,YARD,5a6fa677c2eb6c00017e042e,2020-06-30_11h44.54.564,proactive,2020.1.2,Win32,60,5efb791ed4cb570da489e737,5efb871502c30e103feb79be,2,,,,,,tyre,,,,,,,,,,,6,2,0,14,14,55,1,,,,,,,,,,,,,,,,,,,,,,,,,,,,,,,,,,,,,,,,,,,,,,,,,,,,,,,,,,,,,,,,,,,,,,
,,?,0.000365,0,,,,,,stimuli/images/PICTURE_667.png,GLASS,5a6fa677c2eb6c00017e042e,2020-06-30_11h44.54.564,proactive,2020.1.2,Win32,60,5efb791ed4cb570da489e737,5efb871502c30e103feb79be,2,,,,,,daisy,,,,,,,,,,,3,2,0,15,15,27,1,,,,,,,,,,,,,,,,,,,,,,,,,,,,,,,,,,,,,,,,,,,,,,,,,,,,,,,,,,,,,,,,,,,,,,
,,?,0.000325,0,,,,,,stimuli/images/PICTURE_32.png,LETTER,5a6fa677c2eb6c00017e042e,2020-06-30_11h44.54.564,proactive,2020.1.2,Win32,60,5efb791ed4cb570da489e737,5efb871502c30e103feb79be,2,,,,,,crown,,,,,,,,,,,6,2,0,16,16,56,1,,,,,,,,,,,,,,,,,,,,,,,,,,,,,,,,,,,,,,,,,,,,,,,,,,,,,,,,,,,,,,,,,,,,,,
,,?,0.000325,0,,,,,,stimuli/images/PICTURE_509.png,MILLER,5a6fa677c2eb6c00017e042e,2020-06-30_11h44.54.564,proactive,2020.1.2,Win32,60,5efb791ed4cb570da489e737,5efb871502c30e103feb79be,2,,,,,,telephone,,,,,,,,,,,5,2,0,17,17,49,1,,,,,,,,,,,,,,,,,,,,,,,,,,,,,,,,,,,,,,,,,,,,,,,,,,,,,,,,,,,,,,,,,,,,,,
,,?,0.000325,0,,,,,,stimuli/images/PICTURE_504.png,HOUSE,5a6fa677c2eb6c00017e042e,2020-06-30_11h44.54.564,proactive,2020.1.2,Win32,60,5efb791ed4cb570da489e737,5efb871502c30e103feb79be,2,,,,,,wheel,,,,,,,,,,,4,2,0,18,18,36,1,,,,,,,,,,,,,,,,,,,,,,,,,,,,,,,,,,,,,,,,,,,,,,,,,,,,,,,,,,,,,,,,,,,,,,
,,?,0.00033,0,,,,,,stimuli/images/PICTURE_2.png,AREA,5a6fa677c2eb6c00017e042e,2020-06-30_11h44.54.564,proactive,2020.1.2,Win32,60,5efb791ed4cb570da489e737,5efb871502c30e103feb79be,2,,,,,,tyre,,,,,,,,,,,4,2,0,19,19,32,1,,,,,,,,,,,,,,,,,,,,,,,,,,,,,,,,,,,,,,,,,,,,,,,,,,,,,,,,,,,,,,,,,,,,,,
,,?,0.00037,0,,,,,,stimuli/images/PICTURE_147.png,LEADER,5a6fa677c2eb6c00017e042e,2020-06-30_11h44.54.564,proactive,2020.1.2,Win32,60,5efb791ed4cb570da489e737,5efb871502c30e103feb79be,2,,,,,,hanger,,,,,,,,,,,4,2,0,20,20,33,1,,,,,,,,,,,,,,,,,,,,,,,,,,,,,,,,,,,,,,,,,,,,,,,,,,,,,,,,,,,,,,,,,,,,,,
,,?,0.00038,0,,,,,,stimuli/images/PICTURE_68.png,KIND,5a6fa677c2eb6c00017e042e,2020-06-30_11h44.54.564,proactive,2020.1.2,Win32,60,5efb791ed4cb570da489e737,5efb871502c30e103feb79be,2,,,,,,candle,,,,,,,,,,,3,2,0,21,21,23,1,,,,,,,,,,,,,,,,,,,,,,,,,,,,,,,,,,,,,,,,,,,,,,,,,,,,,,,,,,,,,,,,,,,,,,
,,?,0.000335,0,,,,,,stimuli/images/PICTURE_356.png,CANDY,5a6fa677c2eb6c00017e042e,2020-06-30_11h44.54.564,proactive,2020.1.2,Win32,60,5efb791ed4cb570da489e737,5efb871502c30e103feb79be,2,,,,,,pawn,,,,,,,,,,,5,2,0,22,22,46,1,,,,,,,,,,,,,,,,,,,,,,,,,,,,,,,,,,,,,,,,,,,,,,,,,,,,,,,,,,,,,,,,,,,,,,
,,?,0.000425,0,,,,,,stimuli/images/PICTURE_311.png,FLESH,5a6fa677c2eb6c00017e042e,2020-06-30_11h44.54.564,proactive,2020.1.2,Win32,60,5efb791ed4cb570da489e737,5efb871502c30e103feb79be,2,,,,,,razor,,,,,,,,,,,1,2,0,23,23,3,1,,,,,,,,,,,,,,,,,,,,,,,,,,,,,,,,,,,,,,,,,,,,,,,,,,,,,,,,,,,,,,,,,,,,,,
,,?,0.00039,0,,,,,,stimuli/images/PICTURE_57.png,NATION,5a6fa677c2eb6c00017e042e,2020-06-30_11h44.54.564,proactive,2020.1.2,Win32,60,5efb791ed4cb570da489e737,5efb871502c30e103feb79be,2,,,,,,stamp,,,,,,,,,,,3,2,0,24,24,21,1,,,,,,,,,,,,,,,,,,,,,,,,,,,,,,,,,,,,,,,,,,,,,,,,,,,,,,,,,,,,,,,,,,,,,,
,,?,0.00045,0,,,,,,stimuli/images/PICTURE_297.png,BODY,5a6fa677c2eb6c00017e042e,2020-06-30_11h44.54.564,proactive,2020.1.2,Win32,60,5efb791ed4cb570da489e737,5efb871502c30e103feb79be,2,,,,,,aeroplane,,,,,,,,,,,6,2,0,25,25,51,1,,,,,,,,,,,,,,,,,,,,,,,,,,,,,,,,,,,,,,,,,,,,,,,,,,,,,,,,,,,,,,,,,,,,,,
,,?,0.000415,0,,,,,,stimuli/images/PICTURE_348.png,DUDE,5a6fa677c2eb6c00017e042e,2020-06-30_11h44.54.564,proactive,2020.1.2,Win32,60,5efb791ed4cb570da489e737,5efb871502c30e103feb79be,2,,,,,,pepper,,,,,,,,,,,6,2,0,26,26,59,1,,,,,,,,,,,,,,,,,,,,,,,,,,,,,,,,,,,,,,,,,,,,,,,,,,,,,,,,,,,,,,,,,,,,,,
,,?,0.000345,0,,,,,,stimuli/images/PICTURE_285.png,WRITER,5a6fa677c2eb6c00017e042e,2020-06-30_11h44.54.564,proactive,2020.1.2,Win32,60,5efb791ed4cb570da489e737,5efb871502c30e103feb79be,2,,,,,,carrot,,,,,,,,,,,1,2,0,27,27,6,1,,,,,,,,,,,,,,,,,,,,,,,,,,,,,,,,,,,,,,,,,,,,,,,,,,,,,,,,,,,,,,,,,,,,,,
,,?,0.000355,0,,,,,,stimuli/images/PICTURE_285.png,PRINCE,5a6fa677c2eb6c00017e042e,2020-06-30_11h44.54.564,proactive,2020.1.2,Win32,60,5efb791ed4cb570da489e737,5efb871502c30e103feb79be,2,,,,,,carrot,,,,,,,,,,,3,2,0,28,28,20,1,,,,,,,,,,,,,,,,,,,,,,,,,,,,,,,,,,,,,,,,,,,,,,,,,,,,,,,,,,,,,,,,,,,,,,
,,?,0.000335,0,,,,,,stimuli/images/PICTURE_95.png,NIGHT,5a6fa677c2eb6c00017e042e,2020-06-30_11h44.54.564,proactive,2020.1.2,Win32,60,5efb791ed4cb570da489e737,5efb871502c30e103feb79be,2,,,,,,suitcase,,,,,,,,,,,4,2,0,29,29,37,1,,,,,,,,,,,,,,,,,,,,,,,,,,,,,,,,,,,,,,,,,,,,,,,,,,,,,,,,,,,,,,,,,,,,,,
,,WRITE,3.97574,0,,,,,,stimuli/images/PICTURE_564.png,PLENTY,5a6fa677c2eb6c00017e042e,2020-06-30_11h44.54.564,proactive,2020.1.2,Win32,60,5efb791ed4cb570da489e737,5efb871502c30e103feb79be,2,,,,,,spoon,,,,,,,,,,,2,2,0,30,30,11,1,,,,,,,,,,,,,,,,,,,,,,,,,,,,,,,,,,,,,,,,,,,,,,,,,,,,,,,,,,,,,,,,,,,,,,
,,?,0.00074,0,,,,,,stimuli/images/PICTURE_2.png,JUNGLE,5a6fa677c2eb6c00017e042e,2020-06-30_11h44.54.564,proactive,2020.1.2,Win32,60,5efb791ed4cb570da489e737,5efb871502c30e103feb79be,2,,,,,,tyre,,,,,,,,,,,1,2,0,31,31,1,1,,,,,,,,,,,,,,,,,,,,,,,,,,,,,,,,,,,,,,,,,,,,,,,,,,,,,,,,,,,,,,,,,,,,,,
,,?,0.000415,0,,,,,,stimuli/images/PICTURE_141.png,CLIENT,5a6fa677c2eb6c00017e042e,2020-06-30_11h44.54.564,proactive,2020.1.2,Win32,60,5efb791ed4cb570da489e737,5efb871502c30e103feb79be,2,,,,,,sunflower,,,,,,,,,,,4,2,0,32,32,30,1,,,,,,,,,,,,,,,,,,,,,,,,,,,,,,,,,,,,,,,,,,,,,,,,,,,,,,,,,,,,,,,,,,,,,,
,,THROW,4.71344,0,,,,,,stimuli/images/PICTURE_160.png,HOTEL,5a6fa677c2eb6c00017e042e,2020-06-30_11h44.54.564,proactive,2020.1.2,Win32,60,5efb791ed4cb570da489e737,5efb871502c30e103feb79be,2,,,,,,wheelbarrow,,,,,,,,,,,2,2,0,33,33,16,1,,,,,,,,,,,,,,,,,,,,,,,,,,,,,,,,,,,,,,,,,,,,,,,,,,,,,,,,,,,,,,,,,,,,,,
,,?,0.00059,0,,,,,,stimuli/images/PICTURE_692.png,DUDE,5a6fa677c2eb6c00017e042e,2020-06-30_11h44.54.564,proactive,2020.1.2,Win32,60,5efb791ed4cb570da489e737,5efb871502c30e103feb79be,2,,,,,,cherry,,,,,,,,,,,5,2,0,34,34,47,1,,,,,,,,,,,,,,,,,,,,,,,,,,,,,,,,,,,,,,,,,,,,,,,,,,,,,,,,,,,,,,,,,,,,,,
,,?,0.00044,0,,,,,,stimuli/images/PICTURE_470.png,BEAUTY,5a6fa677c2eb6c00017e042e,2020-06-30_11h44.54.564,proactive,2020.1.2,Win32,60,5efb791ed4cb570da489e737,5efb871502c30e103feb79be,2,,,,,,motorbike,,,,,,,,,,,3,2,0,35,35,26,1,,,,,,,,,,,,,,,,,,,,,,,,,,,,,,,,,,,,,,,,,,,,,,,,,,,,,,,,,,,,,,,,,,,,,,
,,?,0.0004,0,,,,,,stimuli/images/PICTURE_93.png,GIRL,5a6fa677c2eb6c00017e042e,2020-06-30_11h44.54.564,proactive,2020.1.2,Win32,60,5efb791ed4cb570da489e737,5efb871502c30e103feb79be,2,,,,,,skateboard,,,,,,,,,,,4,2,0,36,36,31,1,,,,,,,,,,,,,,,,,,,,,,,,,,,,,,,,,,,,,,,,,,,,,,,,,,,,,,,,,,,,,,,,,,,,,,
,,GLOBE,4.36263,0,,,,,,stimuli/images/PICTURE_405.png,JUNGLE,5a6fa677c2eb6c00017e042e,2020-06-30_11h44.54.564,proactive,2020.1.2,Win32,60,5efb791ed4cb570da489e737,5efb871502c30e103feb79be,2,,,,,,anchor,,,,,,,,,,,2,2,0,37,37,13,1,,,,,,,,,,,,,,,,,,,,,,,,,,,,,,,,,,,,,,,,,,,,,,,,,,,,,,,,,,,,,,,,,,,,,,
,,TIRE,2.13282,0,,,,,,stimuli/images/PICTURE_296.png,CLOCK,5a6fa677c2eb6c00017e042e,2020-06-30_11h44.54.564,proactive,2020.1.2,Win32,60,5efb791ed4cb570da489e737,5efb871502c30e103feb79be,2,,,,,,bolt,,,,,,,,,,,2,2,0,38,38,18,1,,,,,,,,,,,,,,,,,,,,,,,,,,,,,,,,,,,,,,,,,,,,,,,,,,,,,,,,,,,,,,,,,,,,,,
,,?,0.000765,0,,,,,,stimuli/images/PICTURE_655.png,SALE,5a6fa677c2eb6c00017e042e,2020-06-30_11h44.54.564,proactive,2020.1.2,Win32,60,5efb791ed4cb570da489e737,5efb871502c30e103feb79be,2,,,,,,megaphone,,,,,,,,,,,6,2,0,39,39,57,1,,,,,,,,,,,,,,,,,,,,,,,,,,,,,,,,,,,,,,,,,,,,,,,,,,,,,,,,,,,,,,,,,,,,,,
,,?,0.00047,0,,,,,,stimuli/images/PICTURE_215.png,FOOD,5a6fa677c2eb6c00017e042e,2020-06-30_11h44.54.564,proactive,2020.1.2,Win32,60,5efb791ed4cb570da489e737,5efb871502c30e103feb79be,2,,,,,,boot,,,,,,,,,,,1,2,0,40,40,5,1,,,,,,,,,,,,,,,,,,,,,,,,,,,,,,,,,,,,,,,,,,,,,,,,,,,,,,,,,,,,,,,,,,,,,,
,,?,0.000425,0,,,,,,stimuli/images/PICTURE_487.png,ROOF,5a6fa677c2eb6c00017e042e,2020-06-30_11h44.54.564,proactive,2020.1.2,Win32,60,5efb791ed4cb570da489e737,5efb871502c30e103feb79be,2,,,,,,basket,,,,,,,,,,,6,2,0,41,41,50,1,,,,,,,,,,,,,,,,,,,,,,,,,,,,,,,,,,,,,,,,,,,,,,,,,,,,,,,,,,,,,,,,,,,,,,
,,DRIVE,4.07931,0,,,,,,stimuli/images/PICTURE_327.png,LEADER,5a6fa677c2eb6c00017e042e,2020-06-30_11h44.54.564,proactive,2020.1.2,Win32,60,5efb791ed4cb570da489e737,5efb871502c30e103feb79be,2,,,,,,helmet,,,,,,,,,,,2,2,0,42,42,17,1,,,,,,,,,,,,,,,,,,,,,,,,,,,,,,,,,,,,,,,,,,,,,,,,,,,,,,,,,,,,,,,,,,,,,,
,,?,0.00065,0,,,,,,stimuli/images/PICTURE_215.png,LEADER,5a6fa677c2eb6c00017e042e,2020-06-30_11h44.54.564,proactive,2020.1.2,Win32,60,5efb791ed4cb570da489e737,5efb871502c30e103feb79be,2,,,,,,boot,,,,,,,,,,,5,2,0,43,43,43,1,,,,,,,,,,,,,,,,,,,,,,,,,,,,,,,,,,,,,,,,,,,,,,,,,,,,,,,,,,,,,,,,,,,,,,
,,?,0.0004,0,,,,,,stimuli/images/PICTURE_750.png,POLICY,5a6fa677c2eb6c00017e042e,2020-06-30_11h44.54.564,proactive,2020.1.2,Win32,60,5efb791ed4cb570da489e737,5efb871502c30e103feb79be,2,,,,,,kettle,,,,,,,,,,,5,2,0,44,44,44,1,,,,,,,,,,,,,,,,,,,,,,,,,,,,,,,,,,,,,,,,,,,,,,,,,,,,,,,,,,,,,,,,,,,,,,
,,?,0.00047,0,,,,,,stimuli/images/PICTURE_177.png,HOUSE,5a6fa677c2eb6c00017e042e,2020-06-30_11h44.54.564,proactive,2020.1.2,Win32,60,5efb791ed4cb570da489e737,5efb871502c30e103feb79be,2,,,,,,mushroom,,,,,,,,,,,3,2,0,45,45,25,1,,,,,,,,,,,,,,,,,,,,,,,,,,,,,,,,,,,,,,,,,,,,,,,,,,,,,,,,,,,,,,,,,,,,,,
,,?,0.000495,0,,,,,,stimuli/images/PICTURE_311.png,TOILET,5a6fa677c2eb6c00017e042e,2020-06-30_11h44.54.564,proactive,2020.1.2,Win32,60,5efb791ed4cb570da489e737,5efb871502c30e103feb79be,2,,,,,,razor,,,,,,,,,,,6,2,0,46,46,54,1,,,,,,,,,,,,,,,,,,,,,,,,,,,,,,,,,,,,,,,,,,,,,,,,,,,,,,,,,,,,,,,,,,,,,,
,,?,0.00037,0,,,,,,stimuli/images/PICTURE_470.png,MOMENT,5a6fa677c2eb6c00017e042e,2020-06-30_11h44.54.564,proactive,2020.1.2,Win32,60,5efb791ed4cb570da489e737,5efb871502c30e103feb79be,2,,,,,,motorbike,,,,,,,,,,,5,2,0,47,47,40,1,,,,,,,,,,,,,,,,,,,,,,,,,,,,,,,,,,,,,,,,,,,,,,,,,,,,,,,,,,,,,,,,,,,,,,
,,?,0.000415,0,,,,,,stimuli/images/PICTURE_453.png,FAMILY,5a6fa677c2eb6c00017e042e,2020-06-30_11h44.54.564,proactive,2020.1.2,Win32,60,5efb791ed4cb570da489e737,5efb871502c30e103feb79be,2,,,,,,scissors,,,,,,,,,,,5,2,0,48,48,48,1,,,,,,,,,,,,,,,,,,,,,,,,,,,,,,,,,,,,,,,,,,,,,,,,,,,,,,,,,,,,,,,,,,,,,,
,,?,0.00048,0,,,,,,stimuli/images/PICTURE_348.png,TOILET,5a6fa677c2eb6c00017e042e,2020-06-30_11h44.54.564,proactive,2020.1.2,Win32,60,5efb791ed4cb570da489e737,5efb871502c30e103feb79be,2,,,,,,pepper,,,,,,,,,,,1,2,0,49,49,4,1,,,,,,,,,,,,,,,,,,,,,,,,,,,,,,,,,,,,,,,,,,,,,,,,,,,,,,,,,,,,,,,,,,,,,,
,,DRAG,6.20878,0,,,,,,stimuli/images/PICTURE_255.png,PENNY,5a6fa677c2eb6c00017e042e,2020-06-30_11h44.54.564,proactive,2020.1.2,Win32,60,5efb791ed4cb570da489e737,5efb871502c30e103feb79be,2,,,,,,shovel,,,,,,,,,,,2,2,0,50,50,19,1,,,,,,,,,,,,,,,,,,,,,,,,,,,,,,,,,,,,,,,,,,,,,,,,,,,,,,,,,,,,,,,,,,,,,,
,,?,0.0006,0,,,,,,stimuli/images/PICTURE_677.png,FAMILY,5a6fa677c2eb6c00017e042e,2020-06-30_11h44.54.564,proactive,2020.1.2,Win32,60,5efb791ed4cb570da489e737,5efb871502c30e103feb79be,2,,,,,,map,,,,,,,,,,,6,2,0,51,51,53,1,,,,,,,,,,,,,,,,,,,,,,,,,,,,,,,,,,,,,,,,,,,,,,,,,,,,,,,,,,,,,,,,,,,,,,
,,WORLD,5.29799,0,,,,,,stimuli/images/PICTURE_677.png,PHOTO,5a6fa677c2eb6c00017e042e,2020-06-30_11h44.54.564,proactive,2020.1.2,Win32,60,5efb791ed4cb570da489e737,5efb871502c30e103feb79be,2,,,,,,map,,,,,,,,,,,2,2,0,52,52,14,1,,,,,,,,,,,,,,,,,,,,,,,,,,,,,,,,,,,,,,,,,,,,,,,,,,,,,,,,,,,,,,,,,,,,,,
,,?,0.001645,0,,,,,,stimuli/images/PICTURE_18.png,RIVER,5a6fa677c2eb6c00017e042e,2020-06-30_11h44.54.564,proactive,2020.1.2,Win32,60,5efb791ed4cb570da489e737,5efb871502c30e103feb79be,2,,,,,,planet,,,,,,,,,,,3,2,0,53,53,22,1,,,,,,,,,,,,,,,,,,,,,,,,,,,,,,,,,,,,,,,,,,,,,,,,,,,,,,,,,,,,,,,,,,,,,,
,,?,0.000425,0,,,,,,stimuli/images/PICTURE_509.png,APPLE,5a6fa677c2eb6c00017e042e,2020-06-30_11h44.54.564,proactive,2020.1.2,Win32,60,5efb791ed4cb570da489e737,5efb871502c30e103feb79be,2,,,,,,telephone,,,,,,,,,,,4,2,0,54,54,38,1,,,,,,,,,,,,,,,,,,,,,,,,,,,,,,,,,,,,,,,,,,,,,,,,,,,,,,,,,,,,,,,,,,,,,,
,,?,0.00048,0,,,,,,stimuli/images/PICTURE_487.png,POLICY,5a6fa677c2eb6c00017e042e,2020-06-30_11h44.54.564,proactive,2020.1.2,Win32,60,5efb791ed4cb570da489e737,5efb871502c30e103feb79be,2,,,,,,basket,,,,,,,,,,,4,2,0,55,55,34,1,,,,,,,,,,,,,,,,,,,,,,,,,,,,,,,,,,,,,,,,,,,,,,,,,,,,,,,,,,,,,,,,,,,,,,
,,HOTEL,6.495135,0,,,,,,stimuli/images/PICTURE_509.png,BATH,5a6fa677c2eb6c00017e042e,2020-06-30_11h44.54.564,proactive,2020.1.2,Win32,60,5efb791ed4cb570da489e737,5efb871502c30e103feb79be,2,,,,,,telephone,,,,,,,,,,,2,2,0,56,56,15,1,,,,,,,,,,,,,,,,,,,,,,,,,,,,,,,,,,,,,,,,,,,,,,,,,,,,,,,,,,,,,,,,,,,,,,
,,?,0.000635,0,,,,,,stimuli/images/PICTURE_208.png,SPIRIT,5a6fa677c2eb6c00017e042e,2020-06-30_11h44.54.564,proactive,2020.1.2,Win32,60,5efb791ed4cb570da489e737,5efb871502c30e103feb79be,2,,,,,,microphone,,,,,,,,,,,3,2,0,57,57,28,1,,,,,,,,,,,,,,,,,,,,,,,,,,,,,,,,,,,,,,,,,,,,,,,,,,,,,,,,,,,,,,,,,,,,,,
,,?,0.000475,0,,,,,,stimuli/images/PICTURE_405.png,HOUSE,5a6fa677c2eb6c00017e042e,2020-06-30_11h44.54.564,proactive,2020.1.2,Win32,60,5efb791ed4cb570da489e737,5efb871502c30e103feb79be,2,,,,,,anchor,,,,,,,,,,,1,2,0,58,58,2,1,,,,,,,,,,,,,,,,,,,,,,,,,,,,,,,,,,,,,,,,,,,,,,,,,,,,,,,,,,,,,,,,,,,,,,
,,?,0.000405,0,,,,,,stimuli/images/PICTURE_708.png,VALLEY,5a6fa677c2eb6c00017e042e,2020-06-30_11h44.54.564,proactive,2020.1.2,Win32,60,5efb791ed4cb570da489e737,5efb871502c30e103feb79be,2,,,,,,monkey,,,,,,,,,,,5,2,0,59,59,45,1,,,,,,,,,,,,,,,,,,,,,,,,,,,,,,,,,,,,,,,,,,,,,,,,,,,,,,,,,,,,,,,,,,,,,,
,,,,,,,,,,,,5a6fa677c2eb6c00017e042e,2020-06-30_11h44.54.564,proactive,2020.1.2,Win32,60,5efb791ed4cb570da489e737,5efb871502c30e103feb79be,2,,,,,,,,,,,,,,,,,,,,,,,,0,1,1,2,1,stimuli/learn-block3.csv,,,,,,,,,,,,,,,,,,,,,,,,,,,,,,,,,,,,,,,,,,,,,,,,,,,,,,,,,,,,,,,,
,,,,,,,,,,stimuli/images/PICTURE_203.png,NIGHT,5a6fa677c2eb6c00017e042e,2020-06-30_11h44.54.564,proactive,2020.1.2,Win32,60,5efb791ed4cb570da489e737,5efb871502c30e103feb79be,2,,,,,,cap,,,,,,0,0,0,2,1,1,1,,,,,,,,,,,,,,,,,,,,,,,,,,,,,,,,,,,,,,,,,,,,,,,,,,,,,,,,,,,,,,,,,,,,,,,,,,,
,,,,,,,,,,stimuli/images/PICTURE_654.png,MONTH,5a6fa677c2eb6c00017e042e,2020-06-30_11h44.54.564,proactive,2020.1.2,Win32,60,5efb791ed4cb570da489e737,5efb871502c30e103feb79be,2,,,,,,pencil,,,,,,0,1,1,29,1,3,1,,,,,,,,,,,,,,,,,,,,,,,,,,,,,,,,,,,,,,,,,,,,,,,,,,,,,,,,,,,,,,,,,,,,,,,,,,,
,,,,,,,,,,stimuli/images/PICTURE_655.png,TOILET,5a6fa677c2eb6c00017e042e,2020-06-30_11h44.54.564,proactive,2020.1.2,Win32,60,5efb791ed4cb570da489e737,5efb871502c30e103feb79be,2,,,,,,megaphone,,,,,,0,2,2,12,1,2,1,,,,,,,,,,,,,,,,,,,,,,,,,,,,,,,,,,,,,,,,,,,,,,,,,,,,,,,,,,,,,,,,,,,,,,,,,,,
,,,,,,,,,,stimuli/images/PICTURE_32.png,PILLS,5a6fa677c2eb6c00017e042e,2020-06-30_11h44.54.564,proactive,2020.1.2,Win32,60,5efb791ed4cb570da489e737,5efb871502c30e103feb79be,2,,,,,,crown,,,,,,0,3,3,18,1,2,1,,,,,,,,,,,,,,,,,,,,,,,,,,,,,,,,,,,,,,,,,,,,,,,,,,,,,,,,,,,,,,,,,,,,,,,,,,,
,,,,,,,,,,stimuli/images/PICTURE_491.png,GLASS,5a6fa677c2eb6c00017e042e,2020-06-30_11h44.54.564,proactive,2020.1.2,Win32,60,5efb791ed4cb570da489e737,5efb871502c30e103feb79be,2,,,,,,rug,,,,,,0,4,4,14,1,2,1,,,,,,,,,,,,,,,,,,,,,,,,,,,,,,,,,,,,,,,,,,,,,,,,,,,,,,,,,,,,,,,,,,,,,,,,,,,
,,,,,,,,,,stimuli/images/PICTURE_504.png,ARTIST,5a6fa677c2eb6c00017e042e,2020-06-30_11h44.54.564,proactive,2020.1.2,Win32,60,5efb791ed4cb570da489e737,5efb871502c30e103feb79be,2,,,,,,wheel,,,,,,0,5,5,49,1,5,1,,,,,,,,,,,,,,,,,,,,,,,,,,,,,,,,,,,,,,,,,,,,,,,,,,,,,,,,,,,,,,,,,,,,,,,,,,,
,,,,,,,,,,stimuli/images/PICTURE_677.png,APPLE,5a6fa677c2eb6c00017e042e,2020-06-30_11h44.54.564,proactive,2020.1.2,Win32,60,5efb791ed4cb570da489e737,5efb871502c30e103feb79be,2,,,,,,map,,,,,,0,6,6,43,1,5,1,,,,,,,,,,,,,,,,,,,,,,,,,,,,,,,,,,,,,,,,,,,,,,,,,,,,,,,,,,,,,,,,,,,,,,,,,,,
,,,,,,,,,,stimuli/images/PICTURE_383.png,SERIES,5a6fa677c2eb6c00017e042e,2020-06-30_11h44.54.564,proactive,2020.1.2,Win32,60,5efb791ed4cb570da489e737,5efb871502c30e103feb79be,2,,,,,,coin,,,,,,0,7,7,46,1,5,1,,,,,,,,,,,,,,,,,,,,,,,,,,,,,,,,,,,,,,,,,,,,,,,,,,,,,,,,,,,,,,,,,,,,,,,,,,,
,,,,,,,,,,stimuli/images/PICTURE_108.png,POLICY,5a6fa677c2eb6c00017e042e,2020-06-30_11h44.54.564,proactive,2020.1.2,Win32,60,5efb791ed4cb570da489e737,5efb871502c30e103feb79be,2,,,,,,calendar,,,,,,0,8,8,22,1,3,1,,,,,,,,,,,,,,,,,,,,,,,,,,,,,,,,,,,,,,,,,,,,,,,,,,,,,,,,,,,,,,,,,,,,,,,,,,,
,,,,,,,,,,stimuli/images/PICTURE_504.png,YEAR,5a6fa677c2eb6c00017e042e,2020-06-30_11h44.54.564,proactive,2020.1.2,Win32,60,5efb791ed4cb570da489e737,5efb871502c30e103feb79be,2,,,,,,wheel,,,,,,0,9,9,13,1,2,1,,,,,,,,,,,,,,,,,,,,,,,,,,,,,,,,,,,,,,,,,,,,,,,,,,,,,,,,,,,,,,,,,,,,,,,,,,,
,,,,,,,,,,stimuli/images/PICTURE_675.png,SALE,5a6fa677c2eb6c00017e042e,2020-06-30_11h44.54.564,proactive,2020.1.2,Win32,60,5efb791ed4cb570da489e737,5efb871502c30e103feb79be,2,,,,,,windmill,,,,,,0,10,10,47,1,5,1,,,,,,,,,,,,,,,,,,,,,,,,,,,,,,,,,,,,,,,,,,,,,,,,,,,,,,,,,,,,,,,,,,,,,,,,,,,
,,,,,,,,,,stimuli/images/PICTURE_42.png,BOYS,5a6fa677c2eb6c00017e042e,2020-06-30_11h44.54.564,proactive,2020.1.2,Win32,60,5efb791ed4cb570da489e737,5efb871502c30e103feb79be,2,,,,,,pear,,,,,,0,11,11,55,1,6,1,,,,,,,,,,,,,,,,,,,,,,,,,,,,,,,,,,,,,,,,,,,,,,,,,,,,,,,,,,,,,,,,,,,,,,,,,,,
,,,,,,,,,,stimuli/images/PICTURE_750.png,HOTEL,5a6fa677c2eb6c00017e042e,2020-06-30_11h44.54.564,proactive,2020.1.2,Win32,60,5efb791ed4cb570da489e737,5efb871502c30e103feb79be,2,,,,,,kettle,,,,,,0,12,12,27,1,3,1,,,,,,,,,,,,,,,,,,,,,,,,,,,,,,,,,,,,,,,,,,,,,,,,,,,,,,,,,,,,,,,,,,,,,,,,,,,
,,,,,,,,,,stimuli/images/PICTURE_85.png,NATION,5a6fa677c2eb6c00017e042e,2020-06-30_11h44.54.564,proactive,2020.1.2,Win32,60,5efb791ed4cb570da489e737,5efb871502c30e103feb79be,2,,,,,,diamond,,,,,,0,13,13,5,1,1,1,,,,,,,,,,,,,,,,,,,,,,,,,,,,,,,,,,,,,,,,,,,,,,,,,,,,,,,,,,,,,,,,,,,,,,,,,,,
,,,,,,,,,,stimuli/images/PICTURE_68.png,ROOF,5a6fa677c2eb6c00017e042e,2020-06-30_11h44.54.564,proactive,2020.1.2,Win32,60,5efb791ed4cb570da489e737,5efb871502c30e103feb79be,2,,,,,,candle,,,,,,0,14,14,38,1,4,1,,,,,,,,,,,,,,,,,,,,,,,,,,,,,,,,,,,,,,,,,,,,,,,,,,,,,,,,,,,,,,,,,,,,,,,,,,,
,,,,,,,,,,stimuli/images/PICTURE_68.png,MILE,5a6fa677c2eb6c00017e042e,2020-06-30_11h44.54.564,proactive,2020.1.2,Win32,60,5efb791ed4cb570da489e737,5efb871502c30e103feb79be,2,,,,,,candle,,,,,,0,15,15,51,1,6,1,,,,,,,,,,,,,,,,,,,,,,,,,,,,,,,,,,,,,,,,,,,,,,,,,,,,,,,,,,,,,,,,,,,,,,,,,,,
,,,,,,,,,,stimuli/images/PICTURE_504.png,COPS,5a6fa677c2eb6c00017e042e,2020-06-30_11h44.54.564,proactive,2020.1.2,Win32,60,5efb791ed4cb570da489e737,5efb871502c30e103feb79be,2,,,,,,wheel,,,,,,0,16,16,52,1,6,1,,,,,,,,,,,,,,,,,,,,,,,,,,,,,,,,,,,,,,,,,,,,,,,,,,,,,,,,,,,,,,,,,,,,,,,,,,,
,,,,,,,,,,stimuli/images/PICTURE_467.png,POLICY,5a6fa677c2eb6c00017e042e,2020-06-30_11h44.54.564,proactive,2020.1.2,Win32,60,5efb791ed4cb570da489e737,5efb871502c30e103feb79be,2,,,,,,peg,,,,,,0,17,17,53,1,6,1,,,,,,,,,,,,,,,,,,,,,,,,,,,,,,,,,,,,,,,,,,,,,,,,,,,,,,,,,,,,,,,,,,,,,,,,,,,
,,,,,,,,,,stimuli/images/PICTURE_487.png,GIRL,5a6fa677c2eb6c00017e042e,2020-06-30_11h44.54.564,proactive,2020.1.2,Win32,60,5efb791ed4cb570da489e737,5efb871502c30e103feb79be,2,,,,,,basket,,,,,,0,18,18,45,1,5,1,,,,,,,,,,,,,,,,,,,,,,,,,,,,,,,,,,,,,,,,,,,,,,,,,,,,,,,,,,,,,,,,,,,,,,,,,,,
,,,,,,,,,,stimuli/images/PICTURE_469.png,AGENT,5a6fa677c2eb6c00017e042e,2020-06-30_11h44.54.564,proactive,2020.1.2,Win32,60,5efb791ed4cb570da489e737,5efb871502c30e103feb79be,2,,,,,,stool,,,,,,0,19,19,16,1,2,1,,,,,,,,,,,,,,,,,,,,,,,,,,,,,,,,,,,,,,,,,,,,,,,,,,,,,,,,,,,,,,,,,,,,,,,,,,,
,,,,,,,,,,stimuli/images/PICTURE_564.png,BATH,5a6fa677c2eb6c00017e042e,2020-06-30_11h44.54.564,proactive,2020.1.2,Win32,60,5efb791ed4cb570da489e737,5efb871502c30e103feb79be,2,,,,,,spoon,,,,,,0,20,20,26,1,3,1,,,,,,,,,,,,,,,,,,,,,,,,,,,,,,,,,,,,,,,,,,,,,,,,,,,,,,,,,,,,,,,,,,,,,,,,,,,
,,,,,,,,,,stimuli/images/PICTURE_285.png,LIFE,5a6fa677c2eb6c00017e042e,2020-06-30_11h44.54.564,proactive,2020.1.2,Win32,60,5efb791ed4cb570da489e737,5efb871502c30e103feb79be,2,,,,,,carrot,,,,,,0,21,21,33,1,4,1,,,,,,,,,,,,,,,,,,,,,,,,,,,,,,,,,,,,,,,,,,,,,,,,,,,,,,,,,,,,,,,,,,,,,,,,,,,
,,,,,,,,,,stimuli/images/PICTURE_380.png,CANDY,5a6fa677c2eb6c00017e042e,2020-06-30_11h44.54.564,proactive,2020.1.2,Win32,60,5efb791ed4cb570da489e737,5efb871502c30e103feb79be,2,,,,,,gorilla,,,,,,0,22,22,0,1,1,1,,,,,,,,,,,,,,,,,,,,,,,,,,,,,,,,,,,,,,,,,,,,,,,,,,,,,,,,,,,,,,,,,,,,,,,,,,,
,,,,,,,,,,stimuli/images/PICTURE_147.png,YEAR,5a6fa677c2eb6c00017e042e,2020-06-30_11h44.54.564,proactive,2020.1.2,Win32,60,5efb791ed4cb570da489e737,5efb871502c30e103feb79be,2,,,,,,hanger,,,,,,0,23,23,21,1,3,1,,,,,,,,,,,,,,,,,,,,,,,,,,,,,,,,,,,,,,,,,,,,,,,,,,,,,,,,,,,,,,,,,,,,,,,,,,,
,,,,,,,,,,stimuli/images/PICTURE_308.png,FAMILY,5a6fa677c2eb6c00017e042e,2020-06-30_11h44.54.564,proactive,2020.1.2,Win32,60,5efb791ed4cb570da489e737,5efb871502c30e103feb79be,2,,,,,,dice,,,,,,0,24,24,36,1,4,1,,,,,,,,,,,,,,,,,,,,,,,,,,,,,,,,,,,,,,,,,,,,,,,,,,,,,,,,,,,,,,,,,,,,,,,,,,,
,,,,,,,,,,stimuli/images/PICTURE_297.png,RIVER,5a6fa677c2eb6c00017e042e,2020-06-30_11h44.54.564,proactive,2020.1.2,Win32,60,5efb791ed4cb570da489e737,5efb871502c30e103feb79be,2,,,,,,aeroplane,,,,,,0,25,25,39,1,4,1,,,,,,,,,,,,,,,,,,,,,,,,,,,,,,,,,,,,,,,,,,,,,,,,,,,,,,,,,,,,,,,,,,,,,,,,,,,
,,,,,,,,,,stimuli/images/PICTURE_85.png,TOILET,5a6fa677c2eb6c00017e042e,2020-06-30_11h44.54.564,proactive,2020.1.2,Win32,60,5efb791ed4cb570da489e737,5efb871502c30e103feb79be,2,,,,,,diamond,,,,,,0,26,26,48,1,5,1,,,,,,,,,,,,,,,,,,,,,,,,,,,,,,,,,,,,,,,,,,,,,,,,,,,,,,,,,,,,,,,,,,,,,,,,,,,
,,,,,,,,,,stimuli/images/PICTURE_744.png,WEAPON,5a6fa677c2eb6c00017e042e,2020-06-30_11h44.54.564,proactive,2020.1.2,Win32,60,5efb791ed4cb570da489e737,5efb871502c30e103feb79be,2,,,,,,ring,,,,,,0,27,27,50,1,6,1,,,,,,,,,,,,,,,,,,,,,,,,,,,,,,,,,,,,,,,,,,,,,,,,,,,,,,,,,,,,,,,,,,,,,,,,,,,
,,,,,,,,,,stimuli/images/PICTURE_233.png,LOTS,5a6fa677c2eb6c00017e042e,2020-06-30_11h44.54.564,proactive,2020.1.2,Win32,60,5efb791ed4cb570da489e737,5efb871502c30e103feb79be,2,,,,,,salt,,,,,,0,28,28,42,1,5,1,,,,,,,,,,,,,,,,,,,,,,,,,,,,,,,,,,,,,,,,,,,,,,,,,,,,,,,,,,,,,,,,,,,,,,,,,,,
,,,,,,,,,,stimuli/images/PICTURE_33.png,FRIEND,5a6fa677c2eb6c00017e042e,2020-06-30_11h44.54.564,proactive,2020.1.2,Win32,60,5efb791ed4cb570da489e737,5efb871502c30e103feb79be,2,,,,,,frame,,,,,,0,29,29,8,1,1,1,,,,,,,,,,,,,,,,,,,,,,,,,,,,,,,,,,,,,,,,,,,,,,,,,,,,,,,,,,,,,,,,,,,,,,,,,,,
,,,,,,,,,,stimuli/images/PICTURE_403.png,WRITER,5a6fa677c2eb6c00017e042e,2020-06-30_11h44.54.564,proactive,2020.1.2,Win32,60,5efb791ed4cb570da489e737,5efb871502c30e103feb79be,2,,,,,,cathedral,,,,,,0,30,30,31,1,4,1,,,,,,,,,,,,,,,,,,,,,,,,,,,,,,,,,,,,,,,,,,,,,,,,,,,,,,,,,,,,,,,,,,,,,,,,,,,
,,,,,,,,,,stimuli/images/PICTURE_147.png,WOMEN,5a6fa677c2eb6c00017e042e,2020-06-30_11h44.54.564,proactive,2020.1.2,Win32,60,5efb791ed4cb570da489e737,5efb871502c30e103feb79be,2,,,,,,hanger,,,,,,0,31,31,7,1,1,1,,,,,,,,,,,,,,,,,,,,,,,,,,,,,,,,,,,,,,,,,,,,,,,,,,,,,,,,,,,,,,,,,,,,,,,,,,,
,,,,,,,,,,stimuli/images/PICTURE_667.png,RIVER,5a6fa677c2eb6c00017e042e,2020-06-30_11h44.54.564,proactive,2020.1.2,Win32,60,5efb791ed4cb570da489e737,5efb871502c30e103feb79be,2,,,,,,daisy,,,,,,0,32,32,10,1,2,1,,,,,,,,,,,,,,,,,,,,,,,,,,,,,,,,,,,,,,,,,,,,,,,,,,,,,,,,,,,,,,,,,,,,,,,,,,,
,,,,,,,,,,stimuli/images/PICTURE_380.png,HONEY,5a6fa677c2eb6c00017e042e,2020-06-30_11h44.54.564,proactive,2020.1.2,Win32,60,5efb791ed4cb570da489e737,5efb871502c30e103feb79be,2,,,,,,gorilla,,,,,,0,33,33,19,1,2,1,,,,,,,,,,,,,,,,,,,,,,,,,,,,,,,,,,,,,,,,,,,,,,,,,,,,,,,,,,,,,,,,,,,,,,,,,,,
,,,,,,,,,,stimuli/images/PICTURE_339.png,CLIENT,5a6fa677c2eb6c00017e042e,2020-06-30_11h44.54.564,proactive,2020.1.2,Win32,60,5efb791ed4cb570da489e737,5efb871502c30e103feb79be,2,,,,,,backpack,,,,,,0,34,34,11,1,2,1,,,,,,,,,,,,,,,,,,,,,,,,,,,,,,,,,,,,,,,,,,,,,,,,,,,,,,,,,,,,,,,,,,,,,,,,,,,
,,,,,,,,,,stimuli/images/PICTURE_208.png,SYSTEM,5a6fa677c2eb6c00017e042e,2020-06-30_11h44.54.564,proactive,2020.1.2,Win32,60,5efb791ed4cb570da489e737,5efb871502c30e103feb79be,2,,,,,,microphone,,,,,,0,35,35,32,1,4,1,,,,,,,,,,,,,,,,,,,,,,,,,,,,,,,,,,,,,,,,,,,,,,,,,,,,,,,,,,,,,,,,,,,,,,,,,,,
,,,,,,,,,,stimuli/images/PICTURE_296.png,LIFE,5a6fa677c2eb6c00017e042e,2020-06-30_11h44.54.564,proactive,2020.1.2,Win32,60,5efb791ed4cb570da489e737,5efb871502c30e103feb79be,2,,,,,,bolt,,,,,,0,36,36,57,1,6,1,,,,,,,,,,,,,,,,,,,,,,,,,,,,,,,,,,,,,,,,,,,,,,,,,,,,,,,,,,,,,,,,,,,,,,,,,,,
,,,,,,,,,,stimuli/images/PICTURE_95.png,BOYS,5a6fa677c2eb6c00017e042e,2020-06-30_11h44.54.564,proactive,2020.1.2,Win32,60,5efb791ed4cb570da489e737,5efb871502c30e103feb79be,2,,,,,,suitcase,,,,,,0,37,37,1,1,1,1,,,,,,,,,,,,,,,,,,,,,,,,,,,,,,,,,,,,,,,,,,,,,,,,,,,,,,,,,,,,,,,,,,,,,,,,,,,
,,,,,,,,,,stimuli/images/PICTURE_403.png,RIVER,5a6fa677c2eb6c00017e042e,2020-06-30_11h44.54.564,proactive,2020.1.2,Win32,60,5efb791ed4cb570da489e737,5efb871502c30e103feb79be,2,,,,,,cathedral,,,,,,0,38,38,40,1,5,1,,,,,,,,,,,,,,,,,,,,,,,,,,,,,,,,,,,,,,,,,,,,,,,,,,,,,,,,,,,,,,,,,,,,,,,,,,,
,,,,,,,,,,stimuli/images/PICTURE_108.png,FLIGHT,5a6fa677c2eb6c00017e042e,2020-06-30_11h44.54.564,proactive,2020.1.2,Win32,60,5efb791ed4cb570da489e737,5efb871502c30e103feb79be,2,,,,,,calendar,,,,,,0,39,39,59,1,6,1,,,,,,,,,,,,,,,,,,,,,,,,,,,,,,,,,,,,,,,,,,,,,,,,,,,,,,,,,,,,,,,,,,,,,,,,,,,
,,,,,,,,,,stimuli/images/PICTURE_685.png,PENNY,5a6fa677c2eb6c00017e042e,2020-06-30_11h44.54.564,proactive,2020.1.2,Win32,60,5efb791ed4cb570da489e737,5efb871502c30e103feb79be,2,,,,,,goose,,,,,,0,40,40,4,1,1,1,,,,,,,,,,,,,,,,,,,,,,,,,,,,,,,,,,,,,,,,,,,,,,,,,,,,,,,,,,,,,,,,,,,,,,,,,,,
,,,,,,,,,,stimuli/images/PICTURE_57.png,MOMENT,5a6fa677c2eb6c00017e042e,2020-06-30_11h44.54.564,proactive,2020.1.2,Win32,60,5efb791ed4cb570da489e737,5efb871502c30e103feb79be,2,,,,,,stamp,,,,,,0,41,41,37,1,4,1,,,,,,,,,,,,,,,,,,,,,,,,,,,,,,,,,,,,,,,,,,,,,,,,,,,,,,,,,,,,,,,,,,,,,,,,,,,
,,,,,,,,,,stimuli/images/PICTURE_203.png,GODS,5a6fa677c2eb6c00017e042e,2020-06-30_11h44.54.564,proactive,2020.1.2,Win32,60,5efb791ed4cb570da489e737,5efb871502c30e103feb79be,2,,,,,,cap,,,,,,0,42,42,30,1,4,1,,,,,,,,,,,,,,,,,,,,,,,,,,,,,,,,,,,,,,,,,,,,,,,,,,,,,,,,,,,,,,,,,,,,,,,,,,,
,,,,,,,,,,stimuli/images/PICTURE_95.png,HONEY,5a6fa677c2eb6c00017e042e,2020-06-30_11h44.54.564,proactive,2020.1.2,Win32,60,5efb791ed4cb570da489e737,5efb871502c30e103feb79be,2,,,,,,suitcase,,,,,,0,43,43,44,1,5,1,,,,,,,,,,,,,,,,,,,,,,,,,,,,,,,,,,,,,,,,,,,,,,,,,,,,,,,,,,,,,,,,,,,,,,,,,,,
,,,,,,,,,,stimuli/images/PICTURE_491.png,RIVER,5a6fa677c2eb6c00017e042e,2020-06-30_11h44.54.564,proactive,2020.1.2,Win32,60,5efb791ed4cb570da489e737,5efb871502c30e103feb79be,2,,,,,,rug,,,,,,0,44,44,6,1,1,1,,,,,,,,,,,,,,,,,,,,,,,,,,,,,,,,,,,,,,,,,,,,,,,,,,,,,,,,,,,,,,,,,,,,,,,,,,,
,,,,,,,,,,stimuli/images/PICTURE_449.png,DUDE,5a6fa677c2eb6c00017e042e,2020-06-30_11h44.54.564,proactive,2020.1.2,Win32,60,5efb791ed4cb570da489e737,5efb871502c30e103feb79be,2,,,,,,bench,,,,,,0,45,45,17,1,2,1,,,,,,,,,,,,,,,,,,,,,,,,,,,,,,,,,,,,,,,,,,,,,,,,,,,,,,,,,,,,,,,,,,,,,,,,,,,
,,,,,,,,,,stimuli/images/PICTURE_708.png,RECORD,5a6fa677c2eb6c00017e042e,2020-06-30_11h44.54.564,proactive,2020.1.2,Win32,60,5efb791ed4cb570da489e737,5efb871502c30e103feb79be,2,,,,,,monkey,,,,,,0,46,46,58,1,6,1,,,,,,,,,,,,,,,,,,,,,,,,,,,,,,,,,,,,,,,,,,,,,,,,,,,,,,,,,,,,,,,,,,,,,,,,,,,
,,,,,,,,,,stimuli/images/PICTURE_327.png,SERIES,5a6fa677c2eb6c00017e042e,2020-06-30_11h44.54.564,proactive,2020.1.2,Win32,60,5efb791ed4cb570da489e737,5efb871502c30e103feb79be,2,,,,,,helmet,,,,,,0,47,47,3,1,1,1,,,,,,,,,,,,,,,,,,,,,,,,,,,,,,,,,,,,,,,,,,,,,,,,,,,,,,,,,,,,,,,,,,,,,,,,,,,
,,,,,,,,,,stimuli/images/PICTURE_296.png,LOTS,5a6fa677c2eb6c00017e042e,2020-06-30_11h44.54.564,proactive,2020.1.2,Win32,60,5efb791ed4cb570da489e737,5efb871502c30e103feb79be,2,,,,,,bolt,,,,,,0,48,48,9,1,1,1,,,,,,,,,,,,,,,,,,,,,,,,,,,,,,,,,,,,,,,,,,,,,,,,,,,,,,,,,,,,,,,,,,,,,,,,,,,
,,,,,,,,,,stimuli/images/PICTURE_340.png,VALLEY,5a6fa677c2eb6c00017e042e,2020-06-30_11h44.54.564,proactive,2020.1.2,Win32,60,5efb791ed4cb570da489e737,5efb871502c30e103feb79be,2,,,,,,mirror,,,,,,0,49,49,54,1,6,1,,,,,,,,,,,,,,,,,,,,,,,,,,,,,,,,,,,,,,,,,,,,,,,,,,,,,,,,,,,,,,,,,,,,,,,,,,,
,,,,,,,,,,stimuli/images/PICTURE_2.png,FLIGHT,5a6fa677c2eb6c00017e042e,2020-06-30_11h44.54.564,proactive,2020.1.2,Win32,60,5efb791ed4cb570da489e737,5efb871502c30e103feb79be,2,,,,,,tyre,,,,,,0,50,50,15,1,2,1,,,,,,,,,,,,,,,,,,,,,,,,,,,,,,,,,,,,,,,,,,,,,,,,,,,,,,,,,,,,,,,,,,,,,,,,,,,
,,,,,,,,,,stimuli/images/PICTURE_405.png,PLENTY,5a6fa677c2eb6c00017e042e,2020-06-30_11h44.54.564,proactive,2020.1.2,Win32,60,5efb791ed4cb570da489e737,5efb871502c30e103feb79be,2,,,,,,anchor,,,,,,0,51,51,23,1,3,1,,,,,,,,,,,,,,,,,,,,,,,,,,,,,,,,,,,,,,,,,,,,,,,,,,,,,,,,,,,,,,,,,,,,,,,,,,,
,,,,,,,,,,stimuli/images/PICTURE_32.png,KIND,5a6fa677c2eb6c00017e042e,2020-06-30_11h44.54.564,proactive,2020.1.2,Win32,60,5efb791ed4cb570da489e737,5efb871502c30e103feb79be,2,,,,,,crown,,,,,,0,52,52,35,1,4,1,,,,,,,,,,,,,,,,,,,,,,,,,,,,,,,,,,,,,,,,,,,,,,,,,,,,,,,,,,,,,,,,,,,,,,,,,,,
,,,,,,,,,,stimuli/images/PICTURE_177.png,WRITER,5a6fa677c2eb6c00017e042e,2020-06-30_11h44.54.564,proactive,2020.1.2,Win32,60,5efb791ed4cb570da489e737,5efb871502c30e103feb79be,2,,,,,,mushroom,,,,,,0,53,53,41,1,5,1,,,,,,,,,,,,,,,,,,,,,,,,,,,,,,,,,,,,,,,,,,,,,,,,,,,,,,,,,,,,,,,,,,,,,,,,,,,
,,,,,,,,,,stimuli/images/PICTURE_405.png,YEAR,5a6fa677c2eb6c00017e042e,2020-06-30_11h44.54.564,proactive,2020.1.2,Win32,60,5efb791ed4cb570da489e737,5efb871502c30e103feb79be,2,,,,,,anchor,,,,,,0,54,54,34,1,4,1,,,,,,,,,,,,,,,,,,,,,,,,,,,,,,,,,,,,,,,,,,,,,,,,,,,,,,,,,,,,,,,,,,,,,,,,,,,
,,,,,,,,,,stimuli/images/PICTURE_340.png,LETTER,5a6fa677c2eb6c00017e042e,2020-06-30_11h44.54.564,proactive,2020.1.2,Win32,60,5efb791ed4cb570da489e737,5efb871502c30e103feb79be,2,,,,,,mirror,,,,,,0,55,55,24,1,3,1,,,,,,,,,,,,,,,,,,,,,,,,,,,,,,,,,,,,,,,,,,,,,,,,,,,,,,,,,,,,,,,,,,,,,,,,,,,
,,,,,,,,,,stimuli/images/PICTURE_403.png,TOILET,5a6fa677c2eb6c00017e042e,2020-06-30_11h44.54.564,proactive,2020.1.2,Win32,60,5efb791ed4cb570da489e737,5efb871502c30e103feb79be,2,,,,,,cathedral,,,,,,0,56,56,25,1,3,1,,,,,,,,,,,,,,,,,,,,,,,,,,,,,,,,,,,,,,,,,,,,,,,,,,,,,,,,,,,,,,,,,,,,,,,,,,,
,,,,,,,,,,stimuli/images/PICTURE_95.png,MILLER,5a6fa677c2eb6c00017e042e,2020-06-30_11h44.54.564,proactive,2020.1.2,Win32,60,5efb791ed4cb570da489e737,5efb871502c30e103feb79be,2,,,,,,suitcase,,,,,,0,57,57,56,1,6,1,,,,,,,,,,,,,,,,,,,,,,,,,,,,,,,,,,,,,,,,,,,,,,,,,,,,,,,,,,,,,,,,,,,,,,,,,,,
,,,,,,,,,,stimuli/images/PICTURE_327.png,CASINO,5a6fa677c2eb6c00017e042e,2020-06-30_11h44.54.564,proactive,2020.1.2,Win32,60,5efb791ed4cb570da489e737,5efb871502c30e103feb79be,2,,,,,,helmet,,,,,,0,58,58,20,1,3,1,,,,,,,,,,,,,,,,,,,,,,,,,,,,,,,,,,,,,,,,,,,,,,,,,,,,,,,,,,,,,,,,,,,,,,,,,,,
,,GLOBE,3.69596,0,,,,,,stimuli/images/PICTURE_339.png,CLIENT,5a6fa677c2eb6c00017e042e,2020-06-30_11h44.54.564,proactive,2020.1.2,Win32,60,5efb791ed4cb570da489e737,5efb871502c30e103feb79be,2,,,,,,backpack,,,,,,,,,,,2,1,0,0,0,11,1,,,,,,,,,,,,,,,,,,,,,,,,,,,,,,,,,,,,,,,,,,,,,,,,,,,,,,,,,,,,,,,,,,,,,,
,,GLOBE,1.465905,0,,,,,,stimuli/images/PICTURE_380.png,HONEY,5a6fa677c2eb6c00017e042e,2020-06-30_11h44.54.564,proactive,2020.1.2,Win32,60,5efb791ed4cb570da489e737,5efb871502c30e103feb79be,2,,,,,,gorilla,,,,,,,,,,,2,1,0,1,1,19,1,,,,,,,,,,,,,,,,,,,,,,,,,,,,,,,,,,,,,,,,,,,,,,,,,,,,,,,,,,,,,,,,,,,,,,
,,?,0.000615,0,,,,,,stimuli/images/PICTURE_491.png,RIVER,5a6fa677c2eb6c00017e042e,2020-06-30_11h44.54.564,proactive,2020.1.2,Win32,60,5efb791ed4cb570da489e737,5efb871502c30e103feb79be,2,,,,,,rug,,,,,,,,,,,1,1,0,2,2,6,1,,,,,,,,,,,,,,,,,,,,,,,,,,,,,,,,,,,,,,,,,,,,,,,,,,,,,,,,,,,,,,,,,,,,,,
,,?,0.00044,0,,,,,,stimuli/images/PICTURE_744.png,WEAPON,5a6fa677c2eb6c00017e042e,2020-06-30_11h44.54.564,proactive,2020.1.2,Win32,60,5efb791ed4cb570da489e737,5efb871502c30e103feb79be,2,,,,,,ring,,,,,,,,,,,6,1,0,3,3,50,1,,,,,,,,,,,,,,,,,,,,,,,,,,,,,,,,,,,,,,,,,,,,,,,,,,,,,,,,,,,,,,,,,,,,,,
,,?,0.000415,0,,,,,,stimuli/images/PICTURE_85.png,TOILET,5a6fa677c2eb6c00017e042e,2020-06-30_11h44.54.564,proactive,2020.1.2,Win32,60,5efb791ed4cb570da489e737,5efb871502c30e103feb79be,2,,,,,,diamond,,,,,,,,,,,5,1,0,4,4,48,1,,,,,,,,,,,,,,,,,,,,,,,,,,,,,,,,,,,,,,,,,,,,,,,,,,,,,,,,,,,,,,,,,,,,,,
,,?,0.000325,0,,,,,,stimuli/images/PICTURE_340.png,VALLEY,5a6fa677c2eb6c00017e042e,2020-06-30_11h44.54.564,proactive,2020.1.2,Win32,60,5efb791ed4cb570da489e737,5efb871502c30e103feb79be,2,,,,,,mirror,,,,,,,,,,,6,1,0,5,5,54,1,,,,,,,,,,,,,,,,,,,,,,,,,,,,,,,,,,,,,,,,,,,,,,,,,,,,,,,,,,,,,,,,,,,,,,
,,?,0.000325,0,,,,,,stimuli/images/PICTURE_708.png,RECORD,5a6fa677c2eb6c00017e042e,2020-06-30_11h44.54.564,proactive,2020.1.2,Win32,60,5efb791ed4cb570da489e737,5efb871502c30e103feb79be,2,,,,,,monkey,,,,,,,,,,,6,1,0,6,6,58,1,,,,,,,,,,,,,,,,,,,,,,,,,,,,,,,,,,,,,,,,,,,,,,,,,,,,,,,,,,,,,,,,,,,,,,
,,?,0.000325,0,,,,,,stimuli/images/PICTURE_203.png,NIGHT,5a6fa677c2eb6c00017e042e,2020-06-30_11h44.54.564,proactive,2020.1.2,Win32,60,5efb791ed4cb570da489e737,5efb871502c30e103feb79be,2,,,,,,cap,,,,,,,,,,,1,1,0,7,7,2,1,,,,,,,,,,,,,,,,,,,,,,,,,,,,,,,,,,,,,,,,,,,,,,,,,,,,,,,,,,,,,,,,,,,,,,
,,?,0.00044,0,,,,,,stimuli/images/PICTURE_147.png,YEAR,5a6fa677c2eb6c00017e042e,2020-06-30_11h44.54.564,proactive,2020.1.2,Win32,60,5efb791ed4cb570da489e737,5efb871502c30e103feb79be,2,,,,,,hanger,,,,,,,,,,,3,1,0,8,8,21,1,,,,,,,,,,,,,,,,,,,,,,,,,,,,,,,,,,,,,,,,,,,,,,,,,,,,,,,,,,,,,,,,,,,,,,
,,?,0.000315,0,,,,,,stimuli/images/PICTURE_147.png,WOMEN,5a6fa677c2eb6c00017e042e,2020-06-30_11h44.54.564,proactive,2020.1.2,Win32,60,5efb791ed4cb570da489e737,5efb871502c30e103feb79be,2,,,,,,hanger,,,,,,,,,,,1,1,0,9,9,7,1,,,,,,,,,,,,,,,,,,,,,,,,,,,,,,,,,,,,,,,,,,,,,,,,,,,,,,,,,,,,,,,,,,,,,,
,,?,0.000355,0,,,,,,stimuli/images/PICTURE_403.png,RIVER,5a6fa677c2eb6c00017e042e,2020-06-30_11h44.54.564,proactive,2020.1.2,Win32,60,5efb791ed4cb570da489e737,5efb871502c30e103feb79be,2,,,,,,cathedral,,,,,,,,,,,5,1,0,10,10,40,1,,,,,,,,,,,,,,,,,,,,,,,,,,,,,,,,,,,,,,,,,,,,,,,,,,,,,,,,,,,,,,,,,,,,,,
,,?,0.000375,0,,,,,,stimuli/images/PICTURE_380.png,CANDY,5a6fa677c2eb6c00017e042e,2020-06-30_11h44.54.564,proactive,2020.1.2,Win32,60,5efb791ed4cb570da489e737,5efb871502c30e103feb79be,2,,,,,,gorilla,,,,,,,,,,,1,1,0,11,11,0,1,,,,,,,,,,,,,,,,,,,,,,,,,,,,,,,,,,,,,,,,,,,,,,,,,,,,,,,,,,,,,,,,,,,,,,
,,?,0.000315,0,,,,,,stimuli/images/PICTURE_57.png,MOMENT,5a6fa677c2eb6c00017e042e,2020-06-30_11h44.54.564,proactive,2020.1.2,Win32,60,5efb791ed4cb570da489e737,5efb871502c30e103feb79be,2,,,,,,stamp,,,,,,,,,,,4,1,0,12,12,37,1,,,,,,,,,,,,,,,,,,,,,,,,,,,,,,,,,,,,,,,,,,,,,,,,,,,,,,,,,,,,,,,,,,,,,,
,,?,0.00033,0,,,,,,stimuli/images/PICTURE_108.png,POLICY,5a6fa677c2eb6c00017e042e,2020-06-30_11h44.54.564,proactive,2020.1.2,Win32,60,5efb791ed4cb570da489e737,5efb871502c30e103feb79be,2,,,,,,calendar,,,,,,,,,,,3,1,0,13,13,22,1,,,,,,,,,,,,,,,,,,,,,,,,,,,,,,,,,,,,,,,,,,,,,,,,,,,,,,,,,,,,,,,,,,,,,,
,,?,0.000315,0,,,,,,stimuli/images/PICTURE_405.png,YEAR,5a6fa677c2eb6c00017e042e,2020-06-30_11h44.54.564,proactive,2020.1.2,Win32,60,5efb791ed4cb570da489e737,5efb871502c30e103feb79be,2,,,,,,anchor,,,,,,,,,,,4,1,0,14,14,34,1,,,,,,,,,,,,,,,,,,,,,,,,,,,,,,,,,,,,,,,,,,,,,,,,,,,,,,,,,,,,,,,,,,,,,,
,,?,0.00031,0,,,,,,stimuli/images/PICTURE_383.png,WRITER,5a6fa677c2eb6c00017e042e,2020-06-30_11h44.54.564,proactive,2020.1.2,Win32,60,5efb791ed4cb570da489e737,5efb871502c30e103feb79be,2,,,,,,coin,,,,,,,,,,,3,1,0,15,15,28,1,,,,,,,,,,,,,,,,,,,,,,,,,,,,,,,,,,,,,,,,,,,,,,,,,,,,,,,,,,,,,,,,,,,,,,
,,?,0.00034,0,,,,,,stimuli/images/PICTURE_296.png,LIFE,5a6fa677c2eb6c00017e042e,2020-06-30_11h44.54.564,proactive,2020.1.2,Win32,60,5efb791ed4cb570da489e737,5efb871502c30e103feb79be,2,,,,,,bolt,,,,,,,,,,,6,1,0,16,16,57,1,,,,,,,,,,,,,,,,,,,,,,,,,,,,,,,,,,,,,,,,,,,,,,,,,,,,,,,,,,,,,,,,,,,,,,
,,?,0.000345,0,,,,,,stimuli/images/PICTURE_42.png,BOYS,5a6fa677c2eb6c00017e042e,2020-06-30_11h44.54.564,proactive,2020.1.2,Win32,60,5efb791ed4cb570da489e737,5efb871502c30e103feb79be,2,,,,,,pear,,,,,,,,,,,6,1,0,17,17,55,1,,,,,,,,,,,,,,,,,,,,,,,,,,,,,,,,,,,,,,,,,,,,,,,,,,,,,,,,,,,,,,,,,,,,,,
,,?,0.001265,0,,,,,,stimuli/images/PICTURE_297.png,RIVER,5a6fa677c2eb6c00017e042e,2020-06-30_11h44.54.564,proactive,2020.1.2,Win32,60,5efb791ed4cb570da489e737,5efb871502c30e103feb79be,2,,,,,,aeroplane,,,,,,,,,,,4,1,0,18,18,39,1,,,,,,,,,,,,,,,,,,,,,,,,,,,,,,,,,,,,,,,,,,,,,,,,,,,,,,,,,,,,,,,,,,,,,,
,,DRIVE,3.149945,0,,,,,,stimuli/images/PICTURE_504.png,YEAR,5a6fa677c2eb6c00017e042e,2020-06-30_11h44.54.564,proactive,2020.1.2,Win32,60,5efb791ed4cb570da489e737,5efb871502c30e103feb79be,2,,,,,,wheel,,,,,,,,,,,2,1,0,19,19,13,1,,,,,,,,,,,,,,,,,,,,,,,,,,,,,,,,,,,,,,,,,,,,,,,,,,,,,,,,,,,,,,,,,,,,,,
,,?,0.00077,0,,,,,,stimuli/images/PICTURE_750.png,HOTEL,5a6fa677c2eb6c00017e042e,2020-06-30_11h44.54.564,proactive,2020.1.2,Win32,60,5efb791ed4cb570da489e737,5efb871502c30e103feb79be,2,,,,,,kettle,,,,,,,,,,,3,1,0,20,20,27,1,,,,,,,,,,,,,,,,,,,,,,,,,,,,,,,,,,,,,,,,,,,,,,,,,,,,,,,,,,,,,,,,,,,,,,
,,?,0.000505,0,,,,,,stimuli/images/PICTURE_296.png,LOTS,5a6fa677c2eb6c00017e042e,2020-06-30_11h44.54.564,proactive,2020.1.2,Win32,60,5efb791ed4cb570da489e737,5efb871502c30e103feb79be,2,,,,,,bolt,,,,,,,,,,,1,1,0,21,21,9,1,,,,,,,,,,,,,,,,,,,,,,,,,,,,,,,,,,,,,,,,,,,,,,,,,,,,,,,,,,,,,,,,,,,,,,
,,LOVE,5.7969,0,,,,,,stimuli/images/PICTURE_667.png,RIVER,5a6fa677c2eb6c00017e042e,2020-06-30_11h44.54.564,proactive,2020.1.2,Win32,60,5efb791ed4cb570da489e737,5efb871502c30e103feb79be,2,,,,,,daisy,,,,,,,,,,,2,1,0,22,22,10,1,,,,,,,,,,,,,,,,,,,,,,,,,,,,,,,,,,,,,,,,,,,,,,,,,,,,,,,,,,,,,,,,,,,,,,
,,?,0.000615,0,,,,,,stimuli/images/PICTURE_467.png,POLICY,5a6fa677c2eb6c00017e042e,2020-06-30_11h44.54.564,proactive,2020.1.2,Win32,60,5efb791ed4cb570da489e737,5efb871502c30e103feb79be,2,,,,,,peg,,,,,,,,,,,6,1,0,23,23,53,1,,,,,,,,,,,,,,,,,,,,,,,,,,,,,,,,,,,,,,,,,,,,,,,,,,,,,,,,,,,,,,,,,,,,,,
,,?,0.0004,0,,,,,,stimuli/images/PICTURE_285.png,LIFE,5a6fa677c2eb6c00017e042e,2020-06-30_11h44.54.564,proactive,2020.1.2,Win32,60,5efb791ed4cb570da489e737,5efb871502c30e103feb79be,2,,,,,,carrot,,,,,,,,,,,4,1,0,24,24,33,1,,,,,,,,,,,,,,,,,,,,,,,,,,,,,,,,,,,,,,,,,,,,,,,,,,,,,,,,,,,,,,,,,,,,,,
,,LOSS,2.413855,0,,,,,,stimuli/images/PICTURE_491.png,GLASS,5a6fa677c2eb6c00017e042e,2020-06-30_11h44.54.564,proactive,2020.1.2,Win32,60,5efb791ed4cb570da489e737,5efb871502c30e103feb79be,2,,,,,,rug,,,,,,,,,,,2,1,0,25,25,14,1,,,,,,,,,,,,,,,,,,,,,,,,,,,,,,,,,,,,,,,,,,,,,,,,,,,,,,,,,,,,,,,,,,,,,,
,,?,0.00061,0,,,,,,stimuli/images/PICTURE_95.png,HONEY,5a6fa677c2eb6c00017e042e,2020-06-30_11h44.54.564,proactive,2020.1.2,Win32,60,5efb791ed4cb570da489e737,5efb871502c30e103feb79be,2,,,,,,suitcase,,,,,,,,,,,5,1,0,26,26,44,1,,,,,,,,,,,,,,,,,,,,,,,,,,,,,,,,,,,,,,,,,,,,,,,,,,,,,,,,,,,,,,,,,,,,,,
,,?,0.000495,0,,,,,,stimuli/images/PICTURE_108.png,FLIGHT,5a6fa677c2eb6c00017e042e,2020-06-30_11h44.54.564,proactive,2020.1.2,Win32,60,5efb791ed4cb570da489e737,5efb871502c30e103feb79be,2,,,,,,calendar,,,,,,,,,,,6,1,0,27,27,59,1,,,,,,,,,,,,,,,,,,,,,,,,,,,,,,,,,,,,,,,,,,,,,,,,,,,,,,,,,,,,,,,,,,,,,,
,,?,0.0004,0,,,,,,stimuli/images/PICTURE_33.png,FRIEND,5a6fa677c2eb6c00017e042e,2020-06-30_11h44.54.564,proactive,2020.1.2,Win32,60,5efb791ed4cb570da489e737,5efb871502c30e103feb79be,2,,,,,,frame,,,,,,,,,,,1,1,0,28,28,8,1,,,,,,,,,,,,,,,,,,,,,,,,,,,,,,,,,,,,,,,,,,,,,,,,,,,,,,,,,,,,,,,,,,,,,,
,,?,0.000375,0,,,,,,stimuli/images/PICTURE_654.png,MONTH,5a6fa677c2eb6c00017e042e,2020-06-30_11h44.54.564,proactive,2020.1.2,Win32,60,5efb791ed4cb570da489e737,5efb871502c30e103feb79be,2,,,,,,pencil,,,,,,,,,,,3,1,0,29,29,29,1,,,,,,,,,,,,,,,,,,,,,,,,,,,,,,,,,,,,,,,,,,,,,,,,,,,,,,,,,,,,,,,,,,,,,,
