consent_key.keys,consent_key.rt,recalled,recalled_rt,recall_acc,example_recall.thisRepN,example_recall.thisTrialN,example_recall.thisN,example_recall.thisIndex,example_recall.ran,file,word,participant,date,expName,psychopyVersion,OS,frameRate,STUDY_ID,SESSION_ID,list,prac_learn_study_loop.thisRepN,prac_learn_study_loop.thisTrialN,prac_learn_study_loop.thisN,prac_learn_study_loop.thisIndex,prac_learn_study_loop.ran,image,prac_learn_test_loop.thisRepN,prac_learn_test_loop.thisTrialN,prac_learn_test_loop.thisN,prac_learn_test_loop.thisIndex,prac_learn_test_loop.ran,learn_study_loop.thisRepN,learn_study_loop.thisTrialN,learn_study_loop.thisN,learn_study_loop.thisIndex,learn_study_loop.ran,list_no,block_no,learn_test_loop.thisRepN,learn_test_loop.thisTrialN,learn_test_loop.thisN,learn_test_loop.thisIndex,learn_test_loop.ran,learn_blocks.thisRepN,learn_blocks.thisTrialN,learn_blocks.thisN,learn_blocks.thisIndex,learn_blocks.ran,block_csv,key_resp_13.keys,key_resp_13.rt,learn_blocks_loop.thisRepN,learn_blocks_loop.thisTrialN,learn_blocks_loop.thisN,learn_blocks_loop.thisIndex,learn_blocks_loop.ran,final_learn_test.thisRepN,final_learn_test.thisTrialN,final_learn_test.thisN,final_learn_test.thisIndex,final_learn_test.ran,prac_wm_test_loop.thisRepN,prac_wm_test_loop.thisTrialN,prac_wm_test_loop.thisN,prac_wm_test_loop.thisIndex,prac_wm_test_loop.ran,wm_recalled1,wm_recall_rt1,wm_probed1,wm_recall_acc1,wm_recalled2,wm_recall_rt2,wm_probed2,wm_recall_acc2,wm_recalled3,wm_recall_rt3,wm_probed3,wm_recall_acc3,wm_recalled4,wm_recall_rt4,wm_probed4,wm_recall_acc4,prac_wm_trial_loop.thisRepN,prac_wm_trial_loop.thisTrialN,prac_wm_trial_loop.thisN,prac_wm_trial_loop.thisIndex,prac_wm_trial_loop.ran,word1,image1,file1,item_type1,word2,image2,file2,item_type2,word4,image4,file4,item_type4,word3,image3,file3,item_type3,wm_test_loop.thisRepN,wm_test_loop.thisTrialN,wm_test_loop.thisN,wm_test_loop.thisIndex,wm_test_loop.ran,wm_trial_loop.thisRepN,wm_trial_loop.thisTrialN,wm_trial_loop.thisN,wm_trial_loop.thisIndex,wm_trial_loop.ran
y,24.407,TOUGH,3.991,1,0,0,0,0,1,stimuli/images/PICTURE_747.png,TOUGH,5ac81b1068b65b00018d7881,2020-06-30_13h41.40.610,proactive,2020.1.2,MacIntel,60,5efb791ed4cb570da489e737,5efb871be70e7b1020ed0459,5,,,,,,,,,,,,,,,,,,,,,,,,,,,,,,,,,,,,,,,,,,,,,,,,,,,,,,,,,,,,,,,,,,,,,,,,,,,,,,,,,,,,,,,,,,,,,
,,,,,,,,,,stimuli/images/PICTURE_697.png,KILLER,5ac81b1068b65b00018d7881,2020-06-30_13h41.40.610,proactive,2020.1.2,MacIntel,60,5efb791ed4cb570da489e737,5efb871be70e7b1020ed0459,5,0,0,0,4,1,peach,,,,,,,,,,,,,,,,,,,,,,,,,,,,,,,,,,,,,,,,,,,,,,,,,,,,,,,,,,,,,,,,,,,,,,,,,,,,,,,,,,,,,,,
,,,,,,,,,,stimuli/images/PICTURE_378.png,LOSS,5ac81b1068b65b00018d7881,2020-06-30_13h41.40.610,proactive,2020.1.2,MacIntel,60,5efb791ed4cb570da489e737,5efb871be70e7b1020ed0459,5,0,1,1,2,1,lobster,,,,,,,,,,,,,,,,,,,,,,,,,,,,,,,,,,,,,,,,,,,,,,,,,,,,,,,,,,,,,,,,,,,,,,,,,,,,,,,,,,,,,,,
,,,,,,,,,,stimuli/images/PICTURE_727.png,CELL,5ac81b1068b65b00018d7881,2020-06-30_13h41.40.610,proactive,2020.1.2,MacIntel,60,5efb791ed4cb570da489e737,5efb871be70e7b1020ed0459,5,0,2,2,1,1,hose,,,,,,,,,,,,,,,,,,,,,,,,,,,,,,,,,,,,,,,,,,,,,,,,,,,,,,,,,,,,,,,,,,,,,,,,,,,,,,,,,,,,,,,
,,,,,,,,,,stimuli/images/PICTURE_658.png,DEVIL,5ac81b1068b65b00018d7881,2020-06-30_13h41.40.610,proactive,2020.1.2,MacIntel,60,5efb791ed4cb570da489e737,5efb871be70e7b1020ed0459,5,0,3,3,3,1,crow,,,,,,,,,,,,,,,,,,,,,,,,,,,,,,,,,,,,,,,,,,,,,,,,,,,,,,,,,,,,,,,,,,,,,,,,,,,,,,,,,,,,,,,
,,KILLER,1.581,1,,,,,,stimuli/images/PICTURE_697.png,KILLER,5ac81b1068b65b00018d7881,2020-06-30_13h41.40.610,proactive,2020.1.2,MacIntel,60,5efb791ed4cb570da489e737,5efb871be70e7b1020ed0459,5,,,,,,peach,0,0,0,4,1,,,,,,,,,,,,,,,,,,,,,,,,,,,,,,,,,,,,,,,,,,,,,,,,,,,,,,,,,,,,,,,,,,,,,,,,,,,,,,,,,,
,,LOSS,2.3,1,,,,,,stimuli/images/PICTURE_378.png,LOSS,5ac81b1068b65b00018d7881,2020-06-30_13h41.40.610,proactive,2020.1.2,MacIntel,60,5efb791ed4cb570da489e737,5efb871be70e7b1020ed0459,5,,,,,,lobster,0,1,1,2,1,,,,,,,,,,,,,,,,,,,,,,,,,,,,,,,,,,,,,,,,,,,,,,,,,,,,,,,,,,,,,,,,,,,,,,,,,,,,,,,,,,
,,COBB,4.6,0,,,,,,stimuli/images/PICTURE_727.png,CELL,5ac81b1068b65b00018d7881,2020-06-30_13h41.40.610,proactive,2020.1.2,MacIntel,60,5efb791ed4cb570da489e737,5efb871be70e7b1020ed0459,5,,,,,,hose,0,2,2,1,1,,,,,,,,,,,,,,,,,,,,,,,,,,,,,,,,,,,,,,,,,,,,,,,,,,,,,,,,,,,,,,,,,,,,,,,,,,,,,,,,,,
,,BOSS,2.983,0,,,,,,stimuli/images/PICTURE_269.png,GENIUS,5ac81b1068b65b00018d7881,2020-06-30_13h41.40.610,proactive,2020.1.2,MacIntel,60,5efb791ed4cb570da489e737,5efb871be70e7b1020ed0459,5,,,,,,chameleon,0,3,3,0,1,,,,,,,,,,,,,,,,,,,,,,,,,,,,,,,,,,,,,,,,,,,,,,,,,,,,,,,,,,,,,,,,,,,,,,,,,,,,,,,,,,
,,BOSS,2.7,0,,,,,,stimuli/images/PICTURE_658.png,DEVIL,5ac81b1068b65b00018d7881,2020-06-30_13h41.40.610,proactive,2020.1.2,MacIntel,60,5efb791ed4cb570da489e737,5efb871be70e7b1020ed0459,5,,,,,,crow,0,4,4,3,1,,,,,,,,,,,,,,,,,,,,,,,,,,,,,,,,,,,,,,,,,,,,,,,,,,,,,,,,,,,,,,,,,,,,,,,,,,,,,,,,,,
,,,,,,,,,,stimuli/images/PICTURE_32.png,KIND,5ac81b1068b65b00018d7881,2020-06-30_13h41.40.610,proactive,2020.1.2,MacIntel,60,5efb791ed4cb570da489e737,5efb871be70e7b1020ed0459,5,,,,,,crown,,,,,,0,0,0,35,1,4,1,,,,,,,,,,,,,,,,,,,,,,,,,,,,,,,,,,,,,,,,,,,,,,,,,,,,,,,,,,,,,,,,,,,,,,,,,,,
,,,,,,,,,,stimuli/images/PICTURE_68.png,MILE,5ac81b1068b65b00018d7881,2020-06-30_13h41.40.610,proactive,2020.1.2,MacIntel,60,5efb791ed4cb570da489e737,5efb871be70e7b1020ed0459,5,,,,,,candle,,,,,,0,1,1,51,1,6,1,,,,,,,,,,,,,,,,,,,,,,,,,,,,,,,,,,,,,,,,,,,,,,,,,,,,,,,,,,,,,,,,,,,,,,,,,,,
,,,,,,,,,,stimuli/images/PICTURE_2.png,FLIGHT,5ac81b1068b65b00018d7881,2020-06-30_13h41.40.610,proactive,2020.1.2,MacIntel,60,5efb791ed4cb570da489e737,5efb871be70e7b1020ed0459,5,,,,,,tyre,,,,,,0,2,2,15,1,2,1,,,,,,,,,,,,,,,,,,,,,,,,,,,,,,,,,,,,,,,,,,,,,,,,,,,,,,,,,,,,,,,,,,,,,,,,,,,
,,,,,,,,,,stimuli/images/PICTURE_85.png,TOILET,5ac81b1068b65b00018d7881,2020-06-30_13h41.40.610,proactive,2020.1.2,MacIntel,60,5efb791ed4cb570da489e737,5efb871be70e7b1020ed0459,5,,,,,,diamond,,,,,,0,3,3,48,1,5,1,,,,,,,,,,,,,,,,,,,,,,,,,,,,,,,,,,,,,,,,,,,,,,,,,,,,,,,,,,,,,,,,,,,,,,,,,,,
,,,,,,,,,,stimuli/images/PICTURE_42.png,BOYS,5ac81b1068b65b00018d7881,2020-06-30_13h41.40.610,proactive,2020.1.2,MacIntel,60,5efb791ed4cb570da489e737,5efb871be70e7b1020ed0459,5,,,,,,pear,,,,,,0,4,4,55,1,6,1,,,,,,,,,,,,,,,,,,,,,,,,,,,,,,,,,,,,,,,,,,,,,,,,,,,,,,,,,,,,,,,,,,,,,,,,,,,
,,,,,,,,,,stimuli/images/PICTURE_405.png,PLENTY,5ac81b1068b65b00018d7881,2020-06-30_13h41.40.610,proactive,2020.1.2,MacIntel,60,5efb791ed4cb570da489e737,5efb871be70e7b1020ed0459,5,,,,,,anchor,,,,,,0,5,5,23,1,3,1,,,,,,,,,,,,,,,,,,,,,,,,,,,,,,,,,,,,,,,,,,,,,,,,,,,,,,,,,,,,,,,,,,,,,,,,,,,
,,,,,,,,,,stimuli/images/PICTURE_340.png,LETTER,5ac81b1068b65b00018d7881,2020-06-30_13h41.40.610,proactive,2020.1.2,MacIntel,60,5efb791ed4cb570da489e737,5efb871be70e7b1020ed0459,5,,,,,,mirror,,,,,,0,6,6,24,1,3,1,,,,,,,,,,,,,,,,,,,,,,,,,,,,,,,,,,,,,,,,,,,,,,,,,,,,,,,,,,,,,,,,,,,,,,,,,,,
,,,,,,,,,,stimuli/images/PICTURE_327.png,SERIES,5ac81b1068b65b00018d7881,2020-06-30_13h41.40.610,proactive,2020.1.2,MacIntel,60,5efb791ed4cb570da489e737,5efb871be70e7b1020ed0459,5,,,,,,helmet,,,,,,0,7,7,3,1,1,1,,,,,,,,,,,,,,,,,,,,,,,,,,,,,,,,,,,,,,,,,,,,,,,,,,,,,,,,,,,,,,,,,,,,,,,,,,,
,,,,,,,,,,stimuli/images/PICTURE_308.png,FAMILY,5ac81b1068b65b00018d7881,2020-06-30_13h41.40.610,proactive,2020.1.2,MacIntel,60,5efb791ed4cb570da489e737,5efb871be70e7b1020ed0459,5,,,,,,dice,,,,,,0,8,8,36,1,4,1,,,,,,,,,,,,,,,,,,,,,,,,,,,,,,,,,,,,,,,,,,,,,,,,,,,,,,,,,,,,,,,,,,,,,,,,,,,
,,,,,,,,,,stimuli/images/PICTURE_203.png,NIGHT,5ac81b1068b65b00018d7881,2020-06-30_13h41.40.610,proactive,2020.1.2,MacIntel,60,5efb791ed4cb570da489e737,5efb871be70e7b1020ed0459,5,,,,,,cap,,,,,,0,9,9,2,1,1,1,,,,,,,,,,,,,,,,,,,,,,,,,,,,,,,,,,,,,,,,,,,,,,,,,,,,,,,,,,,,,,,,,,,,,,,,,,,
,,,,,,,,,,stimuli/images/PICTURE_285.png,LIFE,5ac81b1068b65b00018d7881,2020-06-30_13h41.40.610,proactive,2020.1.2,MacIntel,60,5efb791ed4cb570da489e737,5efb871be70e7b1020ed0459,5,,,,,,carrot,,,,,,0,10,10,33,1,4,1,,,,,,,,,,,,,,,,,,,,,,,,,,,,,,,,,,,,,,,,,,,,,,,,,,,,,,,,,,,,,,,,,,,,,,,,,,,
,,,,,,,,,,stimuli/images/PICTURE_95.png,BOYS,5ac81b1068b65b00018d7881,2020-06-30_13h41.40.610,proactive,2020.1.2,MacIntel,60,5efb791ed4cb570da489e737,5efb871be70e7b1020ed0459,5,,,,,,suitcase,,,,,,0,11,11,1,1,1,1,,,,,,,,,,,,,,,,,,,,,,,,,,,,,,,,,,,,,,,,,,,,,,,,,,,,,,,,,,,,,,,,,,,,,,,,,,,
,,,,,,,,,,stimuli/images/PICTURE_744.png,WEAPON,5ac81b1068b65b00018d7881,2020-06-30_13h41.40.610,proactive,2020.1.2,MacIntel,60,5efb791ed4cb570da489e737,5efb871be70e7b1020ed0459,5,,,,,,ring,,,,,,0,12,12,50,1,6,1,,,,,,,,,,,,,,,,,,,,,,,,,,,,,,,,,,,,,,,,,,,,,,,,,,,,,,,,,,,,,,,,,,,,,,,,,,,
,,,,,,,,,,stimuli/images/PICTURE_667.png,RIVER,5ac81b1068b65b00018d7881,2020-06-30_13h41.40.610,proactive,2020.1.2,MacIntel,60,5efb791ed4cb570da489e737,5efb871be70e7b1020ed0459,5,,,,,,daisy,,,,,,0,13,13,10,1,2,1,,,,,,,,,,,,,,,,,,,,,,,,,,,,,,,,,,,,,,,,,,,,,,,,,,,,,,,,,,,,,,,,,,,,,,,,,,,
,,,,,,,,,,stimuli/images/PICTURE_504.png,COPS,5ac81b1068b65b00018d7881,2020-06-30_13h41.40.610,proactive,2020.1.2,MacIntel,60,5efb791ed4cb570da489e737,5efb871be70e7b1020ed0459,5,,,,,,wheel,,,,,,0,14,14,52,1,6,1,,,,,,,,,,,,,,,,,,,,,,,,,,,,,,,,,,,,,,,,,,,,,,,,,,,,,,,,,,,,,,,,,,,,,,,,,,,
,,,,,,,,,,stimuli/images/PICTURE_564.png,BATH,5ac81b1068b65b00018d7881,2020-06-30_13h41.40.610,proactive,2020.1.2,MacIntel,60,5efb791ed4cb570da489e737,5efb871be70e7b1020ed0459,5,,,,,,spoon,,,,,,0,15,15,26,1,3,1,,,,,,,,,,,,,,,,,,,,,,,,,,,,,,,,,,,,,,,,,,,,,,,,,,,,,,,,,,,,,,,,,,,,,,,,,,,
,,,,,,,,,,stimuli/images/PICTURE_685.png,PENNY,5ac81b1068b65b00018d7881,2020-06-30_13h41.40.610,proactive,2020.1.2,MacIntel,60,5efb791ed4cb570da489e737,5efb871be70e7b1020ed0459,5,,,,,,goose,,,,,,0,16,16,4,1,1,1,,,,,,,,,,,,,,,,,,,,,,,,,,,,,,,,,,,,,,,,,,,,,,,,,,,,,,,,,,,,,,,,,,,,,,,,,,,
,,,,,,,,,,stimuli/images/PICTURE_750.png,HOTEL,5ac81b1068b65b00018d7881,2020-06-30_13h41.40.610,proactive,2020.1.2,MacIntel,60,5efb791ed4cb570da489e737,5efb871be70e7b1020ed0459,5,,,,,,kettle,,,,,,0,17,17,27,1,3,1,,,,,,,,,,,,,,,,,,,,,,,,,,,,,,,,,,,,,,,,,,,,,,,,,,,,,,,,,,,,,,,,,,,,,,,,,,,
,,,,,,,,,,stimuli/images/PICTURE_383.png,WRITER,5ac81b1068b65b00018d7881,2020-06-30_13h41.40.610,proactive,2020.1.2,MacIntel,60,5efb791ed4cb570da489e737,5efb871be70e7b1020ed0459,5,,,,,,coin,,,,,,0,18,18,28,1,3,1,,,,,,,,,,,,,,,,,,,,,,,,,,,,,,,,,,,,,,,,,,,,,,,,,,,,,,,,,,,,,,,,,,,,,,,,,,,
,,,,,,,,,,stimuli/images/PICTURE_403.png,WRITER,5ac81b1068b65b00018d7881,2020-06-30_13h41.40.610,proactive,2020.1.2,MacIntel,60,5efb791ed4cb570da489e737,5efb871be70e7b1020ed0459,5,,,,,,cathedral,,,,,,0,19,19,31,1,4,1,,,,,,,,,,,,,,,,,,,,,,,,,,,,,,,,,,,,,,,,,,,,,,,,,,,,,,,,,,,,,,,,,,,,,,,,,,,
,,,,,,,,,,stimuli/images/PICTURE_654.png,MONTH,5ac81b1068b65b00018d7881,2020-06-30_13h41.40.610,proactive,2020.1.2,MacIntel,60,5efb791ed4cb570da489e737,5efb871be70e7b1020ed0459,5,,,,,,pencil,,,,,,0,20,20,29,1,3,1,,,,,,,,,,,,,,,,,,,,,,,,,,,,,,,,,,,,,,,,,,,,,,,,,,,,,,,,,,,,,,,,,,,,,,,,,,,
,,,,,,,,,,stimuli/images/PICTURE_296.png,LOTS,5ac81b1068b65b00018d7881,2020-06-30_13h41.40.610,proactive,2020.1.2,MacIntel,60,5efb791ed4cb570da489e737,5efb871be70e7b1020ed0459,5,,,,,,bolt,,,,,,0,21,21,9,1,1,1,,,,,,,,,,,,,,,,,,,,,,,,,,,,,,,,,,,,,,,,,,,,,,,,,,,,,,,,,,,,,,,,,,,,,,,,,,,
,,,,,,,,,,stimuli/images/PICTURE_469.png,AGENT,5ac81b1068b65b00018d7881,2020-06-30_13h41.40.610,proactive,2020.1.2,MacIntel,60,5efb791ed4cb570da489e737,5efb871be70e7b1020ed0459,5,,,,,,stool,,,,,,0,22,22,16,1,2,1,,,,,,,,,,,,,,,,,,,,,,,,,,,,,,,,,,,,,,,,,,,,,,,,,,,,,,,,,,,,,,,,,,,,,,,,,,,
,,,,,,,,,,stimuli/images/PICTURE_95.png,MILLER,5ac81b1068b65b00018d7881,2020-06-30_13h41.40.610,proactive,2020.1.2,MacIntel,60,5efb791ed4cb570da489e737,5efb871be70e7b1020ed0459,5,,,,,,suitcase,,,,,,0,23,23,56,1,6,1,,,,,,,,,,,,,,,,,,,,,,,,,,,,,,,,,,,,,,,,,,,,,,,,,,,,,,,,,,,,,,,,,,,,,,,,,,,
,,,,,,,,,,stimuli/images/PICTURE_403.png,RIVER,5ac81b1068b65b00018d7881,2020-06-30_13h41.40.610,proactive,2020.1.2,MacIntel,60,5efb791ed4cb570da489e737,5efb871be70e7b1020ed0459,5,,,,,,cathedral,,,,,,0,24,24,40,1,5,1,,,,,,,,,,,,,,,,,,,,,,,,,,,,,,,,,,,,,,,,,,,,,,,,,,,,,,,,,,,,,,,,,,,,,,,,,,,
,,,,,,,,,,stimuli/images/PICTURE_296.png,LIFE,5ac81b1068b65b00018d7881,2020-06-30_13h41.40.610,proactive,2020.1.2,MacIntel,60,5efb791ed4cb570da489e737,5efb871be70e7b1020ed0459,5,,,,,,bolt,,,,,,0,25,25,57,1,6,1,,,,,,,,,,,,,,,,,,,,,,,,,,,,,,,,,,,,,,,,,,,,,,,,,,,,,,,,,,,,,,,,,,,,,,,,,,,
,,,,,,,,,,stimuli/images/PICTURE_32.png,PILLS,5ac81b1068b65b00018d7881,2020-06-30_13h41.40.610,proactive,2020.1.2,MacIntel,60,5efb791ed4cb570da489e737,5efb871be70e7b1020ed0459,5,,,,,,crown,,,,,,0,26,26,18,1,2,1,,,,,,,,,,,,,,,,,,,,,,,,,,,,,,,,,,,,,,,,,,,,,,,,,,,,,,,,,,,,,,,,,,,,,,,,,,,
,,,,,,,,,,stimuli/images/PICTURE_340.png,VALLEY,5ac81b1068b65b00018d7881,2020-06-30_13h41.40.610,proactive,2020.1.2,MacIntel,60,5efb791ed4cb570da489e737,5efb871be70e7b1020ed0459,5,,,,,,mirror,,,,,,0,27,27,54,1,6,1,,,,,,,,,,,,,,,,,,,,,,,,,,,,,,,,,,,,,,,,,,,,,,,,,,,,,,,,,,,,,,,,,,,,,,,,,,,
,,,,,,,,,,stimuli/images/PICTURE_677.png,APPLE,5ac81b1068b65b00018d7881,2020-06-30_13h41.40.610,proactive,2020.1.2,MacIntel,60,5efb791ed4cb570da489e737,5efb871be70e7b1020ed0459,5,,,,,,map,,,,,,0,28,28,43,1,5,1,,,,,,,,,,,,,,,,,,,,,,,,,,,,,,,,,,,,,,,,,,,,,,,,,,,,,,,,,,,,,,,,,,,,,,,,,,,
,,,,,,,,,,stimuli/images/PICTURE_85.png,NATION,5ac81b1068b65b00018d7881,2020-06-30_13h41.40.610,proactive,2020.1.2,MacIntel,60,5efb791ed4cb570da489e737,5efb871be70e7b1020ed0459,5,,,,,,diamond,,,,,,0,29,29,5,1,1,1,,,,,,,,,,,,,,,,,,,,,,,,,,,,,,,,,,,,,,,,,,,,,,,,,,,,,,,,,,,,,,,,,,,,,,,,,,,
,,,,,,,,,,stimuli/images/PICTURE_467.png,POLICY,5ac81b1068b65b00018d7881,2020-06-30_13h41.40.610,proactive,2020.1.2,MacIntel,60,5efb791ed4cb570da489e737,5efb871be70e7b1020ed0459,5,,,,,,peg,,,,,,0,30,30,53,1,6,1,,,,,,,,,,,,,,,,,,,,,,,,,,,,,,,,,,,,,,,,,,,,,,,,,,,,,,,,,,,,,,,,,,,,,,,,,,,
,,,,,,,,,,stimuli/images/PICTURE_233.png,LOTS,5ac81b1068b65b00018d7881,2020-06-30_13h41.40.610,proactive,2020.1.2,MacIntel,60,5efb791ed4cb570da489e737,5efb871be70e7b1020ed0459,5,,,,,,salt,,,,,,0,31,31,42,1,5,1,,,,,,,,,,,,,,,,,,,,,,,,,,,,,,,,,,,,,,,,,,,,,,,,,,,,,,,,,,,,,,,,,,,,,,,,,,,
,,,,,,,,,,stimuli/images/PICTURE_57.png,MOMENT,5ac81b1068b65b00018d7881,2020-06-30_13h41.40.610,proactive,2020.1.2,MacIntel,60,5efb791ed4cb570da489e737,5efb871be70e7b1020ed0459,5,,,,,,stamp,,,,,,0,32,32,37,1,4,1,,,,,,,,,,,,,,,,,,,,,,,,,,,,,,,,,,,,,,,,,,,,,,,,,,,,,,,,,,,,,,,,,,,,,,,,,,,
,,,,,,,,,,stimuli/images/PICTURE_380.png,CANDY,5ac81b1068b65b00018d7881,2020-06-30_13h41.40.610,proactive,2020.1.2,MacIntel,60,5efb791ed4cb570da489e737,5efb871be70e7b1020ed0459,5,,,,,,gorilla,,,,,,0,33,33,0,1,1,1,,,,,,,,,,,,,,,,,,,,,,,,,,,,,,,,,,,,,,,,,,,,,,,,,,,,,,,,,,,,,,,,,,,,,,,,,,,
,,,,,,,,,,stimuli/images/PICTURE_339.png,CLIENT,5ac81b1068b65b00018d7881,2020-06-30_13h41.40.610,proactive,2020.1.2,MacIntel,60,5efb791ed4cb570da489e737,5efb871be70e7b1020ed0459,5,,,,,,backpack,,,,,,0,34,34,11,1,2,1,,,,,,,,,,,,,,,,,,,,,,,,,,,,,,,,,,,,,,,,,,,,,,,,,,,,,,,,,,,,,,,,,,,,,,,,,,,
,,,,,,,,,,stimuli/images/PICTURE_327.png,CASINO,5ac81b1068b65b00018d7881,2020-06-30_13h41.40.610,proactive,2020.1.2,MacIntel,60,5efb791ed4cb570da489e737,5efb871be70e7b1020ed0459,5,,,,,,helmet,,,,,,0,35,35,20,1,3,1,,,,,,,,,,,,,,,,,,,,,,,,,,,,,,,,,,,,,,,,,,,,,,,,,,,,,,,,,,,,,,,,,,,,,,,,,,,
,,,,,,,,,,stimuli/images/PICTURE_675.png,SALE,5ac81b1068b65b00018d7881,2020-06-30_13h41.40.610,proactive,2020.1.2,MacIntel,60,5efb791ed4cb570da489e737,5efb871be70e7b1020ed0459,5,,,,,,windmill,,,,,,0,36,36,47,1,5,1,,,,,,,,,,,,,,,,,,,,,,,,,,,,,,,,,,,,,,,,,,,,,,,,,,,,,,,,,,,,,,,,,,,,,,,,,,,
,,,,,,,,,,stimuli/images/PICTURE_108.png,FLIGHT,5ac81b1068b65b00018d7881,2020-06-30_13h41.40.610,proactive,2020.1.2,MacIntel,60,5efb791ed4cb570da489e737,5efb871be70e7b1020ed0459,5,,,,,,calendar,,,,,,0,37,37,59,1,6,1,,,,,,,,,,,,,,,,,,,,,,,,,,,,,,,,,,,,,,,,,,,,,,,,,,,,,,,,,,,,,,,,,,,,,,,,,,,
,,,,,,,,,,stimuli/images/PICTURE_405.png,YEAR,5ac81b1068b65b00018d7881,2020-06-30_13h41.40.610,proactive,2020.1.2,MacIntel,60,5efb791ed4cb570da489e737,5efb871be70e7b1020ed0459,5,,,,,,anchor,,,,,,0,38,38,34,1,4,1,,,,,,,,,,,,,,,,,,,,,,,,,,,,,,,,,,,,,,,,,,,,,,,,,,,,,,,,,,,,,,,,,,,,,,,,,,,
,,,,,,,,,,stimuli/images/PICTURE_403.png,TOILET,5ac81b1068b65b00018d7881,2020-06-30_13h41.40.610,proactive,2020.1.2,MacIntel,60,5efb791ed4cb570da489e737,5efb871be70e7b1020ed0459,5,,,,,,cathedral,,,,,,0,39,39,25,1,3,1,,,,,,,,,,,,,,,,,,,,,,,,,,,,,,,,,,,,,,,,,,,,,,,,,,,,,,,,,,,,,,,,,,,,,,,,,,,
,,,,,,,,,,stimuli/images/PICTURE_208.png,SYSTEM,5ac81b1068b65b00018d7881,2020-06-30_13h41.40.610,proactive,2020.1.2,MacIntel,60,5efb791ed4cb570da489e737,5efb871be70e7b1020ed0459,5,,,,,,microphone,,,,,,0,40,40,32,1,4,1,,,,,,,,,,,,,,,,,,,,,,,,,,,,,,,,,,,,,,,,,,,,,,,,,,,,,,,,,,,,,,,,,,,,,,,,,,,
,,,,,,,,,,stimuli/images/PICTURE_504.png,YEAR,5ac81b1068b65b00018d7881,2020-06-30_13h41.40.610,proactive,2020.1.2,MacIntel,60,5efb791ed4cb570da489e737,5efb871be70e7b1020ed0459,5,,,,,,wheel,,,,,,0,41,41,13,1,2,1,,,,,,,,,,,,,,,,,,,,,,,,,,,,,,,,,,,,,,,,,,,,,,,,,,,,,,,,,,,,,,,,,,,,,,,,,,,
,,,,,,,,,,stimuli/images/PICTURE_491.png,GLASS,5ac81b1068b65b00018d7881,2020-06-30_13h41.40.610,proactive,2020.1.2,MacIntel,60,5efb791ed4cb570da489e737,5efb871be70e7b1020ed0459,5,,,,,,rug,,,,,,0,42,42,14,1,2,1,,,,,,,,,,,,,,,,,,,,,,,,,,,,,,,,,,,,,,,,,,,,,,,,,,,,,,,,,,,,,,,,,,,,,,,,,,,
,,,,,,,,,,stimuli/images/PICTURE_504.png,ARTIST,5ac81b1068b65b00018d7881,2020-06-30_13h41.40.610,proactive,2020.1.2,MacIntel,60,5efb791ed4cb570da489e737,5efb871be70e7b1020ed0459,5,,,,,,wheel,,,,,,0,43,43,49,1,5,1,,,,,,,,,,,,,,,,,,,,,,,,,,,,,,,,,,,,,,,,,,,,,,,,,,,,,,,,,,,,,,,,,,,,,,,,,,,
,,,,,,,,,,stimuli/images/PICTURE_708.png,RECORD,5ac81b1068b65b00018d7881,2020-06-30_13h41.40.610,proactive,2020.1.2,MacIntel,60,5efb791ed4cb570da489e737,5efb871be70e7b1020ed0459,5,,,,,,monkey,,,,,,0,44,44,58,1,6,1,,,,,,,,,,,,,,,,,,,,,,,,,,,,,,,,,,,,,,,,,,,,,,,,,,,,,,,,,,,,,,,,,,,,,,,,,,,
,,,,,,,,,,stimuli/images/PICTURE_655.png,TOILET,5ac81b1068b65b00018d7881,2020-06-30_13h41.40.610,proactive,2020.1.2,MacIntel,60,5efb791ed4cb570da489e737,5efb871be70e7b1020ed0459,5,,,,,,megaphone,,,,,,0,45,45,12,1,2,1,,,,,,,,,,,,,,,,,,,,,,,,,,,,,,,,,,,,,,,,,,,,,,,,,,,,,,,,,,,,,,,,,,,,,,,,,,,
,,,,,,,,,,stimuli/images/PICTURE_95.png,HONEY,5ac81b1068b65b00018d7881,2020-06-30_13h41.40.610,proactive,2020.1.2,MacIntel,60,5efb791ed4cb570da489e737,5efb871be70e7b1020ed0459,5,,,,,,suitcase,,,,,,0,46,46,44,1,5,1,,,,,,,,,,,,,,,,,,,,,,,,,,,,,,,,,,,,,,,,,,,,,,,,,,,,,,,,,,,,,,,,,,,,,,,,,,,
,,,,,,,,,,stimuli/images/PICTURE_297.png,RIVER,5ac81b1068b65b00018d7881,2020-06-30_13h41.40.610,proactive,2020.1.2,MacIntel,60,5efb791ed4cb570da489e737,5efb871be70e7b1020ed0459,5,,,,,,aeroplane,,,,,,0,47,47,39,1,4,1,,,,,,,,,,,,,,,,,,,,,,,,,,,,,,,,,,,,,,,,,,,,,,,,,,,,,,,,,,,,,,,,,,,,,,,,,,,
,,,,,,,,,,stimuli/images/PICTURE_147.png,YEAR,5ac81b1068b65b00018d7881,2020-06-30_13h41.40.610,proactive,2020.1.2,MacIntel,60,5efb791ed4cb570da489e737,5efb871be70e7b1020ed0459,5,,,,,,hanger,,,,,,0,48,48,21,1,3,1,,,,,,,,,,,,,,,,,,,,,,,,,,,,,,,,,,,,,,,,,,,,,,,,,,,,,,,,,,,,,,,,,,,,,,,,,,,
,,,,,,,,,,stimuli/images/PICTURE_68.png,ROOF,5ac81b1068b65b00018d7881,2020-06-30_13h41.40.610,proactive,2020.1.2,MacIntel,60,5efb791ed4cb570da489e737,5efb871be70e7b1020ed0459,5,,,,,,candle,,,,,,0,49,49,38,1,4,1,,,,,,,,,,,,,,,,,,,,,,,,,,,,,,,,,,,,,,,,,,,,,,,,,,,,,,,,,,,,,,,,,,,,,,,,,,,
,,,,,,,,,,stimuli/images/PICTURE_380.png,HONEY,5ac81b1068b65b00018d7881,2020-06-30_13h41.40.610,proactive,2020.1.2,MacIntel,60,5efb791ed4cb570da489e737,5efb871be70e7b1020ed0459,5,,,,,,gorilla,,,,,,0,50,50,19,1,2,1,,,,,,,,,,,,,,,,,,,,,,,,,,,,,,,,,,,,,,,,,,,,,,,,,,,,,,,,,,,,,,,,,,,,,,,,,,,
,,,,,,,,,,stimuli/images/PICTURE_383.png,SERIES,5ac81b1068b65b00018d7881,2020-06-30_13h41.40.610,proactive,2020.1.2,MacIntel,60,5efb791ed4cb570da489e737,5efb871be70e7b1020ed0459,5,,,,,,coin,,,,,,0,51,51,46,1,5,1,,,,,,,,,,,,,,,,,,,,,,,,,,,,,,,,,,,,,,,,,,,,,,,,,,,,,,,,,,,,,,,,,,,,,,,,,,,
,,,,,,,,,,stimuli/images/PICTURE_177.png,WRITER,5ac81b1068b65b00018d7881,2020-06-30_13h41.40.610,proactive,2020.1.2,MacIntel,60,5efb791ed4cb570da489e737,5efb871be70e7b1020ed0459,5,,,,,,mushroom,,,,,,0,52,52,41,1,5,1,,,,,,,,,,,,,,,,,,,,,,,,,,,,,,,,,,,,,,,,,,,,,,,,,,,,,,,,,,,,,,,,,,,,,,,,,,,
,,,,,,,,,,stimuli/images/PICTURE_491.png,RIVER,5ac81b1068b65b00018d7881,2020-06-30_13h41.40.610,proactive,2020.1.2,MacIntel,60,5efb791ed4cb570da489e737,5efb871be70e7b1020ed0459,5,,,,,,rug,,,,,,0,53,53,6,1,1,1,,,,,,,,,,,,,,,,,,,,,,,,,,,,,,,,,,,,,,,,,,,,,,,,,,,,,,,,,,,,,,,,,,,,,,,,,,,
,,,,,,,,,,stimuli/images/PICTURE_108.png,POLICY,5ac81b1068b65b00018d7881,2020-06-30_13h41.40.610,proactive,2020.1.2,MacIntel,60,5efb791ed4cb570da489e737,5efb871be70e7b1020ed0459,5,,,,,,calendar,,,,,,0,54,54,22,1,3,1,,,,,,,,,,,,,,,,,,,,,,,,,,,,,,,,,,,,,,,,,,,,,,,,,,,,,,,,,,,,,,,,,,,,,,,,,,,
,,,,,,,,,,stimuli/images/PICTURE_449.png,DUDE,5ac81b1068b65b00018d7881,2020-06-30_13h41.40.610,proactive,2020.1.2,MacIntel,60,5efb791ed4cb570da489e737,5efb871be70e7b1020ed0459,5,,,,,,bench,,,,,,0,55,55,17,1,2,1,,,,,,,,,,,,,,,,,,,,,,,,,,,,,,,,,,,,,,,,,,,,,,,,,,,,,,,,,,,,,,,,,,,,,,,,,,,
,,,,,,,,,,stimuli/images/PICTURE_147.png,WOMEN,5ac81b1068b65b00018d7881,2020-06-30_13h41.40.610,proactive,2020.1.2,MacIntel,60,5efb791ed4cb570da489e737,5efb871be70e7b1020ed0459,5,,,,,,hanger,,,,,,0,56,56,7,1,1,1,,,,,,,,,,,,,,,,,,,,,,,,,,,,,,,,,,,,,,,,,,,,,,,,,,,,,,,,,,,,,,,,,,,,,,,,,,,
,,,,,,,,,,stimuli/images/PICTURE_33.png,FRIEND,5ac81b1068b65b00018d7881,2020-06-30_13h41.40.610,proactive,2020.1.2,MacIntel,60,5efb791ed4cb570da489e737,5efb871be70e7b1020ed0459,5,,,,,,frame,,,,,,0,57,57,8,1,1,1,,,,,,,,,,,,,,,,,,,,,,,,,,,,,,,,,,,,,,,,,,,,,,,,,,,,,,,,,,,,,,,,,,,,,,,,,,,
,,,,,,,,,,stimuli/images/PICTURE_203.png,GODS,5ac81b1068b65b00018d7881,2020-06-30_13h41.40.610,proactive,2020.1.2,MacIntel,60,5efb791ed4cb570da489e737,5efb871be70e7b1020ed0459,5,,,,,,cap,,,,,,0,58,58,30,1,4,1,,,,,,,,,,,,,,,,,,,,,,,,,,,,,,,,,,,,,,,,,,,,,,,,,,,,,,,,,,,,,,,,,,,,,,,,,,,
,,?,0.001,0,,,,,,stimuli/images/PICTURE_68.png,MILE,5ac81b1068b65b00018d7881,2020-06-30_13h41.40.610,proactive,2020.1.2,MacIntel,60,5efb791ed4cb570da489e737,5efb871be70e7b1020ed0459,5,,,,,,candle,,,,,,,,,,,6,1,0,0,0,51,1,,,,,,,,,,,,,,,,,,,,,,,,,,,,,,,,,,,,,,,,,,,,,,,,,,,,,,,,,,,,,,,,,,,,,,
,,?,0.001,0,,,,,,stimuli/images/PICTURE_380.png,CANDY,5ac81b1068b65b00018d7881,2020-06-30_13h41.40.610,proactive,2020.1.2,MacIntel,60,5efb791ed4cb570da489e737,5efb871be70e7b1020ed0459,5,,,,,,gorilla,,,,,,,,,,,1,1,0,1,1,0,1,,,,,,,,,,,,,,,,,,,,,,,,,,,,,,,,,,,,,,,,,,,,,,,,,,,,,,,,,,,,,,,,,,,,,,
,,?,0.001,0,,,,,,stimuli/images/PICTURE_467.png,POLICY,5ac81b1068b65b00018d7881,2020-06-30_13h41.40.610,proactive,2020.1.2,MacIntel,60,5efb791ed4cb570da489e737,5efb871be70e7b1020ed0459,5,,,,,,peg,,,,,,,,,,,6,1,0,2,2,53,1,,,,,,,,,,,,,,,,,,,,,,,,,,,,,,,,,,,,,,,,,,,,,,,,,,,,,,,,,,,,,,,,,,,,,,
,,APPLE,1.756,1,,,,,,stimuli/images/PICTURE_677.png,APPLE,5ac81b1068b65b00018d7881,2020-06-30_13h41.40.610,proactive,2020.1.2,MacIntel,60,5efb791ed4cb570da489e737,5efb871be70e7b1020ed0459,5,,,,,,map,,,,,,,,,,,5,1,0,3,3,43,1,,,,,,,,,,,,,,,,,,,,,,,,,,,,,,,,,,,,,,,,,,,,,,,,,,,,,,,,,,,,,,,,,,,,,,
,,?,0.001,0,,,,,,stimuli/images/PICTURE_340.png,VALLEY,5ac81b1068b65b00018d7881,2020-06-30_13h41.40.610,proactive,2020.1.2,MacIntel,60,5efb791ed4cb570da489e737,5efb871be70e7b1020ed0459,5,,,,,,mirror,,,,,,,,,,,6,1,0,4,4,54,1,,,,,,,,,,,,,,,,,,,,,,,,,,,,,,,,,,,,,,,,,,,,,,,,,,,,,,,,,,,,,,,,,,,,,,
,,?,0.001,0,,,,,,stimuli/images/PICTURE_285.png,LIFE,5ac81b1068b65b00018d7881,2020-06-30_13h41.40.610,proactive,2020.1.2,MacIntel,60,5efb791ed4cb570da489e737,5efb871be70e7b1020ed0459,5,,,,,,carrot,,,,,,,,,,,4,1,0,5,5,33,1,,,,,,,,,,,,,,,,,,,,,,,,,,,,,,,,,,,,,,,,,,,,,,,,,,,,,,,,,,,,,,,,,,,,,,
,,?,0.001,0,,,,,,stimuli/images/PICTURE_108.png,FLIGHT,5ac81b1068b65b00018d7881,2020-06-30_13h41.40.610,proactive,2020.1.2,MacIntel,60,5efb791ed4cb570da489e737,5efb871be70e7b1020ed0459,5,,,,,,calendar,,,,,,,,,,,6,1,0,6,6,59,1,,,,,,,,,,,,,,,,,,,,,,,,,,,,,,,,,,,,,,,,,,,,,,,,,,,,,,,,,,,,,,,,,,,,,,
,,?,0,0,,,,,,stimuli/images/PICTURE_327.png,SERIES,5ac81b1068b65b00018d7881,2020-06-30_13h41.40.610,proactive,2020.1.2,MacIntel,60,5efb791ed4cb570da489e737,5efb871be70e7b1020ed0459,5,,,,,,helmet,,,,,,,,,,,1,1,0,7,7,3,1,,,,,,,,,,,,,,,,,,,,,,,,,,,,,,,,,,,,,,,,,,,,,,,,,,,,,,,,,,,,,,,,,,,,,,
,,?,0.001,0,,,,,,stimuli/images/PICTURE_203.png,NIGHT,5ac81b1068b65b00018d7881,2020-06-30_13h41.40.610,proactive,2020.1.2,MacIntel,60,5efb791ed4cb570da489e737,5efb871be70e7b1020ed0459,5,,,,,,cap,,,,,,,,,,,1,1,0,8,8,2,1,,,,,,,,,,,,,,,,,,,,,,,,,,,,,,,,,,,,,,,,,,,,,,,,,,,,,,,,,,,,,,,,,,,,,,
,,?,0,0,,,,,,stimuli/images/PICTURE_147.png,WOMEN,5ac81b1068b65b00018d7881,2020-06-30_13h41.40.610,proactive,2020.1.2,MacIntel,60,5efb791ed4cb570da489e737,5efb871be70e7b1020ed0459,5,,,,,,hanger,,,,,,,,,,,1,1,0,9,9,7,1,,,,,,,,,,,,,,,,,,,,,,,,,,,,,,,,,,,,,,,,,,,,,,,,,,,,,,,,,,,,,,,,,,,,,,
,,?,0,0,,,,,,stimuli/images/PICTURE_339.png,CLIENT,5ac81b1068b65b00018d7881,2020-06-30_13h41.40.610,proactive,2020.1.2,MacIntel,60,5efb791ed4cb570da489e737,5efb871be70e7b1020ed0459,5,,,,,,backpack,,,,,,,,,,,2,1,0,10,10,11,1,,,,,,,,,,,,,,,,,,,,,,,,,,,,,,,,,,,,,,,,,,,,,,,,,,,,,,,,,,,,,,,,,,,,,,
,,ARTIST,2.839,1,,,,,,stimuli/images/PICTURE_504.png,ARTIST,5ac81b1068b65b00018d7881,2020-06-30_13h41.40.610,proactive,2020.1.2,MacIntel,60,5efb791ed4cb570da489e737,5efb871be70e7b1020ed0459,5,,,,,,wheel,,,,,,,,,,,5,1,0,11,11,49,1,,,,,,,,,,,,,,,,,,,,,,,,,,,,,,,,,,,,,,,,,,,,,,,,,,,,,,,,,,,,,,,,,,,,,,
,,?,0.001,0,,,,,,stimuli/images/PICTURE_403.png,WRITER,5ac81b1068b65b00018d7881,2020-06-30_13h41.40.610,proactive,2020.1.2,MacIntel,60,5efb791ed4cb570da489e737,5efb871be70e7b1020ed0459,5,,,,,,cathedral,,,,,,,,,,,4,1,0,12,12,31,1,,,,,,,,,,,,,,,,,,,,,,,,,,,,,,,,,,,,,,,,,,,,,,,,,,,,,,,,,,,,,,,,,,,,,,
,,?,0.001,0,,,,,,stimuli/images/PICTURE_708.png,RECORD,5ac81b1068b65b00018d7881,2020-06-30_13h41.40.610,proactive,2020.1.2,MacIntel,60,5efb791ed4cb570da489e737,5efb871be70e7b1020ed0459,5,,,,,,monkey,,,,,,,,,,,6,1,0,13,13,58,1,,,,,,,,,,,,,,,,,,,,,,,,,,,,,,,,,,,,,,,,,,,,,,,,,,,,,,,,,,,,,,,,,,,,,,
,,?,0,0,,,,,,stimuli/images/PICTURE_685.png,PENNY,5ac81b1068b65b00018d7881,2020-06-30_13h41.40.610,proactive,2020.1.2,MacIntel,60,5efb791ed4cb570da489e737,5efb871be70e7b1020ed0459,5,,,,,,goose,,,,,,,,,,,1,1,0,14,14,4,1,,,,,,,,,,,,,,,,,,,,,,,,,,,,,,,,,,,,,,,,,,,,,,,,,,,,,,,,,,,,,,,,,,,,,,
,,?,0,0,,,,,,stimuli/images/PICTURE_564.png,BATH,5ac81b1068b65b00018d7881,2020-06-30_13h41.40.610,proactive,2020.1.2,MacIntel,60,5efb791ed4cb570da489e737,5efb871be70e7b1020ed0459,5,,,,,,spoon,,,,,,,,,,,3,1,0,15,15,26,1,,,,,,,,,,,,,,,,,,,,,,,,,,,,,,,,,,,,,,,,,,,,,,,,,,,,,,,,,,,,,,,,,,,,,,
,,?,0.001,0,,,,,,stimuli/images/PICTURE_380.png,HONEY,5ac81b1068b65b00018d7881,2020-06-30_13h41.40.610,proactive,2020.1.2,MacIntel,60,5efb791ed4cb570da489e737,5efb871be70e7b1020ed0459,5,,,,,,gorilla,,,,,,,,,,,2,1,0,16,16,19,1,,,,,,,,,,,,,,,,,,,,,,,,,,,,,,,,,,,,,,,,,,,,,,,,,,,,,,,,,,,,,,,,,,,,,,
,,?,0.001,0,,,,,,stimuli/images/PICTURE_750.png,HOTEL,5ac81b1068b65b00018d7881,2020-06-30_13h41.40.610,proactive,2020.1.2,MacIntel,60,5efb791ed4cb570da489e737,5efb871be70e7b1020ed0459,5,,,,,,kettle,,,,,,,,,,,3,1,0,17,17,27,1,,,,,,,,,,,,,,,,,,,,,,,,,,,,,,,,,,,,,,,,,,,,,,,,,,,,,,,,,,,,,,,,,,,,,,
,,?,0,0,,,,,,stimuli/images/PICTURE_95.png,BOYS,5ac81b1068b65b00018d7881,2020-06-30_13h41.40.610,proactive,2020.1.2,MacIntel,60,5efb791ed4cb570da489e737,5efb871be70e7b1020ed0459,5,,,,,,suitcase,,,,,,,,,,,1,1,0,18,18,1,1,,,,,,,,,,,,,,,,,,,,,,,,,,,,,,,,,,,,,,,,,,,,,,,,,,,,,,,,,,,,,,,,,,,,,,
,,GIRL,1.79,1,,,,,,stimuli/images/PICTURE_487.png,GIRL,5ac81b1068b65b00018d7881,2020-06-30_13h41.40.610,proactive,2020.1.2,MacIntel,60,5efb791ed4cb570da489e737,5efb871be70e7b1020ed0459,5,,,,,,basket,,,,,,,,,,,5,1,0,19,19,45,1,,,,,,,,,,,,,,,,,,,,,,,,,,,,,,,,,,,,,,,,,,,,,,,,,,,,,,,,,,,,,,,,,,,,,,
,,?,0.001,0,,,,,,stimuli/images/PICTURE_744.png,WEAPON,5ac81b1068b65b00018d7881,2020-06-30_13h41.40.610,proactive,2020.1.2,MacIntel,60,5efb791ed4cb570da489e737,5efb871be70e7b1020ed0459,5,,,,,,ring,,,,,,,,,,,6,1,0,20,20,50,1,,,,,,,,,,,,,,,,,,,,,,,,,,,,,,,,,,,,,,,,,,,,,,,,,,,,,,,,,,,,,,,,,,,,,,
,,?,0.001,0,,,,,,stimuli/images/PICTURE_405.png,YEAR,5ac81b1068b65b00018d7881,2020-06-30_13h41.40.610,proactive,2020.1.2,MacIntel,60,5efb791ed4cb570da489e737,5efb871be70e7b1020ed0459,5,,,,,,anchor,,,,,,,,,,,4,1,0,21,21,34,1,,,,,,,,,,,,,,,,,,,,,,,,,,,,,,,,,,,,,,,,,,,,,,,,,,,,,,,,,,,,,,,,,,,,,,
,,?,0.001,0,,,,,,stimuli/images/PICTURE_340.png,LETTER,5ac81b1068b65b00018d7881,2020-06-30_13h41.40.610,proactive,2020.1.2,MacIntel,60,5efb791ed4cb570da489e737,5efb871be70e7b1020ed0459,5,,,,,,mirror,,,,,,,,,,,3,1,0,22,22,24,1,,,,,,,,,,,,,,,,,,,,,,,,,,,,,,,,,,,,,,,,,,,,,,,,,,,,,,,,,,,,,,,,,,,,,,
,,?,0.001,0,,,,,,stimuli/images/PICTURE_108.png,POLICY,5ac81b1068b65b00018d7881,2020-06-30_13h41.40.610,proactive,2020.1.2,MacIntel,60,5efb791ed4cb570da489e737,5efb871be70e7b1020ed0459,5,,,,,,calendar,,,,,,,,,,,3,1,0,23,23,22,1,,,,,,,,,,,,,,,,,,,,,,,,,,,,,,,,,,,,,,,,,,,,,,,,,,,,,,,,,,,,,,,,,,,,,,
,,?,0,0,,,,,,stimuli/images/PICTURE_203.png,GODS,5ac81b1068b65b00018d7881,2020-06-30_13h41.40.610,proactive,2020.1.2,MacIntel,60,5efb791ed4cb570da489e737,5efb871be70e7b1020ed0459,5,,,,,,cap,,,,,,,,,,,4,1,0,24,24,30,1,,,,,,,,,,,,,,,,,,,,,,,,,,,,,,,,,,,,,,,,,,,,,,,,,,,,,,,,,,,,,,,,,,,,,,
,,?,0.001,0,,,,,,stimuli/images/PICTURE_403.png,TOILET,5ac81b1068b65b00018d7881,2020-06-30_13h41.40.610,proactive,2020.1.2,MacIntel,60,5efb791ed4cb570da489e737,5efb871be70e7b1020ed0459,5,,,,,,cathedral,,,,,,,,,,,3,1,0,25,25,25,1,,,,,,,,,,,,,,,,,,,,,,,,,,,,,,,,,,,,,,,,,,,,,,,,,,,,,,,,,,,,,,,,,,,,,,
,,?,0.001,0,,,,,,stimuli/images/PICTURE_57.png,MOMENT,5ac81b1068b65b00018d7881,2020-06-30_13h41.40.610,proactive,2020.1.2,MacIntel,60,5efb791ed4cb570da489e737,5efb871be70e7b1020ed0459,5,,,,,,stamp,,,,,,,,,,,4,1,0,26,26,37,1,,,,,,,,,,,,,,,,,,,,,,,,,,,,,,,,,,,,,,,,,,,,,,,,,,,,,,,,,,,,,,,,,,,,,,
,,?,0.001,0,,,,,,stimuli/images/PICTURE_504.png,YEAR,5ac81b1068b65b00018d7881,2020-06-30_13h41.40.610,proactive,2020.1.2,MacIntel,60,5efb791ed4cb570da489e737,5efb871be70e7b1020ed0459,5,,,,,,wheel,,,,,,,,,,,2,1,0,27,27,13,1,,,,,,,,,,,,,,,,,,,,,,,,,,,,,,,,,,,,,,,,,,,,,,,,,,,,,,,,,,,,,,,,,,,,,,
,,SERIES,2.272,1,,,,,,stimuli/images/PICTURE_383.png,SERIES,5ac81b1068b65b00018d7881,2020-06-30_13h41.40.610,proactive,2020.1.2,MacIntel,60,5efb791ed4cb570da489e737,5efb871be70e7b1020ed0459,5,,,,,,coin,,,,,,,,,,,5,1,0,28,28,46,1,,,,,,,,,,,,,,,,,,,,,,,,,,,,,,,,,,,,,,,,,,,,,,,,,,,,,,,,,,,,,,,,,,,,,,
,,RIVER,1.649,1,,,,,,stimuli/images/PICTURE_403.png,RIVER,5ac81b1068b65b00018d7881,2020-06-30_13h41.40.610,proactive,2020.1.2,MacIntel,60,5efb791ed4cb570da489e737,5efb871be70e7b1020ed0459,5,,,,,,cathedral,,,,,,,,,,,5,1,0,29,29,40,1,,,,,,,,,,,,,,,,,,,,,,,,,,,,,,,,,,,,,,,,,,,,,,,,,,,,,,,,,,,,,,,,,,,,,,
,,?,0.001,0,,,,,,stimuli/images/PICTURE_405.png,PLENTY,5ac81b1068b65b00018d7881,2020-06-30_13h41.40.610,proactive,2020.1.2,MacIntel,60,5efb791ed4cb570da489e737,5efb871be70e7b1020ed0459,5,,,,,,anchor,,,,,,,,,,,3,1,0,30,30,23,1,,,,,,,,,,,,,,,,,,,,,,,,,,,,,,,,,,,,,,,,,,,,,,,,,,,,,,,,,,,,,,,,,,,,,,
,,?,0,0,,,,,,stimuli/images/PICTURE_449.png,DUDE,5ac81b1068b65b00018d7881,2020-06-30_13h41.40.610,proactive,2020.1.2,MacIntel,60,5efb791ed4cb570da489e737,5efb871be70e7b1020ed0459,5,,,,,,bench,,,,,,,,,,,2,1,0,31,31,17,1,,,,,,,,,,,,,,,,,,,,,,,,,,,,,,,,,,,,,,,,,,,,,,,,,,,,,,,,,,,,,,,,,,,,,,
,,?,0.001,0,,,,,,stimuli/images/PICTURE_42.png,BOYS,5ac81b1068b65b00018d7881,2020-06-30_13h41.40.610,proactive,2020.1.2,MacIntel,60,5efb791ed4cb570da489e737,5efb871be70e7b1020ed0459,5,,,,,,pear,,,,,,,,,,,6,1,0,32,32,55,1,,,,,,,,,,,,,,,,,,,,,,,,,,,,,,,,,,,,,,,,,,,,,,,,,,,,,,,,,,,,,,,,,,,,,,
,,?,0,0,,,,,,stimuli/images/PICTURE_491.png,GLASS,5ac81b1068b65b00018d7881,2020-06-30_13h41.40.610,proactive,2020.1.2,MacIntel,60,5efb791ed4cb570da489e737,5efb871be70e7b1020ed0459,5,,,,,,rug,,,,,,,,,,,2,1,0,33,33,14,1,,,,,,,,,,,,,,,,,,,,,,,,,,,,,,,,,,,,,,,,,,,,,,,,,,,,,,,,,,,,,,,,,,,,,,
,,?,0.001,0,,,,,,stimuli/images/PICTURE_208.png,SYSTEM,5ac81b1068b65b00018d7881,2020-06-30_13h41.40.610,proactive,2020.1.2,MacIntel,60,5efb791ed4cb570da489e737,5efb871be70e7b1020ed0459,5,,,,,,microphone,,,,,,,,,,,4,1,0,34,34,32,1,,,,,,,,,,,,,,,,,,,,,,,,,,,,,,,,,,,,,,,,,,,,,,,,,,,,,,,,,,,,,,,,,,,,,,
,,?,0.001,0,,,,,,stimuli/images/PICTURE_504.png,COPS,5ac81b1068b65b00018d7881,2020-06-30_13h41.40.610,proactive,2020.1.2,MacIntel,60,5efb791ed4cb570da489e737,5efb871be70e7b1020ed0459,5,,,,,,wheel,,,,,,,,,,,6,1,0,35,35,52,1,,,,,,,,,,,,,,,,,,,,,,,,,,,,,,,,,,,,,,,,,,,,,,,,,,,,,,,,,,,,,,,,,,,,,,
,,?,0,0,,,,,,stimuli/images/PICTURE_667.png,RIVER,5ac81b1068b65b00018d7881,2020-06-30_13h41.40.610,proactive,2020.1.2,MacIntel,60,5efb791ed4cb570da489e737,5efb871be70e7b1020ed0459,5,,,,,,daisy,,,,,,,,,,,2,1,0,36,36,10,1,,,,,,,,,,,,,,,,,,,,,,,,,,,,,,,,,,,,,,,,,,,,,,,,,,,,,,,,,,,,,,,,,,,,,,
,,?,0,0,,,,,,stimuli/images/PICTURE_95.png,MILLER,5ac81b1068b65b00018d7881,2020-06-30_13h41.40.610,proactive,2020.1.2,MacIntel,60,5efb791ed4cb570da489e737,5efb871be70e7b1020ed0459,5,,,,,,suitcase,,,,,,,,,,,6,1,0,37,37,56,1,,,,,,,,,,,,,,,,,,,,,,,,,,,,,,,,,,,,,,,,,,,,,,,,,,,,,,,,,,,,,,,,,,,,,,
,,?,0,0,,,,,,stimuli/images/PICTURE_297.png,RIVER,5ac81b1068b65b00018d7881,2020-06-30_13h41.40.610,proactive,2020.1.2,MacIntel,60,5efb791ed4cb570da489e737,5efb871be70e7b1020ed0459,5,,,,,,aeroplane,,,,,,,,,,,4,1,0,38,38,39,1,,,,,,,,,,,,,,,,,,,,,,,,,,,,,,,,,,,,,,,,,,,,,,,,,,,,,,,,,,,,,,,,,,,,,,
,,?,0,0,,,,,,stimuli/images/PICTURE_2.png,FLIGHT,5ac81b1068b65b00018d7881,2020-06-30_13h41.40.610,proactive,2020.1.2,MacIntel,60,5efb791ed4cb570da489e737,5efb871be70e7b1020ed0459,5,,,,,,tyre,,,,,,,,,,,2,1,0,39,39,15,1,,,,,,,,,,,,,,,,,,,,,,,,,,,,,,,,,,,,,,,,,,,,,,,,,,,,,,,,,,,,,,,,,,,,,,
,,?,0,0,,,,,,stimuli/images/PICTURE_32.png,PILLS,5ac81b1068b65b00018d7881,2020-06-30_13h41.40.610,proactive,2020.1.2,MacIntel,60,5efb791ed4cb570da489e737,5efb871be70e7b1020ed0459,5,,,,,,crown,,,,,,,,,,,2,1,0,40,40,18,1,,,,,,,,,,,,,,,,,,,,,,,,,,,,,,,,,,,,,,,,,,,,,,,,,,,,,,,,,,,,,,,,,,,,,,
,,TOILET,4.269,1,,,,,,stimuli/images/PICTURE_85.png,TOILET,5ac81b1068b65b00018d7881,2020-06-30_13h41.40.610,proactive,2020.1.2,MacIntel,60,5efb791ed4cb570da489e737,5efb871be70e7b1020ed0459,5,,,,,,diamond,,,,,,,,,,,5,1,0,41,41,48,1,,,,,,,,,,,,,,,,,,,,,,,,,,,,,,,,,,,,,,,,,,,,,,,,,,,,,,,,,,,,,,,,,,,,,,
,,HONEY,1.832,1,,,,,,stimuli/images/PICTURE_95.png,HONEY,5ac81b1068b65b00018d7881,2020-06-30_13h41.40.610,proactive,2020.1.2,MacIntel,60,5efb791ed4cb570da489e737,5efb871be70e7b1020ed0459,5,,,,,,suitcase,,,,,,,,,,,5,1,0,42,42,44,1,,,,,,,,,,,,,,,,,,,,,,,,,,,,,,,,,,,,,,,,,,,,,,,,,,,,,,,,,,,,,,,,,,,,,,
,,SALE,1.499,1,,,,,,stimuli/images/PICTURE_675.png,SALE,5ac81b1068b65b00018d7881,2020-06-30_13h41.40.610,proactive,2020.1.2,MacIntel,60,5efb791ed4cb570da489e737,5efb871be70e7b1020ed0459,5,,,,,,windmill,,,,,,,,,,,5,1,0,43,43,47,1,,,,,,,,,,,,,,,,,,,,,,,,,,,,,,,,,,,,,,,,,,,,,,,,,,,,,,,,,,,,,,,,,,,,,,
,,?,0.001,0,,,,,,stimuli/images/PICTURE_32.png,KIND,5ac81b1068b65b00018d7881,2020-06-30_13h41.40.610,proactive,2020.1.2,MacIntel,60,5efb791ed4cb570da489e737,5efb871be70e7b1020ed0459,5,,,,,,crown,,,,,,,,,,,4,1,0,44,44,35,1,,,,,,,,,,,,,,,,,,,,,,,,,,,,,,,,,,,,,,,,,,,,,,,,,,,,,,,,,,,,,,,,,,,,,,
,,?,0,0,,,,,,stimuli/images/PICTURE_654.png,MONTH,5ac81b1068b65b00018d7881,2020-06-30_13h41.40.610,proactive,2020.1.2,MacIntel,60,5efb791ed4cb570da489e737,5efb871be70e7b1020ed0459,5,,,,,,pencil,,,,,,,,,,,3,1,0,45,45,29,1,,,,,,,,,,,,,,,,,,,,,,,,,,,,,,,,,,,,,,,,,,,,,,,,,,,,,,,,,,,,,,,,,,,,,,
,,?,0.001,0,,,,,,stimuli/images/PICTURE_296.png,LOTS,5ac81b1068b65b00018d7881,2020-06-30_13h41.40.610,proactive,2020.1.2,MacIntel,60,5efb791ed4cb570da489e737,5efb871be70e7b1020ed0459,5,,,,,,bolt,,,,,,,,,,,1,1,0,46,46,9,1,,,,,,,,,,,,,,,,,,,,,,,,,,,,,,,,,,,,,,,,,,,,,,,,,,,,,,,,,,,,,,,,,,,,,,
,,?,0,0,,,,,,stimuli/images/PICTURE_383.png,WRITER,5ac81b1068b65b00018d7881,2020-06-30_13h41.40.610,proactive,2020.1.2,MacIntel,60,5efb791ed4cb570da489e737,5efb871be70e7b1020ed0459,5,,,,,,coin,,,,,,,,,,,3,1,0,47,47,28,1,,,,,,,,,,,,,,,,,,,,,,,,,,,,,,,,,,,,,,,,,,,,,,,,,,,,,,,,,,,,,,,,,,,,,,
,,?,0.001,0,,,,,,stimuli/images/PICTURE_296.png,LIFE,5ac81b1068b65b00018d7881,2020-06-30_13h41.40.610,proactive,2020.1.2,MacIntel,60,5efb791ed4cb570da489e737,5efb871be70e7b1020ed0459,5,,,,,,bolt,,,,,,,,,,,6,1,0,48,48,57,1,,,,,,,,,,,,,,,,,,,,,,,,,,,,,,,,,,,,,,,,,,,,,,,,,,,,,,,,,,,,,,,,,,,,,,
,,?,0.001,0,,,,,,stimuli/images/PICTURE_33.png,FRIEND,5ac81b1068b65b00018d7881,2020-06-30_13h41.40.610,proactive,2020.1.2,MacIntel,60,5efb791ed4cb570da489e737,5efb871be70e7b1020ed0459,5,,,,,,frame,,,,,,,,,,,1,1,0,49,49,8,1,,,,,,,,,,,,,,,,,,,,,,,,,,,,,,,,,,,,,,,,,,,,,,,,,,,,,,,,,,,,,,,,,,,,,,
,,?,0.001,0,,,,,,stimuli/images/PICTURE_491.png,RIVER,5ac81b1068b65b00018d7881,2020-06-30_13h41.40.610,proactive,2020.1.2,MacIntel,60,5efb791ed4cb570da489e737,5efb871be70e7b1020ed0459,5,,,,,,rug,,,,,,,,,,,1,1,0,50,50,6,1,,,,,,,,,,,,,,,,,,,,,,,,,,,,,,,,,,,,,,,,,,,,,,,,,,,,,,,,,,,,,,,,,,,,,,
,,?,0.001,0,,,,,,stimuli/images/PICTURE_469.png,AGENT,5ac81b1068b65b00018d7881,2020-06-30_13h41.40.610,proactive,2020.1.2,MacIntel,60,5efb791ed4cb570da489e737,5efb871be70e7b1020ed0459,5,,,,,,stool,,,,,,,,,,,2,1,0,51,51,16,1,,,,,,,,,,,,,,,,,,,,,,,,,,,,,,,,,,,,,,,,,,,,,,,,,,,,,,,,,,,,,,,,,,,,,,
,,?,0,0,,,,,,stimuli/images/PICTURE_327.png,CASINO,5ac81b1068b65b00018d7881,2020-06-30_13h41.40.610,proactive,2020.1.2,MacIntel,60,5efb791ed4cb570da489e737,5efb871be70e7b1020ed0459,5,,,,,,helmet,,,,,,,,,,,3,1,0,52,52,20,1,,,,,,,,,,,,,,,,,,,,,,,,,,,,,,,,,,,,,,,,,,,,,,,,,,,,,,,,,,,,,,,,,,,,,,
,,?,0,0,,,,,,stimuli/images/PICTURE_85.png,NATION,5ac81b1068b65b00018d7881,2020-06-30_13h41.40.610,proactive,2020.1.2,MacIntel,60,5efb791ed4cb570da489e737,5efb871be70e7b1020ed0459,5,,,,,,diamond,,,,,,,,,,,1,1,0,53,53,5,1,,,,,,,,,,,,,,,,,,,,,,,,,,,,,,,,,,,,,,,,,,,,,,,,,,,,,,,,,,,,,,,,,,,,,,
,,?,0,0,,,,,,stimuli/images/PICTURE_147.png,YEAR,5ac81b1068b65b00018d7881,2020-06-30_13h41.40.610,proactive,2020.1.2,MacIntel,60,5efb791ed4cb570da489e737,5efb871be70e7b1020ed0459,5,,,,,,hanger,,,,,,,,,,,3,1,0,54,54,21,1,,,,,,,,,,,,,,,,,,,,,,,,,,,,,,,,,,,,,,,,,,,,,,,,,,,,,,,,,,,,,,,,,,,,,,
,,LOTS,2.019,1,,,,,,stimuli/images/PICTURE_233.png,LOTS,5ac81b1068b65b00018d7881,2020-06-30_13h41.40.610,proactive,2020.1.2,MacIntel,60,5efb791ed4cb570da489e737,5efb871be70e7b1020ed0459,5,,,,,,salt,,,,,,,,,,,5,1,0,55,55,42,1,,,,,,,,,,,,,,,,,,,,,,,,,,,,,,,,,,,,,,,,,,,,,,,,,,,,,,,,,,,,,,,,,,,,,,
,,WRITER,2.483,1,,,,,,stimuli/images/PICTURE_177.png,WRITER,5ac81b1068b65b00018d7881,2020-06-30_13h41.40.610,proactive,2020.1.2,MacIntel,60,5efb791ed4cb570da489e737,5efb871be70e7b1020ed0459,5,,,,,,mushroom,,,,,,,,,,,5,1,0,56,56,41,1,,,,,,,,,,,,,,,,,,,,,,,,,,,,,,,,,,,,,,,,,,,,,,,,,,,,,,,,,,,,,,,,,,,,,,
,,?,0.001,0,,,,,,stimuli/images/PICTURE_655.png,TOILET,5ac81b1068b65b00018d7881,2020-06-30_13h41.40.610,proactive,2020.1.2,MacIntel,60,5efb791ed4cb570da489e737,5efb871be70e7b1020ed0459,5,,,,,,megaphone,,,,,,,,,,,2,1,0,57,57,12,1,,,,,,,,,,,,,,,,,,,,,,,,,,,,,,,,,,,,,,,,,,,,,,,,,,,,,,,,,,,,,,,,,,,,,,
,,?,0.001,0,,,,,,stimuli/images/PICTURE_308.png,FAMILY,5ac81b1068b65b00018d7881,2020-06-30_13h41.40.610,proactive,2020.1.2,MacIntel,60,5efb791ed4cb570da489e737,5efb871be70e7b1020ed0459,5,,,,,,dice,,,,,,,,,,,4,1,0,58,58,36,1,,,,,,,,,,,,,,,,,,,,,,,,,,,,,,,,,,,,,,,,,,,,,,,,,,,,,,,,,,,,,,,,,,,,,,
,,?,0,0,,,,,,stimuli/images/PICTURE_68.png,ROOF,5ac81b1068b65b00018d7881,2020-06-30_13h41.40.610,proactive,2020.1.2,MacIntel,60,5efb791ed4cb570da489e737,5efb871be70e7b1020ed0459,5,,,,,,candle,,,,,,,,,,,4,1,0,59,59,38,1,,,,,,,,,,,,,,,,,,,,,,,,,,,,,,,,,,,,,,,,,,,,,,,,,,,,,,,,,,,,,,,,,,,,,,
,,,,,,,,,,,,5ac81b1068b65b00018d7881,2020-06-30_13h41.40.610,proactive,2020.1.2,MacIntel,60,5efb791ed4cb570da489e737,5efb871be70e7b1020ed0459,5,,,,,,,,,,,,,,,,,,,,,,,,0,0,0,1,1,stimuli/learn-block2.csv,,,,,,,,,,,,,,,,,,,,,,,,,,,,,,,,,,,,,,,,,,,,,,,,,,,,,,,,,,,,,,,,
,,,,,,,,,,stimuli/images/PICTURE_708.png,YARD,5ac81b1068b65b00018d7881,2020-06-30_13h41.40.610,proactive,2020.1.2,MacIntel,60,5efb791ed4cb570da489e737,5efb871be70e7b1020ed0459,5,,,,,,monkey,,,,,,0,0,0,29,1,3,0,,,,,,,,,,,,,,,,,,,,,,,,,,,,,,,,,,,,,,,,,,,,,,,,,,,,,,,,,,,,,,,,,,,,,,,,,,,
,,,,,,,,,,stimuli/images/PICTURE_380.png,PHOTO,5ac81b1068b65b00018d7881,2020-06-30_13h41.40.610,proactive,2020.1.2,MacIntel,60,5efb791ed4cb570da489e737,5efb871be70e7b1020ed0459,5,,,,,,gorilla,,,,,,0,1,1,52,1,6,0,,,,,,,,,,,,,,,,,,,,,,,,,,,,,,,,,,,,,,,,,,,,,,,,,,,,,,,,,,,,,,,,,,,,,,,,,,,
,,,,,,,,,,stimuli/images/PICTURE_467.png,DEMON,5ac81b1068b65b00018d7881,2020-06-30_13h41.40.610,proactive,2020.1.2,MacIntel,60,5efb791ed4cb570da489e737,5efb871be70e7b1020ed0459,5,,,,,,peg,,,,,,0,2,2,23,1,3,0,,,,,,,,,,,,,,,,,,,,,,,,,,,,,,,,,,,,,,,,,,,,,,,,,,,,,,,,,,,,,,,,,,,,,,,,,,,
,,,,,,,,,,stimuli/images/PICTURE_453.png,DUDE,5ac81b1068b65b00018d7881,2020-06-30_13h41.40.610,proactive,2020.1.2,MacIntel,60,5efb791ed4cb570da489e737,5efb871be70e7b1020ed0459,5,,,,,,scissors,,,,,,0,3,3,27,1,3,0,,,,,,,,,,,,,,,,,,,,,,,,,,,,,,,,,,,,,,,,,,,,,,,,,,,,,,,,,,,,,,,,,,,,,,,,,,,
,,,,,,,,,,stimuli/images/PICTURE_380.png,DEATH,5ac81b1068b65b00018d7881,2020-06-30_13h41.40.610,proactive,2020.1.2,MacIntel,60,5efb791ed4cb570da489e737,5efb871be70e7b1020ed0459,5,,,,,,gorilla,,,,,,0,4,4,49,1,5,0,,,,,,,,,,,,,,,,,,,,,,,,,,,,,,,,,,,,,,,,,,,,,,,,,,,,,,,,,,,,,,,,,,,,,,,,,,,
,,,,,,,,,,stimuli/images/PICTURE_688.png,CASINO,5ac81b1068b65b00018d7881,2020-06-30_13h41.40.610,proactive,2020.1.2,MacIntel,60,5efb791ed4cb570da489e737,5efb871be70e7b1020ed0459,5,,,,,,runner,,,,,,0,5,5,2,1,1,0,,,,,,,,,,,,,,,,,,,,,,,,,,,,,,,,,,,,,,,,,,,,,,,,,,,,,,,,,,,,,,,,,,,,,,,,,,,
,,,,,,,,,,stimuli/images/PICTURE_203.png,ARTIST,5ac81b1068b65b00018d7881,2020-06-30_13h41.40.610,proactive,2020.1.2,MacIntel,60,5efb791ed4cb570da489e737,5efb871be70e7b1020ed0459,5,,,,,,cap,,,,,,0,6,6,26,1,3,0,,,,,,,,,,,,,,,,,,,,,,,,,,,,,,,,,,,,,,,,,,,,,,,,,,,,,,,,,,,,,,,,,,,,,,,,,,,
,,,,,,,,,,stimuli/images/PICTURE_470.png,CASINO,5ac81b1068b65b00018d7881,2020-06-30_13h41.40.610,proactive,2020.1.2,MacIntel,60,5efb791ed4cb570da489e737,5efb871be70e7b1020ed0459,5,,,,,,motorbike,,,,,,0,7,7,36,1,4,0,,,,,,,,,,,,,,,,,,,,,,,,,,,,,,,,,,,,,,,,,,,,,,,,,,,,,,,,,,,,,,,,,,,,,,,,,,,
,,,,,,,,,,stimuli/images/PICTURE_177.png,CARS,5ac81b1068b65b00018d7881,2020-06-30_13h41.40.610,proactive,2020.1.2,MacIntel,60,5efb791ed4cb570da489e737,5efb871be70e7b1020ed0459,5,,,,,,mushroom,,,,,,0,8,8,35,1,4,0,,,,,,,,,,,,,,,,,,,,,,,,,,,,,,,,,,,,,,,,,,,,,,,,,,,,,,,,,,,,,,,,,,,,,,,,,,,
,,,,,,,,,,stimuli/images/PICTURE_314.png,GODS,5ac81b1068b65b00018d7881,2020-06-30_13h41.40.610,proactive,2020.1.2,MacIntel,60,5efb791ed4cb570da489e737,5efb871be70e7b1020ed0459,5,,,,,,perfume,,,,,,0,9,9,11,1,2,0,,,,,,,,,,,,,,,,,,,,,,,,,,,,,,,,,,,,,,,,,,,,,,,,,,,,,,,,,,,,,,,,,,,,,,,,,,,
,,,,,,,,,,stimuli/images/PICTURE_233.png,WOMEN,5ac81b1068b65b00018d7881,2020-06-30_13h41.40.610,proactive,2020.1.2,MacIntel,60,5efb791ed4cb570da489e737,5efb871be70e7b1020ed0459,5,,,,,,salt,,,,,,0,10,10,38,1,4,0,,,,,,,,,,,,,,,,,,,,,,,,,,,,,,,,,,,,,,,,,,,,,,,,,,,,,,,,,,,,,,,,,,,,,,,,,,,
,,,,,,,,,,stimuli/images/PICTURE_311.png,BEAUTY,5ac81b1068b65b00018d7881,2020-06-30_13h41.40.610,proactive,2020.1.2,MacIntel,60,5efb791ed4cb570da489e737,5efb871be70e7b1020ed0459,5,,,,,,razor,,,,,,0,11,11,13,1,2,0,,,,,,,,,,,,,,,,,,,,,,,,,,,,,,,,,,,,,,,,,,,,,,,,,,,,,,,,,,,,,,,,,,,,,,,,,,,
,,,,,,,,,,stimuli/images/PICTURE_285.png,ADVICE,5ac81b1068b65b00018d7881,2020-06-30_13h41.40.610,proactive,2020.1.2,MacIntel,60,5efb791ed4cb570da489e737,5efb871be70e7b1020ed0459,5,,,,,,carrot,,,,,,0,12,12,12,1,2,0,,,,,,,,,,,,,,,,,,,,,,,,,,,,,,,,,,,,,,,,,,,,,,,,,,,,,,,,,,,,,,,,,,,,,,,,,,,
,,,,,,,,,,stimuli/images/PICTURE_85.png,THING,5ac81b1068b65b00018d7881,2020-06-30_13h41.40.610,proactive,2020.1.2,MacIntel,60,5efb791ed4cb570da489e737,5efb871be70e7b1020ed0459,5,,,,,,diamond,,,,,,0,13,13,15,1,2,0,,,,,,,,,,,,,,,,,,,,,,,,,,,,,,,,,,,,,,,,,,,,,,,,,,,,,,,,,,,,,,,,,,,,,,,,,,,
,,,,,,,,,,stimuli/images/PICTURE_68.png,MILE,5ac81b1068b65b00018d7881,2020-06-30_13h41.40.610,proactive,2020.1.2,MacIntel,60,5efb791ed4cb570da489e737,5efb871be70e7b1020ed0459,5,,,,,,candle,,,,,,0,14,14,44,1,5,0,,,,,,,,,,,,,,,,,,,,,,,,,,,,,,,,,,,,,,,,,,,,,,,,,,,,,,,,,,,,,,,,,,,,,,,,,,,
,,,,,,,,,,stimuli/images/PICTURE_688.png,WOMEN,5ac81b1068b65b00018d7881,2020-06-30_13h41.40.610,proactive,2020.1.2,MacIntel,60,5efb791ed4cb570da489e737,5efb871be70e7b1020ed0459,5,,,,,,runner,,,,,,0,15,15,14,1,2,0,,,,,,,,,,,,,,,,,,,,,,,,,,,,,,,,,,,,,,,,,,,,,,,,,,,,,,,,,,,,,,,,,,,,,,,,,,,
,,,,,,,,,,stimuli/images/PICTURE_147.png,MOMENT,5ac81b1068b65b00018d7881,2020-06-30_13h41.40.610,proactive,2020.1.2,MacIntel,60,5efb791ed4cb570da489e737,5efb871be70e7b1020ed0459,5,,,,,,hanger,,,,,,0,16,16,51,1,6,0,,,,,,,,,,,,,,,,,,,,,,,,,,,,,,,,,,,,,,,,,,,,,,,,,,,,,,,,,,,,,,,,,,,,,,,,,,,
,,,,,,,,,,stimuli/images/PICTURE_151.png,GIRL,5ac81b1068b65b00018d7881,2020-06-30_13h41.40.610,proactive,2020.1.2,MacIntel,60,5efb791ed4cb570da489e737,5efb871be70e7b1020ed0459,5,,,,,,tray,,,,,,0,17,17,19,1,2,0,,,,,,,,,,,,,,,,,,,,,,,,,,,,,,,,,,,,,,,,,,,,,,,,,,,,,,,,,,,,,,,,,,,,,,,,,,,
,,,,,,,,,,stimuli/images/PICTURE_449.png,THING,5ac81b1068b65b00018d7881,2020-06-30_13h41.40.610,proactive,2020.1.2,MacIntel,60,5efb791ed4cb570da489e737,5efb871be70e7b1020ed0459,5,,,,,,bench,,,,,,0,18,18,59,1,6,0,,,,,,,,,,,,,,,,,,,,,,,,,,,,,,,,,,,,,,,,,,,,,,,,,,,,,,,,,,,,,,,,,,,,,,,,,,,
,,,,,,,,,,stimuli/images/PICTURE_160.png,LEADER,5ac81b1068b65b00018d7881,2020-06-30_13h41.40.610,proactive,2020.1.2,MacIntel,60,5efb791ed4cb570da489e737,5efb871be70e7b1020ed0459,5,,,,,,wheelbarrow,,,,,,0,19,19,3,1,1,0,,,,,,,,,,,,,,,,,,,,,,,,,,,,,,,,,,,,,,,,,,,,,,,,,,,,,,,,,,,,,,,,,,,,,,,,,,,
,,,,,,,,,,stimuli/images/PICTURE_95.png,STYLE,5ac81b1068b65b00018d7881,2020-06-30_13h41.40.610,proactive,2020.1.2,MacIntel,60,5efb791ed4cb570da489e737,5efb871be70e7b1020ed0459,5,,,,,,suitcase,,,,,,0,20,20,25,1,3,0,,,,,,,,,,,,,,,,,,,,,,,,,,,,,,,,,,,,,,,,,,,,,,,,,,,,,,,,,,,,,,,,,,,,,,,,,,,
,,,,,,,,,,stimuli/images/PICTURE_215.png,PLENTY,5ac81b1068b65b00018d7881,2020-06-30_13h41.40.610,proactive,2020.1.2,MacIntel,60,5efb791ed4cb570da489e737,5efb871be70e7b1020ed0459,5,,,,,,boot,,,,,,0,21,21,37,1,4,0,,,,,,,,,,,,,,,,,,,,,,,,,,,,,,,,,,,,,,,,,,,,,,,,,,,,,,,,,,,,,,,,,,,,,,,,,,,
,,,,,,,,,,stimuli/images/PICTURE_677.png,MILE,5ac81b1068b65b00018d7881,2020-06-30_13h41.40.610,proactive,2020.1.2,MacIntel,60,5efb791ed4cb570da489e737,5efb871be70e7b1020ed0459,5,,,,,,map,,,,,,0,22,22,30,1,4,0,,,,,,,,,,,,,,,,,,,,,,,,,,,,,,,,,,,,,,,,,,,,,,,,,,,,,,,,,,,,,,,,,,,,,,,,,,,
,,,,,,,,,,stimuli/images/PICTURE_348.png,SPEECH,5ac81b1068b65b00018d7881,2020-06-30_13h41.40.610,proactive,2020.1.2,MacIntel,60,5efb791ed4cb570da489e737,5efb871be70e7b1020ed0459,5,,,,,,pepper,,,,,,0,23,23,20,1,3,0,,,,,,,,,,,,,,,,,,,,,,,,,,,,,,,,,,,,,,,,,,,,,,,,,,,,,,,,,,,,,,,,,,,,,,,,,,,
,,,,,,,,,,stimuli/images/PICTURE_123.png,ADVICE,5ac81b1068b65b00018d7881,2020-06-30_13h41.40.610,proactive,2020.1.2,MacIntel,60,5efb791ed4cb570da489e737,5efb871be70e7b1020ed0459,5,,,,,,dart,,,,,,0,24,24,50,1,6,0,,,,,,,,,,,,,,,,,,,,,,,,,,,,,,,,,,,,,,,,,,,,,,,,,,,,,,,,,,,,,,,,,,,,,,,,,,,
,,,,,,,,,,stimuli/images/PICTURE_708.png,PENNY,5ac81b1068b65b00018d7881,2020-06-30_13h41.40.610,proactive,2020.1.2,MacIntel,60,5efb791ed4cb570da489e737,5efb871be70e7b1020ed0459,5,,,,,,monkey,,,,,,0,25,25,31,1,4,0,,,,,,,,,,,,,,,,,,,,,,,,,,,,,,,,,,,,,,,,,,,,,,,,,,,,,,,,,,,,,,,,,,,,,,,,,,,
,,,,,,,,,,stimuli/images/PICTURE_123.png,ADVICE,5ac81b1068b65b00018d7881,2020-06-30_13h41.40.610,proactive,2020.1.2,MacIntel,60,5efb791ed4cb570da489e737,5efb871be70e7b1020ed0459,5,,,,,,dart,,,,,,0,26,26,40,1,5,0,,,,,,,,,,,,,,,,,,,,,,,,,,,,,,,,,,,,,,,,,,,,,,,,,,,,,,,,,,,,,,,,,,,,,,,,,,,
,,,,,,,,,,stimuli/images/PICTURE_667.png,BATH,5ac81b1068b65b00018d7881,2020-06-30_13h41.40.610,proactive,2020.1.2,MacIntel,60,5efb791ed4cb570da489e737,5efb871be70e7b1020ed0459,5,,,,,,daisy,,,,,,0,27,27,4,1,1,0,,,,,,,,,,,,,,,,,,,,,,,,,,,,,,,,,,,,,,,,,,,,,,,,,,,,,,,,,,,,,,,,,,,,,,,,,,,
,,,,,,,,,,stimuli/images/PICTURE_667.png,PLENTY,5ac81b1068b65b00018d7881,2020-06-30_13h41.40.610,proactive,2020.1.2,MacIntel,60,5efb791ed4cb570da489e737,5efb871be70e7b1020ed0459,5,,,,,,daisy,,,,,,0,28,28,41,1,5,0,,,,,,,,,,,,,,,,,,,,,,,,,,,,,,,,,,,,,,,,,,,,,,,,,,,,,,,,,,,,,,,,,,,,,,,,,,,
,,,,,,,,,,stimuli/images/PICTURE_504.png,BODY,5ac81b1068b65b00018d7881,2020-06-30_13h41.40.610,proactive,2020.1.2,MacIntel,60,5efb791ed4cb570da489e737,5efb871be70e7b1020ed0459,5,,,,,,wheel,,,,,,0,29,29,8,1,1,0,,,,,,,,,,,,,,,,,,,,,,,,,,,,,,,,,,,,,,,,,,,,,,,,,,,,,,,,,,,,,,,,,,,,,,,,,,,
,,,,,,,,,,stimuli/images/PICTURE_654.png,VALLEY,5ac81b1068b65b00018d7881,2020-06-30_13h41.40.610,proactive,2020.1.2,MacIntel,60,5efb791ed4cb570da489e737,5efb871be70e7b1020ed0459,5,,,,,,pencil,,,,,,0,30,30,1,1,1,0,,,,,,,,,,,,,,,,,,,,,,,,,,,,,,,,,,,,,,,,,,,,,,,,,,,,,,,,,,,,,,,,,,,,,,,,,,,
,,,,,,,,,,stimuli/images/PICTURE_302.png,FAMILY,5ac81b1068b65b00018d7881,2020-06-30_13h41.40.610,proactive,2020.1.2,MacIntel,60,5efb791ed4cb570da489e737,5efb871be70e7b1020ed0459,5,,,,,,taxi,,,,,,0,31,31,18,1,2,0,,,,,,,,,,,,,,,,,,,,,,,,,,,,,,,,,,,,,,,,,,,,,,,,,,,,,,,,,,,,,,,,,,,,,,,,,,,
,,,,,,,,,,stimuli/images/PICTURE_308.png,ESTATE,5ac81b1068b65b00018d7881,2020-06-30_13h41.40.610,proactive,2020.1.2,MacIntel,60,5efb791ed4cb570da489e737,5efb871be70e7b1020ed0459,5,,,,,,dice,,,,,,0,32,32,46,1,5,0,,,,,,,,,,,,,,,,,,,,,,,,,,,,,,,,,,,,,,,,,,,,,,,,,,,,,,,,,,,,,,,,,,,,,,,,,,,
,,,,,,,,,,stimuli/images/PICTURE_248.png,DOZEN,5ac81b1068b65b00018d7881,2020-06-30_13h41.40.610,proactive,2020.1.2,MacIntel,60,5efb791ed4cb570da489e737,5efb871be70e7b1020ed0459,5,,,,,,cart,,,,,,0,33,33,39,1,4,0,,,,,,,,,,,,,,,,,,,,,,,,,,,,,,,,,,,,,,,,,,,,,,,,,,,,,,,,,,,,,,,,,,,,,,,,,,,
,,,,,,,,,,stimuli/images/PICTURE_675.png,WEAPON,5ac81b1068b65b00018d7881,2020-06-30_13h41.40.610,proactive,2020.1.2,MacIntel,60,5efb791ed4cb570da489e737,5efb871be70e7b1020ed0459,5,,,,,,windmill,,,,,,0,34,34,32,1,4,0,,,,,,,,,,,,,,,,,,,,,,,,,,,,,,,,,,,,,,,,,,,,,,,,,,,,,,,,,,,,,,,,,,,,,,,,,,,
,,,,,,,,,,stimuli/images/PICTURE_692.png,MONTH,5ac81b1068b65b00018d7881,2020-06-30_13h41.40.610,proactive,2020.1.2,MacIntel,60,5efb791ed4cb570da489e737,5efb871be70e7b1020ed0459,5,,,,,,cherry,,,,,,0,35,35,16,1,2,0,,,,,,,,,,,,,,,,,,,,,,,,,,,,,,,,,,,,,,,,,,,,,,,,,,,,,,,,,,,,,,,,,,,,,,,,,,,
,,,,,,,,,,stimuli/images/PICTURE_208.png,THING,5ac81b1068b65b00018d7881,2020-06-30_13h41.40.610,proactive,2020.1.2,MacIntel,60,5efb791ed4cb570da489e737,5efb871be70e7b1020ed0459,5,,,,,,microphone,,,,,,0,36,36,47,1,5,0,,,,,,,,,,,,,,,,,,,,,,,,,,,,,,,,,,,,,,,,,,,,,,,,,,,,,,,,,,,,,,,,,,,,,,,,,,,
,,,,,,,,,,stimuli/images/PICTURE_356.png,DANGER,5ac81b1068b65b00018d7881,2020-06-30_13h41.40.610,proactive,2020.1.2,MacIntel,60,5efb791ed4cb570da489e737,5efb871be70e7b1020ed0459,5,,,,,,pawn,,,,,,0,37,37,55,1,6,0,,,,,,,,,,,,,,,,,,,,,,,,,,,,,,,,,,,,,,,,,,,,,,,,,,,,,,,,,,,,,,,,,,,,,,,,,,,
,,,,,,,,,,stimuli/images/PICTURE_233.png,IDEAS,5ac81b1068b65b00018d7881,2020-06-30_13h41.40.610,proactive,2020.1.2,MacIntel,60,5efb791ed4cb570da489e737,5efb871be70e7b1020ed0459,5,,,,,,salt,,,,,,0,38,38,28,1,3,0,,,,,,,,,,,,,,,,,,,,,,,,,,,,,,,,,,,,,,,,,,,,,,,,,,,,,,,,,,,,,,,,,,,,,,,,,,,
,,,,,,,,,,stimuli/images/PICTURE_314.png,SAKE,5ac81b1068b65b00018d7881,2020-06-30_13h41.40.610,proactive,2020.1.2,MacIntel,60,5efb791ed4cb570da489e737,5efb871be70e7b1020ed0459,5,,,,,,perfume,,,,,,0,39,39,7,1,1,0,,,,,,,,,,,,,,,,,,,,,,,,,,,,,,,,,,,,,,,,,,,,,,,,,,,,,,,,,,,,,,,,,,,,,,,,,,,
,,,,,,,,,,stimuli/images/PICTURE_32.png,JUNGLE,5ac81b1068b65b00018d7881,2020-06-30_13h41.40.610,proactive,2020.1.2,MacIntel,60,5efb791ed4cb570da489e737,5efb871be70e7b1020ed0459,5,,,,,,crown,,,,,,0,40,40,45,1,5,0,,,,,,,,,,,,,,,,,,,,,,,,,,,,,,,,,,,,,,,,,,,,,,,,,,,,,,,,,,,,,,,,,,,,,,,,,,,
,,,,,,,,,,stimuli/images/PICTURE_308.png,KIND,5ac81b1068b65b00018d7881,2020-06-30_13h41.40.610,proactive,2020.1.2,MacIntel,60,5efb791ed4cb570da489e737,5efb871be70e7b1020ed0459,5,,,,,,dice,,,,,,0,41,41,54,1,6,0,,,,,,,,,,,,,,,,,,,,,,,,,,,,,,,,,,,,,,,,,,,,,,,,,,,,,,,,,,,,,,,,,,,,,,,,,,,
,,,,,,,,,,stimuli/images/PICTURE_327.png,BEAUTY,5ac81b1068b65b00018d7881,2020-06-30_13h41.40.610,proactive,2020.1.2,MacIntel,60,5efb791ed4cb570da489e737,5efb871be70e7b1020ed0459,5,,,,,,helmet,,,,,,0,42,42,48,1,5,0,,,,,,,,,,,,,,,,,,,,,,,,,,,,,,,,,,,,,,,,,,,,,,,,,,,,,,,,,,,,,,,,,,,,,,,,,,,
,,,,,,,,,,stimuli/images/PICTURE_311.png,FRIEND,5ac81b1068b65b00018d7881,2020-06-30_13h41.40.610,proactive,2020.1.2,MacIntel,60,5efb791ed4cb570da489e737,5efb871be70e7b1020ed0459,5,,,,,,razor,,,,,,0,43,43,34,1,4,0,,,,,,,,,,,,,,,,,,,,,,,,,,,,,,,,,,,,,,,,,,,,,,,,,,,,,,,,,,,,,,,,,,,,,,,,,,,
,,,,,,,,,,stimuli/images/PICTURE_208.png,MONTH,5ac81b1068b65b00018d7881,2020-06-30_13h41.40.610,proactive,2020.1.2,MacIntel,60,5efb791ed4cb570da489e737,5efb871be70e7b1020ed0459,5,,,,,,microphone,,,,,,0,44,44,53,1,6,0,,,,,,,,,,,,,,,,,,,,,,,,,,,,,,,,,,,,,,,,,,,,,,,,,,,,,,,,,,,,,,,,,,,,,,,,,,,
,,,,,,,,,,stimuli/images/PICTURE_487.png,FLIGHT,5ac81b1068b65b00018d7881,2020-06-30_13h41.40.610,proactive,2020.1.2,MacIntel,60,5efb791ed4cb570da489e737,5efb871be70e7b1020ed0459,5,,,,,,basket,,,,,,0,45,45,9,1,1,0,,,,,,,,,,,,,,,,,,,,,,,,,,,,,,,,,,,,,,,,,,,,,,,,,,,,,,,,,,,,,,,,,,,,,,,,,,,
,,,,,,,,,,stimuli/images/PICTURE_491.png,ROOF,5ac81b1068b65b00018d7881,2020-06-30_13h41.40.610,proactive,2020.1.2,MacIntel,60,5efb791ed4cb570da489e737,5efb871be70e7b1020ed0459,5,,,,,,rug,,,,,,0,46,46,24,1,3,0,,,,,,,,,,,,,,,,,,,,,,,,,,,,,,,,,,,,,,,,,,,,,,,,,,,,,,,,,,,,,,,,,,,,,,,,,,,
,,,,,,,,,,stimuli/images/PICTURE_744.png,SAKE,5ac81b1068b65b00018d7881,2020-06-30_13h41.40.610,proactive,2020.1.2,MacIntel,60,5efb791ed4cb570da489e737,5efb871be70e7b1020ed0459,5,,,,,,ring,,,,,,0,47,47,17,1,2,0,,,,,,,,,,,,,,,,,,,,,,,,,,,,,,,,,,,,,,,,,,,,,,,,,,,,,,,,,,,,,,,,,,,,,,,,,,,
,,,,,,,,,,stimuli/images/PICTURE_509.png,PHOTO,5ac81b1068b65b00018d7881,2020-06-30_13h41.40.610,proactive,2020.1.2,MacIntel,60,5efb791ed4cb570da489e737,5efb871be70e7b1020ed0459,5,,,,,,telephone,,,,,,0,48,48,21,1,3,0,,,,,,,,,,,,,,,,,,,,,,,,,,,,,,,,,,,,,,,,,,,,,,,,,,,,,,,,,,,,,,,,,,,,,,,,,,,
,,,,,,,,,,stimuli/images/PICTURE_255.png,AREA,5ac81b1068b65b00018d7881,2020-06-30_13h41.40.610,proactive,2020.1.2,MacIntel,60,5efb791ed4cb570da489e737,5efb871be70e7b1020ed0459,5,,,,,,shovel,,,,,,0,49,49,22,1,3,0,,,,,,,,,,,,,,,,,,,,,,,,,,,,,,,,,,,,,,,,,,,,,,,,,,,,,,,,,,,,,,,,,,,,,,,,,,,
,,,,,,,,,,stimuli/images/PICTURE_160.png,FEET,5ac81b1068b65b00018d7881,2020-06-30_13h41.40.610,proactive,2020.1.2,MacIntel,60,5efb791ed4cb570da489e737,5efb871be70e7b1020ed0459,5,,,,,,wheelbarrow,,,,,,0,50,50,58,1,6,0,,,,,,,,,,,,,,,,,,,,,,,,,,,,,,,,,,,,,,,,,,,,,,,,,,,,,,,,,,,,,,,,,,,,,,,,,,,
,,,,,,,,,,stimuli/images/PICTURE_708.png,CLIENT,5ac81b1068b65b00018d7881,2020-06-30_13h41.40.610,proactive,2020.1.2,MacIntel,60,5efb791ed4cb570da489e737,5efb871be70e7b1020ed0459,5,,,,,,monkey,,,,,,0,51,51,5,1,1,0,,,,,,,,,,,,,,,,,,,,,,,,,,,,,,,,,,,,,,,,,,,,,,,,,,,,,,,,,,,,,,,,,,,,,,,,,,,
,,,,,,,,,,stimuli/images/PICTURE_491.png,WRITER,5ac81b1068b65b00018d7881,2020-06-30_13h41.40.610,proactive,2020.1.2,MacIntel,60,5efb791ed4cb570da489e737,5efb871be70e7b1020ed0459,5,,,,,,rug,,,,,,0,52,52,57,1,6,0,,,,,,,,,,,,,,,,,,,,,,,,,,,,,,,,,,,,,,,,,,,,,,,,,,,,,,,,,,,,,,,,,,,,,,,,,,,
,,,,,,,,,,stimuli/images/PICTURE_208.png,LOTS,5ac81b1068b65b00018d7881,2020-06-30_13h41.40.610,proactive,2020.1.2,MacIntel,60,5efb791ed4cb570da489e737,5efb871be70e7b1020ed0459,5,,,,,,microphone,,,,,,0,53,53,10,1,2,0,,,,,,,,,,,,,,,,,,,,,,,,,,,,,,,,,,,,,,,,,,,,,,,,,,,,,,,,,,,,,,,,,,,,,,,,,,,
,,,,,,,,,,stimuli/images/PICTURE_469.png,ARTIST,5ac81b1068b65b00018d7881,2020-06-30_13h41.40.610,proactive,2020.1.2,MacIntel,60,5efb791ed4cb570da489e737,5efb871be70e7b1020ed0459,5,,,,,,stool,,,,,,0,54,54,6,1,1,0,,,,,,,,,,,,,,,,,,,,,,,,,,,,,,,,,,,,,,,,,,,,,,,,,,,,,,,,,,,,,,,,,,,,,,,,,,,
,,,,,,,,,,stimuli/images/PICTURE_339.png,PLENTY,5ac81b1068b65b00018d7881,2020-06-30_13h41.40.610,proactive,2020.1.2,MacIntel,60,5efb791ed4cb570da489e737,5efb871be70e7b1020ed0459,5,,,,,,backpack,,,,,,0,55,55,0,1,1,0,,,,,,,,,,,,,,,,,,,,,,,,,,,,,,,,,,,,,,,,,,,,,,,,,,,,,,,,,,,,,,,,,,,,,,,,,,,
,,,,,,,,,,stimuli/images/PICTURE_453.png,PLENTY,5ac81b1068b65b00018d7881,2020-06-30_13h41.40.610,proactive,2020.1.2,MacIntel,60,5efb791ed4cb570da489e737,5efb871be70e7b1020ed0459,5,,,,,,scissors,,,,,,0,56,56,56,1,6,0,,,,,,,,,,,,,,,,,,,,,,,,,,,,,,,,,,,,,,,,,,,,,,,,,,,,,,,,,,,,,,,,,,,,,,,,,,,
,,,,,,,,,,stimuli/images/PICTURE_488.png,STYLE,5ac81b1068b65b00018d7881,2020-06-30_13h41.40.610,proactive,2020.1.2,MacIntel,60,5efb791ed4cb570da489e737,5efb871be70e7b1020ed0459,5,,,,,,sun,,,,,,0,57,57,33,1,4,0,,,,,,,,,,,,,,,,,,,,,,,,,,,,,,,,,,,,,,,,,,,,,,,,,,,,,,,,,,,,,,,,,,,,,,,,,,,
,,,,,,,,,,stimuli/images/PICTURE_469.png,LETTER,5ac81b1068b65b00018d7881,2020-06-30_13h41.40.610,proactive,2020.1.2,MacIntel,60,5efb791ed4cb570da489e737,5efb871be70e7b1020ed0459,5,,,,,,stool,,,,,,0,58,58,42,1,5,0,,,,,,,,,,,,,,,,,,,,,,,,,,,,,,,,,,,,,,,,,,,,,,,,,,,,,,,,,,,,,,,,,,,,,,,,,,,
,,JUNGLE,2.63,1,,,,,,stimuli/images/PICTURE_32.png,JUNGLE,5ac81b1068b65b00018d7881,2020-06-30_13h41.40.610,proactive,2020.1.2,MacIntel,60,5efb791ed4cb570da489e737,5efb871be70e7b1020ed0459,5,,,,,,crown,,,,,,,,,,,5,0,0,0,0,45,1,,,,,,,,,,,,,,,,,,,,,,,,,,,,,,,,,,,,,,,,,,,,,,,,,,,,,,,,,,,,,,,,,,,,,,
,,?,0.001,0,,,,,,stimuli/images/PICTURE_177.png,CARS,5ac81b1068b65b00018d7881,2020-06-30_13h41.40.610,proactive,2020.1.2,MacIntel,60,5efb791ed4cb570da489e737,5efb871be70e7b1020ed0459,5,,,,,,mushroom,,,,,,,,,,,4,0,0,1,1,35,1,,,,,,,,,,,,,,,,,,,,,,,,,,,,,,,,,,,,,,,,,,,,,,,,,,,,,,,,,,,,,,,,,,,,,,
,,THING,1.431,1,,,,,,stimuli/images/PICTURE_208.png,THING,5ac81b1068b65b00018d7881,2020-06-30_13h41.40.610,proactive,2020.1.2,MacIntel,60,5efb791ed4cb570da489e737,5efb871be70e7b1020ed0459,5,,,,,,microphone,,,,,,,,,,,5,0,0,2,2,47,1,,,,,,,,,,,,,,,,,,,,,,,,,,,,,,,,,,,,,,,,,,,,,,,,,,,,,,,,,,,,,,,,,,,,,,
,,?,0.001,0,,,,,,stimuli/images/PICTURE_339.png,PLENTY,5ac81b1068b65b00018d7881,2020-06-30_13h41.40.610,proactive,2020.1.2,MacIntel,60,5efb791ed4cb570da489e737,5efb871be70e7b1020ed0459,5,,,,,,backpack,,,,,,,,,,,1,0,0,3,3,0,1,,,,,,,,,,,,,,,,,,,,,,,,,,,,,,,,,,,,,,,,,,,,,,,,,,,,,,,,,,,,,,,,,,,,,,
,,?,0.001,0,,,,,,stimuli/images/PICTURE_208.png,MONTH,5ac81b1068b65b00018d7881,2020-06-30_13h41.40.610,proactive,2020.1.2,MacIntel,60,5efb791ed4cb570da489e737,5efb871be70e7b1020ed0459,5,,,,,,microphone,,,,,,,,,,,6,0,0,4,4,53,1,,,,,,,,,,,,,,,,,,,,,,,,,,,,,,,,,,,,,,,,,,,,,,,,,,,,,,,,,,,,,,,,,,,,,,
,,?,0.001,0,,,,,,stimuli/images/PICTURE_744.png,SAKE,5ac81b1068b65b00018d7881,2020-06-30_13h41.40.610,proactive,2020.1.2,MacIntel,60,5efb791ed4cb570da489e737,5efb871be70e7b1020ed0459,5,,,,,,ring,,,,,,,,,,,2,0,0,5,5,17,1,,,,,,,,,,,,,,,,,,,,,,,,,,,,,,,,,,,,,,,,,,,,,,,,,,,,,,,,,,,,,,,,,,,,,,
,,?,0,0,,,,,,stimuli/images/PICTURE_675.png,WEAPON,5ac81b1068b65b00018d7881,2020-06-30_13h41.40.610,proactive,2020.1.2,MacIntel,60,5efb791ed4cb570da489e737,5efb871be70e7b1020ed0459,5,,,,,,windmill,,,,,,,,,,,4,0,0,6,6,32,1,,,,,,,,,,,,,,,,,,,,,,,,,,,,,,,,,,,,,,,,,,,,,,,,,,,,,,,,,,,,,,,,,,,,,,
,,?,0,0,,,,,,stimuli/images/PICTURE_688.png,CASINO,5ac81b1068b65b00018d7881,2020-06-30_13h41.40.610,proactive,2020.1.2,MacIntel,60,5efb791ed4cb570da489e737,5efb871be70e7b1020ed0459,5,,,,,,runner,,,,,,,,,,,1,0,0,7,7,2,1,,,,,,,,,,,,,,,,,,,,,,,,,,,,,,,,,,,,,,,,,,,,,,,,,,,,,,,,,,,,,,,,,,,,,,
,,?,0,0,,,,,,stimuli/images/PICTURE_215.png,PLENTY,5ac81b1068b65b00018d7881,2020-06-30_13h41.40.610,proactive,2020.1.2,MacIntel,60,5efb791ed4cb570da489e737,5efb871be70e7b1020ed0459,5,,,,,,boot,,,,,,,,,,,4,0,0,8,8,37,1,,,,,,,,,,,,,,,,,,,,,,,,,,,,,,,,,,,,,,,,,,,,,,,,,,,,,,,,,,,,,,,,,,,,,,
,,LETTER,1.726,1,,,,,,stimuli/images/PICTURE_469.png,LETTER,5ac81b1068b65b00018d7881,2020-06-30_13h41.40.610,proactive,2020.1.2,MacIntel,60,5efb791ed4cb570da489e737,5efb871be70e7b1020ed0459,5,,,,,,stool,,,,,,,,,,,5,0,0,9,9,42,1,,,,,,,,,,,,,,,,,,,,,,,,,,,,,,,,,,,,,,,,,,,,,,,,,,,,,,,,,,,,,,,,,,,,,,
,,?,0.001,0,,,,,,stimuli/images/PICTURE_470.png,CASINO,5ac81b1068b65b00018d7881,2020-06-30_13h41.40.610,proactive,2020.1.2,MacIntel,60,5efb791ed4cb570da489e737,5efb871be70e7b1020ed0459,5,,,,,,motorbike,,,,,,,,,,,4,0,0,10,10,36,1,,,,,,,,,,,,,,,,,,,,,,,,,,,,,,,,,,,,,,,,,,,,,,,,,,,,,,,,,,,,,,,,,,,,,,
,,DEATH,1.799,1,,,,,,stimuli/images/PICTURE_380.png,DEATH,5ac81b1068b65b00018d7881,2020-06-30_13h41.40.610,proactive,2020.1.2,MacIntel,60,5efb791ed4cb570da489e737,5efb871be70e7b1020ed0459,5,,,,,,gorilla,,,,,,,,,,,5,0,0,11,11,49,1,,,,,,,,,,,,,,,,,,,,,,,,,,,,,,,,,,,,,,,,,,,,,,,,,,,,,,,,,,,,,,,,,,,,,,
,,?,0.001,0,,,,,,stimuli/images/PICTURE_147.png,MOMENT,5ac81b1068b65b00018d7881,2020-06-30_13h41.40.610,proactive,2020.1.2,MacIntel,60,5efb791ed4cb570da489e737,5efb871be70e7b1020ed0459,5,,,,,,hanger,,,,,,,,,,,6,0,0,12,12,51,1,,,,,,,,,,,,,,,,,,,,,,,,,,,,,,,,,,,,,,,,,,,,,,,,,,,,,,,,,,,,,,,,,,,,,,
,,?,0.001,0,,,,,,stimuli/images/PICTURE_491.png,ROOF,5ac81b1068b65b00018d7881,2020-06-30_13h41.40.610,proactive,2020.1.2,MacIntel,60,5efb791ed4cb570da489e737,5efb871be70e7b1020ed0459,5,,,,,,rug,,,,,,,,,,,3,0,0,13,13,24,1,,,,,,,,,,,,,,,,,,,,,,,,,,,,,,,,,,,,,,,,,,,,,,,,,,,,,,,,,,,,,,,,,,,,,,
,,BEAUTY,2.095,1,,,,,,stimuli/images/PICTURE_327.png,BEAUTY,5ac81b1068b65b00018d7881,2020-06-30_13h41.40.610,proactive,2020.1.2,MacIntel,60,5efb791ed4cb570da489e737,5efb871be70e7b1020ed0459,5,,,,,,helmet,,,,,,,,,,,5,0,0,14,14,48,1,,,,,,,,,,,,,,,,,,,,,,,,,,,,,,,,,,,,,,,,,,,,,,,,,,,,,,,,,,,,,,,,,,,,,,
,,?,0.001,0,,,,,,stimuli/images/PICTURE_692.png,MONTH,5ac81b1068b65b00018d7881,2020-06-30_13h41.40.610,proactive,2020.1.2,MacIntel,60,5efb791ed4cb570da489e737,5efb871be70e7b1020ed0459,5,,,,,,cherry,,,,,,,,,,,2,0,0,15,15,16,1,,,,,,,,,,,,,,,,,,,,,,,,,,,,,,,,,,,,,,,,,,,,,,,,,,,,,,,,,,,,,,,,,,,,,,
,,?,0.001,0,,,,,,stimuli/images/PICTURE_285.png,ADVICE,5ac81b1068b65b00018d7881,2020-06-30_13h41.40.610,proactive,2020.1.2,MacIntel,60,5efb791ed4cb570da489e737,5efb871be70e7b1020ed0459,5,,,,,,carrot,,,,,,,,,,,2,0,0,16,16,12,1,,,,,,,,,,,,,,,,,,,,,,,,,,,,,,,,,,,,,,,,,,,,,,,,,,,,,,,,,,,,,,,,,,,,,,
,,?,0,0,,,,,,stimuli/images/PICTURE_667.png,BATH,5ac81b1068b65b00018d7881,2020-06-30_13h41.40.610,proactive,2020.1.2,MacIntel,60,5efb791ed4cb570da489e737,5efb871be70e7b1020ed0459,5,,,,,,daisy,,,,,,,,,,,1,0,0,17,17,4,1,,,,,,,,,,,,,,,,,,,,,,,,,,,,,,,,,,,,,,,,,,,,,,,,,,,,,,,,,,,,,,,,,,,,,,
,,?,0.001,0,,,,,,stimuli/images/PICTURE_708.png,CLIENT,5ac81b1068b65b00018d7881,2020-06-30_13h41.40.610,proactive,2020.1.2,MacIntel,60,5efb791ed4cb570da489e737,5efb871be70e7b1020ed0459,5,,,,,,monkey,,,,,,,,,,,1,0,0,18,18,5,1,,,,,,,,,,,,,,,,,,,,,,,,,,,,,,,,,,,,,,,,,,,,,,,,,,,,,,,,,,,,,,,,,,,,,,
,,?,0.001,0,,,,,,stimuli/images/PICTURE_95.png,STYLE,5ac81b1068b65b00018d7881,2020-06-30_13h41.40.610,proactive,2020.1.2,MacIntel,60,5efb791ed4cb570da489e737,5efb871be70e7b1020ed0459,5,,,,,,suitcase,,,,,,,,,,,3,0,0,19,19,25,1,,,,,,,,,,,,,,,,,,,,,,,,,,,,,,,,,,,,,,,,,,,,,,,,,,,,,,,,,,,,,,,,,,,,,,
,,?,0,0,,,,,,stimuli/images/PICTURE_311.png,BEAUTY,5ac81b1068b65b00018d7881,2020-06-30_13h41.40.610,proactive,2020.1.2,MacIntel,60,5efb791ed4cb570da489e737,5efb871be70e7b1020ed0459,5,,,,,,razor,,,,,,,,,,,2,0,0,20,20,13,1,,,,,,,,,,,,,,,,,,,,,,,,,,,,,,,,,,,,,,,,,,,,,,,,,,,,,,,,,,,,,,,,,,,,,,
,,?,0,0,,,,,,stimuli/images/PICTURE_203.png,ARTIST,5ac81b1068b65b00018d7881,2020-06-30_13h41.40.610,proactive,2020.1.2,MacIntel,60,5efb791ed4cb570da489e737,5efb871be70e7b1020ed0459,5,,,,,,cap,,,,,,,,,,,3,0,0,21,21,26,1,,,,,,,,,,,,,,,,,,,,,,,,,,,,,,,,,,,,,,,,,,,,,,,,,,,,,,,,,,,,,,,,,,,,,,
,,?,0,0,,,,,,stimuli/images/PICTURE_356.png,DANGER,5ac81b1068b65b00018d7881,2020-06-30_13h41.40.610,proactive,2020.1.2,MacIntel,60,5efb791ed4cb570da489e737,5efb871be70e7b1020ed0459,5,,,,,,pawn,,,,,,,,,,,6,0,0,22,22,55,1,,,,,,,,,,,,,,,,,,,,,,,,,,,,,,,,,,,,,,,,,,,,,,,,,,,,,,,,,,,,,,,,,,,,,,
,,?,0,0,,,,,,stimuli/images/PICTURE_449.png,THING,5ac81b1068b65b00018d7881,2020-06-30_13h41.40.610,proactive,2020.1.2,MacIntel,60,5efb791ed4cb570da489e737,5efb871be70e7b1020ed0459,5,,,,,,bench,,,,,,,,,,,6,0,0,23,23,59,1,,,,,,,,,,,,,,,,,,,,,,,,,,,,,,,,,,,,,,,,,,,,,,,,,,,,,,,,,,,,,,,,,,,,,,
,,?,0,0,,,,,,stimuli/images/PICTURE_708.png,YARD,5ac81b1068b65b00018d7881,2020-06-30_13h41.40.610,proactive,2020.1.2,MacIntel,60,5efb791ed4cb570da489e737,5efb871be70e7b1020ed0459,5,,,,,,monkey,,,,,,,,,,,3,0,0,24,24,29,1,,,,,,,,,,,,,,,,,,,,,,,,,,,,,,,,,,,,,,,,,,,,,,,,,,,,,,,,,,,,,,,,,,,,,,
,,?,0,0,,,,,,stimuli/images/PICTURE_123.png,ADVICE,5ac81b1068b65b00018d7881,2020-06-30_13h41.40.610,proactive,2020.1.2,MacIntel,60,5efb791ed4cb570da489e737,5efb871be70e7b1020ed0459,5,,,,,,dart,,,,,,,,,,,6,0,0,25,25,50,1,,,,,,,,,,,,,,,,,,,,,,,,,,,,,,,,,,,,,,,,,,,,,,,,,,,,,,,,,,,,,,,,,,,,,,
,,?,0,0,,,,,,stimuli/images/PICTURE_654.png,VALLEY,5ac81b1068b65b00018d7881,2020-06-30_13h41.40.610,proactive,2020.1.2,MacIntel,60,5efb791ed4cb570da489e737,5efb871be70e7b1020ed0459,5,,,,,,pencil,,,,,,,,,,,1,0,0,26,26,1,1,,,,,,,,,,,,,,,,,,,,,,,,,,,,,,,,,,,,,,,,,,,,,,,,,,,,,,,,,,,,,,,,,,,,,,
,,?,0.001,0,,,,,,stimuli/images/PICTURE_491.png,WRITER,5ac81b1068b65b00018d7881,2020-06-30_13h41.40.610,proactive,2020.1.2,MacIntel,60,5efb791ed4cb570da489e737,5efb871be70e7b1020ed0459,5,,,,,,rug,,,,,,,,,,,6,0,0,27,27,57,1,,,,,,,,,,,,,,,,,,,,,,,,,,,,,,,,,,,,,,,,,,,,,,,,,,,,,,,,,,,,,,,,,,,,,,
,,ADVICE,3.535,1,,,,,,stimuli/images/PICTURE_123.png,ADVICE,5ac81b1068b65b00018d7881,2020-06-30_13h41.40.610,proactive,2020.1.2,MacIntel,60,5efb791ed4cb570da489e737,5efb871be70e7b1020ed0459,5,,,,,,dart,,,,,,,,,,,5,0,0,28,28,40,1,,,,,,,,,,,,,,,,,,,,,,,,,,,,,,,,,,,,,,,,,,,,,,,,,,,,,,,,,,,,,,,,,,,,,,
,,?,0.001,0,,,,,,stimuli/images/PICTURE_453.png,DUDE,5ac81b1068b65b00018d7881,2020-06-30_13h41.40.610,proactive,2020.1.2,MacIntel,60,5efb791ed4cb570da489e737,5efb871be70e7b1020ed0459,5,,,,,,scissors,,,,,,,,,,,3,0,0,29,29,27,1,,,,,,,,,,,,,,,,,,,,,,,,,,,,,,,,,,,,,,,,,,,,,,,,,,,,,,,,,,,,,,,,,,,,,,
,,?,0.001,0,,,,,,stimuli/images/PICTURE_248.png,DOZEN,5ac81b1068b65b00018d7881,2020-06-30_13h41.40.610,proactive,2020.1.2,MacIntel,60,5efb791ed4cb570da489e737,5efb871be70e7b1020ed0459,5,,,,,,cart,,,,,,,,,,,4,0,0,30,30,39,1,,,,,,,,,,,,,,,,,,,,,,,,,,,,,,,,,,,,,,,,,,,,,,,,,,,,,,,,,,,,,,,,,,,,,,
,,?,0,0,,,,,,stimuli/images/PICTURE_487.png,FLIGHT,5ac81b1068b65b00018d7881,2020-06-30_13h41.40.610,proactive,2020.1.2,MacIntel,60,5efb791ed4cb570da489e737,5efb871be70e7b1020ed0459,5,,,,,,basket,,,,,,,,,,,1,0,0,31,31,9,1,,,,,,,,,,,,,,,,,,,,,,,,,,,,,,,,,,,,,,,,,,,,,,,,,,,,,,,,,,,,,,,,,,,,,,
,,?,0.001,0,,,,,,stimuli/images/PICTURE_311.png,FRIEND,5ac81b1068b65b00018d7881,2020-06-30_13h41.40.610,proactive,2020.1.2,MacIntel,60,5efb791ed4cb570da489e737,5efb871be70e7b1020ed0459,5,,,,,,razor,,,,,,,,,,,4,0,0,32,32,34,1,,,,,,,,,,,,,,,,,,,,,,,,,,,,,,,,,,,,,,,,,,,,,,,,,,,,,,,,,,,,,,,,,,,,,,
,,?,0.001,0,,,,,,stimuli/images/PICTURE_151.png,GIRL,5ac81b1068b65b00018d7881,2020-06-30_13h41.40.610,proactive,2020.1.2,MacIntel,60,5efb791ed4cb570da489e737,5efb871be70e7b1020ed0459,5,,,,,,tray,,,,,,,,,,,2,0,0,33,33,19,1,,,,,,,,,,,,,,,,,,,,,,,,,,,,,,,,,,,,,,,,,,,,,,,,,,,,,,,,,,,,,,,,,,,,,,
,,?,0,0,,,,,,stimuli/images/PICTURE_160.png,LEADER,5ac81b1068b65b00018d7881,2020-06-30_13h41.40.610,proactive,2020.1.2,MacIntel,60,5efb791ed4cb570da489e737,5efb871be70e7b1020ed0459,5,,,,,,wheelbarrow,,,,,,,,,,,1,0,0,34,34,3,1,,,,,,,,,,,,,,,,,,,,,,,,,,,,,,,,,,,,,,,,,,,,,,,,,,,,,,,,,,,,,,,,,,,,,,
,,?,0,0,,,,,,stimuli/images/PICTURE_488.png,STYLE,5ac81b1068b65b00018d7881,2020-06-30_13h41.40.610,proactive,2020.1.2,MacIntel,60,5efb791ed4cb570da489e737,5efb871be70e7b1020ed0459,5,,,,,,sun,,,,,,,,,,,4,0,0,35,35,33,1,,,,,,,,,,,,,,,,,,,,,,,,,,,,,,,,,,,,,,,,,,,,,,,,,,,,,,,,,,,,,,,,,,,,,,
,,?,0,0,,,,,,stimuli/images/PICTURE_314.png,GODS,5ac81b1068b65b00018d7881,2020-06-30_13h41.40.610,proactive,2020.1.2,MacIntel,60,5efb791ed4cb570da489e737,5efb871be70e7b1020ed0459,5,,,,,,perfume,,,,,,,,,,,2,0,0,36,36,11,1,,,,,,,,,,,,,,,,,,,,,,,,,,,,,,,,,,,,,,,,,,,,,,,,,,,,,,,,,,,,,,,,,,,,,,
,,?,0,0,,,,,,stimuli/images/PICTURE_708.png,PENNY,5ac81b1068b65b00018d7881,2020-06-30_13h41.40.610,proactive,2020.1.2,MacIntel,60,5efb791ed4cb570da489e737,5efb871be70e7b1020ed0459,5,,,,,,monkey,,,,,,,,,,,4,0,0,37,37,31,1,,,,,,,,,,,,,,,,,,,,,,,,,,,,,,,,,,,,,,,,,,,,,,,,,,,,,,,,,,,,,,,,,,,,,,
,,SYSTEM,1.988,1,,,,,,stimuli/images/PICTURE_744.png,SYSTEM,5ac81b1068b65b00018d7881,2020-06-30_13h41.40.610,proactive,2020.1.2,MacIntel,60,5efb791ed4cb570da489e737,5efb871be70e7b1020ed0459,5,,,,,,ring,,,,,,,,,,,5,0,0,38,38,43,1,,,,,,,,,,,,,,,,,,,,,,,,,,,,,,,,,,,,,,,,,,,,,,,,,,,,,,,,,,,,,,,,,,,,,,
,,?,0.001,0,,,,,,stimuli/images/PICTURE_380.png,PHOTO,5ac81b1068b65b00018d7881,2020-06-30_13h41.40.610,proactive,2020.1.2,MacIntel,60,5efb791ed4cb570da489e737,5efb871be70e7b1020ed0459,5,,,,,,gorilla,,,,,,,,,,,6,0,0,39,39,52,1,,,,,,,,,,,,,,,,,,,,,,,,,,,,,,,,,,,,,,,,,,,,,,,,,,,,,,,,,,,,,,,,,,,,,,
,,?,0.001,0,,,,,,stimuli/images/PICTURE_233.png,IDEAS,5ac81b1068b65b00018d7881,2020-06-30_13h41.40.610,proactive,2020.1.2,MacIntel,60,5efb791ed4cb570da489e737,5efb871be70e7b1020ed0459,5,,,,,,salt,,,,,,,,,,,3,0,0,40,40,28,1,,,,,,,,,,,,,,,,,,,,,,,,,,,,,,,,,,,,,,,,,,,,,,,,,,,,,,,,,,,,,,,,,,,,,,
,,?,0.001,0,,,,,,stimuli/images/PICTURE_208.png,LOTS,5ac81b1068b65b00018d7881,2020-06-30_13h41.40.610,proactive,2020.1.2,MacIntel,60,5efb791ed4cb570da489e737,5efb871be70e7b1020ed0459,5,,,,,,microphone,,,,,,,,,,,2,0,0,41,41,10,1,,,,,,,,,,,,,,,,,,,,,,,,,,,,,,,,,,,,,,,,,,,,,,,,,,,,,,,,,,,,,,,,,,,,,,
,,?,0,0,,,,,,stimuli/images/PICTURE_85.png,THING,5ac81b1068b65b00018d7881,2020-06-30_13h41.40.610,proactive,2020.1.2,MacIntel,60,5efb791ed4cb570da489e737,5efb871be70e7b1020ed0459,5,,,,,,diamond,,,,,,,,,,,2,0,0,42,42,15,1,,,,,,,,,,,,,,,,,,,,,,,,,,,,,,,,,,,,,,,,,,,,,,,,,,,,,,,,,,,,,,,,,,,,,,
,,MILE,1.46,1,,,,,,stimuli/images/PICTURE_68.png,MILE,5ac81b1068b65b00018d7881,2020-06-30_13h41.40.610,proactive,2020.1.2,MacIntel,60,5efb791ed4cb570da489e737,5efb871be70e7b1020ed0459,5,,,,,,candle,,,,,,,,,,,5,0,0,43,43,44,1,,,,,,,,,,,,,,,,,,,,,,,,,,,,,,,,,,,,,,,,,,,,,,,,,,,,,,,,,,,,,,,,,,,,,,
,,?,0.001,0,,,,,,stimuli/images/PICTURE_467.png,DEMON,5ac81b1068b65b00018d7881,2020-06-30_13h41.40.610,proactive,2020.1.2,MacIntel,60,5efb791ed4cb570da489e737,5efb871be70e7b1020ed0459,5,,,,,,peg,,,,,,,,,,,3,0,0,44,44,23,1,,,,,,,,,,,,,,,,,,,,,,,,,,,,,,,,,,,,,,,,,,,,,,,,,,,,,,,,,,,,,,,,,,,,,,
,,ESTATE,2.031,1,,,,,,stimuli/images/PICTURE_308.png,ESTATE,5ac81b1068b65b00018d7881,2020-06-30_13h41.40.610,proactive,2020.1.2,MacIntel,60,5efb791ed4cb570da489e737,5efb871be70e7b1020ed0459,5,,,,,,dice,,,,,,,,,,,5,0,0,45,45,46,1,,,,,,,,,,,,,,,,,,,,,,,,,,,,,,,,,,,,,,,,,,,,,,,,,,,,,,,,,,,,,,,,,,,,,,
,,?,0.001,0,,,,,,stimuli/images/PICTURE_255.png,AREA,5ac81b1068b65b00018d7881,2020-06-30_13h41.40.610,proactive,2020.1.2,MacIntel,60,5efb791ed4cb570da489e737,5efb871be70e7b1020ed0459,5,,,,,,shovel,,,,,,,,,,,3,0,0,46,46,22,1,,,,,,,,,,,,,,,,,,,,,,,,,,,,,,,,,,,,,,,,,,,,,,,,,,,,,,,,,,,,,,,,,,,,,,
,,?,0.001,0,,,,,,stimuli/images/PICTURE_314.png,SAKE,5ac81b1068b65b00018d7881,2020-06-30_13h41.40.610,proactive,2020.1.2,MacIntel,60,5efb791ed4cb570da489e737,5efb871be70e7b1020ed0459,5,,,,,,perfume,,,,,,,,,,,1,0,0,47,47,7,1,,,,,,,,,,,,,,,,,,,,,,,,,,,,,,,,,,,,,,,,,,,,,,,,,,,,,,,,,,,,,,,,,,,,,,
,,?,0.001,0,,,,,,stimuli/images/PICTURE_233.png,WOMEN,5ac81b1068b65b00018d7881,2020-06-30_13h41.40.610,proactive,2020.1.2,MacIntel,60,5efb791ed4cb570da489e737,5efb871be70e7b1020ed0459,5,,,,,,salt,,,,,,,,,,,4,0,0,48,48,38,1,,,,,,,,,,,,,,,,,,,,,,,,,,,,,,,,,,,,,,,,,,,,,,,,,,,,,,,,,,,,,,,,,,,,,,
,,PLENTY,3.061,1,,,,,,stimuli/images/PICTURE_667.png,PLENTY,5ac81b1068b65b00018d7881,2020-06-30_13h41.40.610,proactive,2020.1.2,MacIntel,60,5efb791ed4cb570da489e737,5efb871be70e7b1020ed0459,5,,,,,,daisy,,,,,,,,,,,5,0,0,49,49,41,1,,,,,,,,,,,,,,,,,,,,,,,,,,,,,,,,,,,,,,,,,,,,,,,,,,,,,,,,,,,,,,,,,,,,,,
,,?,0.001,0,,,,,,stimuli/images/PICTURE_469.png,ARTIST,5ac81b1068b65b00018d7881,2020-06-30_13h41.40.610,proactive,2020.1.2,MacIntel,60,5efb791ed4cb570da489e737,5efb871be70e7b1020ed0459,5,,,,,,stool,,,,,,,,,,,1,0,0,50,50,6,1,,,,,,,,,,,,,,,,,,,,,,,,,,,,,,,,,,,,,,,,,,,,,,,,,,,,,,,,,,,,,,,,,,,,,,
,,?,0.001,0,,,,,,stimuli/images/PICTURE_302.png,FAMILY,5ac81b1068b65b00018d7881,2020-06-30_13h41.40.610,proactive,2020.1.2,MacIntel,60,5efb791ed4cb570da489e737,5efb871be70e7b1020ed0459,5,,,,,,taxi,,,,,,,,,,,2,0,0,51,51,18,1,,,,,,,,,,,,,,,,,,,,,,,,,,,,,,,,,,,,,,,,,,,,,,,,,,,,,,,,,,,,,,,,,,,,,,
,,?,0,0,,,,,,stimuli/images/PICTURE_677.png,MILE,5ac81b1068b65b00018d7881,2020-06-30_13h41.40.610,proactive,2020.1.2,MacIntel,60,5efb791ed4cb570da489e737,5efb871be70e7b1020ed0459,5,,,,,,map,,,,,,,,,,,4,0,0,52,52,30,1,,,,,,,,,,,,,,,,,,,,,,,,,,,,,,,,,,,,,,,,,,,,,,,,,,,,,,,,,,,,,,,,,,,,,,
,,?,0.001,0,,,,,,stimuli/images/PICTURE_160.png,FEET,5ac81b1068b65b00018d7881,2020-06-30_13h41.40.610,proactive,2020.1.2,MacIntel,60,5efb791ed4cb570da489e737,5efb871be70e7b1020ed0459,5,,,,,,wheelbarrow,,,,,,,,,,,6,0,0,53,53,58,1,,,,,,,,,,,,,,,,,,,,,,,,,,,,,,,,,,,,,,,,,,,,,,,,,,,,,,,,,,,,,,,,,,,,,,
,,?,0.001,0,,,,,,stimuli/images/PICTURE_348.png,SPEECH,5ac81b1068b65b00018d7881,2020-06-30_13h41.40.610,proactive,2020.1.2,MacIntel,60,5efb791ed4cb570da489e737,5efb871be70e7b1020ed0459,5,,,,,,pepper,,,,,,,,,,,3,0,0,54,54,20,1,,,,,,,,,,,,,,,,,,,,,,,,,,,,,,,,,,,,,,,,,,,,,,,,,,,,,,,,,,,,,,,,,,,,,,
,,?,0,0,,,,,,stimuli/images/PICTURE_688.png,WOMEN,5ac81b1068b65b00018d7881,2020-06-30_13h41.40.610,proactive,2020.1.2,MacIntel,60,5efb791ed4cb570da489e737,5efb871be70e7b1020ed0459,5,,,,,,runner,,,,,,,,,,,2,0,0,55,55,14,1,,,,,,,,,,,,,,,,,,,,,,,,,,,,,,,,,,,,,,,,,,,,,,,,,,,,,,,,,,,,,,,,,,,,,,
,,?,0,0,,,,,,stimuli/images/PICTURE_308.png,KIND,5ac81b1068b65b00018d7881,2020-06-30_13h41.40.610,proactive,2020.1.2,MacIntel,60,5efb791ed4cb570da489e737,5efb871be70e7b1020ed0459,5,,,,,,dice,,,,,,,,,,,6,0,0,56,56,54,1,,,,,,,,,,,,,,,,,,,,,,,,,,,,,,,,,,,,,,,,,,,,,,,,,,,,,,,,,,,,,,,,,,,,,,
,,?,0,0,,,,,,stimuli/images/PICTURE_453.png,PLENTY,5ac81b1068b65b00018d7881,2020-06-30_13h41.40.610,proactive,2020.1.2,MacIntel,60,5efb791ed4cb570da489e737,5efb871be70e7b1020ed0459,5,,,,,,scissors,,,,,,,,,,,6,0,0,57,57,56,1,,,,,,,,,,,,,,,,,,,,,,,,,,,,,,,,,,,,,,,,,,,,,,,,,,,,,,,,,,,,,,,,,,,,,,
,,?,0,0,,,,,,stimuli/images/PICTURE_504.png,BODY,5ac81b1068b65b00018d7881,2020-06-30_13h41.40.610,proactive,2020.1.2,MacIntel,60,5efb791ed4cb570da489e737,5efb871be70e7b1020ed0459,5,,,,,,wheel,,,,,,,,,,,1,0,0,58,58,8,1,,,,,,,,,,,,,,,,,,,,,,,,,,,,,,,,,,,,,,,,,,,,,,,,,,,,,,,,,,,,,,,,,,,,,,
,,?,0,0,,,,,,stimuli/images/PICTURE_509.png,PHOTO,5ac81b1068b65b00018d7881,2020-06-30_13h41.40.610,proactive,2020.1.2,MacIntel,60,5efb791ed4cb570da489e737,5efb871be70e7b1020ed0459,5,,,,,,telephone,,,,,,,,,,,3,0,0,59,59,21,1,,,,,,,,,,,,,,,,,,,,,,,,,,,,,,,,,,,,,,,,,,,,,,,,,,,,,,,,,,,,,,,,,,,,,,
,,,,,,,,,,,,5ac81b1068b65b00018d7881,2020-06-30_13h41.40.610,proactive,2020.1.2,MacIntel,60,5efb791ed4cb570da489e737,5efb871be70e7b1020ed0459,5,,,,,,,,,,,,,,,,,,,,,,,,0,1,1,0,1,stimuli/learn-block1.csv,,,,,,,,,,,,,,,,,,,,,,,,,,,,,,,,,,,,,,,,,,,,,,,,,,,,,,,,,,,,,,,,
,,,,,,,,,,stimuli/images/PICTURE_509.png,BATH,5ac81b1068b65b00018d7881,2020-06-30_13h41.40.610,proactive,2020.1.2,MacIntel,60,5efb791ed4cb570da489e737,5efb871be70e7b1020ed0459,5,,,,,,telephone,,,,,,0,0,0,15,1,2,2,,,,,,,,,,,,,,,,,,,,,,,,,,,,,,,,,,,,,,,,,,,,,,,,,,,,,,,,,,,,,,,,,,,,,,,,,,,
,,,,,,,,,,stimuli/images/PICTURE_348.png,DUDE,5ac81b1068b65b00018d7881,2020-06-30_13h41.40.610,proactive,2020.1.2,MacIntel,60,5efb791ed4cb570da489e737,5efb871be70e7b1020ed0459,5,,,,,,pepper,,,,,,0,1,1,59,1,6,2,,,,,,,,,,,,,,,,,,,,,,,,,,,,,,,,,,,,,,,,,,,,,,,,,,,,,,,,,,,,,,,,,,,,,,,,,,,
,,,,,,,,,,stimuli/images/PICTURE_504.png,HOUSE,5ac81b1068b65b00018d7881,2020-06-30_13h41.40.610,proactive,2020.1.2,MacIntel,60,5efb791ed4cb570da489e737,5efb871be70e7b1020ed0459,5,,,,,,wheel,,,,,,0,2,2,36,1,4,2,,,,,,,,,,,,,,,,,,,,,,,,,,,,,,,,,,,,,,,,,,,,,,,,,,,,,,,,,,,,,,,,,,,,,,,,,,,
,,,,,,,,,,stimuli/images/PICTURE_141.png,CLIENT,5ac81b1068b65b00018d7881,2020-06-30_13h41.40.610,proactive,2020.1.2,MacIntel,60,5efb791ed4cb570da489e737,5efb871be70e7b1020ed0459,5,,,,,,sunflower,,,,,,0,3,3,30,1,4,2,,,,,,,,,,,,,,,,,,,,,,,,,,,,,,,,,,,,,,,,,,,,,,,,,,,,,,,,,,,,,,,,,,,,,,,,,,,
,,,,,,,,,,stimuli/images/PICTURE_95.png,NIGHT,5ac81b1068b65b00018d7881,2020-06-30_13h41.40.610,proactive,2020.1.2,MacIntel,60,5efb791ed4cb570da489e737,5efb871be70e7b1020ed0459,5,,,,,,suitcase,,,,,,0,4,4,37,1,4,2,,,,,,,,,,,,,,,,,,,,,,,,,,,,,,,,,,,,,,,,,,,,,,,,,,,,,,,,,,,,,,,,,,,,,,,,,,,
,,,,,,,,,,stimuli/images/PICTURE_2.png,AREA,5ac81b1068b65b00018d7881,2020-06-30_13h41.40.610,proactive,2020.1.2,MacIntel,60,5efb791ed4cb570da489e737,5efb871be70e7b1020ed0459,5,,,,,,tyre,,,,,,0,5,5,32,1,4,2,,,,,,,,,,,,,,,,,,,,,,,,,,,,,,,,,,,,,,,,,,,,,,,,,,,,,,,,,,,,,,,,,,,,,,,,,,,
,,,,,,,,,,stimuli/images/PICTURE_708.png,VALLEY,5ac81b1068b65b00018d7881,2020-06-30_13h41.40.610,proactive,2020.1.2,MacIntel,60,5efb791ed4cb570da489e737,5efb871be70e7b1020ed0459,5,,,,,,monkey,,,,,,0,6,6,45,1,5,2,,,,,,,,,,,,,,,,,,,,,,,,,,,,,,,,,,,,,,,,,,,,,,,,,,,,,,,,,,,,,,,,,,,,,,,,,,,
,,,,,,,,,,stimuli/images/PICTURE_2.png,JUNGLE,5ac81b1068b65b00018d7881,2020-06-30_13h41.40.610,proactive,2020.1.2,MacIntel,60,5efb791ed4cb570da489e737,5efb871be70e7b1020ed0459,5,,,,,,tyre,,,,,,0,7,7,1,1,1,2,,,,,,,,,,,,,,,,,,,,,,,,,,,,,,,,,,,,,,,,,,,,,,,,,,,,,,,,,,,,,,,,,,,,,,,,,,,
,,,,,,,,,,stimuli/images/PICTURE_655.png,SALE,5ac81b1068b65b00018d7881,2020-06-30_13h41.40.610,proactive,2020.1.2,MacIntel,60,5efb791ed4cb570da489e737,5efb871be70e7b1020ed0459,5,,,,,,megaphone,,,,,,0,8,8,57,1,6,2,,,,,,,,,,,,,,,,,,,,,,,,,,,,,,,,,,,,,,,,,,,,,,,,,,,,,,,,,,,,,,,,,,,,,,,,,,,
,,,,,,,,,,stimuli/images/PICTURE_215.png,BOYS,5ac81b1068b65b00018d7881,2020-06-30_13h41.40.610,proactive,2020.1.2,MacIntel,60,5efb791ed4cb570da489e737,5efb871be70e7b1020ed0459,5,,,,,,boot,,,,,,0,9,9,24,1,3,2,,,,,,,,,,,,,,,,,,,,,,,,,,,,,,,,,,,,,,,,,,,,,,,,,,,,,,,,,,,,,,,,,,,,,,,,,,,
,,,,,,,,,,stimuli/images/PICTURE_509.png,SHOTS,5ac81b1068b65b00018d7881,2020-06-30_13h41.40.610,proactive,2020.1.2,MacIntel,60,5efb791ed4cb570da489e737,5efb871be70e7b1020ed0459,5,,,,,,telephone,,,,,,0,10,10,7,1,1,2,,,,,,,,,,,,,,,,,,,,,,,,,,,,,,,,,,,,,,,,,,,,,,,,,,,,,,,,,,,,,,,,,,,,,,,,,,,
,,,,,,,,,,stimuli/images/PICTURE_57.png,CASINO,5ac81b1068b65b00018d7881,2020-06-30_13h41.40.610,proactive,2020.1.2,MacIntel,60,5efb791ed4cb570da489e737,5efb871be70e7b1020ed0459,5,,,,,,stamp,,,,,,0,11,11,12,1,2,2,,,,,,,,,,,,,,,,,,,,,,,,,,,,,,,,,,,,,,,,,,,,,,,,,,,,,,,,,,,,,,,,,,,,,,,,,,,
,,,,,,,,,,stimuli/images/PICTURE_123.png,SALE,5ac81b1068b65b00018d7881,2020-06-30_13h41.40.610,proactive,2020.1.2,MacIntel,60,5efb791ed4cb570da489e737,5efb871be70e7b1020ed0459,5,,,,,,dart,,,,,,0,12,12,8,1,1,2,,,,,,,,,,,,,,,,,,,,,,,,,,,,,,,,,,,,,,,,,,,,,,,,,,,,,,,,,,,,,,,,,,,,,,,,,,,
,,,,,,,,,,stimuli/images/PICTURE_405.png,JUNGLE,5ac81b1068b65b00018d7881,2020-06-30_13h41.40.610,proactive,2020.1.2,MacIntel,60,5efb791ed4cb570da489e737,5efb871be70e7b1020ed0459,5,,,,,,anchor,,,,,,0,13,13,58,1,6,2,,,,,,,,,,,,,,,,,,,,,,,,,,,,,,,,,,,,,,,,,,,,,,,,,,,,,,,,,,,,,,,,,,,,,,,,,,,
,,,,,,,,,,stimuli/images/PICTURE_564.png,PLENTY,5ac81b1068b65b00018d7881,2020-06-30_13h41.40.610,proactive,2020.1.2,MacIntel,60,5efb791ed4cb570da489e737,5efb871be70e7b1020ed0459,5,,,,,,spoon,,,,,,0,14,14,11,1,2,2,,,,,,,,,,,,,,,,,,,,,,,,,,,,,,,,,,,,,,,,,,,,,,,,,,,,,,,,,,,,,,,,,,,,,,,,,,,
,,,,,,,,,,stimuli/images/PICTURE_405.png,HOUSE,5ac81b1068b65b00018d7881,2020-06-30_13h41.40.610,proactive,2020.1.2,MacIntel,60,5efb791ed4cb570da489e737,5efb871be70e7b1020ed0459,5,,,,,,anchor,,,,,,0,15,15,2,1,1,2,,,,,,,,,,,,,,,,,,,,,,,,,,,,,,,,,,,,,,,,,,,,,,,,,,,,,,,,,,,,,,,,,,,,,,,,,,,
,,,,,,,,,,stimuli/images/PICTURE_311.png,FLESH,5ac81b1068b65b00018d7881,2020-06-30_13h41.40.610,proactive,2020.1.2,MacIntel,60,5efb791ed4cb570da489e737,5efb871be70e7b1020ed0459,5,,,,,,razor,,,,,,0,16,16,3,1,1,2,,,,,,,,,,,,,,,,,,,,,,,,,,,,,,,,,,,,,,,,,,,,,,,,,,,,,,,,,,,,,,,,,,,,,,,,,,,
,,,,,,,,,,stimuli/images/PICTURE_215.png,LEADER,5ac81b1068b65b00018d7881,2020-06-30_13h41.40.610,proactive,2020.1.2,MacIntel,60,5efb791ed4cb570da489e737,5efb871be70e7b1020ed0459,5,,,,,,boot,,,,,,0,17,17,43,1,5,2,,,,,,,,,,,,,,,,,,,,,,,,,,,,,,,,,,,,,,,,,,,,,,,,,,,,,,,,,,,,,,,,,,,,,,,,,,,
,,,,,,,,,,stimuli/images/PICTURE_314.png,SPEECH,5ac81b1068b65b00018d7881,2020-06-30_13h41.40.610,proactive,2020.1.2,MacIntel,60,5efb791ed4cb570da489e737,5efb871be70e7b1020ed0459,5,,,,,,perfume,,,,,,0,18,18,35,1,4,2,,,,,,,,,,,,,,,,,,,,,,,,,,,,,,,,,,,,,,,,,,,,,,,,,,,,,,,,,,,,,,,,,,,,,,,,,,,
,,,,,,,,,,stimuli/images/PICTURE_487.png,POLICY,5ac81b1068b65b00018d7881,2020-06-30_13h41.40.610,proactive,2020.1.2,MacIntel,60,5efb791ed4cb570da489e737,5efb871be70e7b1020ed0459,5,,,,,,basket,,,,,,0,19,19,34,1,4,2,,,,,,,,,,,,,,,,,,,,,,,,,,,,,,,,,,,,,,,,,,,,,,,,,,,,,,,,,,,,,,,,,,,,,,,,,,,
,,,,,,,,,,stimuli/images/PICTURE_57.png,NATION,5ac81b1068b65b00018d7881,2020-06-30_13h41.40.610,proactive,2020.1.2,MacIntel,60,5efb791ed4cb570da489e737,5efb871be70e7b1020ed0459,5,,,,,,stamp,,,,,,0,20,20,21,1,3,2,,,,,,,,,,,,,,,,,,,,,,,,,,,,,,,,,,,,,,,,,,,,,,,,,,,,,,,,,,,,,,,,,,,,,,,,,,,
,,,,,,,,,,stimuli/images/PICTURE_692.png,DUDE,5ac81b1068b65b00018d7881,2020-06-30_13h41.40.610,proactive,2020.1.2,MacIntel,60,5efb791ed4cb570da489e737,5efb871be70e7b1020ed0459,5,,,,,,cherry,,,,,,0,21,21,47,1,5,2,,,,,,,,,,,,,,,,,,,,,,,,,,,,,,,,,,,,,,,,,,,,,,,,,,,,,,,,,,,,,,,,,,,,,,,,,,,
,,,,,,,,,,stimuli/images/PICTURE_296.png,CLOCK,5ac81b1068b65b00018d7881,2020-06-30_13h41.40.610,proactive,2020.1.2,MacIntel,60,5efb791ed4cb570da489e737,5efb871be70e7b1020ed0459,5,,,,,,bolt,,,,,,0,22,22,18,1,2,2,,,,,,,,,,,,,,,,,,,,,,,,,,,,,,,,,,,,,,,,,,,,,,,,,,,,,,,,,,,,,,,,,,,,,,,,,,,
,,,,,,,,,,stimuli/images/PICTURE_491.png,SERIES,5ac81b1068b65b00018d7881,2020-06-30_13h41.40.610,proactive,2020.1.2,MacIntel,60,5efb791ed4cb570da489e737,5efb871be70e7b1020ed0459,5,,,,,,rug,,,,,,0,23,23,39,1,4,2,,,,,,,,,,,,,,,,,,,,,,,,,,,,,,,,,,,,,,,,,,,,,,,,,,,,,,,,,,,,,,,,,,,,,,,,,,,
,,,,,,,,,,stimuli/images/PICTURE_2.png,YARD,5ac81b1068b65b00018d7881,2020-06-30_13h41.40.610,proactive,2020.1.2,MacIntel,60,5efb791ed4cb570da489e737,5efb871be70e7b1020ed0459,5,,,,,,tyre,,,,,,0,24,24,55,1,6,2,,,,,,,,,,,,,,,,,,,,,,,,,,,,,,,,,,,,,,,,,,,,,,,,,,,,,,,,,,,,,,,,,,,,,,,,,,,
,,,,,,,,,,stimuli/images/PICTURE_509.png,APPLE,5ac81b1068b65b00018d7881,2020-06-30_13h41.40.610,proactive,2020.1.2,MacIntel,60,5efb791ed4cb570da489e737,5efb871be70e7b1020ed0459,5,,,,,,telephone,,,,,,0,25,25,38,1,4,2,,,,,,,,,,,,,,,,,,,,,,,,,,,,,,,,,,,,,,,,,,,,,,,,,,,,,,,,,,,,,,,,,,,,,,,,,,,
,,,,,,,,,,stimuli/images/PICTURE_509.png,MILLER,5ac81b1068b65b00018d7881,2020-06-30_13h41.40.610,proactive,2020.1.2,MacIntel,60,5efb791ed4cb570da489e737,5efb871be70e7b1020ed0459,5,,,,,,telephone,,,,,,0,26,26,49,1,5,2,,,,,,,,,,,,,,,,,,,,,,,,,,,,,,,,,,,,,,,,,,,,,,,,,,,,,,,,,,,,,,,,,,,,,,,,,,,
,,,,,,,,,,stimuli/images/PICTURE_403.png,FAMILY,5ac81b1068b65b00018d7881,2020-06-30_13h41.40.610,proactive,2020.1.2,MacIntel,60,5efb791ed4cb570da489e737,5efb871be70e7b1020ed0459,5,,,,,,cathedral,,,,,,0,27,27,9,1,1,2,,,,,,,,,,,,,,,,,,,,,,,,,,,,,,,,,,,,,,,,,,,,,,,,,,,,,,,,,,,,,,,,,,,,,,,,,,,
,,,,,,,,,,stimuli/images/PICTURE_452.png,COPS,5ac81b1068b65b00018d7881,2020-06-30_13h41.40.610,proactive,2020.1.2,MacIntel,60,5efb791ed4cb570da489e737,5efb871be70e7b1020ed0459,5,,,,,,watch,,,,,,0,28,28,0,1,1,2,,,,,,,,,,,,,,,,,,,,,,,,,,,,,,,,,,,,,,,,,,,,,,,,,,,,,,,,,,,,,,,,,,,,,,,,,,,
,,,,,,,,,,stimuli/images/PICTURE_33.png,COPS,5ac81b1068b65b00018d7881,2020-06-30_13h41.40.610,proactive,2020.1.2,MacIntel,60,5efb791ed4cb570da489e737,5efb871be70e7b1020ed0459,5,,,,,,frame,,,,,,0,29,29,29,1,3,2,,,,,,,,,,,,,,,,,,,,,,,,,,,,,,,,,,,,,,,,,,,,,,,,,,,,,,,,,,,,,,,,,,,,,,,,,,,
,,,,,,,,,,stimuli/images/PICTURE_255.png,PENNY,5ac81b1068b65b00018d7881,2020-06-30_13h41.40.610,proactive,2020.1.2,MacIntel,60,5efb791ed4cb570da489e737,5efb871be70e7b1020ed0459,5,,,,,,shovel,,,,,,0,30,30,19,1,2,2,,,,,,,,,,,,,,,,,,,,,,,,,,,,,,,,,,,,,,,,,,,,,,,,,,,,,,,,,,,,,,,,,,,,,,,,,,,
,,,,,,,,,,stimuli/images/PICTURE_215.png,FOOD,5ac81b1068b65b00018d7881,2020-06-30_13h41.40.610,proactive,2020.1.2,MacIntel,60,5efb791ed4cb570da489e737,5efb871be70e7b1020ed0459,5,,,,,,boot,,,,,,0,31,31,5,1,1,2,,,,,,,,,,,,,,,,,,,,,,,,,,,,,,,,,,,,,,,,,,,,,,,,,,,,,,,,,,,,,,,,,,,,,,,,,,,
,,,,,,,,,,stimuli/images/PICTURE_160.png,HOTEL,5ac81b1068b65b00018d7881,2020-06-30_13h41.40.610,proactive,2020.1.2,MacIntel,60,5efb791ed4cb570da489e737,5efb871be70e7b1020ed0459,5,,,,,,wheelbarrow,,,,,,0,32,32,16,1,2,2,,,,,,,,,,,,,,,,,,,,,,,,,,,,,,,,,,,,,,,,,,,,,,,,,,,,,,,,,,,,,,,,,,,,,,,,,,,
,,,,,,,,,,stimuli/images/PICTURE_453.png,FAMILY,5ac81b1068b65b00018d7881,2020-06-30_13h41.40.610,proactive,2020.1.2,MacIntel,60,5efb791ed4cb570da489e737,5efb871be70e7b1020ed0459,5,,,,,,scissors,,,,,,0,33,33,48,1,5,2,,,,,,,,,,,,,,,,,,,,,,,,,,,,,,,,,,,,,,,,,,,,,,,,,,,,,,,,,,,,,,,,,,,,,,,,,,,
,,,,,,,,,,stimuli/images/PICTURE_57.png,CANDY,5ac81b1068b65b00018d7881,2020-06-30_13h41.40.610,proactive,2020.1.2,MacIntel,60,5efb791ed4cb570da489e737,5efb871be70e7b1020ed0459,5,,,,,,stamp,,,,,,0,34,34,52,1,6,2,,,,,,,,,,,,,,,,,,,,,,,,,,,,,,,,,,,,,,,,,,,,,,,,,,,,,,,,,,,,,,,,,,,,,,,,,,,
,,,,,,,,,,stimuli/images/PICTURE_18.png,RIVER,5ac81b1068b65b00018d7881,2020-06-30_13h41.40.610,proactive,2020.1.2,MacIntel,60,5efb791ed4cb570da489e737,5efb871be70e7b1020ed0459,5,,,,,,planet,,,,,,0,35,35,22,1,3,2,,,,,,,,,,,,,,,,,,,,,,,,,,,,,,,,,,,,,,,,,,,,,,,,,,,,,,,,,,,,,,,,,,,,,,,,,,,
,,,,,,,,,,stimuli/images/PICTURE_297.png,BODY,5ac81b1068b65b00018d7881,2020-06-30_13h41.40.610,proactive,2020.1.2,MacIntel,60,5efb791ed4cb570da489e737,5efb871be70e7b1020ed0459,5,,,,,,aeroplane,,,,,,0,36,36,51,1,6,2,,,,,,,,,,,,,,,,,,,,,,,,,,,,,,,,,,,,,,,,,,,,,,,,,,,,,,,,,,,,,,,,,,,,,,,,,,,
,,,,,,,,,,stimuli/images/PICTURE_285.png,WRITER,5ac81b1068b65b00018d7881,2020-06-30_13h41.40.610,proactive,2020.1.2,MacIntel,60,5efb791ed4cb570da489e737,5efb871be70e7b1020ed0459,5,,,,,,carrot,,,,,,0,37,37,6,1,1,2,,,,,,,,,,,,,,,,,,,,,,,,,,,,,,,,,,,,,,,,,,,,,,,,,,,,,,,,,,,,,,,,,,,,,,,,,,,
,,,,,,,,,,stimuli/images/PICTURE_32.png,LETTER,5ac81b1068b65b00018d7881,2020-06-30_13h41.40.610,proactive,2020.1.2,MacIntel,60,5efb791ed4cb570da489e737,5efb871be70e7b1020ed0459,5,,,,,,crown,,,,,,0,38,38,56,1,6,2,,,,,,,,,,,,,,,,,,,,,,,,,,,,,,,,,,,,,,,,,,,,,,,,,,,,,,,,,,,,,,,,,,,,,,,,,,,
,,,,,,,,,,stimuli/images/PICTURE_688.png,CLOCK,5ac81b1068b65b00018d7881,2020-06-30_13h41.40.610,proactive,2020.1.2,MacIntel,60,5efb791ed4cb570da489e737,5efb871be70e7b1020ed0459,5,,,,,,runner,,,,,,0,39,39,42,1,5,2,,,,,,,,,,,,,,,,,,,,,,,,,,,,,,,,,,,,,,,,,,,,,,,,,,,,,,,,,,,,,,,,,,,,,,,,,,,
,,,,,,,,,,stimuli/images/PICTURE_487.png,ROOF,5ac81b1068b65b00018d7881,2020-06-30_13h41.40.610,proactive,2020.1.2,MacIntel,60,5efb791ed4cb570da489e737,5efb871be70e7b1020ed0459,5,,,,,,basket,,,,,,0,40,40,50,1,6,2,,,,,,,,,,,,,,,,,,,,,,,,,,,,,,,,,,,,,,,,,,,,,,,,,,,,,,,,,,,,,,,,,,,,,,,,,,,
,,,,,,,,,,stimuli/images/PICTURE_677.png,FAMILY,5ac81b1068b65b00018d7881,2020-06-30_13h41.40.610,proactive,2020.1.2,MacIntel,60,5efb791ed4cb570da489e737,5efb871be70e7b1020ed0459,5,,,,,,map,,,,,,0,41,41,53,1,6,2,,,,,,,,,,,,,,,,,,,,,,,,,,,,,,,,,,,,,,,,,,,,,,,,,,,,,,,,,,,,,,,,,,,,,,,,,,,
,,,,,,,,,,stimuli/images/PICTURE_356.png,CANDY,5ac81b1068b65b00018d7881,2020-06-30_13h41.40.610,proactive,2020.1.2,MacIntel,60,5efb791ed4cb570da489e737,5efb871be70e7b1020ed0459,5,,,,,,pawn,,,,,,0,42,42,46,1,5,2,,,,,,,,,,,,,,,,,,,,,,,,,,,,,,,,,,,,,,,,,,,,,,,,,,,,,,,,,,,,,,,,,,,,,,,,,,,
,,,,,,,,,,stimuli/images/PICTURE_470.png,BEAUTY,5ac81b1068b65b00018d7881,2020-06-30_13h41.40.610,proactive,2020.1.2,MacIntel,60,5efb791ed4cb570da489e737,5efb871be70e7b1020ed0459,5,,,,,,motorbike,,,,,,0,43,43,26,1,3,2,,,,,,,,,,,,,,,,,,,,,,,,,,,,,,,,,,,,,,,,,,,,,,,,,,,,,,,,,,,,,,,,,,,,,,,,,,,
,,,,,,,,,,stimuli/images/PICTURE_177.png,HOUSE,5ac81b1068b65b00018d7881,2020-06-30_13h41.40.610,proactive,2020.1.2,MacIntel,60,5efb791ed4cb570da489e737,5efb871be70e7b1020ed0459,5,,,,,,mushroom,,,,,,0,44,44,25,1,3,2,,,,,,,,,,,,,,,,,,,,,,,,,,,,,,,,,,,,,,,,,,,,,,,,,,,,,,,,,,,,,,,,,,,,,,,,,,,
,,,,,,,,,,stimuli/images/PICTURE_405.png,JUNGLE,5ac81b1068b65b00018d7881,2020-06-30_13h41.40.610,proactive,2020.1.2,MacIntel,60,5efb791ed4cb570da489e737,5efb871be70e7b1020ed0459,5,,,,,,anchor,,,,,,0,45,45,13,1,2,2,,,,,,,,,,,,,,,,,,,,,,,,,,,,,,,,,,,,,,,,,,,,,,,,,,,,,,,,,,,,,,,,,,,,,,,,,,,
,,,,,,,,,,stimuli/images/PICTURE_470.png,MOMENT,5ac81b1068b65b00018d7881,2020-06-30_13h41.40.610,proactive,2020.1.2,MacIntel,60,5efb791ed4cb570da489e737,5efb871be70e7b1020ed0459,5,,,,,,motorbike,,,,,,0,46,46,40,1,5,2,,,,,,,,,,,,,,,,,,,,,,,,,,,,,,,,,,,,,,,,,,,,,,,,,,,,,,,,,,,,,,,,,,,,,,,,,,,
,,,,,,,,,,stimuli/images/PICTURE_654.png,YEAR,5ac81b1068b65b00018d7881,2020-06-30_13h41.40.610,proactive,2020.1.2,MacIntel,60,5efb791ed4cb570da489e737,5efb871be70e7b1020ed0459,5,,,,,,pencil,,,,,,0,47,47,41,1,5,2,,,,,,,,,,,,,,,,,,,,,,,,,,,,,,,,,,,,,,,,,,,,,,,,,,,,,,,,,,,,,,,,,,,,,,,,,,,
,,,,,,,,,,stimuli/images/PICTURE_285.png,PRINCE,5ac81b1068b65b00018d7881,2020-06-30_13h41.40.610,proactive,2020.1.2,MacIntel,60,5efb791ed4cb570da489e737,5efb871be70e7b1020ed0459,5,,,,,,carrot,,,,,,0,48,48,20,1,3,2,,,,,,,,,,,,,,,,,,,,,,,,,,,,,,,,,,,,,,,,,,,,,,,,,,,,,,,,,,,,,,,,,,,,,,,,,,,
,,,,,,,,,,stimuli/images/PICTURE_677.png,PHOTO,5ac81b1068b65b00018d7881,2020-06-30_13h41.40.610,proactive,2020.1.2,MacIntel,60,5efb791ed4cb570da489e737,5efb871be70e7b1020ed0459,5,,,,,,map,,,,,,0,49,49,14,1,2,2,,,,,,,,,,,,,,,,,,,,,,,,,,,,,,,,,,,,,,,,,,,,,,,,,,,,,,,,,,,,,,,,,,,,,,,,,,,
,,,,,,,,,,stimuli/images/PICTURE_667.png,GLASS,5ac81b1068b65b00018d7881,2020-06-30_13h41.40.610,proactive,2020.1.2,MacIntel,60,5efb791ed4cb570da489e737,5efb871be70e7b1020ed0459,5,,,,,,daisy,,,,,,0,50,50,27,1,3,2,,,,,,,,,,,,,,,,,,,,,,,,,,,,,,,,,,,,,,,,,,,,,,,,,,,,,,,,,,,,,,,,,,,,,,,,,,,
,,,,,,,,,,stimuli/images/PICTURE_348.png,TOILET,5ac81b1068b65b00018d7881,2020-06-30_13h41.40.610,proactive,2020.1.2,MacIntel,60,5efb791ed4cb570da489e737,5efb871be70e7b1020ed0459,5,,,,,,pepper,,,,,,0,51,51,4,1,1,2,,,,,,,,,,,,,,,,,,,,,,,,,,,,,,,,,,,,,,,,,,,,,,,,,,,,,,,,,,,,,,,,,,,,,,,,,,,
,,,,,,,,,,stimuli/images/PICTURE_68.png,KIND,5ac81b1068b65b00018d7881,2020-06-30_13h41.40.610,proactive,2020.1.2,MacIntel,60,5efb791ed4cb570da489e737,5efb871be70e7b1020ed0459,5,,,,,,candle,,,,,,0,52,52,23,1,3,2,,,,,,,,,,,,,,,,,,,,,,,,,,,,,,,,,,,,,,,,,,,,,,,,,,,,,,,,,,,,,,,,,,,,,,,,,,,
,,,,,,,,,,stimuli/images/PICTURE_208.png,SPIRIT,5ac81b1068b65b00018d7881,2020-06-30_13h41.40.610,proactive,2020.1.2,MacIntel,60,5efb791ed4cb570da489e737,5efb871be70e7b1020ed0459,5,,,,,,microphone,,,,,,0,53,53,28,1,3,2,,,,,,,,,,,,,,,,,,,,,,,,,,,,,,,,,,,,,,,,,,,,,,,,,,,,,,,,,,,,,,,,,,,,,,,,,,,
,,,,,,,,,,stimuli/images/PICTURE_654.png,COPS,5ac81b1068b65b00018d7881,2020-06-30_13h41.40.610,proactive,2020.1.2,MacIntel,60,5efb791ed4cb570da489e737,5efb871be70e7b1020ed0459,5,,,,,,pencil,,,,,,0,54,54,10,1,2,2,,,,,,,,,,,,,,,,,,,,,,,,,,,,,,,,,,,,,,,,,,,,,,,,,,,,,,,,,,,,,,,,,,,,,,,,,,,
,,,,,,,,,,stimuli/images/PICTURE_93.png,GIRL,5ac81b1068b65b00018d7881,2020-06-30_13h41.40.610,proactive,2020.1.2,MacIntel,60,5efb791ed4cb570da489e737,5efb871be70e7b1020ed0459,5,,,,,,skateboard,,,,,,0,55,55,31,1,4,2,,,,,,,,,,,,,,,,,,,,,,,,,,,,,,,,,,,,,,,,,,,,,,,,,,,,,,,,,,,,,,,,,,,,,,,,,,,
,,,,,,,,,,stimuli/images/PICTURE_750.png,POLICY,5ac81b1068b65b00018d7881,2020-06-30_13h41.40.610,proactive,2020.1.2,MacIntel,60,5efb791ed4cb570da489e737,5efb871be70e7b1020ed0459,5,,,,,,kettle,,,,,,0,56,56,44,1,5,2,,,,,,,,,,,,,,,,,,,,,,,,,,,,,,,,,,,,,,,,,,,,,,,,,,,,,,,,,,,,,,,,,,,,,,,,,,,
,,,,,,,,,,stimuli/images/PICTURE_311.png,TOILET,5ac81b1068b65b00018d7881,2020-06-30_13h41.40.610,proactive,2020.1.2,MacIntel,60,5efb791ed4cb570da489e737,5efb871be70e7b1020ed0459,5,,,,,,razor,,,,,,0,57,57,54,1,6,2,,,,,,,,,,,,,,,,,,,,,,,,,,,,,,,,,,,,,,,,,,,,,,,,,,,,,,,,,,,,,,,,,,,,,,,,,,,
,,,,,,,,,,stimuli/images/PICTURE_147.png,LEADER,5ac81b1068b65b00018d7881,2020-06-30_13h41.40.610,proactive,2020.1.2,MacIntel,60,5efb791ed4cb570da489e737,5efb871be70e7b1020ed0459,5,,,,,,hanger,,,,,,0,58,58,33,1,4,2,,,,,,,,,,,,,,,,,,,,,,,,,,,,,,,,,,,,,,,,,,,,,,,,,,,,,,,,,,,,,,,,,,,,,,,,,,,
,,?,0.001,0,,,,,,stimuli/images/PICTURE_208.png,SPIRIT,5ac81b1068b65b00018d7881,2020-06-30_13h41.40.610,proactive,2020.1.2,MacIntel,60,5efb791ed4cb570da489e737,5efb871be70e7b1020ed0459,5,,,,,,microphone,,,,,,,,,,,3,2,0,0,0,28,1,,,,,,,,,,,,,,,,,,,,,,,,,,,,,,,,,,,,,,,,,,,,,,,,,,,,,,,,,,,,,,,,,,,,,,
,,?,0.001,0,,,,,,stimuli/images/PICTURE_95.png,NIGHT,5ac81b1068b65b00018d7881,2020-06-30_13h41.40.610,proactive,2020.1.2,MacIntel,60,5efb791ed4cb570da489e737,5efb871be70e7b1020ed0459,5,,,,,,suitcase,,,,,,,,,,,4,2,0,1,1,37,1,,,,,,,,,,,,,,,,,,,,,,,,,,,,,,,,,,,,,,,,,,,,,,,,,,,,,,,,,,,,,,,,,,,,,,
,,?,0,0,,,,,,stimuli/images/PICTURE_18.png,RIVER,5ac81b1068b65b00018d7881,2020-06-30_13h41.40.610,proactive,2020.1.2,MacIntel,60,5efb791ed4cb570da489e737,5efb871be70e7b1020ed0459,5,,,,,,planet,,,,,,,,,,,3,2,0,2,2,22,1,,,,,,,,,,,,,,,,,,,,,,,,,,,,,,,,,,,,,,,,,,,,,,,,,,,,,,,,,,,,,,,,,,,,,,
,,?,0,0,,,,,,stimuli/images/PICTURE_509.png,BATH,5ac81b1068b65b00018d7881,2020-06-30_13h41.40.610,proactive,2020.1.2,MacIntel,60,5efb791ed4cb570da489e737,5efb871be70e7b1020ed0459,5,,,,,,telephone,,,,,,,,,,,2,2,0,3,3,15,1,,,,,,,,,,,,,,,,,,,,,,,,,,,,,,,,,,,,,,,,,,,,,,,,,,,,,,,,,,,,,,,,,,,,,,
,,MOMENT,2.608,1,,,,,,stimuli/images/PICTURE_470.png,MOMENT,5ac81b1068b65b00018d7881,2020-06-30_13h41.40.610,proactive,2020.1.2,MacIntel,60,5efb791ed4cb570da489e737,5efb871be70e7b1020ed0459,5,,,,,,motorbike,,,,,,,,,,,5,2,0,4,4,40,1,,,,,,,,,,,,,,,,,,,,,,,,,,,,,,,,,,,,,,,,,,,,,,,,,,,,,,,,,,,,,,,,,,,,,,
,,?,0.001,0,,,,,,stimuli/images/PICTURE_491.png,SERIES,5ac81b1068b65b00018d7881,2020-06-30_13h41.40.610,proactive,2020.1.2,MacIntel,60,5efb791ed4cb570da489e737,5efb871be70e7b1020ed0459,5,,,,,,rug,,,,,,,,,,,4,2,0,5,5,39,1,,,,,,,,,,,,,,,,,,,,,,,,,,,,,,,,,,,,,,,,,,,,,,,,,,,,,,,,,,,,,,,,,,,,,,
,,?,0.001,0,,,,,,stimuli/images/PICTURE_57.png,CANDY,5ac81b1068b65b00018d7881,2020-06-30_13h41.40.610,proactive,2020.1.2,MacIntel,60,5efb791ed4cb570da489e737,5efb871be70e7b1020ed0459,5,,,,,,stamp,,,,,,,,,,,6,2,0,6,6,52,1,,,,,,,,,,,,,,,,,,,,,,,,,,,,,,,,,,,,,,,,,,,,,,,,,,,,,,,,,,,,,,,,,,,,,,
,,?,0,0,,,,,,stimuli/images/PICTURE_470.png,BEAUTY,5ac81b1068b65b00018d7881,2020-06-30_13h41.40.610,proactive,2020.1.2,MacIntel,60,5efb791ed4cb570da489e737,5efb871be70e7b1020ed0459,5,,,,,,motorbike,,,,,,,,,,,3,2,0,7,7,26,1,,,,,,,,,,,,,,,,,,,,,,,,,,,,,,,,,,,,,,,,,,,,,,,,,,,,,,,,,,,,,,,,,,,,,,
,,?,0.001,0,,,,,,stimuli/images/PICTURE_487.png,ROOF,5ac81b1068b65b00018d7881,2020-06-30_13h41.40.610,proactive,2020.1.2,MacIntel,60,5efb791ed4cb570da489e737,5efb871be70e7b1020ed0459,5,,,,,,basket,,,,,,,,,,,6,2,0,8,8,50,1,,,,,,,,,,,,,,,,,,,,,,,,,,,,,,,,,,,,,,,,,,,,,,,,,,,,,,,,,,,,,,,,,,,,,,
,,CANDY,1.561,1,,,,,,stimuli/images/PICTURE_356.png,CANDY,5ac81b1068b65b00018d7881,2020-06-30_13h41.40.610,proactive,2020.1.2,MacIntel,60,5efb791ed4cb570da489e737,5efb871be70e7b1020ed0459,5,,,,,,pawn,,,,,,,,,,,5,2,0,9,9,46,1,,,,,,,,,,,,,,,,,,,,,,,,,,,,,,,,,,,,,,,,,,,,,,,,,,,,,,,,,,,,,,,,,,,,,,
,,MILLER,1.933,1,,,,,,stimuli/images/PICTURE_509.png,MILLER,5ac81b1068b65b00018d7881,2020-06-30_13h41.40.610,proactive,2020.1.2,MacIntel,60,5efb791ed4cb570da489e737,5efb871be70e7b1020ed0459,5,,,,,,telephone,,,,,,,,,,,5,2,0,10,10,49,1,,,,,,,,,,,,,,,,,,,,,,,,,,,,,,,,,,,,,,,,,,,,,,,,,,,,,,,,,,,,,,,,,,,,,,
,,?,0.001,0,,,,,,stimuli/images/PICTURE_68.png,KIND,5ac81b1068b65b00018d7881,2020-06-30_13h41.40.610,proactive,2020.1.2,MacIntel,60,5efb791ed4cb570da489e737,5efb871be70e7b1020ed0459,5,,,,,,candle,,,,,,,,,,,3,2,0,11,11,23,1,,,,,,,,,,,,,,,,,,,,,,,,,,,,,,,,,,,,,,,,,,,,,,,,,,,,,,,,,,,,,,,,,,,,,,
,,POLICY,2.381,1,,,,,,stimuli/images/PICTURE_750.png,POLICY,5ac81b1068b65b00018d7881,2020-06-30_13h41.40.610,proactive,2020.1.2,MacIntel,60,5efb791ed4cb570da489e737,5efb871be70e7b1020ed0459,5,,,,,,kettle,,,,,,,,,,,5,2,0,12,12,44,1,,,,,,,,,,,,,,,,,,,,,,,,,,,,,,,,,,,,,,,,,,,,,,,,,,,,,,,,,,,,,,,,,,,,,,
,,?,0.001,0,,,,,,stimuli/images/PICTURE_2.png,AREA,5ac81b1068b65b00018d7881,2020-06-30_13h41.40.610,proactive,2020.1.2,MacIntel,60,5efb791ed4cb570da489e737,5efb871be70e7b1020ed0459,5,,,,,,tyre,,,,,,,,,,,4,2,0,13,13,32,1,,,,,,,,,,,,,,,,,,,,,,,,,,,,,,,,,,,,,,,,,,,,,,,,,,,,,,,,,,,,,,,,,,,,,,
,,?,0.001,0,,,,,,stimuli/images/PICTURE_215.png,BOYS,5ac81b1068b65b00018d7881,2020-06-30_13h41.40.610,proactive,2020.1.2,MacIntel,60,5efb791ed4cb570da489e737,5efb871be70e7b1020ed0459,5,,,,,,boot,,,,,,,,,,,3,2,0,14,14,24,1,,,,,,,,,,,,,,,,,,,,,,,,,,,,,,,,,,,,,,,,,,,,,,,,,,,,,,,,,,,,,,,,,,,,,,
,,?,0,0,,,,,,stimuli/images/PICTURE_452.png,COPS,5ac81b1068b65b00018d7881,2020-06-30_13h41.40.610,proactive,2020.1.2,MacIntel,60,5efb791ed4cb570da489e737,5efb871be70e7b1020ed0459,5,,,,,,watch,,,,,,,,,,,1,2,0,15,15,0,1,,,,,,,,,,,,,,,,,,,,,,,,,,,,,,,,,,,,,,,,,,,,,,,,,,,,,,,,,,,,,,,,,,,,,,
,,?,0,0,,,,,,stimuli/images/PICTURE_348.png,TOILET,5ac81b1068b65b00018d7881,2020-06-30_13h41.40.610,proactive,2020.1.2,MacIntel,60,5efb791ed4cb570da489e737,5efb871be70e7b1020ed0459,5,,,,,,pepper,,,,,,,,,,,1,2,0,16,16,4,1,,,,,,,,,,,,,,,,,,,,,,,,,,,,,,,,,,,,,,,,,,,,,,,,,,,,,,,,,,,,,,,,,,,,,,
,,?,0.001,0,,,,,,stimuli/images/PICTURE_311.png,FLESH,5ac81b1068b65b00018d7881,2020-06-30_13h41.40.610,proactive,2020.1.2,MacIntel,60,5efb791ed4cb570da489e737,5efb871be70e7b1020ed0459,5,,,,,,razor,,,,,,,,,,,1,2,0,17,17,3,1,,,,,,,,,,,,,,,,,,,,,,,,,,,,,,,,,,,,,,,,,,,,,,,,,,,,,,,,,,,,,,,,,,,,,,
,,?,0.001,0,,,,,,stimuli/images/PICTURE_147.png,LEADER,5ac81b1068b65b00018d7881,2020-06-30_13h41.40.610,proactive,2020.1.2,MacIntel,60,5efb791ed4cb570da489e737,5efb871be70e7b1020ed0459,5,,,,,,hanger,,,,,,,,,,,4,2,0,18,18,33,1,,,,,,,,,,,,,,,,,,,,,,,,,,,,,,,,,,,,,,,,,,,,,,,,,,,,,,,,,,,,,,,,,,,,,,
,,?,0.001,0,,,,,,stimuli/images/PICTURE_93.png,GIRL,5ac81b1068b65b00018d7881,2020-06-30_13h41.40.610,proactive,2020.1.2,MacIntel,60,5efb791ed4cb570da489e737,5efb871be70e7b1020ed0459,5,,,,,,skateboard,,,,,,,,,,,4,2,0,19,19,31,1,,,,,,,,,,,,,,,,,,,,,,,,,,,,,,,,,,,,,,,,,,,,,,,,,,,,,,,,,,,,,,,,,,,,,,
,,?,0.001,0,,,,,,stimuli/images/PICTURE_297.png,BODY,5ac81b1068b65b00018d7881,2020-06-30_13h41.40.610,proactive,2020.1.2,MacIntel,60,5efb791ed4cb570da489e737,5efb871be70e7b1020ed0459,5,,,,,,aeroplane,,,,,,,,,,,6,2,0,20,20,51,1,,,,,,,,,,,,,,,,,,,,,,,,,,,,,,,,,,,,,,,,,,,,,,,,,,,,,,,,,,,,,,,,,,,,,,
,,?,0,0,,,,,,stimuli/images/PICTURE_160.png,HOTEL,5ac81b1068b65b00018d7881,2020-06-30_13h41.40.610,proactive,2020.1.2,MacIntel,60,5efb791ed4cb570da489e737,5efb871be70e7b1020ed0459,5,,,,,,wheelbarrow,,,,,,,,,,,2,2,0,21,21,16,1,,,,,,,,,,,,,,,,,,,,,,,,,,,,,,,,,,,,,,,,,,,,,,,,,,,,,,,,,,,,,,,,,,,,,,
,,?,0.001,0,,,,,,stimuli/images/PICTURE_296.png,CLOCK,5ac81b1068b65b00018d7881,2020-06-30_13h41.40.610,proactive,2020.1.2,MacIntel,60,5efb791ed4cb570da489e737,5efb871be70e7b1020ed0459,5,,,,,,bolt,,,,,,,,,,,2,2,0,22,22,18,1,,,,,,,,,,,,,,,,,,,,,,,,,,,,,,,,,,,,,,,,,,,,,,,,,,,,,,,,,,,,,,,,,,,,,,
,,?,0,0,,,,,,stimuli/images/PICTURE_677.png,FAMILY,5ac81b1068b65b00018d7881,2020-06-30_13h41.40.610,proactive,2020.1.2,MacIntel,60,5efb791ed4cb570da489e737,5efb871be70e7b1020ed0459,5,,,,,,map,,,,,,,,,,,6,2,0,23,23,53,1,,,,,,,,,,,,,,,,,,,,,,,,,,,,,,,,,,,,,,,,,,,,,,,,,,,,,,,,,,,,,,,,,,,,,,
,,YEAR,1.419,1,,,,,,stimuli/images/PICTURE_654.png,YEAR,5ac81b1068b65b00018d7881,2020-06-30_13h41.40.610,proactive,2020.1.2,MacIntel,60,5efb791ed4cb570da489e737,5efb871be70e7b1020ed0459,5,,,,,,pencil,,,,,,,,,,,5,2,0,24,24,41,1,,,,,,,,,,,,,,,,,,,,,,,,,,,,,,,,,,,,,,,,,,,,,,,,,,,,,,,,,,,,,,,,,,,,,,
,,?,0.001,0,,,,,,stimuli/images/PICTURE_405.png,JUNGLE,5ac81b1068b65b00018d7881,2020-06-30_13h41.40.610,proactive,2020.1.2,MacIntel,60,5efb791ed4cb570da489e737,5efb871be70e7b1020ed0459,5,,,,,,anchor,,,,,,,,,,,6,2,0,25,25,58,1,,,,,,,,,,,,,,,,,,,,,,,,,,,,,,,,,,,,,,,,,,,,,,,,,,,,,,,,,,,,,,,,,,,,,,
,,?,0.001,0,,,,,,stimuli/images/PICTURE_509.png,SHOTS,5ac81b1068b65b00018d7881,2020-06-30_13h41.40.610,proactive,2020.1.2,MacIntel,60,5efb791ed4cb570da489e737,5efb871be70e7b1020ed0459,5,,,,,,telephone,,,,,,,,,,,1,2,0,26,26,7,1,,,,,,,,,,,,,,,,,,,,,,,,,,,,,,,,,,,,,,,,,,,,,,,,,,,,,,,,,,,,,,,,,,,,,,
,,?,0,0,,,,,,stimuli/images/PICTURE_677.png,PHOTO,5ac81b1068b65b00018d7881,2020-06-30_13h41.40.610,proactive,2020.1.2,MacIntel,60,5efb791ed4cb570da489e737,5efb871be70e7b1020ed0459,5,,,,,,map,,,,,,,,,,,2,2,0,27,27,14,1,,,,,,,,,,,,,,,,,,,,,,,,,,,,,,,,,,,,,,,,,,,,,,,,,,,,,,,,,,,,,,,,,,,,,,
