consent_key.keys,consent_key.rt,recalled,recalled_rt,recall_acc,example_recall.thisRepN,example_recall.thisTrialN,example_recall.thisN,example_recall.thisIndex,example_recall.ran,file,word,participant,please enter your date of birth (dd/mm/yyyy),date,expName,psychopyVersion,OS,frameRate,STUDY_ID,SESSION_ID,list,prac_learn_study_loop.thisRepN,prac_learn_study_loop.thisTrialN,prac_learn_study_loop.thisN,prac_learn_study_loop.thisIndex,prac_learn_study_loop.ran,image,prac_learn_test_loop.thisRepN,prac_learn_test_loop.thisTrialN,prac_learn_test_loop.thisN,prac_learn_test_loop.thisIndex,prac_learn_test_loop.ran,learn_study_loop.thisRepN,learn_study_loop.thisTrialN,learn_study_loop.thisN,learn_study_loop.thisIndex,learn_study_loop.ran,list_no,block_no,learn_test_loop.thisRepN,learn_test_loop.thisTrialN,learn_test_loop.thisN,learn_test_loop.thisIndex,learn_test_loop.ran,learn_blocks.thisRepN,learn_blocks.thisTrialN,learn_blocks.thisN,learn_blocks.thisIndex,learn_blocks.ran,block_csv,key_resp_13.keys,key_resp_13.rt,learn_blocks_loop.thisRepN,learn_blocks_loop.thisTrialN,learn_blocks_loop.thisN,learn_blocks_loop.thisIndex,learn_blocks_loop.ran,final_learn_test.thisRepN,final_learn_test.thisTrialN,final_learn_test.thisN,final_learn_test.thisIndex,final_learn_test.ran,prac_wm_test_loop.thisRepN,prac_wm_test_loop.thisTrialN,prac_wm_test_loop.thisN,prac_wm_test_loop.thisIndex,prac_wm_test_loop.ran,wm_recalled1,wm_recall_rt1,wm_probed1,wm_recall_acc1,wm_recalled2,wm_recall_rt2,wm_probed2,wm_recall_acc2,wm_recalled3,wm_recall_rt3,wm_probed3,wm_recall_acc3,wm_recalled4,wm_recall_rt4,wm_probed4,wm_recall_acc4,prac_wm_trial_loop.thisRepN,prac_wm_trial_loop.thisTrialN,prac_wm_trial_loop.thisN,prac_wm_trial_loop.thisIndex,prac_wm_trial_loop.ran,word1,image1,file1,item_type1,word2,image2,file2,item_type2,word4,image4,file4,item_type4,word3,image3,file3,item_type3,wm_test_loop.thisRepN,wm_test_loop.thisTrialN,wm_test_loop.thisN,wm_test_loop.thisIndex,wm_test_loop.ran,wm_trial_loop.thisRepN,wm_trial_loop.thisTrialN,wm_trial_loop.thisN,wm_trial_loop.thisIndex,wm_trial_loop.ran
y,21.185915,TUB,11.199785,0,0,0,0,0,1,stimuli/images/PICTURE_747.png,TOUGH,5b233660648d5b0001b7de87,03/07/1953,2020-07-09_16h06.48.582,proactive,2020.1.2,Win32,60,5f073de81c76c3308c0e4fb3,5f07778980f69a184b0faeeb,5,,,,,,,,,,,,,,,,,,,,,,,,,,,,,,,,,,,,,,,,,,,,,,,,,,,,,,,,,,,,,,,,,,,,,,,,,,,,,,,,,,,,,,,,,,,,,
,,,,,,,,,,stimuli/images/PICTURE_727.png,CELL,5b233660648d5b0001b7de87,03/07/1953,2020-07-09_16h06.48.582,proactive,2020.1.2,Win32,60,5f073de81c76c3308c0e4fb3,5f07778980f69a184b0faeeb,5,0,0,0,1,1,hose,,,,,,,,,,,,,,,,,,,,,,,,,,,,,,,,,,,,,,,,,,,,,,,,,,,,,,,,,,,,,,,,,,,,,,,,,,,,,,,,,,,,,,,
,,,,,,,,,,stimuli/images/PICTURE_269.png,GENIUS,5b233660648d5b0001b7de87,03/07/1953,2020-07-09_16h06.48.582,proactive,2020.1.2,Win32,60,5f073de81c76c3308c0e4fb3,5f07778980f69a184b0faeeb,5,0,1,1,0,1,chameleon,,,,,,,,,,,,,,,,,,,,,,,,,,,,,,,,,,,,,,,,,,,,,,,,,,,,,,,,,,,,,,,,,,,,,,,,,,,,,,,,,,,,,,,
,,,,,,,,,,stimuli/images/PICTURE_378.png,LOSS,5b233660648d5b0001b7de87,03/07/1953,2020-07-09_16h06.48.582,proactive,2020.1.2,Win32,60,5f073de81c76c3308c0e4fb3,5f07778980f69a184b0faeeb,5,0,2,2,2,1,lobster,,,,,,,,,,,,,,,,,,,,,,,,,,,,,,,,,,,,,,,,,,,,,,,,,,,,,,,,,,,,,,,,,,,,,,,,,,,,,,,,,,,,,,,
,,,,,,,,,,stimuli/images/PICTURE_697.png,KILLER,5b233660648d5b0001b7de87,03/07/1953,2020-07-09_16h06.48.582,proactive,2020.1.2,Win32,60,5f073de81c76c3308c0e4fb3,5f07778980f69a184b0faeeb,5,0,3,3,4,1,peach,,,,,,,,,,,,,,,,,,,,,,,,,,,,,,,,,,,,,,,,,,,,,,,,,,,,,,,,,,,,,,,,,,,,,,,,,,,,,,,,,,,,,,,
,,KILL,9.20731,0,,,,,,stimuli/images/PICTURE_697.png,KILLER,5b233660648d5b0001b7de87,03/07/1953,2020-07-09_16h06.48.582,proactive,2020.1.2,Win32,60,5f073de81c76c3308c0e4fb3,5f07778980f69a184b0faeeb,5,,,,,,peach,0,0,0,4,1,,,,,,,,,,,,,,,,,,,,,,,,,,,,,,,,,,,,,,,,,,,,,,,,,,,,,,,,,,,,,,,,,,,,,,,,,,,,,,,,,,
,,H,15.01602,0,,,,,,stimuli/images/PICTURE_727.png,CELL,5b233660648d5b0001b7de87,03/07/1953,2020-07-09_16h06.48.582,proactive,2020.1.2,Win32,60,5f073de81c76c3308c0e4fb3,5f07778980f69a184b0faeeb,5,,,,,,hose,0,1,1,1,1,,,,,,,,,,,,,,,,,,,,,,,,,,,,,,,,,,,,,,,,,,,,,,,,,,,,,,,,,,,,,,,,,,,,,,,,,,,,,,,,,,
,,TREE,15.00142,0,,,,,,stimuli/images/PICTURE_269.png,GENIUS,5b233660648d5b0001b7de87,03/07/1953,2020-07-09_16h06.48.582,proactive,2020.1.2,Win32,60,5f073de81c76c3308c0e4fb3,5f07778980f69a184b0faeeb,5,,,,,,chameleon,0,2,2,0,1,,,,,,,,,,,,,,,,,,,,,,,,,,,,,,,,,,,,,,,,,,,,,,,,,,,,,,,,,,,,,,,,,,,,,,,,,,,,,,,,,,
,,TREE,15.000445,0,,,,,,stimuli/images/PICTURE_658.png,DEVIL,5b233660648d5b0001b7de87,03/07/1953,2020-07-09_16h06.48.582,proactive,2020.1.2,Win32,60,5f073de81c76c3308c0e4fb3,5f07778980f69a184b0faeeb,5,,,,,,crow,0,3,3,3,1,,,,,,,,,,,,,,,,,,,,,,,,,,,,,,,,,,,,,,,,,,,,,,,,,,,,,,,,,,,,,,,,,,,,,,,,,,,,,,,,,,
,,LOT,15.003125,0,,,,,,stimuli/images/PICTURE_378.png,LOSS,5b233660648d5b0001b7de87,03/07/1953,2020-07-09_16h06.48.582,proactive,2020.1.2,Win32,60,5f073de81c76c3308c0e4fb3,5f07778980f69a184b0faeeb,5,,,,,,lobster,0,4,4,2,1,,,,,,,,,,,,,,,,,,,,,,,,,,,,,,,,,,,,,,,,,,,,,,,,,,,,,,,,,,,,,,,,,,,,,,,,,,,,,,,,,,
,,,,,,,,,,stimuli/images/PICTURE_744.png,SYSTEM,5b233660648d5b0001b7de87,03/07/1953,2020-07-09_16h06.48.582,proactive,2020.1.2,Win32,60,5f073de81c76c3308c0e4fb3,5f07778980f69a184b0faeeb,5,,,,,,ring,,,,,,0,0,0,43,1,5,0,,,,,,,,,,,,,,,,,,,,,,,,,,,,,,,,,,,,,,,,,,,,,,,,,,,,,,,,,,,,,,,,,,,,,,,,,,,
,,,,,,,,,,stimuli/images/PICTURE_208.png,LOTS,5b233660648d5b0001b7de87,03/07/1953,2020-07-09_16h06.48.582,proactive,2020.1.2,Win32,60,5f073de81c76c3308c0e4fb3,5f07778980f69a184b0faeeb,5,,,,,,microphone,,,,,,0,1,1,10,1,2,0,,,,,,,,,,,,,,,,,,,,,,,,,,,,,,,,,,,,,,,,,,,,,,,,,,,,,,,,,,,,,,,,,,,,,,,,,,,
,,,,,,,,,,stimuli/images/PICTURE_314.png,GODS,5b233660648d5b0001b7de87,03/07/1953,2020-07-09_16h06.48.582,proactive,2020.1.2,Win32,60,5f073de81c76c3308c0e4fb3,5f07778980f69a184b0faeeb,5,,,,,,perfume,,,,,,0,2,2,11,1,2,0,,,,,,,,,,,,,,,,,,,,,,,,,,,,,,,,,,,,,,,,,,,,,,,,,,,,,,,,,,,,,,,,,,,,,,,,,,,
,,,,,,,,,,stimuli/images/PICTURE_308.png,ESTATE,5b233660648d5b0001b7de87,03/07/1953,2020-07-09_16h06.48.582,proactive,2020.1.2,Win32,60,5f073de81c76c3308c0e4fb3,5f07778980f69a184b0faeeb,5,,,,,,dice,,,,,,0,3,3,46,1,5,0,,,,,,,,,,,,,,,,,,,,,,,,,,,,,,,,,,,,,,,,,,,,,,,,,,,,,,,,,,,,,,,,,,,,,,,,,,,
,,,,,,,,,,stimuli/images/PICTURE_449.png,THING,5b233660648d5b0001b7de87,03/07/1953,2020-07-09_16h06.48.582,proactive,2020.1.2,Win32,60,5f073de81c76c3308c0e4fb3,5f07778980f69a184b0faeeb,5,,,,,,bench,,,,,,0,4,4,59,1,6,0,,,,,,,,,,,,,,,,,,,,,,,,,,,,,,,,,,,,,,,,,,,,,,,,,,,,,,,,,,,,,,,,,,,,,,,,,,,
,,,,,,,,,,stimuli/images/PICTURE_160.png,LEADER,5b233660648d5b0001b7de87,03/07/1953,2020-07-09_16h06.48.582,proactive,2020.1.2,Win32,60,5f073de81c76c3308c0e4fb3,5f07778980f69a184b0faeeb,5,,,,,,wheelbarrow,,,,,,0,5,5,3,1,1,0,,,,,,,,,,,,,,,,,,,,,,,,,,,,,,,,,,,,,,,,,,,,,,,,,,,,,,,,,,,,,,,,,,,,,,,,,,,
,,,,,,,,,,stimuli/images/PICTURE_208.png,MONTH,5b233660648d5b0001b7de87,03/07/1953,2020-07-09_16h06.48.582,proactive,2020.1.2,Win32,60,5f073de81c76c3308c0e4fb3,5f07778980f69a184b0faeeb,5,,,,,,microphone,,,,,,0,6,6,53,1,6,0,,,,,,,,,,,,,,,,,,,,,,,,,,,,,,,,,,,,,,,,,,,,,,,,,,,,,,,,,,,,,,,,,,,,,,,,,,,
,,,,,,,,,,stimuli/images/PICTURE_68.png,MILE,5b233660648d5b0001b7de87,03/07/1953,2020-07-09_16h06.48.582,proactive,2020.1.2,Win32,60,5f073de81c76c3308c0e4fb3,5f07778980f69a184b0faeeb,5,,,,,,candle,,,,,,0,7,7,44,1,5,0,,,,,,,,,,,,,,,,,,,,,,,,,,,,,,,,,,,,,,,,,,,,,,,,,,,,,,,,,,,,,,,,,,,,,,,,,,,
,,,,,,,,,,stimuli/images/PICTURE_308.png,KIND,5b233660648d5b0001b7de87,03/07/1953,2020-07-09_16h06.48.582,proactive,2020.1.2,Win32,60,5f073de81c76c3308c0e4fb3,5f07778980f69a184b0faeeb,5,,,,,,dice,,,,,,0,8,8,54,1,6,0,,,,,,,,,,,,,,,,,,,,,,,,,,,,,,,,,,,,,,,,,,,,,,,,,,,,,,,,,,,,,,,,,,,,,,,,,,,
,,,,,,,,,,stimuli/images/PICTURE_708.png,PENNY,5b233660648d5b0001b7de87,03/07/1953,2020-07-09_16h06.48.582,proactive,2020.1.2,Win32,60,5f073de81c76c3308c0e4fb3,5f07778980f69a184b0faeeb,5,,,,,,monkey,,,,,,0,9,9,31,1,4,0,,,,,,,,,,,,,,,,,,,,,,,,,,,,,,,,,,,,,,,,,,,,,,,,,,,,,,,,,,,,,,,,,,,,,,,,,,,
,,,,,,,,,,stimuli/images/PICTURE_677.png,MILE,5b233660648d5b0001b7de87,03/07/1953,2020-07-09_16h06.48.582,proactive,2020.1.2,Win32,60,5f073de81c76c3308c0e4fb3,5f07778980f69a184b0faeeb,5,,,,,,map,,,,,,0,10,10,30,1,4,0,,,,,,,,,,,,,,,,,,,,,,,,,,,,,,,,,,,,,,,,,,,,,,,,,,,,,,,,,,,,,,,,,,,,,,,,,,,
,,,,,,,,,,stimuli/images/PICTURE_744.png,SAKE,5b233660648d5b0001b7de87,03/07/1953,2020-07-09_16h06.48.582,proactive,2020.1.2,Win32,60,5f073de81c76c3308c0e4fb3,5f07778980f69a184b0faeeb,5,,,,,,ring,,,,,,0,11,11,17,1,2,0,,,,,,,,,,,,,,,,,,,,,,,,,,,,,,,,,,,,,,,,,,,,,,,,,,,,,,,,,,,,,,,,,,,,,,,,,,,
,,,,,,,,,,stimuli/images/PICTURE_469.png,LETTER,5b233660648d5b0001b7de87,03/07/1953,2020-07-09_16h06.48.582,proactive,2020.1.2,Win32,60,5f073de81c76c3308c0e4fb3,5f07778980f69a184b0faeeb,5,,,,,,stool,,,,,,0,12,12,42,1,5,0,,,,,,,,,,,,,,,,,,,,,,,,,,,,,,,,,,,,,,,,,,,,,,,,,,,,,,,,,,,,,,,,,,,,,,,,,,,
,,,,,,,,,,stimuli/images/PICTURE_147.png,MOMENT,5b233660648d5b0001b7de87,03/07/1953,2020-07-09_16h06.48.582,proactive,2020.1.2,Win32,60,5f073de81c76c3308c0e4fb3,5f07778980f69a184b0faeeb,5,,,,,,hanger,,,,,,0,13,13,51,1,6,0,,,,,,,,,,,,,,,,,,,,,,,,,,,,,,,,,,,,,,,,,,,,,,,,,,,,,,,,,,,,,,,,,,,,,,,,,,,
,,,,,,,,,,stimuli/images/PICTURE_692.png,MONTH,5b233660648d5b0001b7de87,03/07/1953,2020-07-09_16h06.48.582,proactive,2020.1.2,Win32,60,5f073de81c76c3308c0e4fb3,5f07778980f69a184b0faeeb,5,,,,,,cherry,,,,,,0,14,14,16,1,2,0,,,,,,,,,,,,,,,,,,,,,,,,,,,,,,,,,,,,,,,,,,,,,,,,,,,,,,,,,,,,,,,,,,,,,,,,,,,
,,,,,,,,,,stimuli/images/PICTURE_467.png,DEMON,5b233660648d5b0001b7de87,03/07/1953,2020-07-09_16h06.48.582,proactive,2020.1.2,Win32,60,5f073de81c76c3308c0e4fb3,5f07778980f69a184b0faeeb,5,,,,,,peg,,,,,,0,15,15,23,1,3,0,,,,,,,,,,,,,,,,,,,,,,,,,,,,,,,,,,,,,,,,,,,,,,,,,,,,,,,,,,,,,,,,,,,,,,,,,,,
,,,,,,,,,,stimuli/images/PICTURE_160.png,FEET,5b233660648d5b0001b7de87,03/07/1953,2020-07-09_16h06.48.582,proactive,2020.1.2,Win32,60,5f073de81c76c3308c0e4fb3,5f07778980f69a184b0faeeb,5,,,,,,wheelbarrow,,,,,,0,16,16,58,1,6,0,,,,,,,,,,,,,,,,,,,,,,,,,,,,,,,,,,,,,,,,,,,,,,,,,,,,,,,,,,,,,,,,,,,,,,,,,,,
,,,,,,,,,,stimuli/images/PICTURE_32.png,JUNGLE,5b233660648d5b0001b7de87,03/07/1953,2020-07-09_16h06.48.582,proactive,2020.1.2,Win32,60,5f073de81c76c3308c0e4fb3,5f07778980f69a184b0faeeb,5,,,,,,crown,,,,,,0,17,17,45,1,5,0,,,,,,,,,,,,,,,,,,,,,,,,,,,,,,,,,,,,,,,,,,,,,,,,,,,,,,,,,,,,,,,,,,,,,,,,,,,
,,,,,,,,,,stimuli/images/PICTURE_469.png,ARTIST,5b233660648d5b0001b7de87,03/07/1953,2020-07-09_16h06.48.582,proactive,2020.1.2,Win32,60,5f073de81c76c3308c0e4fb3,5f07778980f69a184b0faeeb,5,,,,,,stool,,,,,,0,18,18,6,1,1,0,,,,,,,,,,,,,,,,,,,,,,,,,,,,,,,,,,,,,,,,,,,,,,,,,,,,,,,,,,,,,,,,,,,,,,,,,,,
,,,,,,,,,,stimuli/images/PICTURE_255.png,AREA,5b233660648d5b0001b7de87,03/07/1953,2020-07-09_16h06.48.582,proactive,2020.1.2,Win32,60,5f073de81c76c3308c0e4fb3,5f07778980f69a184b0faeeb,5,,,,,,shovel,,,,,,0,19,19,22,1,3,0,,,,,,,,,,,,,,,,,,,,,,,,,,,,,,,,,,,,,,,,,,,,,,,,,,,,,,,,,,,,,,,,,,,,,,,,,,,
,,,,,,,,,,stimuli/images/PICTURE_356.png,DANGER,5b233660648d5b0001b7de87,03/07/1953,2020-07-09_16h06.48.582,proactive,2020.1.2,Win32,60,5f073de81c76c3308c0e4fb3,5f07778980f69a184b0faeeb,5,,,,,,pawn,,,,,,0,20,20,55,1,6,0,,,,,,,,,,,,,,,,,,,,,,,,,,,,,,,,,,,,,,,,,,,,,,,,,,,,,,,,,,,,,,,,,,,,,,,,,,,
,,,,,,,,,,stimuli/images/PICTURE_311.png,FRIEND,5b233660648d5b0001b7de87,03/07/1953,2020-07-09_16h06.48.582,proactive,2020.1.2,Win32,60,5f073de81c76c3308c0e4fb3,5f07778980f69a184b0faeeb,5,,,,,,razor,,,,,,0,21,21,34,1,4,0,,,,,,,,,,,,,,,,,,,,,,,,,,,,,,,,,,,,,,,,,,,,,,,,,,,,,,,,,,,,,,,,,,,,,,,,,,,
,,,,,,,,,,stimuli/images/PICTURE_95.png,STYLE,5b233660648d5b0001b7de87,03/07/1953,2020-07-09_16h06.48.582,proactive,2020.1.2,Win32,60,5f073de81c76c3308c0e4fb3,5f07778980f69a184b0faeeb,5,,,,,,suitcase,,,,,,0,22,22,25,1,3,0,,,,,,,,,,,,,,,,,,,,,,,,,,,,,,,,,,,,,,,,,,,,,,,,,,,,,,,,,,,,,,,,,,,,,,,,,,,
,,,,,,,,,,stimuli/images/PICTURE_233.png,IDEAS,5b233660648d5b0001b7de87,03/07/1953,2020-07-09_16h06.48.582,proactive,2020.1.2,Win32,60,5f073de81c76c3308c0e4fb3,5f07778980f69a184b0faeeb,5,,,,,,salt,,,,,,0,23,23,28,1,3,0,,,,,,,,,,,,,,,,,,,,,,,,,,,,,,,,,,,,,,,,,,,,,,,,,,,,,,,,,,,,,,,,,,,,,,,,,,,
,,,,,,,,,,stimuli/images/PICTURE_380.png,PHOTO,5b233660648d5b0001b7de87,03/07/1953,2020-07-09_16h06.48.582,proactive,2020.1.2,Win32,60,5f073de81c76c3308c0e4fb3,5f07778980f69a184b0faeeb,5,,,,,,gorilla,,,,,,0,24,24,52,1,6,0,,,,,,,,,,,,,,,,,,,,,,,,,,,,,,,,,,,,,,,,,,,,,,,,,,,,,,,,,,,,,,,,,,,,,,,,,,,
,,,,,,,,,,stimuli/images/PICTURE_380.png,DEATH,5b233660648d5b0001b7de87,03/07/1953,2020-07-09_16h06.48.582,proactive,2020.1.2,Win32,60,5f073de81c76c3308c0e4fb3,5f07778980f69a184b0faeeb,5,,,,,,gorilla,,,,,,0,25,25,49,1,5,0,,,,,,,,,,,,,,,,,,,,,,,,,,,,,,,,,,,,,,,,,,,,,,,,,,,,,,,,,,,,,,,,,,,,,,,,,,,
,,,,,,,,,,stimuli/images/PICTURE_667.png,PLENTY,5b233660648d5b0001b7de87,03/07/1953,2020-07-09_16h06.48.582,proactive,2020.1.2,Win32,60,5f073de81c76c3308c0e4fb3,5f07778980f69a184b0faeeb,5,,,,,,daisy,,,,,,0,26,26,41,1,5,0,,,,,,,,,,,,,,,,,,,,,,,,,,,,,,,,,,,,,,,,,,,,,,,,,,,,,,,,,,,,,,,,,,,,,,,,,,,
,,,,,,,,,,stimuli/images/PICTURE_654.png,VALLEY,5b233660648d5b0001b7de87,03/07/1953,2020-07-09_16h06.48.582,proactive,2020.1.2,Win32,60,5f073de81c76c3308c0e4fb3,5f07778980f69a184b0faeeb,5,,,,,,pencil,,,,,,0,27,27,1,1,1,0,,,,,,,,,,,,,,,,,,,,,,,,,,,,,,,,,,,,,,,,,,,,,,,,,,,,,,,,,,,,,,,,,,,,,,,,,,,
,,,,,,,,,,stimuli/images/PICTURE_208.png,THING,5b233660648d5b0001b7de87,03/07/1953,2020-07-09_16h06.48.582,proactive,2020.1.2,Win32,60,5f073de81c76c3308c0e4fb3,5f07778980f69a184b0faeeb,5,,,,,,microphone,,,,,,0,28,28,47,1,5,0,,,,,,,,,,,,,,,,,,,,,,,,,,,,,,,,,,,,,,,,,,,,,,,,,,,,,,,,,,,,,,,,,,,,,,,,,,,
,,,,,,,,,,stimuli/images/PICTURE_348.png,SPEECH,5b233660648d5b0001b7de87,03/07/1953,2020-07-09_16h06.48.582,proactive,2020.1.2,Win32,60,5f073de81c76c3308c0e4fb3,5f07778980f69a184b0faeeb,5,,,,,,pepper,,,,,,0,29,29,20,1,3,0,,,,,,,,,,,,,,,,,,,,,,,,,,,,,,,,,,,,,,,,,,,,,,,,,,,,,,,,,,,,,,,,,,,,,,,,,,,
,,,,,,,,,,stimuli/images/PICTURE_311.png,BEAUTY,5b233660648d5b0001b7de87,03/07/1953,2020-07-09_16h06.48.582,proactive,2020.1.2,Win32,60,5f073de81c76c3308c0e4fb3,5f07778980f69a184b0faeeb,5,,,,,,razor,,,,,,0,30,30,13,1,2,0,,,,,,,,,,,,,,,,,,,,,,,,,,,,,,,,,,,,,,,,,,,,,,,,,,,,,,,,,,,,,,,,,,,,,,,,,,,
,,,,,,,,,,stimuli/images/PICTURE_688.png,CASINO,5b233660648d5b0001b7de87,03/07/1953,2020-07-09_16h06.48.582,proactive,2020.1.2,Win32,60,5f073de81c76c3308c0e4fb3,5f07778980f69a184b0faeeb,5,,,,,,runner,,,,,,0,31,31,2,1,1,0,,,,,,,,,,,,,,,,,,,,,,,,,,,,,,,,,,,,,,,,,,,,,,,,,,,,,,,,,,,,,,,,,,,,,,,,,,,
,,,,,,,,,,stimuli/images/PICTURE_453.png,PLENTY,5b233660648d5b0001b7de87,03/07/1953,2020-07-09_16h06.48.582,proactive,2020.1.2,Win32,60,5f073de81c76c3308c0e4fb3,5f07778980f69a184b0faeeb,5,,,,,,scissors,,,,,,0,32,32,56,1,6,0,,,,,,,,,,,,,,,,,,,,,,,,,,,,,,,,,,,,,,,,,,,,,,,,,,,,,,,,,,,,,,,,,,,,,,,,,,,
,,,,,,,,,,stimuli/images/PICTURE_285.png,ADVICE,5b233660648d5b0001b7de87,03/07/1953,2020-07-09_16h06.48.582,proactive,2020.1.2,Win32,60,5f073de81c76c3308c0e4fb3,5f07778980f69a184b0faeeb,5,,,,,,carrot,,,,,,0,33,33,12,1,2,0,,,,,,,,,,,,,,,,,,,,,,,,,,,,,,,,,,,,,,,,,,,,,,,,,,,,,,,,,,,,,,,,,,,,,,,,,,,
,,,,,,,,,,stimuli/images/PICTURE_688.png,WOMEN,5b233660648d5b0001b7de87,03/07/1953,2020-07-09_16h06.48.582,proactive,2020.1.2,Win32,60,5f073de81c76c3308c0e4fb3,5f07778980f69a184b0faeeb,5,,,,,,runner,,,,,,0,34,34,14,1,2,0,,,,,,,,,,,,,,,,,,,,,,,,,,,,,,,,,,,,,,,,,,,,,,,,,,,,,,,,,,,,,,,,,,,,,,,,,,,
,,,,,,,,,,stimuli/images/PICTURE_491.png,WRITER,5b233660648d5b0001b7de87,03/07/1953,2020-07-09_16h06.48.582,proactive,2020.1.2,Win32,60,5f073de81c76c3308c0e4fb3,5f07778980f69a184b0faeeb,5,,,,,,rug,,,,,,0,35,35,57,1,6,0,,,,,,,,,,,,,,,,,,,,,,,,,,,,,,,,,,,,,,,,,,,,,,,,,,,,,,,,,,,,,,,,,,,,,,,,,,,
,,,,,,,,,,stimuli/images/PICTURE_302.png,FAMILY,5b233660648d5b0001b7de87,03/07/1953,2020-07-09_16h06.48.582,proactive,2020.1.2,Win32,60,5f073de81c76c3308c0e4fb3,5f07778980f69a184b0faeeb,5,,,,,,taxi,,,,,,0,36,36,18,1,2,0,,,,,,,,,,,,,,,,,,,,,,,,,,,,,,,,,,,,,,,,,,,,,,,,,,,,,,,,,,,,,,,,,,,,,,,,,,,
,,,,,,,,,,stimuli/images/PICTURE_339.png,PLENTY,5b233660648d5b0001b7de87,03/07/1953,2020-07-09_16h06.48.582,proactive,2020.1.2,Win32,60,5f073de81c76c3308c0e4fb3,5f07778980f69a184b0faeeb,5,,,,,,backpack,,,,,,0,37,37,0,1,1,0,,,,,,,,,,,,,,,,,,,,,,,,,,,,,,,,,,,,,,,,,,,,,,,,,,,,,,,,,,,,,,,,,,,,,,,,,,,
,,,,,,,,,,stimuli/images/PICTURE_123.png,ADVICE,5b233660648d5b0001b7de87,03/07/1953,2020-07-09_16h06.48.582,proactive,2020.1.2,Win32,60,5f073de81c76c3308c0e4fb3,5f07778980f69a184b0faeeb,5,,,,,,dart,,,,,,0,38,38,40,1,5,0,,,,,,,,,,,,,,,,,,,,,,,,,,,,,,,,,,,,,,,,,,,,,,,,,,,,,,,,,,,,,,,,,,,,,,,,,,,
,,,,,,,,,,stimuli/images/PICTURE_151.png,GIRL,5b233660648d5b0001b7de87,03/07/1953,2020-07-09_16h06.48.582,proactive,2020.1.2,Win32,60,5f073de81c76c3308c0e4fb3,5f07778980f69a184b0faeeb,5,,,,,,tray,,,,,,0,39,39,19,1,2,0,,,,,,,,,,,,,,,,,,,,,,,,,,,,,,,,,,,,,,,,,,,,,,,,,,,,,,,,,,,,,,,,,,,,,,,,,,,
,,,,,,,,,,stimuli/images/PICTURE_708.png,CLIENT,5b233660648d5b0001b7de87,03/07/1953,2020-07-09_16h06.48.582,proactive,2020.1.2,Win32,60,5f073de81c76c3308c0e4fb3,5f07778980f69a184b0faeeb,5,,,,,,monkey,,,,,,0,40,40,5,1,1,0,,,,,,,,,,,,,,,,,,,,,,,,,,,,,,,,,,,,,,,,,,,,,,,,,,,,,,,,,,,,,,,,,,,,,,,,,,,
,,,,,,,,,,stimuli/images/PICTURE_123.png,ADVICE,5b233660648d5b0001b7de87,03/07/1953,2020-07-09_16h06.48.582,proactive,2020.1.2,Win32,60,5f073de81c76c3308c0e4fb3,5f07778980f69a184b0faeeb,5,,,,,,dart,,,,,,0,41,41,50,1,6,0,,,,,,,,,,,,,,,,,,,,,,,,,,,,,,,,,,,,,,,,,,,,,,,,,,,,,,,,,,,,,,,,,,,,,,,,,,,
,,,,,,,,,,stimuli/images/PICTURE_215.png,PLENTY,5b233660648d5b0001b7de87,03/07/1953,2020-07-09_16h06.48.582,proactive,2020.1.2,Win32,60,5f073de81c76c3308c0e4fb3,5f07778980f69a184b0faeeb,5,,,,,,boot,,,,,,0,42,42,37,1,4,0,,,,,,,,,,,,,,,,,,,,,,,,,,,,,,,,,,,,,,,,,,,,,,,,,,,,,,,,,,,,,,,,,,,,,,,,,,,
,,,,,,,,,,stimuli/images/PICTURE_504.png,BODY,5b233660648d5b0001b7de87,03/07/1953,2020-07-09_16h06.48.582,proactive,2020.1.2,Win32,60,5f073de81c76c3308c0e4fb3,5f07778980f69a184b0faeeb,5,,,,,,wheel,,,,,,0,43,43,8,1,1,0,,,,,,,,,,,,,,,,,,,,,,,,,,,,,,,,,,,,,,,,,,,,,,,,,,,,,,,,,,,,,,,,,,,,,,,,,,,
,,,,,,,,,,stimuli/images/PICTURE_675.png,WEAPON,5b233660648d5b0001b7de87,03/07/1953,2020-07-09_16h06.48.582,proactive,2020.1.2,Win32,60,5f073de81c76c3308c0e4fb3,5f07778980f69a184b0faeeb,5,,,,,,windmill,,,,,,0,44,44,32,1,4,0,,,,,,,,,,,,,,,,,,,,,,,,,,,,,,,,,,,,,,,,,,,,,,,,,,,,,,,,,,,,,,,,,,,,,,,,,,,
,,,,,,,,,,stimuli/images/PICTURE_453.png,DUDE,5b233660648d5b0001b7de87,03/07/1953,2020-07-09_16h06.48.582,proactive,2020.1.2,Win32,60,5f073de81c76c3308c0e4fb3,5f07778980f69a184b0faeeb,5,,,,,,scissors,,,,,,0,45,45,27,1,3,0,,,,,,,,,,,,,,,,,,,,,,,,,,,,,,,,,,,,,,,,,,,,,,,,,,,,,,,,,,,,,,,,,,,,,,,,,,,
,,,,,,,,,,stimuli/images/PICTURE_487.png,FLIGHT,5b233660648d5b0001b7de87,03/07/1953,2020-07-09_16h06.48.582,proactive,2020.1.2,Win32,60,5f073de81c76c3308c0e4fb3,5f07778980f69a184b0faeeb,5,,,,,,basket,,,,,,0,46,46,9,1,1,0,,,,,,,,,,,,,,,,,,,,,,,,,,,,,,,,,,,,,,,,,,,,,,,,,,,,,,,,,,,,,,,,,,,,,,,,,,,
,,,,,,,,,,stimuli/images/PICTURE_488.png,STYLE,5b233660648d5b0001b7de87,03/07/1953,2020-07-09_16h06.48.582,proactive,2020.1.2,Win32,60,5f073de81c76c3308c0e4fb3,5f07778980f69a184b0faeeb,5,,,,,,sun,,,,,,0,47,47,33,1,4,0,,,,,,,,,,,,,,,,,,,,,,,,,,,,,,,,,,,,,,,,,,,,,,,,,,,,,,,,,,,,,,,,,,,,,,,,,,,
,,,,,,,,,,stimuli/images/PICTURE_177.png,CARS,5b233660648d5b0001b7de87,03/07/1953,2020-07-09_16h06.48.582,proactive,2020.1.2,Win32,60,5f073de81c76c3308c0e4fb3,5f07778980f69a184b0faeeb,5,,,,,,mushroom,,,,,,0,48,48,35,1,4,0,,,,,,,,,,,,,,,,,,,,,,,,,,,,,,,,,,,,,,,,,,,,,,,,,,,,,,,,,,,,,,,,,,,,,,,,,,,
,,,,,,,,,,stimuli/images/PICTURE_327.png,BEAUTY,5b233660648d5b0001b7de87,03/07/1953,2020-07-09_16h06.48.582,proactive,2020.1.2,Win32,60,5f073de81c76c3308c0e4fb3,5f07778980f69a184b0faeeb,5,,,,,,helmet,,,,,,0,49,49,48,1,5,0,,,,,,,,,,,,,,,,,,,,,,,,,,,,,,,,,,,,,,,,,,,,,,,,,,,,,,,,,,,,,,,,,,,,,,,,,,,
,,,,,,,,,,stimuli/images/PICTURE_470.png,CASINO,5b233660648d5b0001b7de87,03/07/1953,2020-07-09_16h06.48.582,proactive,2020.1.2,Win32,60,5f073de81c76c3308c0e4fb3,5f07778980f69a184b0faeeb,5,,,,,,motorbike,,,,,,0,50,50,36,1,4,0,,,,,,,,,,,,,,,,,,,,,,,,,,,,,,,,,,,,,,,,,,,,,,,,,,,,,,,,,,,,,,,,,,,,,,,,,,,
,,,,,,,,,,stimuli/images/PICTURE_667.png,BATH,5b233660648d5b0001b7de87,03/07/1953,2020-07-09_16h06.48.582,proactive,2020.1.2,Win32,60,5f073de81c76c3308c0e4fb3,5f07778980f69a184b0faeeb,5,,,,,,daisy,,,,,,0,51,51,4,1,1,0,,,,,,,,,,,,,,,,,,,,,,,,,,,,,,,,,,,,,,,,,,,,,,,,,,,,,,,,,,,,,,,,,,,,,,,,,,,
,,,,,,,,,,stimuli/images/PICTURE_509.png,PHOTO,5b233660648d5b0001b7de87,03/07/1953,2020-07-09_16h06.48.582,proactive,2020.1.2,Win32,60,5f073de81c76c3308c0e4fb3,5f07778980f69a184b0faeeb,5,,,,,,telephone,,,,,,0,52,52,21,1,3,0,,,,,,,,,,,,,,,,,,,,,,,,,,,,,,,,,,,,,,,,,,,,,,,,,,,,,,,,,,,,,,,,,,,,,,,,,,,
,,,,,,,,,,stimuli/images/PICTURE_85.png,THING,5b233660648d5b0001b7de87,03/07/1953,2020-07-09_16h06.48.582,proactive,2020.1.2,Win32,60,5f073de81c76c3308c0e4fb3,5f07778980f69a184b0faeeb,5,,,,,,diamond,,,,,,0,53,53,15,1,2,0,,,,,,,,,,,,,,,,,,,,,,,,,,,,,,,,,,,,,,,,,,,,,,,,,,,,,,,,,,,,,,,,,,,,,,,,,,,
,,,,,,,,,,stimuli/images/PICTURE_233.png,WOMEN,5b233660648d5b0001b7de87,03/07/1953,2020-07-09_16h06.48.582,proactive,2020.1.2,Win32,60,5f073de81c76c3308c0e4fb3,5f07778980f69a184b0faeeb,5,,,,,,salt,,,,,,0,54,54,38,1,4,0,,,,,,,,,,,,,,,,,,,,,,,,,,,,,,,,,,,,,,,,,,,,,,,,,,,,,,,,,,,,,,,,,,,,,,,,,,,
,,,,,,,,,,stimuli/images/PICTURE_203.png,ARTIST,5b233660648d5b0001b7de87,03/07/1953,2020-07-09_16h06.48.582,proactive,2020.1.2,Win32,60,5f073de81c76c3308c0e4fb3,5f07778980f69a184b0faeeb,5,,,,,,cap,,,,,,0,55,55,26,1,3,0,,,,,,,,,,,,,,,,,,,,,,,,,,,,,,,,,,,,,,,,,,,,,,,,,,,,,,,,,,,,,,,,,,,,,,,,,,,
,,,,,,,,,,stimuli/images/PICTURE_491.png,ROOF,5b233660648d5b0001b7de87,03/07/1953,2020-07-09_16h06.48.582,proactive,2020.1.2,Win32,60,5f073de81c76c3308c0e4fb3,5f07778980f69a184b0faeeb,5,,,,,,rug,,,,,,0,56,56,24,1,3,0,,,,,,,,,,,,,,,,,,,,,,,,,,,,,,,,,,,,,,,,,,,,,,,,,,,,,,,,,,,,,,,,,,,,,,,,,,,
,,,,,,,,,,stimuli/images/PICTURE_708.png,YARD,5b233660648d5b0001b7de87,03/07/1953,2020-07-09_16h06.48.582,proactive,2020.1.2,Win32,60,5f073de81c76c3308c0e4fb3,5f07778980f69a184b0faeeb,5,,,,,,monkey,,,,,,0,57,57,29,1,3,0,,,,,,,,,,,,,,,,,,,,,,,,,,,,,,,,,,,,,,,,,,,,,,,,,,,,,,,,,,,,,,,,,,,,,,,,,,,
,,,,,,,,,,stimuli/images/PICTURE_248.png,DOZEN,5b233660648d5b0001b7de87,03/07/1953,2020-07-09_16h06.48.582,proactive,2020.1.2,Win32,60,5f073de81c76c3308c0e4fb3,5f07778980f69a184b0faeeb,5,,,,,,cart,,,,,,0,58,58,39,1,4,0,,,,,,,,,,,,,,,,,,,,,,,,,,,,,,,,,,,,,,,,,,,,,,,,,,,,,,,,,,,,,,,,,,,,,,,,,,,
,,?,0.001285,0,,,,,,stimuli/images/PICTURE_123.png,ADVICE,5b233660648d5b0001b7de87,03/07/1953,2020-07-09_16h06.48.582,proactive,2020.1.2,Win32,60,5f073de81c76c3308c0e4fb3,5f07778980f69a184b0faeeb,5,,,,,,dart,,,,,,,,,,,6,0,0,0,0,50,1,,,,,,,,,,,,,,,,,,,,,,,,,,,,,,,,,,,,,,,,,,,,,,,,,,,,,,,,,,,,,,,,,,,,,,
,,?,0.00255,0,,,,,,stimuli/images/PICTURE_233.png,IDEAS,5b233660648d5b0001b7de87,03/07/1953,2020-07-09_16h06.48.582,proactive,2020.1.2,Win32,60,5f073de81c76c3308c0e4fb3,5f07778980f69a184b0faeeb,5,,,,,,salt,,,,,,,,,,,3,0,0,1,1,28,1,,,,,,,,,,,,,,,,,,,,,,,,,,,,,,,,,,,,,,,,,,,,,,,,,,,,,,,,,,,,,,,,,,,,,,
,,?,0.001575,0,,,,,,stimuli/images/PICTURE_744.png,SAKE,5b233660648d5b0001b7de87,03/07/1953,2020-07-09_16h06.48.582,proactive,2020.1.2,Win32,60,5f073de81c76c3308c0e4fb3,5f07778980f69a184b0faeeb,5,,,,,,ring,,,,,,,,,,,2,0,0,2,2,17,1,,,,,,,,,,,,,,,,,,,,,,,,,,,,,,,,,,,,,,,,,,,,,,,,,,,,,,,,,,,,,,,,,,,,,,
,,?,15.01298,0,,,,,,stimuli/images/PICTURE_469.png,LETTER,5b233660648d5b0001b7de87,03/07/1953,2020-07-09_16h06.48.582,proactive,2020.1.2,Win32,60,5f073de81c76c3308c0e4fb3,5f07778980f69a184b0faeeb,5,,,,,,stool,,,,,,,,,,,5,0,0,3,3,42,1,,,,,,,,,,,,,,,,,,,,,,,,,,,,,,,,,,,,,,,,,,,,,,,,,,,,,,,,,,,,,,,,,,,,,,
,,?,0.00153,0,,,,,,stimuli/images/PICTURE_491.png,ROOF,5b233660648d5b0001b7de87,03/07/1953,2020-07-09_16h06.48.582,proactive,2020.1.2,Win32,60,5f073de81c76c3308c0e4fb3,5f07778980f69a184b0faeeb,5,,,,,,rug,,,,,,,,,,,3,0,0,4,4,24,1,,,,,,,,,,,,,,,,,,,,,,,,,,,,,,,,,,,,,,,,,,,,,,,,,,,,,,,,,,,,,,,,,,,,,,
,,?,0.00151,0,,,,,,stimuli/images/PICTURE_688.png,WOMEN,5b233660648d5b0001b7de87,03/07/1953,2020-07-09_16h06.48.582,proactive,2020.1.2,Win32,60,5f073de81c76c3308c0e4fb3,5f07778980f69a184b0faeeb,5,,,,,,runner,,,,,,,,,,,2,0,0,5,5,14,1,,,,,,,,,,,,,,,,,,,,,,,,,,,,,,,,,,,,,,,,,,,,,,,,,,,,,,,,,,,,,,,,,,,,,,
,,THING,15.010625,1,,,,,,stimuli/images/PICTURE_208.png,THING,5b233660648d5b0001b7de87,03/07/1953,2020-07-09_16h06.48.582,proactive,2020.1.2,Win32,60,5f073de81c76c3308c0e4fb3,5f07778980f69a184b0faeeb,5,,,,,,microphone,,,,,,,,,,,5,0,0,6,6,47,1,,,,,,,,,,,,,,,,,,,,,,,,,,,,,,,,,,,,,,,,,,,,,,,,,,,,,,,,,,,,,,,,,,,,,,
,,?,0.005,0,,,,,,stimuli/images/PICTURE_255.png,AREA,5b233660648d5b0001b7de87,03/07/1953,2020-07-09_16h06.48.582,proactive,2020.1.2,Win32,60,5f073de81c76c3308c0e4fb3,5f07778980f69a184b0faeeb,5,,,,,,shovel,,,,,,,,,,,3,0,0,7,7,22,1,,,,,,,,,,,,,,,,,,,,,,,,,,,,,,,,,,,,,,,,,,,,,,,,,,,,,,,,,,,,,,,,,,,,,,
,,?,0.00239,0,,,,,,stimuli/images/PICTURE_692.png,MONTH,5b233660648d5b0001b7de87,03/07/1953,2020-07-09_16h06.48.582,proactive,2020.1.2,Win32,60,5f073de81c76c3308c0e4fb3,5f07778980f69a184b0faeeb,5,,,,,,cherry,,,,,,,,,,,2,0,0,8,8,16,1,,,,,,,,,,,,,,,,,,,,,,,,,,,,,,,,,,,,,,,,,,,,,,,,,,,,,,,,,,,,,,,,,,,,,,
,,ESTATE,15.00222,1,,,,,,stimuli/images/PICTURE_308.png,ESTATE,5b233660648d5b0001b7de87,03/07/1953,2020-07-09_16h06.48.582,proactive,2020.1.2,Win32,60,5f073de81c76c3308c0e4fb3,5f07778980f69a184b0faeeb,5,,,,,,dice,,,,,,,,,,,5,0,0,9,9,46,1,,,,,,,,,,,,,,,,,,,,,,,,,,,,,,,,,,,,,,,,,,,,,,,,,,,,,,,,,,,,,,,,,,,,,,
,,?,0.001385,0,,,,,,stimuli/images/PICTURE_504.png,BODY,5b233660648d5b0001b7de87,03/07/1953,2020-07-09_16h06.48.582,proactive,2020.1.2,Win32,60,5f073de81c76c3308c0e4fb3,5f07778980f69a184b0faeeb,5,,,,,,wheel,,,,,,,,,,,1,0,0,10,10,8,1,,,,,,,,,,,,,,,,,,,,,,,,,,,,,,,,,,,,,,,,,,,,,,,,,,,,,,,,,,,,,,,,,,,,,,
,,?,15.33473,0,,,,,,stimuli/images/PICTURE_744.png,SYSTEM,5b233660648d5b0001b7de87,03/07/1953,2020-07-09_16h06.48.582,proactive,2020.1.2,Win32,60,5f073de81c76c3308c0e4fb3,5f07778980f69a184b0faeeb,5,,,,,,ring,,,,,,,,,,,5,0,0,11,11,43,1,,,,,,,,,,,,,,,,,,,,,,,,,,,,,,,,,,,,,,,,,,,,,,,,,,,,,,,,,,,,,,,,,,,,,,
,,?,0.001615,0,,,,,,stimuli/images/PICTURE_160.png,FEET,5b233660648d5b0001b7de87,03/07/1953,2020-07-09_16h06.48.582,proactive,2020.1.2,Win32,60,5f073de81c76c3308c0e4fb3,5f07778980f69a184b0faeeb,5,,,,,,wheelbarrow,,,,,,,,,,,6,0,0,12,12,58,1,,,,,,,,,,,,,,,,,,,,,,,,,,,,,,,,,,,,,,,,,,,,,,,,,,,,,,,,,,,,,,,,,,,,,,
,,?,0.00147,0,,,,,,stimuli/images/PICTURE_667.png,BATH,5b233660648d5b0001b7de87,03/07/1953,2020-07-09_16h06.48.582,proactive,2020.1.2,Win32,60,5f073de81c76c3308c0e4fb3,5f07778980f69a184b0faeeb,5,,,,,,daisy,,,,,,,,,,,1,0,0,13,13,4,1,,,,,,,,,,,,,,,,,,,,,,,,,,,,,,,,,,,,,,,,,,,,,,,,,,,,,,,,,,,,,,,,,,,,,,
,,?,0.001155,0,,,,,,stimuli/images/PICTURE_453.png,DUDE,5b233660648d5b0001b7de87,03/07/1953,2020-07-09_16h06.48.582,proactive,2020.1.2,Win32,60,5f073de81c76c3308c0e4fb3,5f07778980f69a184b0faeeb,5,,,,,,scissors,,,,,,,,,,,3,0,0,14,14,27,1,,,,,,,,,,,,,,,,,,,,,,,,,,,,,,,,,,,,,,,,,,,,,,,,,,,,,,,,,,,,,,,,,,,,,,
,,?,0.001175,0,,,,,,stimuli/images/PICTURE_491.png,WRITER,5b233660648d5b0001b7de87,03/07/1953,2020-07-09_16h06.48.582,proactive,2020.1.2,Win32,60,5f073de81c76c3308c0e4fb3,5f07778980f69a184b0faeeb,5,,,,,,rug,,,,,,,,,,,6,0,0,15,15,57,1,,,,,,,,,,,,,,,,,,,,,,,,,,,,,,,,,,,,,,,,,,,,,,,,,,,,,,,,,,,,,,,,,,,,,,
,,?,0.00149,0,,,,,,stimuli/images/PICTURE_675.png,WEAPON,5b233660648d5b0001b7de87,03/07/1953,2020-07-09_16h06.48.582,proactive,2020.1.2,Win32,60,5f073de81c76c3308c0e4fb3,5f07778980f69a184b0faeeb,5,,,,,,windmill,,,,,,,,,,,4,0,0,16,16,32,1,,,,,,,,,,,,,,,,,,,,,,,,,,,,,,,,,,,,,,,,,,,,,,,,,,,,,,,,,,,,,,,,,,,,,,
,,?,0.002255,0,,,,,,stimuli/images/PICTURE_151.png,GIRL,5b233660648d5b0001b7de87,03/07/1953,2020-07-09_16h06.48.582,proactive,2020.1.2,Win32,60,5f073de81c76c3308c0e4fb3,5f07778980f69a184b0faeeb,5,,,,,,tray,,,,,,,,,,,2,0,0,17,17,19,1,,,,,,,,,,,,,,,,,,,,,,,,,,,,,,,,,,,,,,,,,,,,,,,,,,,,,,,,,,,,,,,,,,,,,,
,,?,0.001355,0,,,,,,stimuli/images/PICTURE_208.png,LOTS,5b233660648d5b0001b7de87,03/07/1953,2020-07-09_16h06.48.582,proactive,2020.1.2,Win32,60,5f073de81c76c3308c0e4fb3,5f07778980f69a184b0faeeb,5,,,,,,microphone,,,,,,,,,,,2,0,0,18,18,10,1,,,,,,,,,,,,,,,,,,,,,,,,,,,,,,,,,,,,,,,,,,,,,,,,,,,,,,,,,,,,,,,,,,,,,,
,,?,0.00141,0,,,,,,stimuli/images/PICTURE_85.png,THING,5b233660648d5b0001b7de87,03/07/1953,2020-07-09_16h06.48.582,proactive,2020.1.2,Win32,60,5f073de81c76c3308c0e4fb3,5f07778980f69a184b0faeeb,5,,,,,,diamond,,,,,,,,,,,2,0,0,19,19,15,1,,,,,,,,,,,,,,,,,,,,,,,,,,,,,,,,,,,,,,,,,,,,,,,,,,,,,,,,,,,,,,,,,,,,,,
,,?,0.00127,0,,,,,,stimuli/images/PICTURE_348.png,SPEECH,5b233660648d5b0001b7de87,03/07/1953,2020-07-09_16h06.48.582,proactive,2020.1.2,Win32,60,5f073de81c76c3308c0e4fb3,5f07778980f69a184b0faeeb,5,,,,,,pepper,,,,,,,,,,,3,0,0,20,20,20,1,,,,,,,,,,,,,,,,,,,,,,,,,,,,,,,,,,,,,,,,,,,,,,,,,,,,,,,,,,,,,,,,,,,,,,
,,?,0.001285,0,,,,,,stimuli/images/PICTURE_688.png,CASINO,5b233660648d5b0001b7de87,03/07/1953,2020-07-09_16h06.48.582,proactive,2020.1.2,Win32,60,5f073de81c76c3308c0e4fb3,5f07778980f69a184b0faeeb,5,,,,,,runner,,,,,,,,,,,1,0,0,21,21,2,1,,,,,,,,,,,,,,,,,,,,,,,,,,,,,,,,,,,,,,,,,,,,,,,,,,,,,,,,,,,,,,,,,,,,,,
,,?,0.00126,0,,,,,,stimuli/images/PICTURE_708.png,PENNY,5b233660648d5b0001b7de87,03/07/1953,2020-07-09_16h06.48.582,proactive,2020.1.2,Win32,60,5f073de81c76c3308c0e4fb3,5f07778980f69a184b0faeeb,5,,,,,,monkey,,,,,,,,,,,4,0,0,22,22,31,1,,,,,,,,,,,,,,,,,,,,,,,,,,,,,,,,,,,,,,,,,,,,,,,,,,,,,,,,,,,,,,,,,,,,,,
,,?,0.001565,0,,,,,,stimuli/images/PICTURE_215.png,PLENTY,5b233660648d5b0001b7de87,03/07/1953,2020-07-09_16h06.48.582,proactive,2020.1.2,Win32,60,5f073de81c76c3308c0e4fb3,5f07778980f69a184b0faeeb,5,,,,,,boot,,,,,,,,,,,4,0,0,23,23,37,1,,,,,,,,,,,,,,,,,,,,,,,,,,,,,,,,,,,,,,,,,,,,,,,,,,,,,,,,,,,,,,,,,,,,,,
,,?,0.00111,0,,,,,,stimuli/images/PICTURE_677.png,MILE,5b233660648d5b0001b7de87,03/07/1953,2020-07-09_16h06.48.582,proactive,2020.1.2,Win32,60,5f073de81c76c3308c0e4fb3,5f07778980f69a184b0faeeb,5,,,,,,map,,,,,,,,,,,4,0,0,24,24,30,1,,,,,,,,,,,,,,,,,,,,,,,,,,,,,,,,,,,,,,,,,,,,,,,,,,,,,,,,,,,,,,,,,,,,,,
,,?,0.001195,0,,,,,,stimuli/images/PICTURE_449.png,THING,5b233660648d5b0001b7de87,03/07/1953,2020-07-09_16h06.48.582,proactive,2020.1.2,Win32,60,5f073de81c76c3308c0e4fb3,5f07778980f69a184b0faeeb,5,,,,,,bench,,,,,,,,,,,6,0,0,25,25,59,1,,,,,,,,,,,,,,,,,,,,,,,,,,,,,,,,,,,,,,,,,,,,,,,,,,,,,,,,,,,,,,,,,,,,,,
,,?,0.00273,0,,,,,,stimuli/images/PICTURE_233.png,WOMEN,5b233660648d5b0001b7de87,03/07/1953,2020-07-09_16h06.48.582,proactive,2020.1.2,Win32,60,5f073de81c76c3308c0e4fb3,5f07778980f69a184b0faeeb,5,,,,,,salt,,,,,,,,,,,4,0,0,26,26,38,1,,,,,,,,,,,,,,,,,,,,,,,,,,,,,,,,,,,,,,,,,,,,,,,,,,,,,,,,,,,,,,,,,,,,,,
,,?,0.001535,0,,,,,,stimuli/images/PICTURE_708.png,YARD,5b233660648d5b0001b7de87,03/07/1953,2020-07-09_16h06.48.582,proactive,2020.1.2,Win32,60,5f073de81c76c3308c0e4fb3,5f07778980f69a184b0faeeb,5,,,,,,monkey,,,,,,,,,,,3,0,0,27,27,29,1,,,,,,,,,,,,,,,,,,,,,,,,,,,,,,,,,,,,,,,,,,,,,,,,,,,,,,,,,,,,,,,,,,,,,,
,,?,0.00126,0,,,,,,stimuli/images/PICTURE_708.png,CLIENT,5b233660648d5b0001b7de87,03/07/1953,2020-07-09_16h06.48.582,proactive,2020.1.2,Win32,60,5f073de81c76c3308c0e4fb3,5f07778980f69a184b0faeeb,5,,,,,,monkey,,,,,,,,,,,1,0,0,28,28,5,1,,,,,,,,,,,,,,,,,,,,,,,,,,,,,,,,,,,,,,,,,,,,,,,,,,,,,,,,,,,,,,,,,,,,,,
,,?,0.001225,0,,,,,,stimuli/images/PICTURE_654.png,VALLEY,5b233660648d5b0001b7de87,03/07/1953,2020-07-09_16h06.48.582,proactive,2020.1.2,Win32,60,5f073de81c76c3308c0e4fb3,5f07778980f69a184b0faeeb,5,,,,,,pencil,,,,,,,,,,,1,0,0,29,29,1,1,,,,,,,,,,,,,,,,,,,,,,,,,,,,,,,,,,,,,,,,,,,,,,,,,,,,,,,,,,,,,,,,,,,,,,
,,?,0.0011,0,,,,,,stimuli/images/PICTURE_311.png,FRIEND,5b233660648d5b0001b7de87,03/07/1953,2020-07-09_16h06.48.582,proactive,2020.1.2,Win32,60,5f073de81c76c3308c0e4fb3,5f07778980f69a184b0faeeb,5,,,,,,razor,,,,,,,,,,,4,0,0,30,30,34,1,,,,,,,,,,,,,,,,,,,,,,,,,,,,,,,,,,,,,,,,,,,,,,,,,,,,,,,,,,,,,,,,,,,,,,
,,?,0.001085,0,,,,,,stimuli/images/PICTURE_356.png,DANGER,5b233660648d5b0001b7de87,03/07/1953,2020-07-09_16h06.48.582,proactive,2020.1.2,Win32,60,5f073de81c76c3308c0e4fb3,5f07778980f69a184b0faeeb,5,,,,,,pawn,,,,,,,,,,,6,0,0,31,31,55,1,,,,,,,,,,,,,,,,,,,,,,,,,,,,,,,,,,,,,,,,,,,,,,,,,,,,,,,,,,,,,,,,,,,,,,
,,PLENTY,15.005945,1,,,,,,stimuli/images/PICTURE_667.png,PLENTY,5b233660648d5b0001b7de87,03/07/1953,2020-07-09_16h06.48.582,proactive,2020.1.2,Win32,60,5f073de81c76c3308c0e4fb3,5f07778980f69a184b0faeeb,5,,,,,,daisy,,,,,,,,,,,5,0,0,32,32,41,1,,,,,,,,,,,,,,,,,,,,,,,,,,,,,,,,,,,,,,,,,,,,,,,,,,,,,,,,,,,,,,,,,,,,,,
,,?,0.00162,0,,,,,,stimuli/images/PICTURE_380.png,PHOTO,5b233660648d5b0001b7de87,03/07/1953,2020-07-09_16h06.48.582,proactive,2020.1.2,Win32,60,5f073de81c76c3308c0e4fb3,5f07778980f69a184b0faeeb,5,,,,,,gorilla,,,,,,,,,,,6,0,0,33,33,52,1,,,,,,,,,,,,,,,,,,,,,,,,,,,,,,,,,,,,,,,,,,,,,,,,,,,,,,,,,,,,,,,,,,,,,,
,,?,0.00127,0,,,,,,stimuli/images/PICTURE_203.png,ARTIST,5b233660648d5b0001b7de87,03/07/1953,2020-07-09_16h06.48.582,proactive,2020.1.2,Win32,60,5f073de81c76c3308c0e4fb3,5f07778980f69a184b0faeeb,5,,,,,,cap,,,,,,,,,,,3,0,0,34,34,26,1,,,,,,,,,,,,,,,,,,,,,,,,,,,,,,,,,,,,,,,,,,,,,,,,,,,,,,,,,,,,,,,,,,,,,,
,,?,0.00106,0,,,,,,stimuli/images/PICTURE_95.png,STYLE,5b233660648d5b0001b7de87,03/07/1953,2020-07-09_16h06.48.582,proactive,2020.1.2,Win32,60,5f073de81c76c3308c0e4fb3,5f07778980f69a184b0faeeb,5,,,,,,suitcase,,,,,,,,,,,3,0,0,35,35,25,1,,,,,,,,,,,,,,,,,,,,,,,,,,,,,,,,,,,,,,,,,,,,,,,,,,,,,,,,,,,,,,,,,,,,,,
,,?,0.001105,0,,,,,,stimuli/images/PICTURE_302.png,FAMILY,5b233660648d5b0001b7de87,03/07/1953,2020-07-09_16h06.48.582,proactive,2020.1.2,Win32,60,5f073de81c76c3308c0e4fb3,5f07778980f69a184b0faeeb,5,,,,,,taxi,,,,,,,,,,,2,0,0,36,36,18,1,,,,,,,,,,,,,,,,,,,,,,,,,,,,,,,,,,,,,,,,,,,,,,,,,,,,,,,,,,,,,,,,,,,,,,
,,?,0.002505,0,,,,,,stimuli/images/PICTURE_314.png,GODS,5b233660648d5b0001b7de87,03/07/1953,2020-07-09_16h06.48.582,proactive,2020.1.2,Win32,60,5f073de81c76c3308c0e4fb3,5f07778980f69a184b0faeeb,5,,,,,,perfume,,,,,,,,,,,2,0,0,37,37,11,1,,,,,,,,,,,,,,,,,,,,,,,,,,,,,,,,,,,,,,,,,,,,,,,,,,,,,,,,,,,,,,,,,,,,,,
,,?,0.002325,0,,,,,,stimuli/images/PICTURE_208.png,MONTH,5b233660648d5b0001b7de87,03/07/1953,2020-07-09_16h06.48.582,proactive,2020.1.2,Win32,60,5f073de81c76c3308c0e4fb3,5f07778980f69a184b0faeeb,5,,,,,,microphone,,,,,,,,,,,6,0,0,38,38,53,1,,,,,,,,,,,,,,,,,,,,,,,,,,,,,,,,,,,,,,,,,,,,,,,,,,,,,,,,,,,,,,,,,,,,,,
,,?,0.00116,0,,,,,,stimuli/images/PICTURE_314.png,SAKE,5b233660648d5b0001b7de87,03/07/1953,2020-07-09_16h06.48.582,proactive,2020.1.2,Win32,60,5f073de81c76c3308c0e4fb3,5f07778980f69a184b0faeeb,5,,,,,,perfume,,,,,,,,,,,1,0,0,39,39,7,1,,,,,,,,,,,,,,,,,,,,,,,,,,,,,,,,,,,,,,,,,,,,,,,,,,,,,,,,,,,,,,,,,,,,,,
,,BEAUTY,15.00915,1,,,,,,stimuli/images/PICTURE_327.png,BEAUTY,5b233660648d5b0001b7de87,03/07/1953,2020-07-09_16h06.48.582,proactive,2020.1.2,Win32,60,5f073de81c76c3308c0e4fb3,5f07778980f69a184b0faeeb,5,,,,,,helmet,,,,,,,,,,,5,0,0,40,40,48,1,,,,,,,,,,,,,,,,,,,,,,,,,,,,,,,,,,,,,,,,,,,,,,,,,,,,,,,,,,,,,,,,,,,,,,
,,?,0.00133,0,,,,,,stimuli/images/PICTURE_308.png,KIND,5b233660648d5b0001b7de87,03/07/1953,2020-07-09_16h06.48.582,proactive,2020.1.2,Win32,60,5f073de81c76c3308c0e4fb3,5f07778980f69a184b0faeeb,5,,,,,,dice,,,,,,,,,,,6,0,0,41,41,54,1,,,,,,,,,,,,,,,,,,,,,,,,,,,,,,,,,,,,,,,,,,,,,,,,,,,,,,,,,,,,,,,,,,,,,,
,,ADVICE,15.01599,1,,,,,,stimuli/images/PICTURE_123.png,ADVICE,5b233660648d5b0001b7de87,03/07/1953,2020-07-09_16h06.48.582,proactive,2020.1.2,Win32,60,5f073de81c76c3308c0e4fb3,5f07778980f69a184b0faeeb,5,,,,,,dart,,,,,,,,,,,5,0,0,42,42,40,1,,,,,,,,,,,,,,,,,,,,,,,,,,,,,,,,,,,,,,,,,,,,,,,,,,,,,,,,,,,,,,,,,,,,,,
,,?,0.00135,0,,,,,,stimuli/images/PICTURE_339.png,PLENTY,5b233660648d5b0001b7de87,03/07/1953,2020-07-09_16h06.48.582,proactive,2020.1.2,Win32,60,5f073de81c76c3308c0e4fb3,5f07778980f69a184b0faeeb,5,,,,,,backpack,,,,,,,,,,,1,0,0,43,43,0,1,,,,,,,,,,,,,,,,,,,,,,,,,,,,,,,,,,,,,,,,,,,,,,,,,,,,,,,,,,,,,,,,,,,,,,
,,?,0.00138,0,,,,,,stimuli/images/PICTURE_147.png,MOMENT,5b233660648d5b0001b7de87,03/07/1953,2020-07-09_16h06.48.582,proactive,2020.1.2,Win32,60,5f073de81c76c3308c0e4fb3,5f07778980f69a184b0faeeb,5,,,,,,hanger,,,,,,,,,,,6,0,0,44,44,51,1,,,,,,,,,,,,,,,,,,,,,,,,,,,,,,,,,,,,,,,,,,,,,,,,,,,,,,,,,,,,,,,,,,,,,,
,,?,0.00117,0,,,,,,stimuli/images/PICTURE_453.png,PLENTY,5b233660648d5b0001b7de87,03/07/1953,2020-07-09_16h06.48.582,proactive,2020.1.2,Win32,60,5f073de81c76c3308c0e4fb3,5f07778980f69a184b0faeeb,5,,,,,,scissors,,,,,,,,,,,6,0,0,45,45,56,1,,,,,,,,,,,,,,,,,,,,,,,,,,,,,,,,,,,,,,,,,,,,,,,,,,,,,,,,,,,,,,,,,,,,,,
,,?,0.00109,0,,,,,,stimuli/images/PICTURE_470.png,CASINO,5b233660648d5b0001b7de87,03/07/1953,2020-07-09_16h06.48.582,proactive,2020.1.2,Win32,60,5f073de81c76c3308c0e4fb3,5f07778980f69a184b0faeeb,5,,,,,,motorbike,,,,,,,,,,,4,0,0,46,46,36,1,,,,,,,,,,,,,,,,,,,,,,,,,,,,,,,,,,,,,,,,,,,,,,,,,,,,,,,,,,,,,,,,,,,,,,
,,?,0.00115,0,,,,,,stimuli/images/PICTURE_248.png,DOZEN,5b233660648d5b0001b7de87,03/07/1953,2020-07-09_16h06.48.582,proactive,2020.1.2,Win32,60,5f073de81c76c3308c0e4fb3,5f07778980f69a184b0faeeb,5,,,,,,cart,,,,,,,,,,,4,0,0,47,47,39,1,,,,,,,,,,,,,,,,,,,,,,,,,,,,,,,,,,,,,,,,,,,,,,,,,,,,,,,,,,,,,,,,,,,,,,
,,?,0.00223,0,,,,,,stimuli/images/PICTURE_467.png,DEMON,5b233660648d5b0001b7de87,03/07/1953,2020-07-09_16h06.48.582,proactive,2020.1.2,Win32,60,5f073de81c76c3308c0e4fb3,5f07778980f69a184b0faeeb,5,,,,,,peg,,,,,,,,,,,3,0,0,48,48,23,1,,,,,,,,,,,,,,,,,,,,,,,,,,,,,,,,,,,,,,,,,,,,,,,,,,,,,,,,,,,,,,,,,,,,,,
,,DEATH,15.00066,1,,,,,,stimuli/images/PICTURE_380.png,DEATH,5b233660648d5b0001b7de87,03/07/1953,2020-07-09_16h06.48.582,proactive,2020.1.2,Win32,60,5f073de81c76c3308c0e4fb3,5f07778980f69a184b0faeeb,5,,,,,,gorilla,,,,,,,,,,,5,0,0,49,49,49,1,,,,,,,,,,,,,,,,,,,,,,,,,,,,,,,,,,,,,,,,,,,,,,,,,,,,,,,,,,,,,,,,,,,,,,
,,?,0.001615,0,,,,,,stimuli/images/PICTURE_509.png,PHOTO,5b233660648d5b0001b7de87,03/07/1953,2020-07-09_16h06.48.582,proactive,2020.1.2,Win32,60,5f073de81c76c3308c0e4fb3,5f07778980f69a184b0faeeb,5,,,,,,telephone,,,,,,,,,,,3,0,0,50,50,21,1,,,,,,,,,,,,,,,,,,,,,,,,,,,,,,,,,,,,,,,,,,,,,,,,,,,,,,,,,,,,,,,,,,,,,,
,,?,0.00145,0,,,,,,stimuli/images/PICTURE_487.png,FLIGHT,5b233660648d5b0001b7de87,03/07/1953,2020-07-09_16h06.48.582,proactive,2020.1.2,Win32,60,5f073de81c76c3308c0e4fb3,5f07778980f69a184b0faeeb,5,,,,,,basket,,,,,,,,,,,1,0,0,51,51,9,1,,,,,,,,,,,,,,,,,,,,,,,,,,,,,,,,,,,,,,,,,,,,,,,,,,,,,,,,,,,,,,,,,,,,,,
,,?,0.001075,0,,,,,,stimuli/images/PICTURE_488.png,STYLE,5b233660648d5b0001b7de87,03/07/1953,2020-07-09_16h06.48.582,proactive,2020.1.2,Win32,60,5f073de81c76c3308c0e4fb3,5f07778980f69a184b0faeeb,5,,,,,,sun,,,,,,,,,,,4,0,0,52,52,33,1,,,,,,,,,,,,,,,,,,,,,,,,,,,,,,,,,,,,,,,,,,,,,,,,,,,,,,,,,,,,,,,,,,,,,,
,,?,0.001025,0,,,,,,stimuli/images/PICTURE_469.png,ARTIST,5b233660648d5b0001b7de87,03/07/1953,2020-07-09_16h06.48.582,proactive,2020.1.2,Win32,60,5f073de81c76c3308c0e4fb3,5f07778980f69a184b0faeeb,5,,,,,,stool,,,,,,,,,,,1,0,0,53,53,6,1,,,,,,,,,,,,,,,,,,,,,,,,,,,,,,,,,,,,,,,,,,,,,,,,,,,,,,,,,,,,,,,,,,,,,,
,,?,0.001095,0,,,,,,stimuli/images/PICTURE_311.png,BEAUTY,5b233660648d5b0001b7de87,03/07/1953,2020-07-09_16h06.48.582,proactive,2020.1.2,Win32,60,5f073de81c76c3308c0e4fb3,5f07778980f69a184b0faeeb,5,,,,,,razor,,,,,,,,,,,2,0,0,54,54,13,1,,,,,,,,,,,,,,,,,,,,,,,,,,,,,,,,,,,,,,,,,,,,,,,,,,,,,,,,,,,,,,,,,,,,,,
,,JUNGLE,15.00336,1,,,,,,stimuli/images/PICTURE_32.png,JUNGLE,5b233660648d5b0001b7de87,03/07/1953,2020-07-09_16h06.48.582,proactive,2020.1.2,Win32,60,5f073de81c76c3308c0e4fb3,5f07778980f69a184b0faeeb,5,,,,,,crown,,,,,,,,,,,5,0,0,55,55,45,1,,,,,,,,,,,,,,,,,,,,,,,,,,,,,,,,,,,,,,,,,,,,,,,,,,,,,,,,,,,,,,,,,,,,,,
,,?,0.00137,0,,,,,,stimuli/images/PICTURE_160.png,LEADER,5b233660648d5b0001b7de87,03/07/1953,2020-07-09_16h06.48.582,proactive,2020.1.2,Win32,60,5f073de81c76c3308c0e4fb3,5f07778980f69a184b0faeeb,5,,,,,,wheelbarrow,,,,,,,,,,,1,0,0,56,56,3,1,,,,,,,,,,,,,,,,,,,,,,,,,,,,,,,,,,,,,,,,,,,,,,,,,,,,,,,,,,,,,,,,,,,,,,
,,?,0.00138,0,,,,,,stimuli/images/PICTURE_177.png,CARS,5b233660648d5b0001b7de87,03/07/1953,2020-07-09_16h06.48.582,proactive,2020.1.2,Win32,60,5f073de81c76c3308c0e4fb3,5f07778980f69a184b0faeeb,5,,,,,,mushroom,,,,,,,,,,,4,0,0,57,57,35,1,,,,,,,,,,,,,,,,,,,,,,,,,,,,,,,,,,,,,,,,,,,,,,,,,,,,,,,,,,,,,,,,,,,,,,
,,?,0.00114,0,,,,,,stimuli/images/PICTURE_285.png,ADVICE,5b233660648d5b0001b7de87,03/07/1953,2020-07-09_16h06.48.582,proactive,2020.1.2,Win32,60,5f073de81c76c3308c0e4fb3,5f07778980f69a184b0faeeb,5,,,,,,carrot,,,,,,,,,,,2,0,0,58,58,12,1,,,,,,,,,,,,,,,,,,,,,,,,,,,,,,,,,,,,,,,,,,,,,,,,,,,,,,,,,,,,,,,,,,,,,,
,,MICE,15.00935,0,,,,,,stimuli/images/PICTURE_68.png,MILE,5b233660648d5b0001b7de87,03/07/1953,2020-07-09_16h06.48.582,proactive,2020.1.2,Win32,60,5f073de81c76c3308c0e4fb3,5f07778980f69a184b0faeeb,5,,,,,,candle,,,,,,,,,,,5,0,0,59,59,44,1,,,,,,,,,,,,,,,,,,,,,,,,,,,,,,,,,,,,,,,,,,,,,,,,,,,,,,,,,,,,,,,,,,,,,,
,,,,,,,,,,,,5b233660648d5b0001b7de87,03/07/1953,2020-07-09_16h06.48.582,proactive,2020.1.2,Win32,60,5f073de81c76c3308c0e4fb3,5f07778980f69a184b0faeeb,5,,,,,,,,,,,,,,,,,,,,,,,,0,0,0,0,1,stimuli/learn-block1.csv,,,,,,,,,,,,,,,,,,,,,,,,,,,,,,,,,,,,,,,,,,,,,,,,,,,,,,,,,,,,,,,,
,,,,,,,,,,stimuli/images/PICTURE_491.png,RIVER,5b233660648d5b0001b7de87,03/07/1953,2020-07-09_16h06.48.582,proactive,2020.1.2,Win32,60,5f073de81c76c3308c0e4fb3,5f07778980f69a184b0faeeb,5,,,,,,rug,,,,,,0,0,0,6,1,1,1,,,,,,,,,,,,,,,,,,,,,,,,,,,,,,,,,,,,,,,,,,,,,,,,,,,,,,,,,,,,,,,,,,,,,,,,,,,
,,,,,,,,,,stimuli/images/PICTURE_297.png,RIVER,5b233660648d5b0001b7de87,03/07/1953,2020-07-09_16h06.48.582,proactive,2020.1.2,Win32,60,5f073de81c76c3308c0e4fb3,5f07778980f69a184b0faeeb,5,,,,,,aeroplane,,,,,,0,1,1,39,1,4,1,,,,,,,,,,,,,,,,,,,,,,,,,,,,,,,,,,,,,,,,,,,,,,,,,,,,,,,,,,,,,,,,,,,,,,,,,,,
,,,,,,,,,,stimuli/images/PICTURE_32.png,PILLS,5b233660648d5b0001b7de87,03/07/1953,2020-07-09_16h06.48.582,proactive,2020.1.2,Win32,60,5f073de81c76c3308c0e4fb3,5f07778980f69a184b0faeeb,5,,,,,,crown,,,,,,0,2,2,18,1,2,1,,,,,,,,,,,,,,,,,,,,,,,,,,,,,,,,,,,,,,,,,,,,,,,,,,,,,,,,,,,,,,,,,,,,,,,,,,,
,,,,,,,,,,stimuli/images/PICTURE_339.png,CLIENT,5b233660648d5b0001b7de87,03/07/1953,2020-07-09_16h06.48.582,proactive,2020.1.2,Win32,60,5f073de81c76c3308c0e4fb3,5f07778980f69a184b0faeeb,5,,,,,,backpack,,,,,,0,3,3,11,1,2,1,,,,,,,,,,,,,,,,,,,,,,,,,,,,,,,,,,,,,,,,,,,,,,,,,,,,,,,,,,,,,,,,,,,,,,,,,,,
,,,,,,,,,,stimuli/images/PICTURE_340.png,LETTER,5b233660648d5b0001b7de87,03/07/1953,2020-07-09_16h06.48.582,proactive,2020.1.2,Win32,60,5f073de81c76c3308c0e4fb3,5f07778980f69a184b0faeeb,5,,,,,,mirror,,,,,,0,4,4,24,1,3,1,,,,,,,,,,,,,,,,,,,,,,,,,,,,,,,,,,,,,,,,,,,,,,,,,,,,,,,,,,,,,,,,,,,,,,,,,,,
,,,,,,,,,,stimuli/images/PICTURE_654.png,MONTH,5b233660648d5b0001b7de87,03/07/1953,2020-07-09_16h06.48.582,proactive,2020.1.2,Win32,60,5f073de81c76c3308c0e4fb3,5f07778980f69a184b0faeeb,5,,,,,,pencil,,,,,,0,5,5,29,1,3,1,,,,,,,,,,,,,,,,,,,,,,,,,,,,,,,,,,,,,,,,,,,,,,,,,,,,,,,,,,,,,,,,,,,,,,,,,,,
,,,,,,,,,,stimuli/images/PICTURE_203.png,GODS,5b233660648d5b0001b7de87,03/07/1953,2020-07-09_16h06.48.582,proactive,2020.1.2,Win32,60,5f073de81c76c3308c0e4fb3,5f07778980f69a184b0faeeb,5,,,,,,cap,,,,,,0,6,6,30,1,4,1,,,,,,,,,,,,,,,,,,,,,,,,,,,,,,,,,,,,,,,,,,,,,,,,,,,,,,,,,,,,,,,,,,,,,,,,,,,
,,,,,,,,,,stimuli/images/PICTURE_296.png,LOTS,5b233660648d5b0001b7de87,03/07/1953,2020-07-09_16h06.48.582,proactive,2020.1.2,Win32,60,5f073de81c76c3308c0e4fb3,5f07778980f69a184b0faeeb,5,,,,,,bolt,,,,,,0,7,7,9,1,1,1,,,,,,,,,,,,,,,,,,,,,,,,,,,,,,,,,,,,,,,,,,,,,,,,,,,,,,,,,,,,,,,,,,,,,,,,,,,
,,,,,,,,,,stimuli/images/PICTURE_675.png,SALE,5b233660648d5b0001b7de87,03/07/1953,2020-07-09_16h06.48.582,proactive,2020.1.2,Win32,60,5f073de81c76c3308c0e4fb3,5f07778980f69a184b0faeeb,5,,,,,,windmill,,,,,,0,8,8,47,1,5,1,,,,,,,,,,,,,,,,,,,,,,,,,,,,,,,,,,,,,,,,,,,,,,,,,,,,,,,,,,,,,,,,,,,,,,,,,,,
,,,,,,,,,,stimuli/images/PICTURE_677.png,APPLE,5b233660648d5b0001b7de87,03/07/1953,2020-07-09_16h06.48.582,proactive,2020.1.2,Win32,60,5f073de81c76c3308c0e4fb3,5f07778980f69a184b0faeeb,5,,,,,,map,,,,,,0,9,9,43,1,5,1,,,,,,,,,,,,,,,,,,,,,,,,,,,,,,,,,,,,,,,,,,,,,,,,,,,,,,,,,,,,,,,,,,,,,,,,,,,
,,,,,,,,,,stimuli/images/PICTURE_467.png,POLICY,5b233660648d5b0001b7de87,03/07/1953,2020-07-09_16h06.48.582,proactive,2020.1.2,Win32,60,5f073de81c76c3308c0e4fb3,5f07778980f69a184b0faeeb,5,,,,,,peg,,,,,,0,10,10,53,1,6,1,,,,,,,,,,,,,,,,,,,,,,,,,,,,,,,,,,,,,,,,,,,,,,,,,,,,,,,,,,,,,,,,,,,,,,,,,,,
,,,,,,,,,,stimuli/images/PICTURE_147.png,WOMEN,5b233660648d5b0001b7de87,03/07/1953,2020-07-09_16h06.48.582,proactive,2020.1.2,Win32,60,5f073de81c76c3308c0e4fb3,5f07778980f69a184b0faeeb,5,,,,,,hanger,,,,,,0,11,11,7,1,1,1,,,,,,,,,,,,,,,,,,,,,,,,,,,,,,,,,,,,,,,,,,,,,,,,,,,,,,,,,,,,,,,,,,,,,,,,,,,
,,,,,,,,,,stimuli/images/PICTURE_340.png,VALLEY,5b233660648d5b0001b7de87,03/07/1953,2020-07-09_16h06.48.582,proactive,2020.1.2,Win32,60,5f073de81c76c3308c0e4fb3,5f07778980f69a184b0faeeb,5,,,,,,mirror,,,,,,0,12,12,54,1,6,1,,,,,,,,,,,,,,,,,,,,,,,,,,,,,,,,,,,,,,,,,,,,,,,,,,,,,,,,,,,,,,,,,,,,,,,,,,,
,,,,,,,,,,stimuli/images/PICTURE_95.png,HONEY,5b233660648d5b0001b7de87,03/07/1953,2020-07-09_16h06.48.582,proactive,2020.1.2,Win32,60,5f073de81c76c3308c0e4fb3,5f07778980f69a184b0faeeb,5,,,,,,suitcase,,,,,,0,13,13,44,1,5,1,,,,,,,,,,,,,,,,,,,,,,,,,,,,,,,,,,,,,,,,,,,,,,,,,,,,,,,,,,,,,,,,,,,,,,,,,,,
,,,,,,,,,,stimuli/images/PICTURE_33.png,FRIEND,5b233660648d5b0001b7de87,03/07/1953,2020-07-09_16h06.48.582,proactive,2020.1.2,Win32,60,5f073de81c76c3308c0e4fb3,5f07778980f69a184b0faeeb,5,,,,,,frame,,,,,,0,14,14,8,1,1,1,,,,,,,,,,,,,,,,,,,,,,,,,,,,,,,,,,,,,,,,,,,,,,,,,,,,,,,,,,,,,,,,,,,,,,,,,,,
,,,,,,,,,,stimuli/images/PICTURE_285.png,LIFE,5b233660648d5b0001b7de87,03/07/1953,2020-07-09_16h06.48.582,proactive,2020.1.2,Win32,60,5f073de81c76c3308c0e4fb3,5f07778980f69a184b0faeeb,5,,,,,,carrot,,,,,,0,15,15,33,1,4,1,,,,,,,,,,,,,,,,,,,,,,,,,,,,,,,,,,,,,,,,,,,,,,,,,,,,,,,,,,,,,,,,,,,,,,,,,,,
,,,,,,,,,,stimuli/images/PICTURE_327.png,SERIES,5b233660648d5b0001b7de87,03/07/1953,2020-07-09_16h06.48.582,proactive,2020.1.2,Win32,60,5f073de81c76c3308c0e4fb3,5f07778980f69a184b0faeeb,5,,,,,,helmet,,,,,,0,16,16,3,1,1,1,,,,,,,,,,,,,,,,,,,,,,,,,,,,,,,,,,,,,,,,,,,,,,,,,,,,,,,,,,,,,,,,,,,,,,,,,,,
,,,,,,,,,,stimuli/images/PICTURE_233.png,LOTS,5b233660648d5b0001b7de87,03/07/1953,2020-07-09_16h06.48.582,proactive,2020.1.2,Win32,60,5f073de81c76c3308c0e4fb3,5f07778980f69a184b0faeeb,5,,,,,,salt,,,,,,0,17,17,42,1,5,1,,,,,,,,,,,,,,,,,,,,,,,,,,,,,,,,,,,,,,,,,,,,,,,,,,,,,,,,,,,,,,,,,,,,,,,,,,,
,,,,,,,,,,stimuli/images/PICTURE_42.png,BOYS,5b233660648d5b0001b7de87,03/07/1953,2020-07-09_16h06.48.582,proactive,2020.1.2,Win32,60,5f073de81c76c3308c0e4fb3,5f07778980f69a184b0faeeb,5,,,,,,pear,,,,,,0,18,18,55,1,6,1,,,,,,,,,,,,,,,,,,,,,,,,,,,,,,,,,,,,,,,,,,,,,,,,,,,,,,,,,,,,,,,,,,,,,,,,,,,
,,,,,,,,,,stimuli/images/PICTURE_469.png,AGENT,5b233660648d5b0001b7de87,03/07/1953,2020-07-09_16h06.48.582,proactive,2020.1.2,Win32,60,5f073de81c76c3308c0e4fb3,5f07778980f69a184b0faeeb,5,,,,,,stool,,,,,,0,19,19,16,1,2,1,,,,,,,,,,,,,,,,,,,,,,,,,,,,,,,,,,,,,,,,,,,,,,,,,,,,,,,,,,,,,,,,,,,,,,,,,,,
,,,,,,,,,,stimuli/images/PICTURE_327.png,CASINO,5b233660648d5b0001b7de87,03/07/1953,2020-07-09_16h06.48.582,proactive,2020.1.2,Win32,60,5f073de81c76c3308c0e4fb3,5f07778980f69a184b0faeeb,5,,,,,,helmet,,,,,,0,20,20,20,1,3,1,,,,,,,,,,,,,,,,,,,,,,,,,,,,,,,,,,,,,,,,,,,,,,,,,,,,,,,,,,,,,,,,,,,,,,,,,,,
,,,,,,,,,,stimuli/images/PICTURE_85.png,NATION,5b233660648d5b0001b7de87,03/07/1953,2020-07-09_16h06.48.582,proactive,2020.1.2,Win32,60,5f073de81c76c3308c0e4fb3,5f07778980f69a184b0faeeb,5,,,,,,diamond,,,,,,0,21,21,5,1,1,1,,,,,,,,,,,,,,,,,,,,,,,,,,,,,,,,,,,,,,,,,,,,,,,,,,,,,,,,,,,,,,,,,,,,,,,,,,,
,,,,,,,,,,stimuli/images/PICTURE_208.png,SYSTEM,5b233660648d5b0001b7de87,03/07/1953,2020-07-09_16h06.48.582,proactive,2020.1.2,Win32,60,5f073de81c76c3308c0e4fb3,5f07778980f69a184b0faeeb,5,,,,,,microphone,,,,,,0,22,22,32,1,4,1,,,,,,,,,,,,,,,,,,,,,,,,,,,,,,,,,,,,,,,,,,,,,,,,,,,,,,,,,,,,,,,,,,,,,,,,,,,
,,,,,,,,,,stimuli/images/PICTURE_491.png,GLASS,5b233660648d5b0001b7de87,03/07/1953,2020-07-09_16h06.48.582,proactive,2020.1.2,Win32,60,5f073de81c76c3308c0e4fb3,5f07778980f69a184b0faeeb,5,,,,,,rug,,,,,,0,23,23,14,1,2,1,,,,,,,,,,,,,,,,,,,,,,,,,,,,,,,,,,,,,,,,,,,,,,,,,,,,,,,,,,,,,,,,,,,,,,,,,,,
,,,,,,,,,,stimuli/images/PICTURE_95.png,BOYS,5b233660648d5b0001b7de87,03/07/1953,2020-07-09_16h06.48.582,proactive,2020.1.2,Win32,60,5f073de81c76c3308c0e4fb3,5f07778980f69a184b0faeeb,5,,,,,,suitcase,,,,,,0,24,24,1,1,1,1,,,,,,,,,,,,,,,,,,,,,,,,,,,,,,,,,,,,,,,,,,,,,,,,,,,,,,,,,,,,,,,,,,,,,,,,,,,
,,,,,,,,,,stimuli/images/PICTURE_2.png,FLIGHT,5b233660648d5b0001b7de87,03/07/1953,2020-07-09_16h06.48.582,proactive,2020.1.2,Win32,60,5f073de81c76c3308c0e4fb3,5f07778980f69a184b0faeeb,5,,,,,,tyre,,,,,,0,25,25,15,1,2,1,,,,,,,,,,,,,,,,,,,,,,,,,,,,,,,,,,,,,,,,,,,,,,,,,,,,,,,,,,,,,,,,,,,,,,,,,,,
,,,,,,,,,,stimuli/images/PICTURE_403.png,TOILET,5b233660648d5b0001b7de87,03/07/1953,2020-07-09_16h06.48.582,proactive,2020.1.2,Win32,60,5f073de81c76c3308c0e4fb3,5f07778980f69a184b0faeeb,5,,,,,,cathedral,,,,,,0,26,26,25,1,3,1,,,,,,,,,,,,,,,,,,,,,,,,,,,,,,,,,,,,,,,,,,,,,,,,,,,,,,,,,,,,,,,,,,,,,,,,,,,
,,,,,,,,,,stimuli/images/PICTURE_147.png,YEAR,5b233660648d5b0001b7de87,03/07/1953,2020-07-09_16h06.48.582,proactive,2020.1.2,Win32,60,5f073de81c76c3308c0e4fb3,5f07778980f69a184b0faeeb,5,,,,,,hanger,,,,,,0,27,27,21,1,3,1,,,,,,,,,,,,,,,,,,,,,,,,,,,,,,,,,,,,,,,,,,,,,,,,,,,,,,,,,,,,,,,,,,,,,,,,,,,
,,,,,,,,,,stimuli/images/PICTURE_564.png,BATH,5b233660648d5b0001b7de87,03/07/1953,2020-07-09_16h06.48.582,proactive,2020.1.2,Win32,60,5f073de81c76c3308c0e4fb3,5f07778980f69a184b0faeeb,5,,,,,,spoon,,,,,,0,28,28,26,1,3,1,,,,,,,,,,,,,,,,,,,,,,,,,,,,,,,,,,,,,,,,,,,,,,,,,,,,,,,,,,,,,,,,,,,,,,,,,,,
,,,,,,,,,,stimuli/images/PICTURE_380.png,HONEY,5b233660648d5b0001b7de87,03/07/1953,2020-07-09_16h06.48.582,proactive,2020.1.2,Win32,60,5f073de81c76c3308c0e4fb3,5f07778980f69a184b0faeeb,5,,,,,,gorilla,,,,,,0,29,29,19,1,2,1,,,,,,,,,,,,,,,,,,,,,,,,,,,,,,,,,,,,,,,,,,,,,,,,,,,,,,,,,,,,,,,,,,,,,,,,,,,
,,,,,,,,,,stimuli/images/PICTURE_68.png,ROOF,5b233660648d5b0001b7de87,03/07/1953,2020-07-09_16h06.48.582,proactive,2020.1.2,Win32,60,5f073de81c76c3308c0e4fb3,5f07778980f69a184b0faeeb,5,,,,,,candle,,,,,,0,30,30,38,1,4,1,,,,,,,,,,,,,,,,,,,,,,,,,,,,,,,,,,,,,,,,,,,,,,,,,,,,,,,,,,,,,,,,,,,,,,,,,,,
,,,,,,,,,,stimuli/images/PICTURE_744.png,WEAPON,5b233660648d5b0001b7de87,03/07/1953,2020-07-09_16h06.48.582,proactive,2020.1.2,Win32,60,5f073de81c76c3308c0e4fb3,5f07778980f69a184b0faeeb,5,,,,,,ring,,,,,,0,31,31,50,1,6,1,,,,,,,,,,,,,,,,,,,,,,,,,,,,,,,,,,,,,,,,,,,,,,,,,,,,,,,,,,,,,,,,,,,,,,,,,,,
,,,,,,,,,,stimuli/images/PICTURE_685.png,PENNY,5b233660648d5b0001b7de87,03/07/1953,2020-07-09_16h06.48.582,proactive,2020.1.2,Win32,60,5f073de81c76c3308c0e4fb3,5f07778980f69a184b0faeeb,5,,,,,,goose,,,,,,0,32,32,4,1,1,1,,,,,,,,,,,,,,,,,,,,,,,,,,,,,,,,,,,,,,,,,,,,,,,,,,,,,,,,,,,,,,,,,,,,,,,,,,,
,,,,,,,,,,stimuli/images/PICTURE_403.png,RIVER,5b233660648d5b0001b7de87,03/07/1953,2020-07-09_16h06.48.582,proactive,2020.1.2,Win32,60,5f073de81c76c3308c0e4fb3,5f07778980f69a184b0faeeb,5,,,,,,cathedral,,,,,,0,33,33,40,1,5,1,,,,,,,,,,,,,,,,,,,,,,,,,,,,,,,,,,,,,,,,,,,,,,,,,,,,,,,,,,,,,,,,,,,,,,,,,,,
,,,,,,,,,,stimuli/images/PICTURE_708.png,RECORD,5b233660648d5b0001b7de87,03/07/1953,2020-07-09_16h06.48.582,proactive,2020.1.2,Win32,60,5f073de81c76c3308c0e4fb3,5f07778980f69a184b0faeeb,5,,,,,,monkey,,,,,,0,34,34,58,1,6,1,,,,,,,,,,,,,,,,,,,,,,,,,,,,,,,,,,,,,,,,,,,,,,,,,,,,,,,,,,,,,,,,,,,,,,,,,,,
,,,,,,,,,,stimuli/images/PICTURE_655.png,TOILET,5b233660648d5b0001b7de87,03/07/1953,2020-07-09_16h06.48.582,proactive,2020.1.2,Win32,60,5f073de81c76c3308c0e4fb3,5f07778980f69a184b0faeeb,5,,,,,,megaphone,,,,,,0,35,35,12,1,2,1,,,,,,,,,,,,,,,,,,,,,,,,,,,,,,,,,,,,,,,,,,,,,,,,,,,,,,,,,,,,,,,,,,,,,,,,,,,
,,,,,,,,,,stimuli/images/PICTURE_750.png,HOTEL,5b233660648d5b0001b7de87,03/07/1953,2020-07-09_16h06.48.582,proactive,2020.1.2,Win32,60,5f073de81c76c3308c0e4fb3,5f07778980f69a184b0faeeb,5,,,,,,kettle,,,,,,0,36,36,27,1,3,1,,,,,,,,,,,,,,,,,,,,,,,,,,,,,,,,,,,,,,,,,,,,,,,,,,,,,,,,,,,,,,,,,,,,,,,,,,,
,,,,,,,,,,stimuli/images/PICTURE_504.png,YEAR,5b233660648d5b0001b7de87,03/07/1953,2020-07-09_16h06.48.582,proactive,2020.1.2,Win32,60,5f073de81c76c3308c0e4fb3,5f07778980f69a184b0faeeb,5,,,,,,wheel,,,,,,0,37,37,13,1,2,1,,,,,,,,,,,,,,,,,,,,,,,,,,,,,,,,,,,,,,,,,,,,,,,,,,,,,,,,,,,,,,,,,,,,,,,,,,,
,,,,,,,,,,stimuli/images/PICTURE_296.png,LIFE,5b233660648d5b0001b7de87,03/07/1953,2020-07-09_16h06.48.582,proactive,2020.1.2,Win32,60,5f073de81c76c3308c0e4fb3,5f07778980f69a184b0faeeb,5,,,,,,bolt,,,,,,0,38,38,57,1,6,1,,,,,,,,,,,,,,,,,,,,,,,,,,,,,,,,,,,,,,,,,,,,,,,,,,,,,,,,,,,,,,,,,,,,,,,,,,,
,,,,,,,,,,stimuli/images/PICTURE_449.png,DUDE,5b233660648d5b0001b7de87,03/07/1953,2020-07-09_16h06.48.582,proactive,2020.1.2,Win32,60,5f073de81c76c3308c0e4fb3,5f07778980f69a184b0faeeb,5,,,,,,bench,,,,,,0,39,39,17,1,2,1,,,,,,,,,,,,,,,,,,,,,,,,,,,,,,,,,,,,,,,,,,,,,,,,,,,,,,,,,,,,,,,,,,,,,,,,,,,
,,,,,,,,,,stimuli/images/PICTURE_405.png,PLENTY,5b233660648d5b0001b7de87,03/07/1953,2020-07-09_16h06.48.582,proactive,2020.1.2,Win32,60,5f073de81c76c3308c0e4fb3,5f07778980f69a184b0faeeb,5,,,,,,anchor,,,,,,0,40,40,23,1,3,1,,,,,,,,,,,,,,,,,,,,,,,,,,,,,,,,,,,,,,,,,,,,,,,,,,,,,,,,,,,,,,,,,,,,,,,,,,,
,,,,,,,,,,stimuli/images/PICTURE_68.png,MILE,5b233660648d5b0001b7de87,03/07/1953,2020-07-09_16h06.48.582,proactive,2020.1.2,Win32,60,5f073de81c76c3308c0e4fb3,5f07778980f69a184b0faeeb,5,,,,,,candle,,,,,,0,41,41,51,1,6,1,,,,,,,,,,,,,,,,,,,,,,,,,,,,,,,,,,,,,,,,,,,,,,,,,,,,,,,,,,,,,,,,,,,,,,,,,,,
,,,,,,,,,,stimuli/images/PICTURE_383.png,WRITER,5b233660648d5b0001b7de87,03/07/1953,2020-07-09_16h06.48.582,proactive,2020.1.2,Win32,60,5f073de81c76c3308c0e4fb3,5f07778980f69a184b0faeeb,5,,,,,,coin,,,,,,0,42,42,28,1,3,1,,,,,,,,,,,,,,,,,,,,,,,,,,,,,,,,,,,,,,,,,,,,,,,,,,,,,,,,,,,,,,,,,,,,,,,,,,,
,,,,,,,,,,stimuli/images/PICTURE_85.png,TOILET,5b233660648d5b0001b7de87,03/07/1953,2020-07-09_16h06.48.582,proactive,2020.1.2,Win32,60,5f073de81c76c3308c0e4fb3,5f07778980f69a184b0faeeb,5,,,,,,diamond,,,,,,0,43,43,48,1,5,1,,,,,,,,,,,,,,,,,,,,,,,,,,,,,,,,,,,,,,,,,,,,,,,,,,,,,,,,,,,,,,,,,,,,,,,,,,,
,,,,,,,,,,stimuli/images/PICTURE_383.png,SERIES,5b233660648d5b0001b7de87,03/07/1953,2020-07-09_16h06.48.582,proactive,2020.1.2,Win32,60,5f073de81c76c3308c0e4fb3,5f07778980f69a184b0faeeb,5,,,,,,coin,,,,,,0,44,44,46,1,5,1,,,,,,,,,,,,,,,,,,,,,,,,,,,,,,,,,,,,,,,,,,,,,,,,,,,,,,,,,,,,,,,,,,,,,,,,,,,
,,,,,,,,,,stimuli/images/PICTURE_487.png,GIRL,5b233660648d5b0001b7de87,03/07/1953,2020-07-09_16h06.48.582,proactive,2020.1.2,Win32,60,5f073de81c76c3308c0e4fb3,5f07778980f69a184b0faeeb,5,,,,,,basket,,,,,,0,45,45,45,1,5,1,,,,,,,,,,,,,,,,,,,,,,,,,,,,,,,,,,,,,,,,,,,,,,,,,,,,,,,,,,,,,,,,,,,,,,,,,,,
,,,,,,,,,,stimuli/images/PICTURE_403.png,WRITER,5b233660648d5b0001b7de87,03/07/1953,2020-07-09_16h06.48.582,proactive,2020.1.2,Win32,60,5f073de81c76c3308c0e4fb3,5f07778980f69a184b0faeeb,5,,,,,,cathedral,,,,,,0,46,46,31,1,4,1,,,,,,,,,,,,,,,,,,,,,,,,,,,,,,,,,,,,,,,,,,,,,,,,,,,,,,,,,,,,,,,,,,,,,,,,,,,
,,,,,,,,,,stimuli/images/PICTURE_177.png,WRITER,5b233660648d5b0001b7de87,03/07/1953,2020-07-09_16h06.48.582,proactive,2020.1.2,Win32,60,5f073de81c76c3308c0e4fb3,5f07778980f69a184b0faeeb,5,,,,,,mushroom,,,,,,0,47,47,41,1,5,1,,,,,,,,,,,,,,,,,,,,,,,,,,,,,,,,,,,,,,,,,,,,,,,,,,,,,,,,,,,,,,,,,,,,,,,,,,,
,,,,,,,,,,stimuli/images/PICTURE_380.png,CANDY,5b233660648d5b0001b7de87,03/07/1953,2020-07-09_16h06.48.582,proactive,2020.1.2,Win32,60,5f073de81c76c3308c0e4fb3,5f07778980f69a184b0faeeb,5,,,,,,gorilla,,,,,,0,48,48,0,1,1,1,,,,,,,,,,,,,,,,,,,,,,,,,,,,,,,,,,,,,,,,,,,,,,,,,,,,,,,,,,,,,,,,,,,,,,,,,,,
,,,,,,,,,,stimuli/images/PICTURE_57.png,MOMENT,5b233660648d5b0001b7de87,03/07/1953,2020-07-09_16h06.48.582,proactive,2020.1.2,Win32,60,5f073de81c76c3308c0e4fb3,5f07778980f69a184b0faeeb,5,,,,,,stamp,,,,,,0,49,49,37,1,4,1,,,,,,,,,,,,,,,,,,,,,,,,,,,,,,,,,,,,,,,,,,,,,,,,,,,,,,,,,,,,,,,,,,,,,,,,,,,
,,,,,,,,,,stimuli/images/PICTURE_667.png,RIVER,5b233660648d5b0001b7de87,03/07/1953,2020-07-09_16h06.48.582,proactive,2020.1.2,Win32,60,5f073de81c76c3308c0e4fb3,5f07778980f69a184b0faeeb,5,,,,,,daisy,,,,,,0,50,50,10,1,2,1,,,,,,,,,,,,,,,,,,,,,,,,,,,,,,,,,,,,,,,,,,,,,,,,,,,,,,,,,,,,,,,,,,,,,,,,,,,
,,,,,,,,,,stimuli/images/PICTURE_108.png,POLICY,5b233660648d5b0001b7de87,03/07/1953,2020-07-09_16h06.48.582,proactive,2020.1.2,Win32,60,5f073de81c76c3308c0e4fb3,5f07778980f69a184b0faeeb,5,,,,,,calendar,,,,,,0,51,51,22,1,3,1,,,,,,,,,,,,,,,,,,,,,,,,,,,,,,,,,,,,,,,,,,,,,,,,,,,,,,,,,,,,,,,,,,,,,,,,,,,
,,,,,,,,,,stimuli/images/PICTURE_308.png,FAMILY,5b233660648d5b0001b7de87,03/07/1953,2020-07-09_16h06.48.582,proactive,2020.1.2,Win32,60,5f073de81c76c3308c0e4fb3,5f07778980f69a184b0faeeb,5,,,,,,dice,,,,,,0,52,52,36,1,4,1,,,,,,,,,,,,,,,,,,,,,,,,,,,,,,,,,,,,,,,,,,,,,,,,,,,,,,,,,,,,,,,,,,,,,,,,,,,
,,,,,,,,,,stimuli/images/PICTURE_405.png,YEAR,5b233660648d5b0001b7de87,03/07/1953,2020-07-09_16h06.48.582,proactive,2020.1.2,Win32,60,5f073de81c76c3308c0e4fb3,5f07778980f69a184b0faeeb,5,,,,,,anchor,,,,,,0,53,53,34,1,4,1,,,,,,,,,,,,,,,,,,,,,,,,,,,,,,,,,,,,,,,,,,,,,,,,,,,,,,,,,,,,,,,,,,,,,,,,,,,
,,,,,,,,,,stimuli/images/PICTURE_95.png,MILLER,5b233660648d5b0001b7de87,03/07/1953,2020-07-09_16h06.48.582,proactive,2020.1.2,Win32,60,5f073de81c76c3308c0e4fb3,5f07778980f69a184b0faeeb,5,,,,,,suitcase,,,,,,0,54,54,56,1,6,1,,,,,,,,,,,,,,,,,,,,,,,,,,,,,,,,,,,,,,,,,,,,,,,,,,,,,,,,,,,,,,,,,,,,,,,,,,,
,,,,,,,,,,stimuli/images/PICTURE_203.png,NIGHT,5b233660648d5b0001b7de87,03/07/1953,2020-07-09_16h06.48.582,proactive,2020.1.2,Win32,60,5f073de81c76c3308c0e4fb3,5f07778980f69a184b0faeeb,5,,,,,,cap,,,,,,0,55,55,2,1,1,1,,,,,,,,,,,,,,,,,,,,,,,,,,,,,,,,,,,,,,,,,,,,,,,,,,,,,,,,,,,,,,,,,,,,,,,,,,,
,,,,,,,,,,stimuli/images/PICTURE_504.png,ARTIST,5b233660648d5b0001b7de87,03/07/1953,2020-07-09_16h06.48.582,proactive,2020.1.2,Win32,60,5f073de81c76c3308c0e4fb3,5f07778980f69a184b0faeeb,5,,,,,,wheel,,,,,,0,56,56,49,1,5,1,,,,,,,,,,,,,,,,,,,,,,,,,,,,,,,,,,,,,,,,,,,,,,,,,,,,,,,,,,,,,,,,,,,,,,,,,,,
,,,,,,,,,,stimuli/images/PICTURE_504.png,COPS,5b233660648d5b0001b7de87,03/07/1953,2020-07-09_16h06.48.582,proactive,2020.1.2,Win32,60,5f073de81c76c3308c0e4fb3,5f07778980f69a184b0faeeb,5,,,,,,wheel,,,,,,0,57,57,52,1,6,1,,,,,,,,,,,,,,,,,,,,,,,,,,,,,,,,,,,,,,,,,,,,,,,,,,,,,,,,,,,,,,,,,,,,,,,,,,,
,,,,,,,,,,stimuli/images/PICTURE_32.png,KIND,5b233660648d5b0001b7de87,03/07/1953,2020-07-09_16h06.48.582,proactive,2020.1.2,Win32,60,5f073de81c76c3308c0e4fb3,5f07778980f69a184b0faeeb,5,,,,,,crown,,,,,,0,58,58,35,1,4,1,,,,,,,,,,,,,,,,,,,,,,,,,,,,,,,,,,,,,,,,,,,,,,,,,,,,,,,,,,,,,,,,,,,,,,,,,,,
,,?,0.00111,0,,,,,,stimuli/images/PICTURE_449.png,DUDE,5b233660648d5b0001b7de87,03/07/1953,2020-07-09_16h06.48.582,proactive,2020.1.2,Win32,60,5f073de81c76c3308c0e4fb3,5f07778980f69a184b0faeeb,5,,,,,,bench,,,,,,,,,,,2,1,0,0,0,17,1,,,,,,,,,,,,,,,,,,,,,,,,,,,,,,,,,,,,,,,,,,,,,,,,,,,,,,,,,,,,,,,,,,,,,,
,,?,0.001005,0,,,,,,stimuli/images/PICTURE_68.png,MILE,5b233660648d5b0001b7de87,03/07/1953,2020-07-09_16h06.48.582,proactive,2020.1.2,Win32,60,5f073de81c76c3308c0e4fb3,5f07778980f69a184b0faeeb,5,,,,,,candle,,,,,,,,,,,6,1,0,1,1,51,1,,,,,,,,,,,,,,,,,,,,,,,,,,,,,,,,,,,,,,,,,,,,,,,,,,,,,,,,,,,,,,,,,,,,,,
,,?,0.00181,0,,,,,,stimuli/images/PICTURE_380.png,CANDY,5b233660648d5b0001b7de87,03/07/1953,2020-07-09_16h06.48.582,proactive,2020.1.2,Win32,60,5f073de81c76c3308c0e4fb3,5f07778980f69a184b0faeeb,5,,,,,,gorilla,,,,,,,,,,,1,1,0,2,2,0,1,,,,,,,,,,,,,,,,,,,,,,,,,,,,,,,,,,,,,,,,,,,,,,,,,,,,,,,,,,,,,,,,,,,,,,
,,?,0.001445,0,,,,,,stimuli/images/PICTURE_32.png,PILLS,5b233660648d5b0001b7de87,03/07/1953,2020-07-09_16h06.48.582,proactive,2020.1.2,Win32,60,5f073de81c76c3308c0e4fb3,5f07778980f69a184b0faeeb,5,,,,,,crown,,,,,,,,,,,2,1,0,3,3,18,1,,,,,,,,,,,,,,,,,,,,,,,,,,,,,,,,,,,,,,,,,,,,,,,,,,,,,,,,,,,,,,,,,,,,,,
,,?,0.000985,0,,,,,,stimuli/images/PICTURE_308.png,FAMILY,5b233660648d5b0001b7de87,03/07/1953,2020-07-09_16h06.48.582,proactive,2020.1.2,Win32,60,5f073de81c76c3308c0e4fb3,5f07778980f69a184b0faeeb,5,,,,,,dice,,,,,,,,,,,4,1,0,4,4,36,1,,,,,,,,,,,,,,,,,,,,,,,,,,,,,,,,,,,,,,,,,,,,,,,,,,,,,,,,,,,,,,,,,,,,,,
,,?,0.001125,0,,,,,,stimuli/images/PICTURE_405.png,PLENTY,5b233660648d5b0001b7de87,03/07/1953,2020-07-09_16h06.48.582,proactive,2020.1.2,Win32,60,5f073de81c76c3308c0e4fb3,5f07778980f69a184b0faeeb,5,,,,,,anchor,,,,,,,,,,,3,1,0,5,5,23,1,,,,,,,,,,,,,,,,,,,,,,,,,,,,,,,,,,,,,,,,,,,,,,,,,,,,,,,,,,,,,,,,,,,,,,
,,?,0.00102,0,,,,,,stimuli/images/PICTURE_340.png,LETTER,5b233660648d5b0001b7de87,03/07/1953,2020-07-09_16h06.48.582,proactive,2020.1.2,Win32,60,5f073de81c76c3308c0e4fb3,5f07778980f69a184b0faeeb,5,,,,,,mirror,,,,,,,,,,,3,1,0,6,6,24,1,,,,,,,,,,,,,,,,,,,,,,,,,,,,,,,,,,,,,,,,,,,,,,,,,,,,,,,,,,,,,,,,,,,,,,
,,?,0.00113,0,,,,,,stimuli/images/PICTURE_469.png,AGENT,5b233660648d5b0001b7de87,03/07/1953,2020-07-09_16h06.48.582,proactive,2020.1.2,Win32,60,5f073de81c76c3308c0e4fb3,5f07778980f69a184b0faeeb,5,,,,,,stool,,,,,,,,,,,2,1,0,7,7,16,1,,,,,,,,,,,,,,,,,,,,,,,,,,,,,,,,,,,,,,,,,,,,,,,,,,,,,,,,,,,,,,,,,,,,,,
,,?,0.001005,0,,,,,,stimuli/images/PICTURE_654.png,MONTH,5b233660648d5b0001b7de87,03/07/1953,2020-07-09_16h06.48.582,proactive,2020.1.2,Win32,60,5f073de81c76c3308c0e4fb3,5f07778980f69a184b0faeeb,5,,,,,,pencil,,,,,,,,,,,3,1,0,8,8,29,1,,,,,,,,,,,,,,,,,,,,,,,,,,,,,,,,,,,,,,,,,,,,,,,,,,,,,,,,,,,,,,,,,,,,,,
,,?,0.001025,0,,,,,,stimuli/images/PICTURE_327.png,CASINO,5b233660648d5b0001b7de87,03/07/1953,2020-07-09_16h06.48.582,proactive,2020.1.2,Win32,60,5f073de81c76c3308c0e4fb3,5f07778980f69a184b0faeeb,5,,,,,,helmet,,,,,,,,,,,3,1,0,9,9,20,1,,,,,,,,,,,,,,,,,,,,,,,,,,,,,,,,,,,,,,,,,,,,,,,,,,,,,,,,,,,,,,,,,,,,,,
,,?,0.00096,0,,,,,,stimuli/images/PICTURE_504.png,YEAR,5b233660648d5b0001b7de87,03/07/1953,2020-07-09_16h06.48.582,proactive,2020.1.2,Win32,60,5f073de81c76c3308c0e4fb3,5f07778980f69a184b0faeeb,5,,,,,,wheel,,,,,,,,,,,2,1,0,10,10,13,1,,,,,,,,,,,,,,,,,,,,,,,,,,,,,,,,,,,,,,,,,,,,,,,,,,,,,,,,,,,,,,,,,,,,,,
,,ARTIST,15.01055,1,,,,,,stimuli/images/PICTURE_504.png,ARTIST,5b233660648d5b0001b7de87,03/07/1953,2020-07-09_16h06.48.582,proactive,2020.1.2,Win32,60,5f073de81c76c3308c0e4fb3,5f07778980f69a184b0faeeb,5,,,,,,wheel,,,,,,,,,,,5,1,0,11,11,49,1,,,,,,,,,,,,,,,,,,,,,,,,,,,,,,,,,,,,,,,,,,,,,,,,,,,,,,,,,,,,,,,,,,,,,,
,,?,0.001355,0,,,,,,stimuli/images/PICTURE_327.png,SERIES,5b233660648d5b0001b7de87,03/07/1953,2020-07-09_16h06.48.582,proactive,2020.1.2,Win32,60,5f073de81c76c3308c0e4fb3,5f07778980f69a184b0faeeb,5,,,,,,helmet,,,,,,,,,,,1,1,0,12,12,3,1,,,,,,,,,,,,,,,,,,,,,,,,,,,,,,,,,,,,,,,,,,,,,,,,,,,,,,,,,,,,,,,,,,,,,,
,,?,0.001115,0,,,,,,stimuli/images/PICTURE_383.png,WRITER,5b233660648d5b0001b7de87,03/07/1953,2020-07-09_16h06.48.582,proactive,2020.1.2,Win32,60,5f073de81c76c3308c0e4fb3,5f07778980f69a184b0faeeb,5,,,,,,coin,,,,,,,,,,,3,1,0,13,13,28,1,,,,,,,,,,,,,,,,,,,,,,,,,,,,,,,,,,,,,,,,,,,,,,,,,,,,,,,,,,,,,,,,,,,,,,
,,?,0.00125,0,,,,,,stimuli/images/PICTURE_296.png,LIFE,5b233660648d5b0001b7de87,03/07/1953,2020-07-09_16h06.48.582,proactive,2020.1.2,Win32,60,5f073de81c76c3308c0e4fb3,5f07778980f69a184b0faeeb,5,,,,,,bolt,,,,,,,,,,,6,1,0,14,14,57,1,,,,,,,,,,,,,,,,,,,,,,,,,,,,,,,,,,,,,,,,,,,,,,,,,,,,,,,,,,,,,,,,,,,,,,
,,?,0.00103,0,,,,,,stimuli/images/PICTURE_685.png,PENNY,5b233660648d5b0001b7de87,03/07/1953,2020-07-09_16h06.48.582,proactive,2020.1.2,Win32,60,5f073de81c76c3308c0e4fb3,5f07778980f69a184b0faeeb,5,,,,,,goose,,,,,,,,,,,1,1,0,15,15,4,1,,,,,,,,,,,,,,,,,,,,,,,,,,,,,,,,,,,,,,,,,,,,,,,,,,,,,,,,,,,,,,,,,,,,,,
,,?,0.001585,0,,,,,,stimuli/images/PICTURE_33.png,FRIEND,5b233660648d5b0001b7de87,03/07/1953,2020-07-09_16h06.48.582,proactive,2020.1.2,Win32,60,5f073de81c76c3308c0e4fb3,5f07778980f69a184b0faeeb,5,,,,,,frame,,,,,,,,,,,1,1,0,16,16,8,1,,,,,,,,,,,,,,,,,,,,,,,,,,,,,,,,,,,,,,,,,,,,,,,,,,,,,,,,,,,,,,,,,,,,,,
,,?,0.001085,0,,,,,,stimuli/images/PICTURE_339.png,CLIENT,5b233660648d5b0001b7de87,03/07/1953,2020-07-09_16h06.48.582,proactive,2020.1.2,Win32,60,5f073de81c76c3308c0e4fb3,5f07778980f69a184b0faeeb,5,,,,,,backpack,,,,,,,,,,,2,1,0,17,17,11,1,,,,,,,,,,,,,,,,,,,,,,,,,,,,,,,,,,,,,,,,,,,,,,,,,,,,,,,,,,,,,,,,,,,,,,
,,?,0.0011,0,,,,,,stimuli/images/PICTURE_667.png,RIVER,5b233660648d5b0001b7de87,03/07/1953,2020-07-09_16h06.48.582,proactive,2020.1.2,Win32,60,5f073de81c76c3308c0e4fb3,5f07778980f69a184b0faeeb,5,,,,,,daisy,,,,,,,,,,,2,1,0,18,18,10,1,,,,,,,,,,,,,,,,,,,,,,,,,,,,,,,,,,,,,,,,,,,,,,,,,,,,,,,,,,,,,,,,,,,,,,
,,?,0.001035,0,,,,,,stimuli/images/PICTURE_467.png,POLICY,5b233660648d5b0001b7de87,03/07/1953,2020-07-09_16h06.48.582,proactive,2020.1.2,Win32,60,5f073de81c76c3308c0e4fb3,5f07778980f69a184b0faeeb,5,,,,,,peg,,,,,,,,,,,6,1,0,19,19,53,1,,,,,,,,,,,,,,,,,,,,,,,,,,,,,,,,,,,,,,,,,,,,,,,,,,,,,,,,,,,,,,,,,,,,,,
,,?,0.001095,0,,,,,,stimuli/images/PICTURE_42.png,BOYS,5b233660648d5b0001b7de87,03/07/1953,2020-07-09_16h06.48.582,proactive,2020.1.2,Win32,60,5f073de81c76c3308c0e4fb3,5f07778980f69a184b0faeeb,5,,,,,,pear,,,,,,,,,,,6,1,0,20,20,55,1,,,,,,,,,,,,,,,,,,,,,,,,,,,,,,,,,,,,,,,,,,,,,,,,,,,,,,,,,,,,,,,,,,,,,,
,,?,0.001065,0,,,,,,stimuli/images/PICTURE_564.png,BATH,5b233660648d5b0001b7de87,03/07/1953,2020-07-09_16h06.48.582,proactive,2020.1.2,Win32,60,5f073de81c76c3308c0e4fb3,5f07778980f69a184b0faeeb,5,,,,,,spoon,,,,,,,,,,,3,1,0,21,21,26,1,,,,,,,,,,,,,,,,,,,,,,,,,,,,,,,,,,,,,,,,,,,,,,,,,,,,,,,,,,,,,,,,,,,,,,
,,?,0.001025,0,,,,,,stimuli/images/PICTURE_491.png,GLASS,5b233660648d5b0001b7de87,03/07/1953,2020-07-09_16h06.48.582,proactive,2020.1.2,Win32,60,5f073de81c76c3308c0e4fb3,5f07778980f69a184b0faeeb,5,,,,,,rug,,,,,,,,,,,2,1,0,22,22,14,1,,,,,,,,,,,,,,,,,,,,,,,,,,,,,,,,,,,,,,,,,,,,,,,,,,,,,,,,,,,,,,,,,,,,,,
,,?,0.001,0,,,,,,stimuli/images/PICTURE_203.png,NIGHT,5b233660648d5b0001b7de87,03/07/1953,2020-07-09_16h06.48.582,proactive,2020.1.2,Win32,60,5f073de81c76c3308c0e4fb3,5f07778980f69a184b0faeeb,5,,,,,,cap,,,,,,,,,,,1,1,0,23,23,2,1,,,,,,,,,,,,,,,,,,,,,,,,,,,,,,,,,,,,,,,,,,,,,,,,,,,,,,,,,,,,,,,,,,,,,,
,,?,0.00141,0,,,,,,stimuli/images/PICTURE_285.png,LIFE,5b233660648d5b0001b7de87,03/07/1953,2020-07-09_16h06.48.582,proactive,2020.1.2,Win32,60,5f073de81c76c3308c0e4fb3,5f07778980f69a184b0faeeb,5,,,,,,carrot,,,,,,,,,,,4,1,0,24,24,33,1,,,,,,,,,,,,,,,,,,,,,,,,,,,,,,,,,,,,,,,,,,,,,,,,,,,,,,,,,,,,,,,,,,,,,,
,,?,0.001135,0,,,,,,stimuli/images/PICTURE_32.png,KIND,5b233660648d5b0001b7de87,03/07/1953,2020-07-09_16h06.48.582,proactive,2020.1.2,Win32,60,5f073de81c76c3308c0e4fb3,5f07778980f69a184b0faeeb,5,,,,,,crown,,,,,,,,,,,4,1,0,25,25,35,1,,,,,,,,,,,,,,,,,,,,,,,,,,,,,,,,,,,,,,,,,,,,,,,,,,,,,,,,,,,,,,,,,,,,,,
,,?,0.00112,0,,,,,,stimuli/images/PICTURE_2.png,FLIGHT,5b233660648d5b0001b7de87,03/07/1953,2020-07-09_16h06.48.582,proactive,2020.1.2,Win32,60,5f073de81c76c3308c0e4fb3,5f07778980f69a184b0faeeb,5,,,,,,tyre,,,,,,,,,,,2,1,0,26,26,15,1,,,,,,,,,,,,,,,,,,,,,,,,,,,,,,,,,,,,,,,,,,,,,,,,,,,,,,,,,,,,,,,,,,,,,,
,,?,0.001195,0,,,,,,stimuli/images/PICTURE_147.png,WOMEN,5b233660648d5b0001b7de87,03/07/1953,2020-07-09_16h06.48.582,proactive,2020.1.2,Win32,60,5f073de81c76c3308c0e4fb3,5f07778980f69a184b0faeeb,5,,,,,,hanger,,,,,,,,,,,1,1,0,27,27,7,1,,,,,,,,,,,,,,,,,,,,,,,,,,,,,,,,,,,,,,,,,,,,,,,,,,,,,,,,,,,,,,,,,,,,,,
,,?,0.000985,0,,,,,,stimuli/images/PICTURE_297.png,RIVER,5b233660648d5b0001b7de87,03/07/1953,2020-07-09_16h06.48.582,proactive,2020.1.2,Win32,60,5f073de81c76c3308c0e4fb3,5f07778980f69a184b0faeeb,5,,,,,,aeroplane,,,,,,,,,,,4,1,0,28,28,39,1,,,,,,,,,,,,,,,,,,,,,,,,,,,,,,,,,,,,,,,,,,,,,,,,,,,,,,,,,,,,,,,,,,,,,,
,,?,0.000955,0,,,,,,stimuli/images/PICTURE_68.png,ROOF,5b233660648d5b0001b7de87,03/07/1953,2020-07-09_16h06.48.582,proactive,2020.1.2,Win32,60,5f073de81c76c3308c0e4fb3,5f07778980f69a184b0faeeb,5,,,,,,candle,,,,,,,,,,,4,1,0,29,29,38,1,,,,,,,,,,,,,,,,,,,,,,,,,,,,,,,,,,,,,,,,,,,,,,,,,,,,,,,,,,,,,,,,,,,,,,
,,?,0.00256,0,,,,,,stimuli/images/PICTURE_744.png,WEAPON,5b233660648d5b0001b7de87,03/07/1953,2020-07-09_16h06.48.582,proactive,2020.1.2,Win32,60,5f073de81c76c3308c0e4fb3,5f07778980f69a184b0faeeb,5,,,,,,ring,,,,,,,,,,,6,1,0,30,30,50,1,,,,,,,,,,,,,,,,,,,,,,,,,,,,,,,,,,,,,,,,,,,,,,,,,,,,,,,,,,,,,,,,,,,,,,
,,?,0.001005,0,,,,,,stimuli/images/PICTURE_57.png,MOMENT,5b233660648d5b0001b7de87,03/07/1953,2020-07-09_16h06.48.582,proactive,2020.1.2,Win32,60,5f073de81c76c3308c0e4fb3,5f07778980f69a184b0faeeb,5,,,,,,stamp,,,,,,,,,,,4,1,0,31,31,37,1,,,,,,,,,,,,,,,,,,,,,,,,,,,,,,,,,,,,,,,,,,,,,,,,,,,,,,,,,,,,,,,,,,,,,,
,,?,0.001,0,,,,,,stimuli/images/PICTURE_203.png,GODS,5b233660648d5b0001b7de87,03/07/1953,2020-07-09_16h06.48.582,proactive,2020.1.2,Win32,60,5f073de81c76c3308c0e4fb3,5f07778980f69a184b0faeeb,5,,,,,,cap,,,,,,,,,,,4,1,0,32,32,30,1,,,,,,,,,,,,,,,,,,,,,,,,,,,,,,,,,,,,,,,,,,,,,,,,,,,,,,,,,,,,,,,,,,,,,,
,,?,0.001165,0,,,,,,stimuli/images/PICTURE_708.png,RECORD,5b233660648d5b0001b7de87,03/07/1953,2020-07-09_16h06.48.582,proactive,2020.1.2,Win32,60,5f073de81c76c3308c0e4fb3,5f07778980f69a184b0faeeb,5,,,,,,monkey,,,,,,,,,,,6,1,0,33,33,58,1,,,,,,,,,,,,,,,,,,,,,,,,,,,,,,,,,,,,,,,,,,,,,,,,,,,,,,,,,,,,,,,,,,,,,,
,,MUSHROOM,15.000695,0,,,,,,stimuli/images/PICTURE_675.png,SALE,5b233660648d5b0001b7de87,03/07/1953,2020-07-09_16h06.48.582,proactive,2020.1.2,Win32,60,5f073de81c76c3308c0e4fb3,5f07778980f69a184b0faeeb,5,,,,,,windmill,,,,,,,,,,,5,1,0,34,34,47,1,,,,,,,,,,,,,,,,,,,,,,,,,,,,,,,,,,,,,,,,,,,,,,,,,,,,,,,,,,,,,,,,,,,,,,
,,?,0.00134,0,,,,,,stimuli/images/PICTURE_95.png,BOYS,5b233660648d5b0001b7de87,03/07/1953,2020-07-09_16h06.48.582,proactive,2020.1.2,Win32,60,5f073de81c76c3308c0e4fb3,5f07778980f69a184b0faeeb,5,,,,,,suitcase,,,,,,,,,,,1,1,0,35,35,1,1,,,,,,,,,,,,,,,,,,,,,,,,,,,,,,,,,,,,,,,,,,,,,,,,,,,,,,,,,,,,,,,,,,,,,,
,,?,0.00121,0,,,,,,stimuli/images/PICTURE_405.png,YEAR,5b233660648d5b0001b7de87,03/07/1953,2020-07-09_16h06.48.582,proactive,2020.1.2,Win32,60,5f073de81c76c3308c0e4fb3,5f07778980f69a184b0faeeb,5,,,,,,anchor,,,,,,,,,,,4,1,0,36,36,34,1,,,,,,,,,,,,,,,,,,,,,,,,,,,,,,,,,,,,,,,,,,,,,,,,,,,,,,,,,,,,,,,,,,,,,,
,,?,0.00099,0,,,,,,stimuli/images/PICTURE_403.png,WRITER,5b233660648d5b0001b7de87,03/07/1953,2020-07-09_16h06.48.582,proactive,2020.1.2,Win32,60,5f073de81c76c3308c0e4fb3,5f07778980f69a184b0faeeb,5,,,,,,cathedral,,,,,,,,,,,4,1,0,37,37,31,1,,,,,,,,,,,,,,,,,,,,,,,,,,,,,,,,,,,,,,,,,,,,,,,,,,,,,,,,,,,,,,,,,,,,,,
,,?,0.000995,0,,,,,,stimuli/images/PICTURE_750.png,HOTEL,5b233660648d5b0001b7de87,03/07/1953,2020-07-09_16h06.48.582,proactive,2020.1.2,Win32,60,5f073de81c76c3308c0e4fb3,5f07778980f69a184b0faeeb,5,,,,,,kettle,,,,,,,,,,,3,1,0,38,38,27,1,,,,,,,,,,,,,,,,,,,,,,,,,,,,,,,,,,,,,,,,,,,,,,,,,,,,,,,,,,,,,,,,,,,,,,
,,?,0.001015,0,,,,,,stimuli/images/PICTURE_340.png,VALLEY,5b233660648d5b0001b7de87,03/07/1953,2020-07-09_16h06.48.582,proactive,2020.1.2,Win32,60,5f073de81c76c3308c0e4fb3,5f07778980f69a184b0faeeb,5,,,,,,mirror,,,,,,,,,,,6,1,0,39,39,54,1,,,,,,,,,,,,,,,,,,,,,,,,,,,,,,,,,,,,,,,,,,,,,,,,,,,,,,,,,,,,,,,,,,,,,,
,,?,0.00106,0,,,,,,stimuli/images/PICTURE_403.png,TOILET,5b233660648d5b0001b7de87,03/07/1953,2020-07-09_16h06.48.582,proactive,2020.1.2,Win32,60,5f073de81c76c3308c0e4fb3,5f07778980f69a184b0faeeb,5,,,,,,cathedral,,,,,,,,,,,3,1,0,40,40,25,1,,,,,,,,,,,,,,,,,,,,,,,,,,,,,,,,,,,,,,,,,,,,,,,,,,,,,,,,,,,,,,,,,,,,,,
,,?,0.001035,0,,,,,,stimuli/images/PICTURE_655.png,TOILET,5b233660648d5b0001b7de87,03/07/1953,2020-07-09_16h06.48.582,proactive,2020.1.2,Win32,60,5f073de81c76c3308c0e4fb3,5f07778980f69a184b0faeeb,5,,,,,,megaphone,,,,,,,,,,,2,1,0,41,41,12,1,,,,,,,,,,,,,,,,,,,,,,,,,,,,,,,,,,,,,,,,,,,,,,,,,,,,,,,,,,,,,,,,,,,,,,
,,WRITER,15.015105,1,,,,,,stimuli/images/PICTURE_177.png,WRITER,5b233660648d5b0001b7de87,03/07/1953,2020-07-09_16h06.48.582,proactive,2020.1.2,Win32,60,5f073de81c76c3308c0e4fb3,5f07778980f69a184b0faeeb,5,,,,,,mushroom,,,,,,,,,,,5,1,0,42,42,41,1,,,,,,,,,,,,,,,,,,,,,,,,,,,,,,,,,,,,,,,,,,,,,,,,,,,,,,,,,,,,,,,,,,,,,,
,,?,0.001445,0,,,,,,stimuli/images/PICTURE_108.png,FLIGHT,5b233660648d5b0001b7de87,03/07/1953,2020-07-09_16h06.48.582,proactive,2020.1.2,Win32,60,5f073de81c76c3308c0e4fb3,5f07778980f69a184b0faeeb,5,,,,,,calendar,,,,,,,,,,,6,1,0,43,43,59,1,,,,,,,,,,,,,,,,,,,,,,,,,,,,,,,,,,,,,,,,,,,,,,,,,,,,,,,,,,,,,,,,,,,,,,
,,COIN,15.016695,0,,,,,,stimuli/images/PICTURE_403.png,RIVER,5b233660648d5b0001b7de87,03/07/1953,2020-07-09_16h06.48.582,proactive,2020.1.2,Win32,60,5f073de81c76c3308c0e4fb3,5f07778980f69a184b0faeeb,5,,,,,,cathedral,,,,,,,,,,,5,1,0,44,44,40,1,,,,,,,,,,,,,,,,,,,,,,,,,,,,,,,,,,,,,,,,,,,,,,,,,,,,,,,,,,,,,,,,,,,,,,
,,?,0.00136,0,,,,,,stimuli/images/PICTURE_296.png,LOTS,5b233660648d5b0001b7de87,03/07/1953,2020-07-09_16h06.48.582,proactive,2020.1.2,Win32,60,5f073de81c76c3308c0e4fb3,5f07778980f69a184b0faeeb,5,,,,,,bolt,,,,,,,,,,,1,1,0,45,45,9,1,,,,,,,,,,,,,,,,,,,,,,,,,,,,,,,,,,,,,,,,,,,,,,,,,,,,,,,,,,,,,,,,,,,,,,
,,?,0.001485,0,,,,,,stimuli/images/PICTURE_504.png,COPS,5b233660648d5b0001b7de87,03/07/1953,2020-07-09_16h06.48.582,proactive,2020.1.2,Win32,60,5f073de81c76c3308c0e4fb3,5f07778980f69a184b0faeeb,5,,,,,,wheel,,,,,,,,,,,6,1,0,46,46,52,1,,,,,,,,,,,,,,,,,,,,,,,,,,,,,,,,,,,,,,,,,,,,,,,,,,,,,,,,,,,,,,,,,,,,,,
,,GIRL,15.010785,1,,,,,,stimuli/images/PICTURE_487.png,GIRL,5b233660648d5b0001b7de87,03/07/1953,2020-07-09_16h06.48.582,proactive,2020.1.2,Win32,60,5f073de81c76c3308c0e4fb3,5f07778980f69a184b0faeeb,5,,,,,,basket,,,,,,,,,,,5,1,0,47,47,45,1,,,,,,,,,,,,,,,,,,,,,,,,,,,,,,,,,,,,,,,,,,,,,,,,,,,,,,,,,,,,,,,,,,,,,,
,,?,0.00132,0,,,,,,stimuli/images/PICTURE_85.png,NATION,5b233660648d5b0001b7de87,03/07/1953,2020-07-09_16h06.48.582,proactive,2020.1.2,Win32,60,5f073de81c76c3308c0e4fb3,5f07778980f69a184b0faeeb,5,,,,,,diamond,,,,,,,,,,,1,1,0,48,48,5,1,,,,,,,,,,,,,,,,,,,,,,,,,,,,,,,,,,,,,,,,,,,,,,,,,,,,,,,,,,,,,,,,,,,,,,
,,?,0.001195,0,,,,,,stimuli/images/PICTURE_208.png,SYSTEM,5b233660648d5b0001b7de87,03/07/1953,2020-07-09_16h06.48.582,proactive,2020.1.2,Win32,60,5f073de81c76c3308c0e4fb3,5f07778980f69a184b0faeeb,5,,,,,,microphone,,,,,,,,,,,4,1,0,49,49,32,1,,,,,,,,,,,,,,,,,,,,,,,,,,,,,,,,,,,,,,,,,,,,,,,,,,,,,,,,,,,,,,,,,,,,,,
,,?,15.12226,0,,,,,,stimuli/images/PICTURE_95.png,HONEY,5b233660648d5b0001b7de87,03/07/1953,2020-07-09_16h06.48.582,proactive,2020.1.2,Win32,60,5f073de81c76c3308c0e4fb3,5f07778980f69a184b0faeeb,5,,,,,,suitcase,,,,,,,,,,,5,1,0,50,50,44,1,,,,,,,,,,,,,,,,,,,,,,,,,,,,,,,,,,,,,,,,,,,,,,,,,,,,,,,,,,,,,,,,,,,,,,
,,SERIES,15.016095,1,,,,,,stimuli/images/PICTURE_383.png,SERIES,5b233660648d5b0001b7de87,03/07/1953,2020-07-09_16h06.48.582,proactive,2020.1.2,Win32,60,5f073de81c76c3308c0e4fb3,5f07778980f69a184b0faeeb,5,,,,,,coin,,,,,,,,,,,5,1,0,51,51,46,1,,,,,,,,,,,,,,,,,,,,,,,,,,,,,,,,,,,,,,,,,,,,,,,,,,,,,,,,,,,,,,,,,,,,,,
,,TURK,15.015725,0,,,,,,stimuli/images/PICTURE_85.png,TOILET,5b233660648d5b0001b7de87,03/07/1953,2020-07-09_16h06.48.582,proactive,2020.1.2,Win32,60,5f073de81c76c3308c0e4fb3,5f07778980f69a184b0faeeb,5,,,,,,diamond,,,,,,,,,,,5,1,0,52,52,48,1,,,,,,,,,,,,,,,,,,,,,,,,,,,,,,,,,,,,,,,,,,,,,,,,,,,,,,,,,,,,,,,,,,,,,,
,,?,0.00151,0,,,,,,stimuli/images/PICTURE_491.png,RIVER,5b233660648d5b0001b7de87,03/07/1953,2020-07-09_16h06.48.582,proactive,2020.1.2,Win32,60,5f073de81c76c3308c0e4fb3,5f07778980f69a184b0faeeb,5,,,,,,rug,,,,,,,,,,,1,1,0,53,53,6,1,,,,,,,,,,,,,,,,,,,,,,,,,,,,,,,,,,,,,,,,,,,,,,,,,,,,,,,,,,,,,,,,,,,,,,
,,RIVER,15.015565,0,,,,,,stimuli/images/PICTURE_677.png,APPLE,5b233660648d5b0001b7de87,03/07/1953,2020-07-09_16h06.48.582,proactive,2020.1.2,Win32,60,5f073de81c76c3308c0e4fb3,5f07778980f69a184b0faeeb,5,,,,,,map,,,,,,,,,,,5,1,0,54,54,43,1,,,,,,,,,,,,,,,,,,,,,,,,,,,,,,,,,,,,,,,,,,,,,,,,,,,,,,,,,,,,,,,,,,,,,,
,,?,0.001705,0,,,,,,stimuli/images/PICTURE_108.png,POLICY,5b233660648d5b0001b7de87,03/07/1953,2020-07-09_16h06.48.582,proactive,2020.1.2,Win32,60,5f073de81c76c3308c0e4fb3,5f07778980f69a184b0faeeb,5,,,,,,calendar,,,,,,,,,,,3,1,0,55,55,22,1,,,,,,,,,,,,,,,,,,,,,,,,,,,,,,,,,,,,,,,,,,,,,,,,,,,,,,,,,,,,,,,,,,,,,,
,,LOTS,15.01472,1,,,,,,stimuli/images/PICTURE_233.png,LOTS,5b233660648d5b0001b7de87,03/07/1953,2020-07-09_16h06.48.582,proactive,2020.1.2,Win32,60,5f073de81c76c3308c0e4fb3,5f07778980f69a184b0faeeb,5,,,,,,salt,,,,,,,,,,,5,1,0,56,56,42,1,,,,,,,,,,,,,,,,,,,,,,,,,,,,,,,,,,,,,,,,,,,,,,,,,,,,,,,,,,,,,,,,,,,,,,
,,?,0.00135,0,,,,,,stimuli/images/PICTURE_147.png,YEAR,5b233660648d5b0001b7de87,03/07/1953,2020-07-09_16h06.48.582,proactive,2020.1.2,Win32,60,5f073de81c76c3308c0e4fb3,5f07778980f69a184b0faeeb,5,,,,,,hanger,,,,,,,,,,,3,1,0,57,57,21,1,,,,,,,,,,,,,,,,,,,,,,,,,,,,,,,,,,,,,,,,,,,,,,,,,,,,,,,,,,,,,,,,,,,,,,
,,?,0.00143,0,,,,,,stimuli/images/PICTURE_95.png,MILLER,5b233660648d5b0001b7de87,03/07/1953,2020-07-09_16h06.48.582,proactive,2020.1.2,Win32,60,5f073de81c76c3308c0e4fb3,5f07778980f69a184b0faeeb,5,,,,,,suitcase,,,,,,,,,,,6,1,0,58,58,56,1,,,,,,,,,,,,,,,,,,,,,,,,,,,,,,,,,,,,,,,,,,,,,,,,,,,,,,,,,,,,,,,,,,,,,,
,,?,0.001195,0,,,,,,stimuli/images/PICTURE_380.png,HONEY,5b233660648d5b0001b7de87,03/07/1953,2020-07-09_16h06.48.582,proactive,2020.1.2,Win32,60,5f073de81c76c3308c0e4fb3,5f07778980f69a184b0faeeb,5,,,,,,gorilla,,,,,,,,,,,2,1,0,59,59,19,1,,,,,,,,,,,,,,,,,,,,,,,,,,,,,,,,,,,,,,,,,,,,,,,,,,,,,,,,,,,,,,,,,,,,,,
,,,,,,,,,,,,5b233660648d5b0001b7de87,03/07/1953,2020-07-09_16h06.48.582,proactive,2020.1.2,Win32,60,5f073de81c76c3308c0e4fb3,5f07778980f69a184b0faeeb,5,,,,,,,,,,,,,,,,,,,,,,,,0,1,1,1,1,stimuli/learn-block2.csv,,,,,,,,,,,,,,,,,,,,,,,,,,,,,,,,,,,,,,,,,,,,,,,,,,,,,,,,,,,,,,,,
,,,,,,,,,,stimuli/images/PICTURE_356.png,CANDY,5b233660648d5b0001b7de87,03/07/1953,2020-07-09_16h06.48.582,proactive,2020.1.2,Win32,60,5f073de81c76c3308c0e4fb3,5f07778980f69a184b0faeeb,5,,,,,,pawn,,,,,,0,0,0,46,1,5,2,,,,,,,,,,,,,,,,,,,,,,,,,,,,,,,,,,,,,,,,,,,,,,,,,,,,,,,,,,,,,,,,,,,,,,,,,,,
,,,,,,,,,,stimuli/images/PICTURE_491.png,SERIES,5b233660648d5b0001b7de87,03/07/1953,2020-07-09_16h06.48.582,proactive,2020.1.2,Win32,60,5f073de81c76c3308c0e4fb3,5f07778980f69a184b0faeeb,5,,,,,,rug,,,,,,0,1,1,39,1,4,2,,,,,,,,,,,,,,,,,,,,,,,,,,,,,,,,,,,,,,,,,,,,,,,,,,,,,,,,,,,,,,,,,,,,,,,,,,,
,,,,,,,,,,stimuli/images/PICTURE_2.png,YARD,5b233660648d5b0001b7de87,03/07/1953,2020-07-09_16h06.48.582,proactive,2020.1.2,Win32,60,5f073de81c76c3308c0e4fb3,5f07778980f69a184b0faeeb,5,,,,,,tyre,,,,,,0,2,2,55,1,6,2,,,,,,,,,,,,,,,,,,,,,,,,,,,,,,,,,,,,,,,,,,,,,,,,,,,,,,,,,,,,,,,,,,,,,,,,,,,
,,,,,,,,,,stimuli/images/PICTURE_692.png,DUDE,5b233660648d5b0001b7de87,03/07/1953,2020-07-09_16h06.48.582,proactive,2020.1.2,Win32,60,5f073de81c76c3308c0e4fb3,5f07778980f69a184b0faeeb,5,,,,,,cherry,,,,,,0,3,3,47,1,5,2,,,,,,,,,,,,,,,,,,,,,,,,,,,,,,,,,,,,,,,,,,,,,,,,,,,,,,,,,,,,,,,,,,,,,,,,,,,
,,,,,,,,,,stimuli/images/PICTURE_2.png,JUNGLE,5b233660648d5b0001b7de87,03/07/1953,2020-07-09_16h06.48.582,proactive,2020.1.2,Win32,60,5f073de81c76c3308c0e4fb3,5f07778980f69a184b0faeeb,5,,,,,,tyre,,,,,,0,4,4,1,1,1,2,,,,,,,,,,,,,,,,,,,,,,,,,,,,,,,,,,,,,,,,,,,,,,,,,,,,,,,,,,,,,,,,,,,,,,,,,,,
,,,,,,,,,,stimuli/images/PICTURE_348.png,DUDE,5b233660648d5b0001b7de87,03/07/1953,2020-07-09_16h06.48.582,proactive,2020.1.2,Win32,60,5f073de81c76c3308c0e4fb3,5f07778980f69a184b0faeeb,5,,,,,,pepper,,,,,,0,5,5,59,1,6,2,,,,,,,,,,,,,,,,,,,,,,,,,,,,,,,,,,,,,,,,,,,,,,,,,,,,,,,,,,,,,,,,,,,,,,,,,,,
,,,,,,,,,,stimuli/images/PICTURE_452.png,COPS,5b233660648d5b0001b7de87,03/07/1953,2020-07-09_16h06.48.582,proactive,2020.1.2,Win32,60,5f073de81c76c3308c0e4fb3,5f07778980f69a184b0faeeb,5,,,,,,watch,,,,,,0,6,6,0,1,1,2,,,,,,,,,,,,,,,,,,,,,,,,,,,,,,,,,,,,,,,,,,,,,,,,,,,,,,,,,,,,,,,,,,,,,,,,,,,
,,,,,,,,,,stimuli/images/PICTURE_509.png,BATH,5b233660648d5b0001b7de87,03/07/1953,2020-07-09_16h06.48.582,proactive,2020.1.2,Win32,60,5f073de81c76c3308c0e4fb3,5f07778980f69a184b0faeeb,5,,,,,,telephone,,,,,,0,7,7,15,1,2,2,,,,,,,,,,,,,,,,,,,,,,,,,,,,,,,,,,,,,,,,,,,,,,,,,,,,,,,,,,,,,,,,,,,,,,,,,,,
,,,,,,,,,,stimuli/images/PICTURE_750.png,POLICY,5b233660648d5b0001b7de87,03/07/1953,2020-07-09_16h06.48.582,proactive,2020.1.2,Win32,60,5f073de81c76c3308c0e4fb3,5f07778980f69a184b0faeeb,5,,,,,,kettle,,,,,,0,8,8,44,1,5,2,,,,,,,,,,,,,,,,,,,,,,,,,,,,,,,,,,,,,,,,,,,,,,,,,,,,,,,,,,,,,,,,,,,,,,,,,,,
,,,,,,,,,,stimuli/images/PICTURE_177.png,HOUSE,5b233660648d5b0001b7de87,03/07/1953,2020-07-09_16h06.48.582,proactive,2020.1.2,Win32,60,5f073de81c76c3308c0e4fb3,5f07778980f69a184b0faeeb,5,,,,,,mushroom,,,,,,0,9,9,25,1,3,2,,,,,,,,,,,,,,,,,,,,,,,,,,,,,,,,,,,,,,,,,,,,,,,,,,,,,,,,,,,,,,,,,,,,,,,,,,,
,,,,,,,,,,stimuli/images/PICTURE_667.png,GLASS,5b233660648d5b0001b7de87,03/07/1953,2020-07-09_16h06.48.582,proactive,2020.1.2,Win32,60,5f073de81c76c3308c0e4fb3,5f07778980f69a184b0faeeb,5,,,,,,daisy,,,,,,0,10,10,27,1,3,2,,,,,,,,,,,,,,,,,,,,,,,,,,,,,,,,,,,,,,,,,,,,,,,,,,,,,,,,,,,,,,,,,,,,,,,,,,,
,,,,,,,,,,stimuli/images/PICTURE_470.png,BEAUTY,5b233660648d5b0001b7de87,03/07/1953,2020-07-09_16h06.48.582,proactive,2020.1.2,Win32,60,5f073de81c76c3308c0e4fb3,5f07778980f69a184b0faeeb,5,,,,,,motorbike,,,,,,0,11,11,26,1,3,2,,,,,,,,,,,,,,,,,,,,,,,,,,,,,,,,,,,,,,,,,,,,,,,,,,,,,,,,,,,,,,,,,,,,,,,,,,,
,,,,,,,,,,stimuli/images/PICTURE_215.png,BOYS,5b233660648d5b0001b7de87,03/07/1953,2020-07-09_16h06.48.582,proactive,2020.1.2,Win32,60,5f073de81c76c3308c0e4fb3,5f07778980f69a184b0faeeb,5,,,,,,boot,,,,,,0,12,12,24,1,3,2,,,,,,,,,,,,,,,,,,,,,,,,,,,,,,,,,,,,,,,,,,,,,,,,,,,,,,,,,,,,,,,,,,,,,,,,,,,
,,,,,,,,,,stimuli/images/PICTURE_215.png,FOOD,5b233660648d5b0001b7de87,03/07/1953,2020-07-09_16h06.48.582,proactive,2020.1.2,Win32,60,5f073de81c76c3308c0e4fb3,5f07778980f69a184b0faeeb,5,,,,,,boot,,,,,,0,13,13,5,1,1,2,,,,,,,,,,,,,,,,,,,,,,,,,,,,,,,,,,,,,,,,,,,,,,,,,,,,,,,,,,,,,,,,,,,,,,,,,,,
,,,,,,,,,,stimuli/images/PICTURE_57.png,NATION,5b233660648d5b0001b7de87,03/07/1953,2020-07-09_16h06.48.582,proactive,2020.1.2,Win32,60,5f073de81c76c3308c0e4fb3,5f07778980f69a184b0faeeb,5,,,,,,stamp,,,,,,0,14,14,21,1,3,2,,,,,,,,,,,,,,,,,,,,,,,,,,,,,,,,,,,,,,,,,,,,,,,,,,,,,,,,,,,,,,,,,,,,,,,,,,,
,,,,,,,,,,stimuli/images/PICTURE_57.png,CANDY,5b233660648d5b0001b7de87,03/07/1953,2020-07-09_16h06.48.582,proactive,2020.1.2,Win32,60,5f073de81c76c3308c0e4fb3,5f07778980f69a184b0faeeb,5,,,,,,stamp,,,,,,0,15,15,52,1,6,2,,,,,,,,,,,,,,,,,,,,,,,,,,,,,,,,,,,,,,,,,,,,,,,,,,,,,,,,,,,,,,,,,,,,,,,,,,,
,,,,,,,,,,stimuli/images/PICTURE_405.png,JUNGLE,5b233660648d5b0001b7de87,03/07/1953,2020-07-09_16h06.48.582,proactive,2020.1.2,Win32,60,5f073de81c76c3308c0e4fb3,5f07778980f69a184b0faeeb,5,,,,,,anchor,,,,,,0,16,16,13,1,2,2,,,,,,,,,,,,,,,,,,,,,,,,,,,,,,,,,,,,,,,,,,,,,,,,,,,,,,,,,,,,,,,,,,,,,,,,,,,
,,,,,,,,,,stimuli/images/PICTURE_147.png,LEADER,5b233660648d5b0001b7de87,03/07/1953,2020-07-09_16h06.48.582,proactive,2020.1.2,Win32,60,5f073de81c76c3308c0e4fb3,5f07778980f69a184b0faeeb,5,,,,,,hanger,,,,,,0,17,17,33,1,4,2,,,,,,,,,,,,,,,,,,,,,,,,,,,,,,,,,,,,,,,,,,,,,,,,,,,,,,,,,,,,,,,,,,,,,,,,,,,
,,,,,,,,,,stimuli/images/PICTURE_654.png,COPS,5b233660648d5b0001b7de87,03/07/1953,2020-07-09_16h06.48.582,proactive,2020.1.2,Win32,60,5f073de81c76c3308c0e4fb3,5f07778980f69a184b0faeeb,5,,,,,,pencil,,,,,,0,18,18,10,1,2,2,,,,,,,,,,,,,,,,,,,,,,,,,,,,,,,,,,,,,,,,,,,,,,,,,,,,,,,,,,,,,,,,,,,,,,,,,,,
,,,,,,,,,,stimuli/images/PICTURE_314.png,SPEECH,5b233660648d5b0001b7de87,03/07/1953,2020-07-09_16h06.48.582,proactive,2020.1.2,Win32,60,5f073de81c76c3308c0e4fb3,5f07778980f69a184b0faeeb,5,,,,,,perfume,,,,,,0,19,19,35,1,4,2,,,,,,,,,,,,,,,,,,,,,,,,,,,,,,,,,,,,,,,,,,,,,,,,,,,,,,,,,,,,,,,,,,,,,,,,,,,
,,,,,,,,,,stimuli/images/PICTURE_311.png,TOILET,5b233660648d5b0001b7de87,03/07/1953,2020-07-09_16h06.48.582,proactive,2020.1.2,Win32,60,5f073de81c76c3308c0e4fb3,5f07778980f69a184b0faeeb,5,,,,,,razor,,,,,,0,20,20,54,1,6,2,,,,,,,,,,,,,,,,,,,,,,,,,,,,,,,,,,,,,,,,,,,,,,,,,,,,,,,,,,,,,,,,,,,,,,,,,,,
,,,,,,,,,,stimuli/images/PICTURE_285.png,PRINCE,5b233660648d5b0001b7de87,03/07/1953,2020-07-09_16h06.48.582,proactive,2020.1.2,Win32,60,5f073de81c76c3308c0e4fb3,5f07778980f69a184b0faeeb,5,,,,,,carrot,,,,,,0,21,21,20,1,3,2,,,,,,,,,,,,,,,,,,,,,,,,,,,,,,,,,,,,,,,,,,,,,,,,,,,,,,,,,,,,,,,,,,,,,,,,,,,
,,,,,,,,,,stimuli/images/PICTURE_470.png,MOMENT,5b233660648d5b0001b7de87,03/07/1953,2020-07-09_16h06.48.582,proactive,2020.1.2,Win32,60,5f073de81c76c3308c0e4fb3,5f07778980f69a184b0faeeb,5,,,,,,motorbike,,,,,,0,22,22,40,1,5,2,,,,,,,,,,,,,,,,,,,,,,,,,,,,,,,,,,,,,,,,,,,,,,,,,,,,,,,,,,,,,,,,,,,,,,,,,,,
,,,,,,,,,,stimuli/images/PICTURE_655.png,SALE,5b233660648d5b0001b7de87,03/07/1953,2020-07-09_16h06.48.582,proactive,2020.1.2,Win32,60,5f073de81c76c3308c0e4fb3,5f07778980f69a184b0faeeb,5,,,,,,megaphone,,,,,,0,23,23,57,1,6,2,,,,,,,,,,,,,,,,,,,,,,,,,,,,,,,,,,,,,,,,,,,,,,,,,,,,,,,,,,,,,,,,,,,,,,,,,,,
,,,,,,,,,,stimuli/images/PICTURE_160.png,HOTEL,5b233660648d5b0001b7de87,03/07/1953,2020-07-09_16h06.48.582,proactive,2020.1.2,Win32,60,5f073de81c76c3308c0e4fb3,5f07778980f69a184b0faeeb,5,,,,,,wheelbarrow,,,,,,0,24,24,16,1,2,2,,,,,,,,,,,,,,,,,,,,,,,,,,,,,,,,,,,,,,,,,,,,,,,,,,,,,,,,,,,,,,,,,,,,,,,,,,,
,,,,,,,,,,stimuli/images/PICTURE_677.png,PHOTO,5b233660648d5b0001b7de87,03/07/1953,2020-07-09_16h06.48.582,proactive,2020.1.2,Win32,60,5f073de81c76c3308c0e4fb3,5f07778980f69a184b0faeeb,5,,,,,,map,,,,,,0,25,25,14,1,2,2,,,,,,,,,,,,,,,,,,,,,,,,,,,,,,,,,,,,,,,,,,,,,,,,,,,,,,,,,,,,,,,,,,,,,,,,,,,
,,,,,,,,,,stimuli/images/PICTURE_487.png,POLICY,5b233660648d5b0001b7de87,03/07/1953,2020-07-09_16h06.48.582,proactive,2020.1.2,Win32,60,5f073de81c76c3308c0e4fb3,5f07778980f69a184b0faeeb,5,,,,,,basket,,,,,,0,26,26,34,1,4,2,,,,,,,,,,,,,,,,,,,,,,,,,,,,,,,,,,,,,,,,,,,,,,,,,,,,,,,,,,,,,,,,,,,,,,,,,,,
,,,,,,,,,,stimuli/images/PICTURE_509.png,MILLER,5b233660648d5b0001b7de87,03/07/1953,2020-07-09_16h06.48.582,proactive,2020.1.2,Win32,60,5f073de81c76c3308c0e4fb3,5f07778980f69a184b0faeeb,5,,,,,,telephone,,,,,,0,27,27,49,1,5,2,,,,,,,,,,,,,,,,,,,,,,,,,,,,,,,,,,,,,,,,,,,,,,,,,,,,,,,,,,,,,,,,,,,,,,,,,,,
,,,,,,,,,,stimuli/images/PICTURE_403.png,FAMILY,5b233660648d5b0001b7de87,03/07/1953,2020-07-09_16h06.48.582,proactive,2020.1.2,Win32,60,5f073de81c76c3308c0e4fb3,5f07778980f69a184b0faeeb,5,,,,,,cathedral,,,,,,0,28,28,9,1,1,2,,,,,,,,,,,,,,,,,,,,,,,,,,,,,,,,,,,,,,,,,,,,,,,,,,,,,,,,,,,,,,,,,,,,,,,,,,,
,,,,,,,,,,stimuli/images/PICTURE_348.png,TOILET,5b233660648d5b0001b7de87,03/07/1953,2020-07-09_16h06.48.582,proactive,2020.1.2,Win32,60,5f073de81c76c3308c0e4fb3,5f07778980f69a184b0faeeb,5,,,,,,pepper,,,,,,0,29,29,4,1,1,2,,,,,,,,,,,,,,,,,,,,,,,,,,,,,,,,,,,,,,,,,,,,,,,,,,,,,,,,,,,,,,,,,,,,,,,,,,,
,,,,,,,,,,stimuli/images/PICTURE_654.png,YEAR,5b233660648d5b0001b7de87,03/07/1953,2020-07-09_16h06.48.582,proactive,2020.1.2,Win32,60,5f073de81c76c3308c0e4fb3,5f07778980f69a184b0faeeb,5,,,,,,pencil,,,,,,0,30,30,41,1,5,2,,,,,,,,,,,,,,,,,,,,,,,,,,,,,,,,,,,,,,,,,,,,,,,,,,,,,,,,,,,,,,,,,,,,,,,,,,,
,,,,,,,,,,stimuli/images/PICTURE_296.png,CLOCK,5b233660648d5b0001b7de87,03/07/1953,2020-07-09_16h06.48.582,proactive,2020.1.2,Win32,60,5f073de81c76c3308c0e4fb3,5f07778980f69a184b0faeeb,5,,,,,,bolt,,,,,,0,31,31,18,1,2,2,,,,,,,,,,,,,,,,,,,,,,,,,,,,,,,,,,,,,,,,,,,,,,,,,,,,,,,,,,,,,,,,,,,,,,,,,,,
,,,,,,,,,,stimuli/images/PICTURE_215.png,LEADER,5b233660648d5b0001b7de87,03/07/1953,2020-07-09_16h06.48.582,proactive,2020.1.2,Win32,60,5f073de81c76c3308c0e4fb3,5f07778980f69a184b0faeeb,5,,,,,,boot,,,,,,0,32,32,43,1,5,2,,,,,,,,,,,,,,,,,,,,,,,,,,,,,,,,,,,,,,,,,,,,,,,,,,,,,,,,,,,,,,,,,,,,,,,,,,,
,,,,,,,,,,stimuli/images/PICTURE_405.png,HOUSE,5b233660648d5b0001b7de87,03/07/1953,2020-07-09_16h06.48.582,proactive,2020.1.2,Win32,60,5f073de81c76c3308c0e4fb3,5f07778980f69a184b0faeeb,5,,,,,,anchor,,,,,,0,33,33,2,1,1,2,,,,,,,,,,,,,,,,,,,,,,,,,,,,,,,,,,,,,,,,,,,,,,,,,,,,,,,,,,,,,,,,,,,,,,,,,,,
,,,,,,,,,,stimuli/images/PICTURE_453.png,FAMILY,5b233660648d5b0001b7de87,03/07/1953,2020-07-09_16h06.48.582,proactive,2020.1.2,Win32,60,5f073de81c76c3308c0e4fb3,5f07778980f69a184b0faeeb,5,,,,,,scissors,,,,,,0,34,34,48,1,5,2,,,,,,,,,,,,,,,,,,,,,,,,,,,,,,,,,,,,,,,,,,,,,,,,,,,,,,,,,,,,,,,,,,,,,,,,,,,
,,,,,,,,,,stimuli/images/PICTURE_564.png,PLENTY,5b233660648d5b0001b7de87,03/07/1953,2020-07-09_16h06.48.582,proactive,2020.1.2,Win32,60,5f073de81c76c3308c0e4fb3,5f07778980f69a184b0faeeb,5,,,,,,spoon,,,,,,0,35,35,11,1,2,2,,,,,,,,,,,,,,,,,,,,,,,,,,,,,,,,,,,,,,,,,,,,,,,,,,,,,,,,,,,,,,,,,,,,,,,,,,,
,,,,,,,,,,stimuli/images/PICTURE_285.png,WRITER,5b233660648d5b0001b7de87,03/07/1953,2020-07-09_16h06.48.582,proactive,2020.1.2,Win32,60,5f073de81c76c3308c0e4fb3,5f07778980f69a184b0faeeb,5,,,,,,carrot,,,,,,0,36,36,6,1,1,2,,,,,,,,,,,,,,,,,,,,,,,,,,,,,,,,,,,,,,,,,,,,,,,,,,,,,,,,,,,,,,,,,,,,,,,,,,,
,,,,,,,,,,stimuli/images/PICTURE_297.png,BODY,5b233660648d5b0001b7de87,03/07/1953,2020-07-09_16h06.48.582,proactive,2020.1.2,Win32,60,5f073de81c76c3308c0e4fb3,5f07778980f69a184b0faeeb,5,,,,,,aeroplane,,,,,,0,37,37,51,1,6,2,,,,,,,,,,,,,,,,,,,,,,,,,,,,,,,,,,,,,,,,,,,,,,,,,,,,,,,,,,,,,,,,,,,,,,,,,,,
,,,,,,,,,,stimuli/images/PICTURE_2.png,AREA,5b233660648d5b0001b7de87,03/07/1953,2020-07-09_16h06.48.582,proactive,2020.1.2,Win32,60,5f073de81c76c3308c0e4fb3,5f07778980f69a184b0faeeb,5,,,,,,tyre,,,,,,0,38,38,32,1,4,2,,,,,,,,,,,,,,,,,,,,,,,,,,,,,,,,,,,,,,,,,,,,,,,,,,,,,,,,,,,,,,,,,,,,,,,,,,,
,,,,,,,,,,stimuli/images/PICTURE_208.png,SPIRIT,5b233660648d5b0001b7de87,03/07/1953,2020-07-09_16h06.48.582,proactive,2020.1.2,Win32,60,5f073de81c76c3308c0e4fb3,5f07778980f69a184b0faeeb,5,,,,,,microphone,,,,,,0,39,39,28,1,3,2,,,,,,,,,,,,,,,,,,,,,,,,,,,,,,,,,,,,,,,,,,,,,,,,,,,,,,,,,,,,,,,,,,,,,,,,,,,
,,,,,,,,,,stimuli/images/PICTURE_33.png,COPS,5b233660648d5b0001b7de87,03/07/1953,2020-07-09_16h06.48.582,proactive,2020.1.2,Win32,60,5f073de81c76c3308c0e4fb3,5f07778980f69a184b0faeeb,5,,,,,,frame,,,,,,0,40,40,29,1,3,2,,,,,,,,,,,,,,,,,,,,,,,,,,,,,,,,,,,,,,,,,,,,,,,,,,,,,,,,,,,,,,,,,,,,,,,,,,,
,,,,,,,,,,stimuli/images/PICTURE_311.png,FLESH,5b233660648d5b0001b7de87,03/07/1953,2020-07-09_16h06.48.582,proactive,2020.1.2,Win32,60,5f073de81c76c3308c0e4fb3,5f07778980f69a184b0faeeb,5,,,,,,razor,,,,,,0,41,41,3,1,1,2,,,,,,,,,,,,,,,,,,,,,,,,,,,,,,,,,,,,,,,,,,,,,,,,,,,,,,,,,,,,,,,,,,,,,,,,,,,
,,,,,,,,,,stimuli/images/PICTURE_18.png,RIVER,5b233660648d5b0001b7de87,03/07/1953,2020-07-09_16h06.48.582,proactive,2020.1.2,Win32,60,5f073de81c76c3308c0e4fb3,5f07778980f69a184b0faeeb,5,,,,,,planet,,,,,,0,42,42,22,1,3,2,,,,,,,,,,,,,,,,,,,,,,,,,,,,,,,,,,,,,,,,,,,,,,,,,,,,,,,,,,,,,,,,,,,,,,,,,,,
,,,,,,,,,,stimuli/images/PICTURE_255.png,PENNY,5b233660648d5b0001b7de87,03/07/1953,2020-07-09_16h06.48.582,proactive,2020.1.2,Win32,60,5f073de81c76c3308c0e4fb3,5f07778980f69a184b0faeeb,5,,,,,,shovel,,,,,,0,43,43,19,1,2,2,,,,,,,,,,,,,,,,,,,,,,,,,,,,,,,,,,,,,,,,,,,,,,,,,,,,,,,,,,,,,,,,,,,,,,,,,,,
,,,,,,,,,,stimuli/images/PICTURE_405.png,JUNGLE,5b233660648d5b0001b7de87,03/07/1953,2020-07-09_16h06.48.582,proactive,2020.1.2,Win32,60,5f073de81c76c3308c0e4fb3,5f07778980f69a184b0faeeb,5,,,,,,anchor,,,,,,0,44,44,58,1,6,2,,,,,,,,,,,,,,,,,,,,,,,,,,,,,,,,,,,,,,,,,,,,,,,,,,,,,,,,,,,,,,,,,,,,,,,,,,,
,,,,,,,,,,stimuli/images/PICTURE_123.png,SALE,5b233660648d5b0001b7de87,03/07/1953,2020-07-09_16h06.48.582,proactive,2020.1.2,Win32,60,5f073de81c76c3308c0e4fb3,5f07778980f69a184b0faeeb,5,,,,,,dart,,,,,,0,45,45,8,1,1,2,,,,,,,,,,,,,,,,,,,,,,,,,,,,,,,,,,,,,,,,,,,,,,,,,,,,,,,,,,,,,,,,,,,,,,,,,,,
,,,,,,,,,,stimuli/images/PICTURE_487.png,ROOF,5b233660648d5b0001b7de87,03/07/1953,2020-07-09_16h06.48.582,proactive,2020.1.2,Win32,60,5f073de81c76c3308c0e4fb3,5f07778980f69a184b0faeeb,5,,,,,,basket,,,,,,0,46,46,50,1,6,2,,,,,,,,,,,,,,,,,,,,,,,,,,,,,,,,,,,,,,,,,,,,,,,,,,,,,,,,,,,,,,,,,,,,,,,,,,,
,,,,,,,,,,stimuli/images/PICTURE_95.png,NIGHT,5b233660648d5b0001b7de87,03/07/1953,2020-07-09_16h06.48.582,proactive,2020.1.2,Win32,60,5f073de81c76c3308c0e4fb3,5f07778980f69a184b0faeeb,5,,,,,,suitcase,,,,,,0,47,47,37,1,4,2,,,,,,,,,,,,,,,,,,,,,,,,,,,,,,,,,,,,,,,,,,,,,,,,,,,,,,,,,,,,,,,,,,,,,,,,,,,
,,,,,,,,,,stimuli/images/PICTURE_57.png,CASINO,5b233660648d5b0001b7de87,03/07/1953,2020-07-09_16h06.48.582,proactive,2020.1.2,Win32,60,5f073de81c76c3308c0e4fb3,5f07778980f69a184b0faeeb,5,,,,,,stamp,,,,,,0,48,48,12,1,2,2,,,,,,,,,,,,,,,,,,,,,,,,,,,,,,,,,,,,,,,,,,,,,,,,,,,,,,,,,,,,,,,,,,,,,,,,,,,
,,,,,,,,,,stimuli/images/PICTURE_141.png,CLIENT,5b233660648d5b0001b7de87,03/07/1953,2020-07-09_16h06.48.582,proactive,2020.1.2,Win32,60,5f073de81c76c3308c0e4fb3,5f07778980f69a184b0faeeb,5,,,,,,sunflower,,,,,,0,49,49,30,1,4,2,,,,,,,,,,,,,,,,,,,,,,,,,,,,,,,,,,,,,,,,,,,,,,,,,,,,,,,,,,,,,,,,,,,,,,,,,,,
,,,,,,,,,,stimuli/images/PICTURE_708.png,VALLEY,5b233660648d5b0001b7de87,03/07/1953,2020-07-09_16h06.48.582,proactive,2020.1.2,Win32,60,5f073de81c76c3308c0e4fb3,5f07778980f69a184b0faeeb,5,,,,,,monkey,,,,,,0,50,50,45,1,5,2,,,,,,,,,,,,,,,,,,,,,,,,,,,,,,,,,,,,,,,,,,,,,,,,,,,,,,,,,,,,,,,,,,,,,,,,,,,
,,,,,,,,,,stimuli/images/PICTURE_509.png,SHOTS,5b233660648d5b0001b7de87,03/07/1953,2020-07-09_16h06.48.582,proactive,2020.1.2,Win32,60,5f073de81c76c3308c0e4fb3,5f07778980f69a184b0faeeb,5,,,,,,telephone,,,,,,0,51,51,7,1,1,2,,,,,,,,,,,,,,,,,,,,,,,,,,,,,,,,,,,,,,,,,,,,,,,,,,,,,,,,,,,,,,,,,,,,,,,,,,,
,,,,,,,,,,stimuli/images/PICTURE_677.png,FAMILY,5b233660648d5b0001b7de87,03/07/1953,2020-07-09_16h06.48.582,proactive,2020.1.2,Win32,60,5f073de81c76c3308c0e4fb3,5f07778980f69a184b0faeeb,5,,,,,,map,,,,,,0,52,52,53,1,6,2,,,,,,,,,,,,,,,,,,,,,,,,,,,,,,,,,,,,,,,,,,,,,,,,,,,,,,,,,,,,,,,,,,,,,,,,,,,
,,,,,,,,,,stimuli/images/PICTURE_68.png,KIND,5b233660648d5b0001b7de87,03/07/1953,2020-07-09_16h06.48.582,proactive,2020.1.2,Win32,60,5f073de81c76c3308c0e4fb3,5f07778980f69a184b0faeeb,5,,,,,,candle,,,,,,0,53,53,23,1,3,2,,,,,,,,,,,,,,,,,,,,,,,,,,,,,,,,,,,,,,,,,,,,,,,,,,,,,,,,,,,,,,,,,,,,,,,,,,,
,,,,,,,,,,stimuli/images/PICTURE_504.png,HOUSE,5b233660648d5b0001b7de87,03/07/1953,2020-07-09_16h06.48.582,proactive,2020.1.2,Win32,60,5f073de81c76c3308c0e4fb3,5f07778980f69a184b0faeeb,5,,,,,,wheel,,,,,,0,54,54,36,1,4,2,,,,,,,,,,,,,,,,,,,,,,,,,,,,,,,,,,,,,,,,,,,,,,,,,,,,,,,,,,,,,,,,,,,,,,,,,,,
,,,,,,,,,,stimuli/images/PICTURE_509.png,APPLE,5b233660648d5b0001b7de87,03/07/1953,2020-07-09_16h06.48.582,proactive,2020.1.2,Win32,60,5f073de81c76c3308c0e4fb3,5f07778980f69a184b0faeeb,5,,,,,,telephone,,,,,,0,55,55,38,1,4,2,,,,,,,,,,,,,,,,,,,,,,,,,,,,,,,,,,,,,,,,,,,,,,,,,,,,,,,,,,,,,,,,,,,,,,,,,,,
,,,,,,,,,,stimuli/images/PICTURE_93.png,GIRL,5b233660648d5b0001b7de87,03/07/1953,2020-07-09_16h06.48.582,proactive,2020.1.2,Win32,60,5f073de81c76c3308c0e4fb3,5f07778980f69a184b0faeeb,5,,,,,,skateboard,,,,,,0,56,56,31,1,4,2,,,,,,,,,,,,,,,,,,,,,,,,,,,,,,,,,,,,,,,,,,,,,,,,,,,,,,,,,,,,,,,,,,,,,,,,,,,
,,,,,,,,,,stimuli/images/PICTURE_327.png,LEADER,5b233660648d5b0001b7de87,03/07/1953,2020-07-09_16h06.48.582,proactive,2020.1.2,Win32,60,5f073de81c76c3308c0e4fb3,5f07778980f69a184b0faeeb,5,,,,,,helmet,,,,,,0,57,57,17,1,2,2,,,,,,,,,,,,,,,,,,,,,,,,,,,,,,,,,,,,,,,,,,,,,,,,,,,,,,,,,,,,,,,,,,,,,,,,,,,
,,,,,,,,,,stimuli/images/PICTURE_32.png,LETTER,5b233660648d5b0001b7de87,03/07/1953,2020-07-09_16h06.48.582,proactive,2020.1.2,Win32,60,5f073de81c76c3308c0e4fb3,5f07778980f69a184b0faeeb,5,,,,,,crown,,,,,,0,58,58,56,1,6,2,,,,,,,,,,,,,,,,,,,,,,,,,,,,,,,,,,,,,,,,,,,,,,,,,,,,,,,,,,,,,,,,,,,,,,,,,,,
,,?,0.001135,0,,,,,,stimuli/images/PICTURE_509.png,APPLE,5b233660648d5b0001b7de87,03/07/1953,2020-07-09_16h06.48.582,proactive,2020.1.2,Win32,60,5f073de81c76c3308c0e4fb3,5f07778980f69a184b0faeeb,5,,,,,,telephone,,,,,,,,,,,4,2,0,0,0,38,1,,,,,,,,,,,,,,,,,,,,,,,,,,,,,,,,,,,,,,,,,,,,,,,,,,,,,,,,,,,,,,,,,,,,,,
,,?,0.001015,0,,,,,,stimuli/images/PICTURE_215.png,FOOD,5b233660648d5b0001b7de87,03/07/1953,2020-07-09_16h06.48.582,proactive,2020.1.2,Win32,60,5f073de81c76c3308c0e4fb3,5f07778980f69a184b0faeeb,5,,,,,,boot,,,,,,,,,,,1,2,0,1,1,5,1,,,,,,,,,,,,,,,,,,,,,,,,,,,,,,,,,,,,,,,,,,,,,,,,,,,,,,,,,,,,,,,,,,,,,,
,,CLOCK,15.0057,1,,,,,,stimuli/images/PICTURE_688.png,CLOCK,5b233660648d5b0001b7de87,03/07/1953,2020-07-09_16h06.48.582,proactive,2020.1.2,Win32,60,5f073de81c76c3308c0e4fb3,5f07778980f69a184b0faeeb,5,,,,,,runner,,,,,,,,,,,5,2,0,2,2,42,1,,,,,,,,,,,,,,,,,,,,,,,,,,,,,,,,,,,,,,,,,,,,,,,,,,,,,,,,,,,,,,,,,,,,,,
,,?,0.001425,0,,,,,,stimuli/images/PICTURE_285.png,PRINCE,5b233660648d5b0001b7de87,03/07/1953,2020-07-09_16h06.48.582,proactive,2020.1.2,Win32,60,5f073de81c76c3308c0e4fb3,5f07778980f69a184b0faeeb,5,,,,,,carrot,,,,,,,,,,,3,2,0,3,3,20,1,,,,,,,,,,,,,,,,,,,,,,,,,,,,,,,,,,,,,,,,,,,,,,,,,,,,,,,,,,,,,,,,,,,,,,
,,?,0.001295,0,,,,,,stimuli/images/PICTURE_311.png,TOILET,5b233660648d5b0001b7de87,03/07/1953,2020-07-09_16h06.48.582,proactive,2020.1.2,Win32,60,5f073de81c76c3308c0e4fb3,5f07778980f69a184b0faeeb,5,,,,,,razor,,,,,,,,,,,6,2,0,4,4,54,1,,,,,,,,,,,,,,,,,,,,,,,,,,,,,,,,,,,,,,,,,,,,,,,,,,,,,,,,,,,,,,,,,,,,,,
,,?,0.00113,0,,,,,,stimuli/images/PICTURE_208.png,SPIRIT,5b233660648d5b0001b7de87,03/07/1953,2020-07-09_16h06.48.582,proactive,2020.1.2,Win32,60,5f073de81c76c3308c0e4fb3,5f07778980f69a184b0faeeb,5,,,,,,microphone,,,,,,,,,,,3,2,0,5,5,28,1,,,,,,,,,,,,,,,,,,,,,,,,,,,,,,,,,,,,,,,,,,,,,,,,,,,,,,,,,,,,,,,,,,,,,,
,,?,0.00104,0,,,,,,stimuli/images/PICTURE_348.png,TOILET,5b233660648d5b0001b7de87,03/07/1953,2020-07-09_16h06.48.582,proactive,2020.1.2,Win32,60,5f073de81c76c3308c0e4fb3,5f07778980f69a184b0faeeb,5,,,,,,pepper,,,,,,,,,,,1,2,0,6,6,4,1,,,,,,,,,,,,,,,,,,,,,,,,,,,,,,,,,,,,,,,,,,,,,,,,,,,,,,,,,,,,,,,,,,,,,,
,,?,0.000985,0,,,,,,stimuli/images/PICTURE_215.png,BOYS,5b233660648d5b0001b7de87,03/07/1953,2020-07-09_16h06.48.582,proactive,2020.1.2,Win32,60,5f073de81c76c3308c0e4fb3,5f07778980f69a184b0faeeb,5,,,,,,boot,,,,,,,,,,,3,2,0,7,7,24,1,,,,,,,,,,,,,,,,,,,,,,,,,,,,,,,,,,,,,,,,,,,,,,,,,,,,,,,,,,,,,,,,,,,,,,
,,?,0.00102,0,,,,,,stimuli/images/PICTURE_509.png,BATH,5b233660648d5b0001b7de87,03/07/1953,2020-07-09_16h06.48.582,proactive,2020.1.2,Win32,60,5f073de81c76c3308c0e4fb3,5f07778980f69a184b0faeeb,5,,,,,,telephone,,,,,,,,,,,2,2,0,8,8,15,1,,,,,,,,,,,,,,,,,,,,,,,,,,,,,,,,,,,,,,,,,,,,,,,,,,,,,,,,,,,,,,,,,,,,,,
,,?,0.00154,0,,,,,,stimuli/images/PICTURE_667.png,GLASS,5b233660648d5b0001b7de87,03/07/1953,2020-07-09_16h06.48.582,proactive,2020.1.2,Win32,60,5f073de81c76c3308c0e4fb3,5f07778980f69a184b0faeeb,5,,,,,,daisy,,,,,,,,,,,3,2,0,9,9,27,1,,,,,,,,,,,,,,,,,,,,,,,,,,,,,,,,,,,,,,,,,,,,,,,,,,,,,,,,,,,,,,,,,,,,,,
,,DUDE,15.013455,1,,,,,,stimuli/images/PICTURE_692.png,DUDE,5b233660648d5b0001b7de87,03/07/1953,2020-07-09_16h06.48.582,proactive,2020.1.2,Win32,60,5f073de81c76c3308c0e4fb3,5f07778980f69a184b0faeeb,5,,,,,,cherry,,,,,,,,,,,5,2,0,10,10,47,1,,,,,,,,,,,,,,,,,,,,,,,,,,,,,,,,,,,,,,,,,,,,,,,,,,,,,,,,,,,,,,,,,,,,,,
,,?,0.001395,0,,,,,,stimuli/images/PICTURE_677.png,FAMILY,5b233660648d5b0001b7de87,03/07/1953,2020-07-09_16h06.48.582,proactive,2020.1.2,Win32,60,5f073de81c76c3308c0e4fb3,5f07778980f69a184b0faeeb,5,,,,,,map,,,,,,,,,,,6,2,0,11,11,53,1,,,,,,,,,,,,,,,,,,,,,,,,,,,,,,,,,,,,,,,,,,,,,,,,,,,,,,,,,,,,,,,,,,,,,,
,,?,0.00148,0,,,,,,stimuli/images/PICTURE_177.png,HOUSE,5b233660648d5b0001b7de87,03/07/1953,2020-07-09_16h06.48.582,proactive,2020.1.2,Win32,60,5f073de81c76c3308c0e4fb3,5f07778980f69a184b0faeeb,5,,,,,,mushroom,,,,,,,,,,,3,2,0,12,12,25,1,,,,,,,,,,,,,,,,,,,,,,,,,,,,,,,,,,,,,,,,,,,,,,,,,,,,,,,,,,,,,,,,,,,,,,
,,?,0.002105,0,,,,,,stimuli/images/PICTURE_405.png,JUNGLE,5b233660648d5b0001b7de87,03/07/1953,2020-07-09_16h06.48.582,proactive,2020.1.2,Win32,60,5f073de81c76c3308c0e4fb3,5f07778980f69a184b0faeeb,5,,,,,,anchor,,,,,,,,,,,6,2,0,13,13,58,1,,,,,,,,,,,,,,,,,,,,,,,,,,,,,,,,,,,,,,,,,,,,,,,,,,,,,,,,,,,,,,,,,,,,,,
,,?,0.00109,0,,,,,,stimuli/images/PICTURE_405.png,JUNGLE,5b233660648d5b0001b7de87,03/07/1953,2020-07-09_16h06.48.582,proactive,2020.1.2,Win32,60,5f073de81c76c3308c0e4fb3,5f07778980f69a184b0faeeb,5,,,,,,anchor,,,,,,,,,,,2,2,0,14,14,13,1,,,,,,,,,,,,,,,,,,,,,,,,,,,,,,,,,,,,,,,,,,,,,,,,,,,,,,,,,,,,,,,,,,,,,,
,,?,0.001335,0,,,,,,stimuli/images/PICTURE_452.png,COPS,5b233660648d5b0001b7de87,03/07/1953,2020-07-09_16h06.48.582,proactive,2020.1.2,Win32,60,5f073de81c76c3308c0e4fb3,5f07778980f69a184b0faeeb,5,,,,,,watch,,,,,,,,,,,1,2,0,15,15,0,1,,,,,,,,,,,,,,,,,,,,,,,,,,,,,,,,,,,,,,,,,,,,,,,,,,,,,,,,,,,,,,,,,,,,,,
,,?,0.00127,0,,,,,,stimuli/images/PICTURE_32.png,LETTER,5b233660648d5b0001b7de87,03/07/1953,2020-07-09_16h06.48.582,proactive,2020.1.2,Win32,60,5f073de81c76c3308c0e4fb3,5f07778980f69a184b0faeeb,5,,,,,,crown,,,,,,,,,,,6,2,0,16,16,56,1,,,,,,,,,,,,,,,,,,,,,,,,,,,,,,,,,,,,,,,,,,,,,,,,,,,,,,,,,,,,,,,,,,,,,,
