consent_key.keys,consent_key.rt,recalled,recalled_rt,recall_acc,example_recall.thisRepN,example_recall.thisTrialN,example_recall.thisN,example_recall.thisIndex,example_recall.ran,file,word,participant,please enter your date of birth (dd/mm/yyyy),date,expName,psychopyVersion,OS,frameRate,STUDY_ID,SESSION_ID,list,prac_learn_study_loop.thisRepN,prac_learn_study_loop.thisTrialN,prac_learn_study_loop.thisN,prac_learn_study_loop.thisIndex,prac_learn_study_loop.ran,image,prac_learn_test_loop.thisRepN,prac_learn_test_loop.thisTrialN,prac_learn_test_loop.thisN,prac_learn_test_loop.thisIndex,prac_learn_test_loop.ran,learn_study_loop.thisRepN,learn_study_loop.thisTrialN,learn_study_loop.thisN,learn_study_loop.thisIndex,learn_study_loop.ran,list_no,block_no,learn_test_loop.thisRepN,learn_test_loop.thisTrialN,learn_test_loop.thisN,learn_test_loop.thisIndex,learn_test_loop.ran,learn_blocks.thisRepN,learn_blocks.thisTrialN,learn_blocks.thisN,learn_blocks.thisIndex,learn_blocks.ran,block_csv,key_resp_13.keys,key_resp_13.rt,learn_blocks_loop.thisRepN,learn_blocks_loop.thisTrialN,learn_blocks_loop.thisN,learn_blocks_loop.thisIndex,learn_blocks_loop.ran,final_learn_test.thisRepN,final_learn_test.thisTrialN,final_learn_test.thisN,final_learn_test.thisIndex,final_learn_test.ran,prac_wm_test_loop.thisRepN,prac_wm_test_loop.thisTrialN,prac_wm_test_loop.thisN,prac_wm_test_loop.thisIndex,prac_wm_test_loop.ran,wm_recalled1,wm_recall_rt1,wm_probed1,wm_recall_acc1,wm_recalled2,wm_recall_rt2,wm_probed2,wm_recall_acc2,wm_recalled3,wm_recall_rt3,wm_probed3,wm_recall_acc3,wm_recalled4,wm_recall_rt4,wm_probed4,wm_recall_acc4,prac_wm_trial_loop.thisRepN,prac_wm_trial_loop.thisTrialN,prac_wm_trial_loop.thisN,prac_wm_trial_loop.thisIndex,prac_wm_trial_loop.ran,word1,image1,file1,item_type1,word2,image2,file2,item_type2,word4,image4,file4,item_type4,word3,image3,file3,item_type3,wm_test_loop.thisRepN,wm_test_loop.thisTrialN,wm_test_loop.thisN,wm_test_loop.thisIndex,wm_test_loop.ran,wm_trial_loop.thisRepN,wm_trial_loop.thisTrialN,wm_trial_loop.thisN,wm_trial_loop.thisIndex,wm_trial_loop.ran
y,14.900935,TUB,15.00833,0,0,0,0,0,1,stimuli/images/PICTURE_747.png,TOUGH,5b79bd77c4e6ad0001d2f312,11/15/1946,2020-07-09_13h10.47.890,proactive,2020.1.2,Win32,60,5f073de81c76c3308c0e4fb3,5f0779933f66b438105f560a,6,,,,,,,,,,,,,,,,,,,,,,,,,,,,,,,,,,,,,,,,,,,,,,,,,,,,,,,,,,,,,,,,,,,,,,,,,,,,,,,,,,,,,,,,,,,,,
,,,,,,,,,,stimuli/images/PICTURE_727.png,CELL,5b79bd77c4e6ad0001d2f312,11/15/1946,2020-07-09_13h10.47.890,proactive,2020.1.2,Win32,60,5f073de81c76c3308c0e4fb3,5f0779933f66b438105f560a,6,0,0,0,1,1,hose,,,,,,,,,,,,,,,,,,,,,,,,,,,,,,,,,,,,,,,,,,,,,,,,,,,,,,,,,,,,,,,,,,,,,,,,,,,,,,,,,,,,,,,
,,,,,,,,,,stimuli/images/PICTURE_269.png,GENIUS,5b79bd77c4e6ad0001d2f312,11/15/1946,2020-07-09_13h10.47.890,proactive,2020.1.2,Win32,60,5f073de81c76c3308c0e4fb3,5f0779933f66b438105f560a,6,0,1,1,0,1,chameleon,,,,,,,,,,,,,,,,,,,,,,,,,,,,,,,,,,,,,,,,,,,,,,,,,,,,,,,,,,,,,,,,,,,,,,,,,,,,,,,,,,,,,,,
,,,,,,,,,,stimuli/images/PICTURE_378.png,LOSS,5b79bd77c4e6ad0001d2f312,11/15/1946,2020-07-09_13h10.47.890,proactive,2020.1.2,Win32,60,5f073de81c76c3308c0e4fb3,5f0779933f66b438105f560a,6,0,2,2,2,1,lobster,,,,,,,,,,,,,,,,,,,,,,,,,,,,,,,,,,,,,,,,,,,,,,,,,,,,,,,,,,,,,,,,,,,,,,,,,,,,,,,,,,,,,,,
,,,,,,,,,,stimuli/images/PICTURE_697.png,KILLER,5b79bd77c4e6ad0001d2f312,11/15/1946,2020-07-09_13h10.47.890,proactive,2020.1.2,Win32,60,5f073de81c76c3308c0e4fb3,5f0779933f66b438105f560a,6,0,3,3,4,1,peach,,,,,,,,,,,,,,,,,,,,,,,,,,,,,,,,,,,,,,,,,,,,,,,,,,,,,,,,,,,,,,,,,,,,,,,,,,,,,,,,,,,,,,,
,,DEVIL,15.017715,1,,,,,,stimuli/images/PICTURE_658.png,DEVIL,5b79bd77c4e6ad0001d2f312,11/15/1946,2020-07-09_13h10.47.890,proactive,2020.1.2,Win32,60,5f073de81c76c3308c0e4fb3,5f0779933f66b438105f560a,6,,,,,,crow,0,0,0,3,1,,,,,,,,,,,,,,,,,,,,,,,,,,,,,,,,,,,,,,,,,,,,,,,,,,,,,,,,,,,,,,,,,,,,,,,,,,,,,,,,,,
,,LOSS,15.01407,1,,,,,,stimuli/images/PICTURE_378.png,LOSS,5b79bd77c4e6ad0001d2f312,11/15/1946,2020-07-09_13h10.47.890,proactive,2020.1.2,Win32,60,5f073de81c76c3308c0e4fb3,5f0779933f66b438105f560a,6,,,,,,lobster,0,1,1,2,1,,,,,,,,,,,,,,,,,,,,,,,,,,,,,,,,,,,,,,,,,,,,,,,,,,,,,,,,,,,,,,,,,,,,,,,,,,,,,,,,,,
,,KILLER,15.01934,1,,,,,,stimuli/images/PICTURE_697.png,KILLER,5b79bd77c4e6ad0001d2f312,11/15/1946,2020-07-09_13h10.47.890,proactive,2020.1.2,Win32,60,5f073de81c76c3308c0e4fb3,5f0779933f66b438105f560a,6,,,,,,peach,0,2,2,4,1,,,,,,,,,,,,,,,,,,,,,,,,,,,,,,,,,,,,,,,,,,,,,,,,,,,,,,,,,,,,,,,,,,,,,,,,,,,,,,,,,,
,,GENIUS,15.01805,1,,,,,,stimuli/images/PICTURE_269.png,GENIUS,5b79bd77c4e6ad0001d2f312,11/15/1946,2020-07-09_13h10.47.890,proactive,2020.1.2,Win32,60,5f073de81c76c3308c0e4fb3,5f0779933f66b438105f560a,6,,,,,,chameleon,0,3,3,0,1,,,,,,,,,,,,,,,,,,,,,,,,,,,,,,,,,,,,,,,,,,,,,,,,,,,,,,,,,,,,,,,,,,,,,,,,,,,,,,,,,,
,,CELL,15.016915,1,,,,,,stimuli/images/PICTURE_727.png,CELL,5b79bd77c4e6ad0001d2f312,11/15/1946,2020-07-09_13h10.47.890,proactive,2020.1.2,Win32,60,5f073de81c76c3308c0e4fb3,5f0779933f66b438105f560a,6,,,,,,hose,0,4,4,1,1,,,,,,,,,,,,,,,,,,,,,,,,,,,,,,,,,,,,,,,,,,,,,,,,,,,,,,,,,,,,,,,,,,,,,,,,,,,,,,,,,,
,,,,,,,,,,stimuli/images/PICTURE_68.png,ROOF,5b79bd77c4e6ad0001d2f312,11/15/1946,2020-07-09_13h10.47.890,proactive,2020.1.2,Win32,60,5f073de81c76c3308c0e4fb3,5f0779933f66b438105f560a,6,,,,,,candle,,,,,,0,0,0,38,1,4,1,,,,,,,,,,,,,,,,,,,,,,,,,,,,,,,,,,,,,,,,,,,,,,,,,,,,,,,,,,,,,,,,,,,,,,,,,,,
,,,,,,,,,,stimuli/images/PICTURE_296.png,LOTS,5b79bd77c4e6ad0001d2f312,11/15/1946,2020-07-09_13h10.47.890,proactive,2020.1.2,Win32,60,5f073de81c76c3308c0e4fb3,5f0779933f66b438105f560a,6,,,,,,bolt,,,,,,0,1,1,9,1,1,1,,,,,,,,,,,,,,,,,,,,,,,,,,,,,,,,,,,,,,,,,,,,,,,,,,,,,,,,,,,,,,,,,,,,,,,,,,,
,,,,,,,,,,stimuli/images/PICTURE_203.png,GODS,5b79bd77c4e6ad0001d2f312,11/15/1946,2020-07-09_13h10.47.890,proactive,2020.1.2,Win32,60,5f073de81c76c3308c0e4fb3,5f0779933f66b438105f560a,6,,,,,,cap,,,,,,0,2,2,30,1,4,1,,,,,,,,,,,,,,,,,,,,,,,,,,,,,,,,,,,,,,,,,,,,,,,,,,,,,,,,,,,,,,,,,,,,,,,,,,,
,,,,,,,,,,stimuli/images/PICTURE_675.png,SALE,5b79bd77c4e6ad0001d2f312,11/15/1946,2020-07-09_13h10.47.890,proactive,2020.1.2,Win32,60,5f073de81c76c3308c0e4fb3,5f0779933f66b438105f560a,6,,,,,,windmill,,,,,,0,3,3,47,1,5,1,,,,,,,,,,,,,,,,,,,,,,,,,,,,,,,,,,,,,,,,,,,,,,,,,,,,,,,,,,,,,,,,,,,,,,,,,,,
,,,,,,,,,,stimuli/images/PICTURE_308.png,FAMILY,5b79bd77c4e6ad0001d2f312,11/15/1946,2020-07-09_13h10.47.890,proactive,2020.1.2,Win32,60,5f073de81c76c3308c0e4fb3,5f0779933f66b438105f560a,6,,,,,,dice,,,,,,0,4,4,36,1,4,1,,,,,,,,,,,,,,,,,,,,,,,,,,,,,,,,,,,,,,,,,,,,,,,,,,,,,,,,,,,,,,,,,,,,,,,,,,,
,,,,,,,,,,stimuli/images/PICTURE_449.png,DUDE,5b79bd77c4e6ad0001d2f312,11/15/1946,2020-07-09_13h10.47.890,proactive,2020.1.2,Win32,60,5f073de81c76c3308c0e4fb3,5f0779933f66b438105f560a,6,,,,,,bench,,,,,,0,5,5,17,1,2,1,,,,,,,,,,,,,,,,,,,,,,,,,,,,,,,,,,,,,,,,,,,,,,,,,,,,,,,,,,,,,,,,,,,,,,,,,,,
,,,,,,,,,,stimuli/images/PICTURE_42.png,BOYS,5b79bd77c4e6ad0001d2f312,11/15/1946,2020-07-09_13h10.47.890,proactive,2020.1.2,Win32,60,5f073de81c76c3308c0e4fb3,5f0779933f66b438105f560a,6,,,,,,pear,,,,,,0,6,6,55,1,6,1,,,,,,,,,,,,,,,,,,,,,,,,,,,,,,,,,,,,,,,,,,,,,,,,,,,,,,,,,,,,,,,,,,,,,,,,,,,
,,,,,,,,,,stimuli/images/PICTURE_95.png,HONEY,5b79bd77c4e6ad0001d2f312,11/15/1946,2020-07-09_13h10.47.890,proactive,2020.1.2,Win32,60,5f073de81c76c3308c0e4fb3,5f0779933f66b438105f560a,6,,,,,,suitcase,,,,,,0,7,7,44,1,5,1,,,,,,,,,,,,,,,,,,,,,,,,,,,,,,,,,,,,,,,,,,,,,,,,,,,,,,,,,,,,,,,,,,,,,,,,,,,
,,,,,,,,,,stimuli/images/PICTURE_57.png,MOMENT,5b79bd77c4e6ad0001d2f312,11/15/1946,2020-07-09_13h10.47.890,proactive,2020.1.2,Win32,60,5f073de81c76c3308c0e4fb3,5f0779933f66b438105f560a,6,,,,,,stamp,,,,,,0,8,8,37,1,4,1,,,,,,,,,,,,,,,,,,,,,,,,,,,,,,,,,,,,,,,,,,,,,,,,,,,,,,,,,,,,,,,,,,,,,,,,,,,
,,,,,,,,,,stimuli/images/PICTURE_147.png,WOMEN,5b79bd77c4e6ad0001d2f312,11/15/1946,2020-07-09_13h10.47.890,proactive,2020.1.2,Win32,60,5f073de81c76c3308c0e4fb3,5f0779933f66b438105f560a,6,,,,,,hanger,,,,,,0,9,9,7,1,1,1,,,,,,,,,,,,,,,,,,,,,,,,,,,,,,,,,,,,,,,,,,,,,,,,,,,,,,,,,,,,,,,,,,,,,,,,,,,
,,,,,,,,,,stimuli/images/PICTURE_469.png,AGENT,5b79bd77c4e6ad0001d2f312,11/15/1946,2020-07-09_13h10.47.890,proactive,2020.1.2,Win32,60,5f073de81c76c3308c0e4fb3,5f0779933f66b438105f560a,6,,,,,,stool,,,,,,0,10,10,16,1,2,1,,,,,,,,,,,,,,,,,,,,,,,,,,,,,,,,,,,,,,,,,,,,,,,,,,,,,,,,,,,,,,,,,,,,,,,,,,,
,,,,,,,,,,stimuli/images/PICTURE_403.png,WRITER,5b79bd77c4e6ad0001d2f312,11/15/1946,2020-07-09_13h10.47.890,proactive,2020.1.2,Win32,60,5f073de81c76c3308c0e4fb3,5f0779933f66b438105f560a,6,,,,,,cathedral,,,,,,0,11,11,31,1,4,1,,,,,,,,,,,,,,,,,,,,,,,,,,,,,,,,,,,,,,,,,,,,,,,,,,,,,,,,,,,,,,,,,,,,,,,,,,,
,,,,,,,,,,stimuli/images/PICTURE_233.png,LOTS,5b79bd77c4e6ad0001d2f312,11/15/1946,2020-07-09_13h10.47.890,proactive,2020.1.2,Win32,60,5f073de81c76c3308c0e4fb3,5f0779933f66b438105f560a,6,,,,,,salt,,,,,,0,12,12,42,1,5,1,,,,,,,,,,,,,,,,,,,,,,,,,,,,,,,,,,,,,,,,,,,,,,,,,,,,,,,,,,,,,,,,,,,,,,,,,,,
,,,,,,,,,,stimuli/images/PICTURE_203.png,NIGHT,5b79bd77c4e6ad0001d2f312,11/15/1946,2020-07-09_13h10.47.890,proactive,2020.1.2,Win32,60,5f073de81c76c3308c0e4fb3,5f0779933f66b438105f560a,6,,,,,,cap,,,,,,0,13,13,2,1,1,1,,,,,,,,,,,,,,,,,,,,,,,,,,,,,,,,,,,,,,,,,,,,,,,,,,,,,,,,,,,,,,,,,,,,,,,,,,,
,,,,,,,,,,stimuli/images/PICTURE_383.png,SERIES,5b79bd77c4e6ad0001d2f312,11/15/1946,2020-07-09_13h10.47.890,proactive,2020.1.2,Win32,60,5f073de81c76c3308c0e4fb3,5f0779933f66b438105f560a,6,,,,,,coin,,,,,,0,14,14,46,1,5,1,,,,,,,,,,,,,,,,,,,,,,,,,,,,,,,,,,,,,,,,,,,,,,,,,,,,,,,,,,,,,,,,,,,,,,,,,,,
,,,,,,,,,,stimuli/images/PICTURE_403.png,RIVER,5b79bd77c4e6ad0001d2f312,11/15/1946,2020-07-09_13h10.47.890,proactive,2020.1.2,Win32,60,5f073de81c76c3308c0e4fb3,5f0779933f66b438105f560a,6,,,,,,cathedral,,,,,,0,15,15,40,1,5,1,,,,,,,,,,,,,,,,,,,,,,,,,,,,,,,,,,,,,,,,,,,,,,,,,,,,,,,,,,,,,,,,,,,,,,,,,,,
,,,,,,,,,,stimuli/images/PICTURE_108.png,POLICY,5b79bd77c4e6ad0001d2f312,11/15/1946,2020-07-09_13h10.47.890,proactive,2020.1.2,Win32,60,5f073de81c76c3308c0e4fb3,5f0779933f66b438105f560a,6,,,,,,calendar,,,,,,0,16,16,22,1,3,1,,,,,,,,,,,,,,,,,,,,,,,,,,,,,,,,,,,,,,,,,,,,,,,,,,,,,,,,,,,,,,,,,,,,,,,,,,,
,,,,,,,,,,stimuli/images/PICTURE_95.png,MILLER,5b79bd77c4e6ad0001d2f312,11/15/1946,2020-07-09_13h10.47.890,proactive,2020.1.2,Win32,60,5f073de81c76c3308c0e4fb3,5f0779933f66b438105f560a,6,,,,,,suitcase,,,,,,0,17,17,56,1,6,1,,,,,,,,,,,,,,,,,,,,,,,,,,,,,,,,,,,,,,,,,,,,,,,,,,,,,,,,,,,,,,,,,,,,,,,,,,,
,,,,,,,,,,stimuli/images/PICTURE_85.png,NATION,5b79bd77c4e6ad0001d2f312,11/15/1946,2020-07-09_13h10.47.890,proactive,2020.1.2,Win32,60,5f073de81c76c3308c0e4fb3,5f0779933f66b438105f560a,6,,,,,,diamond,,,,,,0,18,18,5,1,1,1,,,,,,,,,,,,,,,,,,,,,,,,,,,,,,,,,,,,,,,,,,,,,,,,,,,,,,,,,,,,,,,,,,,,,,,,,,,
,,,,,,,,,,stimuli/images/PICTURE_504.png,ARTIST,5b79bd77c4e6ad0001d2f312,11/15/1946,2020-07-09_13h10.47.890,proactive,2020.1.2,Win32,60,5f073de81c76c3308c0e4fb3,5f0779933f66b438105f560a,6,,,,,,wheel,,,,,,0,19,19,49,1,5,1,,,,,,,,,,,,,,,,,,,,,,,,,,,,,,,,,,,,,,,,,,,,,,,,,,,,,,,,,,,,,,,,,,,,,,,,,,,
,,,,,,,,,,stimuli/images/PICTURE_405.png,PLENTY,5b79bd77c4e6ad0001d2f312,11/15/1946,2020-07-09_13h10.47.890,proactive,2020.1.2,Win32,60,5f073de81c76c3308c0e4fb3,5f0779933f66b438105f560a,6,,,,,,anchor,,,,,,0,20,20,23,1,3,1,,,,,,,,,,,,,,,,,,,,,,,,,,,,,,,,,,,,,,,,,,,,,,,,,,,,,,,,,,,,,,,,,,,,,,,,,,,
,,,,,,,,,,stimuli/images/PICTURE_108.png,FLIGHT,5b79bd77c4e6ad0001d2f312,11/15/1946,2020-07-09_13h10.47.890,proactive,2020.1.2,Win32,60,5f073de81c76c3308c0e4fb3,5f0779933f66b438105f560a,6,,,,,,calendar,,,,,,0,21,21,59,1,6,1,,,,,,,,,,,,,,,,,,,,,,,,,,,,,,,,,,,,,,,,,,,,,,,,,,,,,,,,,,,,,,,,,,,,,,,,,,,
,,,,,,,,,,stimuli/images/PICTURE_177.png,WRITER,5b79bd77c4e6ad0001d2f312,11/15/1946,2020-07-09_13h10.47.890,proactive,2020.1.2,Win32,60,5f073de81c76c3308c0e4fb3,5f0779933f66b438105f560a,6,,,,,,mushroom,,,,,,0,22,22,41,1,5,1,,,,,,,,,,,,,,,,,,,,,,,,,,,,,,,,,,,,,,,,,,,,,,,,,,,,,,,,,,,,,,,,,,,,,,,,,,,
,,,,,,,,,,stimuli/images/PICTURE_32.png,PILLS,5b79bd77c4e6ad0001d2f312,11/15/1946,2020-07-09_13h10.47.890,proactive,2020.1.2,Win32,60,5f073de81c76c3308c0e4fb3,5f0779933f66b438105f560a,6,,,,,,crown,,,,,,0,23,23,18,1,2,1,,,,,,,,,,,,,,,,,,,,,,,,,,,,,,,,,,,,,,,,,,,,,,,,,,,,,,,,,,,,,,,,,,,,,,,,,,,
,,,,,,,,,,stimuli/images/PICTURE_667.png,RIVER,5b79bd77c4e6ad0001d2f312,11/15/1946,2020-07-09_13h10.47.890,proactive,2020.1.2,Win32,60,5f073de81c76c3308c0e4fb3,5f0779933f66b438105f560a,6,,,,,,daisy,,,,,,0,24,24,10,1,2,1,,,,,,,,,,,,,,,,,,,,,,,,,,,,,,,,,,,,,,,,,,,,,,,,,,,,,,,,,,,,,,,,,,,,,,,,,,,
,,,,,,,,,,stimuli/images/PICTURE_32.png,KIND,5b79bd77c4e6ad0001d2f312,11/15/1946,2020-07-09_13h10.47.890,proactive,2020.1.2,Win32,60,5f073de81c76c3308c0e4fb3,5f0779933f66b438105f560a,6,,,,,,crown,,,,,,0,25,25,35,1,4,1,,,,,,,,,,,,,,,,,,,,,,,,,,,,,,,,,,,,,,,,,,,,,,,,,,,,,,,,,,,,,,,,,,,,,,,,,,,
,,,,,,,,,,stimuli/images/PICTURE_340.png,LETTER,5b79bd77c4e6ad0001d2f312,11/15/1946,2020-07-09_13h10.47.890,proactive,2020.1.2,Win32,60,5f073de81c76c3308c0e4fb3,5f0779933f66b438105f560a,6,,,,,,mirror,,,,,,0,26,26,24,1,3,1,,,,,,,,,,,,,,,,,,,,,,,,,,,,,,,,,,,,,,,,,,,,,,,,,,,,,,,,,,,,,,,,,,,,,,,,,,,
,,,,,,,,,,stimuli/images/PICTURE_708.png,RECORD,5b79bd77c4e6ad0001d2f312,11/15/1946,2020-07-09_13h10.47.890,proactive,2020.1.2,Win32,60,5f073de81c76c3308c0e4fb3,5f0779933f66b438105f560a,6,,,,,,monkey,,,,,,0,27,27,58,1,6,1,,,,,,,,,,,,,,,,,,,,,,,,,,,,,,,,,,,,,,,,,,,,,,,,,,,,,,,,,,,,,,,,,,,,,,,,,,,
,,,,,,,,,,stimuli/images/PICTURE_33.png,FRIEND,5b79bd77c4e6ad0001d2f312,11/15/1946,2020-07-09_13h10.47.890,proactive,2020.1.2,Win32,60,5f073de81c76c3308c0e4fb3,5f0779933f66b438105f560a,6,,,,,,frame,,,,,,0,28,28,8,1,1,1,,,,,,,,,,,,,,,,,,,,,,,,,,,,,,,,,,,,,,,,,,,,,,,,,,,,,,,,,,,,,,,,,,,,,,,,,,,
,,,,,,,,,,stimuli/images/PICTURE_654.png,MONTH,5b79bd77c4e6ad0001d2f312,11/15/1946,2020-07-09_13h10.47.890,proactive,2020.1.2,Win32,60,5f073de81c76c3308c0e4fb3,5f0779933f66b438105f560a,6,,,,,,pencil,,,,,,0,29,29,29,1,3,1,,,,,,,,,,,,,,,,,,,,,,,,,,,,,,,,,,,,,,,,,,,,,,,,,,,,,,,,,,,,,,,,,,,,,,,,,,,
,,,,,,,,,,stimuli/images/PICTURE_296.png,LIFE,5b79bd77c4e6ad0001d2f312,11/15/1946,2020-07-09_13h10.47.890,proactive,2020.1.2,Win32,60,5f073de81c76c3308c0e4fb3,5f0779933f66b438105f560a,6,,,,,,bolt,,,,,,0,30,30,57,1,6,1,,,,,,,,,,,,,,,,,,,,,,,,,,,,,,,,,,,,,,,,,,,,,,,,,,,,,,,,,,,,,,,,,,,,,,,,,,,
,,,,,,,,,,stimuli/images/PICTURE_147.png,YEAR,5b79bd77c4e6ad0001d2f312,11/15/1946,2020-07-09_13h10.47.890,proactive,2020.1.2,Win32,60,5f073de81c76c3308c0e4fb3,5f0779933f66b438105f560a,6,,,,,,hanger,,,,,,0,31,31,21,1,3,1,,,,,,,,,,,,,,,,,,,,,,,,,,,,,,,,,,,,,,,,,,,,,,,,,,,,,,,,,,,,,,,,,,,,,,,,,,,
,,,,,,,,,,stimuli/images/PICTURE_467.png,POLICY,5b79bd77c4e6ad0001d2f312,11/15/1946,2020-07-09_13h10.47.890,proactive,2020.1.2,Win32,60,5f073de81c76c3308c0e4fb3,5f0779933f66b438105f560a,6,,,,,,peg,,,,,,0,32,32,53,1,6,1,,,,,,,,,,,,,,,,,,,,,,,,,,,,,,,,,,,,,,,,,,,,,,,,,,,,,,,,,,,,,,,,,,,,,,,,,,,
,,,,,,,,,,stimuli/images/PICTURE_327.png,SERIES,5b79bd77c4e6ad0001d2f312,11/15/1946,2020-07-09_13h10.47.890,proactive,2020.1.2,Win32,60,5f073de81c76c3308c0e4fb3,5f0779933f66b438105f560a,6,,,,,,helmet,,,,,,0,33,33,3,1,1,1,,,,,,,,,,,,,,,,,,,,,,,,,,,,,,,,,,,,,,,,,,,,,,,,,,,,,,,,,,,,,,,,,,,,,,,,,,,
,,,,,,,,,,stimuli/images/PICTURE_285.png,LIFE,5b79bd77c4e6ad0001d2f312,11/15/1946,2020-07-09_13h10.47.890,proactive,2020.1.2,Win32,60,5f073de81c76c3308c0e4fb3,5f0779933f66b438105f560a,6,,,,,,carrot,,,,,,0,34,34,33,1,4,1,,,,,,,,,,,,,,,,,,,,,,,,,,,,,,,,,,,,,,,,,,,,,,,,,,,,,,,,,,,,,,,,,,,,,,,,,,,
,,,,,,,,,,stimuli/images/PICTURE_340.png,VALLEY,5b79bd77c4e6ad0001d2f312,11/15/1946,2020-07-09_13h10.47.890,proactive,2020.1.2,Win32,60,5f073de81c76c3308c0e4fb3,5f0779933f66b438105f560a,6,,,,,,mirror,,,,,,0,35,35,54,1,6,1,,,,,,,,,,,,,,,,,,,,,,,,,,,,,,,,,,,,,,,,,,,,,,,,,,,,,,,,,,,,,,,,,,,,,,,,,,,
,,,,,,,,,,stimuli/images/PICTURE_504.png,YEAR,5b79bd77c4e6ad0001d2f312,11/15/1946,2020-07-09_13h10.47.890,proactive,2020.1.2,Win32,60,5f073de81c76c3308c0e4fb3,5f0779933f66b438105f560a,6,,,,,,wheel,,,,,,0,36,36,13,1,2,1,,,,,,,,,,,,,,,,,,,,,,,,,,,,,,,,,,,,,,,,,,,,,,,,,,,,,,,,,,,,,,,,,,,,,,,,,,,
,,,,,,,,,,stimuli/images/PICTURE_327.png,CASINO,5b79bd77c4e6ad0001d2f312,11/15/1946,2020-07-09_13h10.47.890,proactive,2020.1.2,Win32,60,5f073de81c76c3308c0e4fb3,5f0779933f66b438105f560a,6,,,,,,helmet,,,,,,0,37,37,20,1,3,1,,,,,,,,,,,,,,,,,,,,,,,,,,,,,,,,,,,,,,,,,,,,,,,,,,,,,,,,,,,,,,,,,,,,,,,,,,,
,,,,,,,,,,stimuli/images/PICTURE_405.png,YEAR,5b79bd77c4e6ad0001d2f312,11/15/1946,2020-07-09_13h10.47.890,proactive,2020.1.2,Win32,60,5f073de81c76c3308c0e4fb3,5f0779933f66b438105f560a,6,,,,,,anchor,,,,,,0,38,38,34,1,4,1,,,,,,,,,,,,,,,,,,,,,,,,,,,,,,,,,,,,,,,,,,,,,,,,,,,,,,,,,,,,,,,,,,,,,,,,,,,
,,,,,,,,,,stimuli/images/PICTURE_383.png,WRITER,5b79bd77c4e6ad0001d2f312,11/15/1946,2020-07-09_13h10.47.890,proactive,2020.1.2,Win32,60,5f073de81c76c3308c0e4fb3,5f0779933f66b438105f560a,6,,,,,,coin,,,,,,0,39,39,28,1,3,1,,,,,,,,,,,,,,,,,,,,,,,,,,,,,,,,,,,,,,,,,,,,,,,,,,,,,,,,,,,,,,,,,,,,,,,,,,,
,,,,,,,,,,stimuli/images/PICTURE_68.png,MILE,5b79bd77c4e6ad0001d2f312,11/15/1946,2020-07-09_13h10.47.890,proactive,2020.1.2,Win32,60,5f073de81c76c3308c0e4fb3,5f0779933f66b438105f560a,6,,,,,,candle,,,,,,0,40,40,51,1,6,1,,,,,,,,,,,,,,,,,,,,,,,,,,,,,,,,,,,,,,,,,,,,,,,,,,,,,,,,,,,,,,,,,,,,,,,,,,,
,,,,,,,,,,stimuli/images/PICTURE_677.png,APPLE,5b79bd77c4e6ad0001d2f312,11/15/1946,2020-07-09_13h10.47.890,proactive,2020.1.2,Win32,60,5f073de81c76c3308c0e4fb3,5f0779933f66b438105f560a,6,,,,,,map,,,,,,0,41,41,43,1,5,1,,,,,,,,,,,,,,,,,,,,,,,,,,,,,,,,,,,,,,,,,,,,,,,,,,,,,,,,,,,,,,,,,,,,,,,,,,,
,,,,,,,,,,stimuli/images/PICTURE_2.png,FLIGHT,5b79bd77c4e6ad0001d2f312,11/15/1946,2020-07-09_13h10.47.890,proactive,2020.1.2,Win32,60,5f073de81c76c3308c0e4fb3,5f0779933f66b438105f560a,6,,,,,,tyre,,,,,,0,42,42,15,1,2,1,,,,,,,,,,,,,,,,,,,,,,,,,,,,,,,,,,,,,,,,,,,,,,,,,,,,,,,,,,,,,,,,,,,,,,,,,,,
,,,,,,,,,,stimuli/images/PICTURE_297.png,RIVER,5b79bd77c4e6ad0001d2f312,11/15/1946,2020-07-09_13h10.47.890,proactive,2020.1.2,Win32,60,5f073de81c76c3308c0e4fb3,5f0779933f66b438105f560a,6,,,,,,aeroplane,,,,,,0,43,43,39,1,4,1,,,,,,,,,,,,,,,,,,,,,,,,,,,,,,,,,,,,,,,,,,,,,,,,,,,,,,,,,,,,,,,,,,,,,,,,,,,
,,,,,,,,,,stimuli/images/PICTURE_208.png,SYSTEM,5b79bd77c4e6ad0001d2f312,11/15/1946,2020-07-09_13h10.47.890,proactive,2020.1.2,Win32,60,5f073de81c76c3308c0e4fb3,5f0779933f66b438105f560a,6,,,,,,microphone,,,,,,0,44,44,32,1,4,1,,,,,,,,,,,,,,,,,,,,,,,,,,,,,,,,,,,,,,,,,,,,,,,,,,,,,,,,,,,,,,,,,,,,,,,,,,,
,,,,,,,,,,stimuli/images/PICTURE_85.png,TOILET,5b79bd77c4e6ad0001d2f312,11/15/1946,2020-07-09_13h10.47.890,proactive,2020.1.2,Win32,60,5f073de81c76c3308c0e4fb3,5f0779933f66b438105f560a,6,,,,,,diamond,,,,,,0,45,45,48,1,5,1,,,,,,,,,,,,,,,,,,,,,,,,,,,,,,,,,,,,,,,,,,,,,,,,,,,,,,,,,,,,,,,,,,,,,,,,,,,
,,,,,,,,,,stimuli/images/PICTURE_95.png,BOYS,5b79bd77c4e6ad0001d2f312,11/15/1946,2020-07-09_13h10.47.890,proactive,2020.1.2,Win32,60,5f073de81c76c3308c0e4fb3,5f0779933f66b438105f560a,6,,,,,,suitcase,,,,,,0,46,46,1,1,1,1,,,,,,,,,,,,,,,,,,,,,,,,,,,,,,,,,,,,,,,,,,,,,,,,,,,,,,,,,,,,,,,,,,,,,,,,,,,
,,,,,,,,,,stimuli/images/PICTURE_403.png,TOILET,5b79bd77c4e6ad0001d2f312,11/15/1946,2020-07-09_13h10.47.890,proactive,2020.1.2,Win32,60,5f073de81c76c3308c0e4fb3,5f0779933f66b438105f560a,6,,,,,,cathedral,,,,,,0,47,47,25,1,3,1,,,,,,,,,,,,,,,,,,,,,,,,,,,,,,,,,,,,,,,,,,,,,,,,,,,,,,,,,,,,,,,,,,,,,,,,,,,
,,,,,,,,,,stimuli/images/PICTURE_685.png,PENNY,5b79bd77c4e6ad0001d2f312,11/15/1946,2020-07-09_13h10.47.890,proactive,2020.1.2,Win32,60,5f073de81c76c3308c0e4fb3,5f0779933f66b438105f560a,6,,,,,,goose,,,,,,0,48,48,4,1,1,1,,,,,,,,,,,,,,,,,,,,,,,,,,,,,,,,,,,,,,,,,,,,,,,,,,,,,,,,,,,,,,,,,,,,,,,,,,,
,,,,,,,,,,stimuli/images/PICTURE_491.png,GLASS,5b79bd77c4e6ad0001d2f312,11/15/1946,2020-07-09_13h10.47.890,proactive,2020.1.2,Win32,60,5f073de81c76c3308c0e4fb3,5f0779933f66b438105f560a,6,,,,,,rug,,,,,,0,49,49,14,1,2,1,,,,,,,,,,,,,,,,,,,,,,,,,,,,,,,,,,,,,,,,,,,,,,,,,,,,,,,,,,,,,,,,,,,,,,,,,,,
,,,,,,,,,,stimuli/images/PICTURE_504.png,COPS,5b79bd77c4e6ad0001d2f312,11/15/1946,2020-07-09_13h10.47.890,proactive,2020.1.2,Win32,60,5f073de81c76c3308c0e4fb3,5f0779933f66b438105f560a,6,,,,,,wheel,,,,,,0,50,50,52,1,6,1,,,,,,,,,,,,,,,,,,,,,,,,,,,,,,,,,,,,,,,,,,,,,,,,,,,,,,,,,,,,,,,,,,,,,,,,,,,
,,,,,,,,,,stimuli/images/PICTURE_380.png,CANDY,5b79bd77c4e6ad0001d2f312,11/15/1946,2020-07-09_13h10.47.890,proactive,2020.1.2,Win32,60,5f073de81c76c3308c0e4fb3,5f0779933f66b438105f560a,6,,,,,,gorilla,,,,,,0,51,51,0,1,1,1,,,,,,,,,,,,,,,,,,,,,,,,,,,,,,,,,,,,,,,,,,,,,,,,,,,,,,,,,,,,,,,,,,,,,,,,,,,
,,,,,,,,,,stimuli/images/PICTURE_750.png,HOTEL,5b79bd77c4e6ad0001d2f312,11/15/1946,2020-07-09_13h10.47.890,proactive,2020.1.2,Win32,60,5f073de81c76c3308c0e4fb3,5f0779933f66b438105f560a,6,,,,,,kettle,,,,,,0,52,52,27,1,3,1,,,,,,,,,,,,,,,,,,,,,,,,,,,,,,,,,,,,,,,,,,,,,,,,,,,,,,,,,,,,,,,,,,,,,,,,,,,
,,,,,,,,,,stimuli/images/PICTURE_380.png,HONEY,5b79bd77c4e6ad0001d2f312,11/15/1946,2020-07-09_13h10.47.890,proactive,2020.1.2,Win32,60,5f073de81c76c3308c0e4fb3,5f0779933f66b438105f560a,6,,,,,,gorilla,,,,,,0,53,53,19,1,2,1,,,,,,,,,,,,,,,,,,,,,,,,,,,,,,,,,,,,,,,,,,,,,,,,,,,,,,,,,,,,,,,,,,,,,,,,,,,
,,,,,,,,,,stimuli/images/PICTURE_564.png,BATH,5b79bd77c4e6ad0001d2f312,11/15/1946,2020-07-09_13h10.47.890,proactive,2020.1.2,Win32,60,5f073de81c76c3308c0e4fb3,5f0779933f66b438105f560a,6,,,,,,spoon,,,,,,0,54,54,26,1,3,1,,,,,,,,,,,,,,,,,,,,,,,,,,,,,,,,,,,,,,,,,,,,,,,,,,,,,,,,,,,,,,,,,,,,,,,,,,,
,,,,,,,,,,stimuli/images/PICTURE_491.png,RIVER,5b79bd77c4e6ad0001d2f312,11/15/1946,2020-07-09_13h10.47.890,proactive,2020.1.2,Win32,60,5f073de81c76c3308c0e4fb3,5f0779933f66b438105f560a,6,,,,,,rug,,,,,,0,55,55,6,1,1,1,,,,,,,,,,,,,,,,,,,,,,,,,,,,,,,,,,,,,,,,,,,,,,,,,,,,,,,,,,,,,,,,,,,,,,,,,,,
,,,,,,,,,,stimuli/images/PICTURE_744.png,WEAPON,5b79bd77c4e6ad0001d2f312,11/15/1946,2020-07-09_13h10.47.890,proactive,2020.1.2,Win32,60,5f073de81c76c3308c0e4fb3,5f0779933f66b438105f560a,6,,,,,,ring,,,,,,0,56,56,50,1,6,1,,,,,,,,,,,,,,,,,,,,,,,,,,,,,,,,,,,,,,,,,,,,,,,,,,,,,,,,,,,,,,,,,,,,,,,,,,,
,,,,,,,,,,stimuli/images/PICTURE_339.png,CLIENT,5b79bd77c4e6ad0001d2f312,11/15/1946,2020-07-09_13h10.47.890,proactive,2020.1.2,Win32,60,5f073de81c76c3308c0e4fb3,5f0779933f66b438105f560a,6,,,,,,backpack,,,,,,0,57,57,11,1,2,1,,,,,,,,,,,,,,,,,,,,,,,,,,,,,,,,,,,,,,,,,,,,,,,,,,,,,,,,,,,,,,,,,,,,,,,,,,,
,,,,,,,,,,stimuli/images/PICTURE_655.png,TOILET,5b79bd77c4e6ad0001d2f312,11/15/1946,2020-07-09_13h10.47.890,proactive,2020.1.2,Win32,60,5f073de81c76c3308c0e4fb3,5f0779933f66b438105f560a,6,,,,,,megaphone,,,,,,0,58,58,12,1,2,1,,,,,,,,,,,,,,,,,,,,,,,,,,,,,,,,,,,,,,,,,,,,,,,,,,,,,,,,,,,,,,,,,,,,,,,,,,,
,,?,0.00176,0,,,,,,stimuli/images/PICTURE_85.png,NATION,5b79bd77c4e6ad0001d2f312,11/15/1946,2020-07-09_13h10.47.890,proactive,2020.1.2,Win32,60,5f073de81c76c3308c0e4fb3,5f0779933f66b438105f560a,6,,,,,,diamond,,,,,,,,,,,1,1,0,0,0,5,1,,,,,,,,,,,,,,,,,,,,,,,,,,,,,,,,,,,,,,,,,,,,,,,,,,,,,,,,,,,,,,,,,,,,,,
,,?,0.00102,0,,,,,,stimuli/images/PICTURE_339.png,CLIENT,5b79bd77c4e6ad0001d2f312,11/15/1946,2020-07-09_13h10.47.890,proactive,2020.1.2,Win32,60,5f073de81c76c3308c0e4fb3,5f0779933f66b438105f560a,6,,,,,,backpack,,,,,,,,,,,2,1,0,1,1,11,1,,,,,,,,,,,,,,,,,,,,,,,,,,,,,,,,,,,,,,,,,,,,,,,,,,,,,,,,,,,,,,,,,,,,,,
,,?,0.00067,0,,,,,,stimuli/images/PICTURE_308.png,FAMILY,5b79bd77c4e6ad0001d2f312,11/15/1946,2020-07-09_13h10.47.890,proactive,2020.1.2,Win32,60,5f073de81c76c3308c0e4fb3,5f0779933f66b438105f560a,6,,,,,,dice,,,,,,,,,,,4,1,0,2,2,36,1,,,,,,,,,,,,,,,,,,,,,,,,,,,,,,,,,,,,,,,,,,,,,,,,,,,,,,,,,,,,,,,,,,,,,,
,,?,0.00105,0,,,,,,stimuli/images/PICTURE_403.png,TOILET,5b79bd77c4e6ad0001d2f312,11/15/1946,2020-07-09_13h10.47.890,proactive,2020.1.2,Win32,60,5f073de81c76c3308c0e4fb3,5f0779933f66b438105f560a,6,,,,,,cathedral,,,,,,,,,,,3,1,0,3,3,25,1,,,,,,,,,,,,,,,,,,,,,,,,,,,,,,,,,,,,,,,,,,,,,,,,,,,,,,,,,,,,,,,,,,,,,,
,,MILLER,15.00602,1,,,,,,stimuli/images/PICTURE_95.png,MILLER,5b79bd77c4e6ad0001d2f312,11/15/1946,2020-07-09_13h10.47.890,proactive,2020.1.2,Win32,60,5f073de81c76c3308c0e4fb3,5f0779933f66b438105f560a,6,,,,,,suitcase,,,,,,,,,,,6,1,0,4,4,56,1,,,,,,,,,,,,,,,,,,,,,,,,,,,,,,,,,,,,,,,,,,,,,,,,,,,,,,,,,,,,,,,,,,,,,,
,,?,0.000795,0,,,,,,stimuli/images/PICTURE_32.png,PILLS,5b79bd77c4e6ad0001d2f312,11/15/1946,2020-07-09_13h10.47.890,proactive,2020.1.2,Win32,60,5f073de81c76c3308c0e4fb3,5f0779933f66b438105f560a,6,,,,,,crown,,,,,,,,,,,2,1,0,5,5,18,1,,,,,,,,,,,,,,,,,,,,,,,,,,,,,,,,,,,,,,,,,,,,,,,,,,,,,,,,,,,,,,,,,,,,,,
,,?,0.00062,0,,,,,,stimuli/images/PICTURE_487.png,GIRL,5b79bd77c4e6ad0001d2f312,11/15/1946,2020-07-09_13h10.47.890,proactive,2020.1.2,Win32,60,5f073de81c76c3308c0e4fb3,5f0779933f66b438105f560a,6,,,,,,basket,,,,,,,,,,,5,1,0,6,6,45,1,,,,,,,,,,,,,,,,,,,,,,,,,,,,,,,,,,,,,,,,,,,,,,,,,,,,,,,,,,,,,,,,,,,,,,
,,?,0.000825,0,,,,,,stimuli/images/PICTURE_33.png,FRIEND,5b79bd77c4e6ad0001d2f312,11/15/1946,2020-07-09_13h10.47.890,proactive,2020.1.2,Win32,60,5f073de81c76c3308c0e4fb3,5f0779933f66b438105f560a,6,,,,,,frame,,,,,,,,,,,1,1,0,7,7,8,1,,,,,,,,,,,,,,,,,,,,,,,,,,,,,,,,,,,,,,,,,,,,,,,,,,,,,,,,,,,,,,,,,,,,,,
,,?,0.00065,0,,,,,,stimuli/images/PICTURE_147.png,YEAR,5b79bd77c4e6ad0001d2f312,11/15/1946,2020-07-09_13h10.47.890,proactive,2020.1.2,Win32,60,5f073de81c76c3308c0e4fb3,5f0779933f66b438105f560a,6,,,,,,hanger,,,,,,,,,,,3,1,0,8,8,21,1,,,,,,,,,,,,,,,,,,,,,,,,,,,,,,,,,,,,,,,,,,,,,,,,,,,,,,,,,,,,,,,,,,,,,,
,,?,0.00066,0,,,,,,stimuli/images/PICTURE_405.png,PLENTY,5b79bd77c4e6ad0001d2f312,11/15/1946,2020-07-09_13h10.47.890,proactive,2020.1.2,Win32,60,5f073de81c76c3308c0e4fb3,5f0779933f66b438105f560a,6,,,,,,anchor,,,,,,,,,,,3,1,0,9,9,23,1,,,,,,,,,,,,,,,,,,,,,,,,,,,,,,,,,,,,,,,,,,,,,,,,,,,,,,,,,,,,,,,,,,,,,,
,,?,0.00065,0,,,,,,stimuli/images/PICTURE_327.png,SERIES,5b79bd77c4e6ad0001d2f312,11/15/1946,2020-07-09_13h10.47.890,proactive,2020.1.2,Win32,60,5f073de81c76c3308c0e4fb3,5f0779933f66b438105f560a,6,,,,,,helmet,,,,,,,,,,,1,1,0,10,10,3,1,,,,,,,,,,,,,,,,,,,,,,,,,,,,,,,,,,,,,,,,,,,,,,,,,,,,,,,,,,,,,,,,,,,,,,
,,?,0.000635,0,,,,,,stimuli/images/PICTURE_340.png,LETTER,5b79bd77c4e6ad0001d2f312,11/15/1946,2020-07-09_13h10.47.890,proactive,2020.1.2,Win32,60,5f073de81c76c3308c0e4fb3,5f0779933f66b438105f560a,6,,,,,,mirror,,,,,,,,,,,3,1,0,11,11,24,1,,,,,,,,,,,,,,,,,,,,,,,,,,,,,,,,,,,,,,,,,,,,,,,,,,,,,,,,,,,,,,,,,,,,,,
,,?,0.00066,0,,,,,,stimuli/images/PICTURE_491.png,GLASS,5b79bd77c4e6ad0001d2f312,11/15/1946,2020-07-09_13h10.47.890,proactive,2020.1.2,Win32,60,5f073de81c76c3308c0e4fb3,5f0779933f66b438105f560a,6,,,,,,rug,,,,,,,,,,,2,1,0,12,12,14,1,,,,,,,,,,,,,,,,,,,,,,,,,,,,,,,,,,,,,,,,,,,,,,,,,,,,,,,,,,,,,,,,,,,,,,
,,?,0.00064,0,,,,,,stimuli/images/PICTURE_203.png,NIGHT,5b79bd77c4e6ad0001d2f312,11/15/1946,2020-07-09_13h10.47.890,proactive,2020.1.2,Win32,60,5f073de81c76c3308c0e4fb3,5f0779933f66b438105f560a,6,,,,,,cap,,,,,,,,,,,1,1,0,13,13,2,1,,,,,,,,,,,,,,,,,,,,,,,,,,,,,,,,,,,,,,,,,,,,,,,,,,,,,,,,,,,,,,,,,,,,,,
,,?,0.001275,0,,,,,,stimuli/images/PICTURE_297.png,RIVER,5b79bd77c4e6ad0001d2f312,11/15/1946,2020-07-09_13h10.47.890,proactive,2020.1.2,Win32,60,5f073de81c76c3308c0e4fb3,5f0779933f66b438105f560a,6,,,,,,aeroplane,,,,,,,,,,,4,1,0,14,14,39,1,,,,,,,,,,,,,,,,,,,,,,,,,,,,,,,,,,,,,,,,,,,,,,,,,,,,,,,,,,,,,,,,,,,,,,
,,FLIGHT,15.022215,1,,,,,,stimuli/images/PICTURE_108.png,FLIGHT,5b79bd77c4e6ad0001d2f312,11/15/1946,2020-07-09_13h10.47.890,proactive,2020.1.2,Win32,60,5f073de81c76c3308c0e4fb3,5f0779933f66b438105f560a,6,,,,,,calendar,,,,,,,,,,,6,1,0,15,15,59,1,,,,,,,,,,,,,,,,,,,,,,,,,,,,,,,,,,,,,,,,,,,,,,,,,,,,,,,,,,,,,,,,,,,,,,
,,?,0.00081,0,,,,,,stimuli/images/PICTURE_380.png,HONEY,5b79bd77c4e6ad0001d2f312,11/15/1946,2020-07-09_13h10.47.890,proactive,2020.1.2,Win32,60,5f073de81c76c3308c0e4fb3,5f0779933f66b438105f560a,6,,,,,,gorilla,,,,,,,,,,,2,1,0,16,16,19,1,,,,,,,,,,,,,,,,,,,,,,,,,,,,,,,,,,,,,,,,,,,,,,,,,,,,,,,,,,,,,,,,,,,,,,
,,?,0.00065,0,,,,,,stimuli/images/PICTURE_147.png,WOMEN,5b79bd77c4e6ad0001d2f312,11/15/1946,2020-07-09_13h10.47.890,proactive,2020.1.2,Win32,60,5f073de81c76c3308c0e4fb3,5f0779933f66b438105f560a,6,,,,,,hanger,,,,,,,,,,,1,1,0,17,17,7,1,,,,,,,,,,,,,,,,,,,,,,,,,,,,,,,,,,,,,,,,,,,,,,,,,,,,,,,,,,,,,,,,,,,,,,
,,?,0.000655,0,,,,,,stimuli/images/PICTURE_504.png,ARTIST,5b79bd77c4e6ad0001d2f312,11/15/1946,2020-07-09_13h10.47.890,proactive,2020.1.2,Win32,60,5f073de81c76c3308c0e4fb3,5f0779933f66b438105f560a,6,,,,,,wheel,,,,,,,,,,,5,1,0,18,18,49,1,,,,,,,,,,,,,,,,,,,,,,,,,,,,,,,,,,,,,,,,,,,,,,,,,,,,,,,,,,,,,,,,,,,,,,
,,?,0.000625,0,,,,,,stimuli/images/PICTURE_233.png,LOTS,5b79bd77c4e6ad0001d2f312,11/15/1946,2020-07-09_13h10.47.890,proactive,2020.1.2,Win32,60,5f073de81c76c3308c0e4fb3,5f0779933f66b438105f560a,6,,,,,,salt,,,,,,,,,,,5,1,0,19,19,42,1,,,,,,,,,,,,,,,,,,,,,,,,,,,,,,,,,,,,,,,,,,,,,,,,,,,,,,,,,,,,,,,,,,,,,,
,,RECORD,15.01007,1,,,,,,stimuli/images/PICTURE_708.png,RECORD,5b79bd77c4e6ad0001d2f312,11/15/1946,2020-07-09_13h10.47.890,proactive,2020.1.2,Win32,60,5f073de81c76c3308c0e4fb3,5f0779933f66b438105f560a,6,,,,,,monkey,,,,,,,,,,,6,1,0,20,20,58,1,,,,,,,,,,,,,,,,,,,,,,,,,,,,,,,,,,,,,,,,,,,,,,,,,,,,,,,,,,,,,,,,,,,,,,
,,AGENDA,15.014175,0,,,,,,stimuli/images/PICTURE_467.png,POLICY,5b79bd77c4e6ad0001d2f312,11/15/1946,2020-07-09_13h10.47.890,proactive,2020.1.2,Win32,60,5f073de81c76c3308c0e4fb3,5f0779933f66b438105f560a,6,,,,,,peg,,,,,,,,,,,6,1,0,21,21,53,1,,,,,,,,,,,,,,,,,,,,,,,,,,,,,,,,,,,,,,,,,,,,,,,,,,,,,,,,,,,,,,,,,,,,,,
,,?,0.00102,0,,,,,,stimuli/images/PICTURE_95.png,BOYS,5b79bd77c4e6ad0001d2f312,11/15/1946,2020-07-09_13h10.47.890,proactive,2020.1.2,Win32,60,5f073de81c76c3308c0e4fb3,5f0779933f66b438105f560a,6,,,,,,suitcase,,,,,,,,,,,1,1,0,22,22,1,1,,,,,,,,,,,,,,,,,,,,,,,,,,,,,,,,,,,,,,,,,,,,,,,,,,,,,,,,,,,,,,,,,,,,,,
,,?,0.00061,0,,,,,,stimuli/images/PICTURE_177.png,WRITER,5b79bd77c4e6ad0001d2f312,11/15/1946,2020-07-09_13h10.47.890,proactive,2020.1.2,Win32,60,5f073de81c76c3308c0e4fb3,5f0779933f66b438105f560a,6,,,,,,mushroom,,,,,,,,,,,5,1,0,23,23,41,1,,,,,,,,,,,,,,,,,,,,,,,,,,,,,,,,,,,,,,,,,,,,,,,,,,,,,,,,,,,,,,,,,,,,,,
,,?,0.00066,0,,,,,,stimuli/images/PICTURE_403.png,RIVER,5b79bd77c4e6ad0001d2f312,11/15/1946,2020-07-09_13h10.47.890,proactive,2020.1.2,Win32,60,5f073de81c76c3308c0e4fb3,5f0779933f66b438105f560a,6,,,,,,cathedral,,,,,,,,,,,5,1,0,24,24,40,1,,,,,,,,,,,,,,,,,,,,,,,,,,,,,,,,,,,,,,,,,,,,,,,,,,,,,,,,,,,,,,,,,,,,,,
,,?,0.00061,0,,,,,,stimuli/images/PICTURE_108.png,POLICY,5b79bd77c4e6ad0001d2f312,11/15/1946,2020-07-09_13h10.47.890,proactive,2020.1.2,Win32,60,5f073de81c76c3308c0e4fb3,5f0779933f66b438105f560a,6,,,,,,calendar,,,,,,,,,,,3,1,0,25,25,22,1,,,,,,,,,,,,,,,,,,,,,,,,,,,,,,,,,,,,,,,,,,,,,,,,,,,,,,,,,,,,,,,,,,,,,,
,,?,0.0006,0,,,,,,stimuli/images/PICTURE_383.png,WRITER,5b79bd77c4e6ad0001d2f312,11/15/1946,2020-07-09_13h10.47.890,proactive,2020.1.2,Win32,60,5f073de81c76c3308c0e4fb3,5f0779933f66b438105f560a,6,,,,,,coin,,,,,,,,,,,3,1,0,26,26,28,1,,,,,,,,,,,,,,,,,,,,,,,,,,,,,,,,,,,,,,,,,,,,,,,,,,,,,,,,,,,,,,,,,,,,,,
,,BOYS,15.00924,1,,,,,,stimuli/images/PICTURE_42.png,BOYS,5b79bd77c4e6ad0001d2f312,11/15/1946,2020-07-09_13h10.47.890,proactive,2020.1.2,Win32,60,5f073de81c76c3308c0e4fb3,5f0779933f66b438105f560a,6,,,,,,pear,,,,,,,,,,,6,1,0,27,27,55,1,,,,,,,,,,,,,,,,,,,,,,,,,,,,,,,,,,,,,,,,,,,,,,,,,,,,,,,,,,,,,,,,,,,,,,
,,?,0.00079,0,,,,,,stimuli/images/PICTURE_655.png,TOILET,5b79bd77c4e6ad0001d2f312,11/15/1946,2020-07-09_13h10.47.890,proactive,2020.1.2,Win32,60,5f073de81c76c3308c0e4fb3,5f0779933f66b438105f560a,6,,,,,,megaphone,,,,,,,,,,,2,1,0,28,28,12,1,,,,,,,,,,,,,,,,,,,,,,,,,,,,,,,,,,,,,,,,,,,,,,,,,,,,,,,,,,,,,,,,,,,,,,
,,?,0.00075,0,,,,,,stimuli/images/PICTURE_405.png,YEAR,5b79bd77c4e6ad0001d2f312,11/15/1946,2020-07-09_13h10.47.890,proactive,2020.1.2,Win32,60,5f073de81c76c3308c0e4fb3,5f0779933f66b438105f560a,6,,,,,,anchor,,,,,,,,,,,4,1,0,29,29,34,1,,,,,,,,,,,,,,,,,,,,,,,,,,,,,,,,,,,,,,,,,,,,,,,,,,,,,,,,,,,,,,,,,,,,,,
,,?,0.00068,0,,,,,,stimuli/images/PICTURE_380.png,CANDY,5b79bd77c4e6ad0001d2f312,11/15/1946,2020-07-09_13h10.47.890,proactive,2020.1.2,Win32,60,5f073de81c76c3308c0e4fb3,5f0779933f66b438105f560a,6,,,,,,gorilla,,,,,,,,,,,1,1,0,30,30,0,1,,,,,,,,,,,,,,,,,,,,,,,,,,,,,,,,,,,,,,,,,,,,,,,,,,,,,,,,,,,,,,,,,,,,,,
,,?,0.00062,0,,,,,,stimuli/images/PICTURE_285.png,LIFE,5b79bd77c4e6ad0001d2f312,11/15/1946,2020-07-09_13h10.47.890,proactive,2020.1.2,Win32,60,5f073de81c76c3308c0e4fb3,5f0779933f66b438105f560a,6,,,,,,carrot,,,,,,,,,,,4,1,0,31,31,33,1,,,,,,,,,,,,,,,,,,,,,,,,,,,,,,,,,,,,,,,,,,,,,,,,,,,,,,,,,,,,,,,,,,,,,,
,,LIFE,15.01015,1,,,,,,stimuli/images/PICTURE_296.png,LIFE,5b79bd77c4e6ad0001d2f312,11/15/1946,2020-07-09_13h10.47.890,proactive,2020.1.2,Win32,60,5f073de81c76c3308c0e4fb3,5f0779933f66b438105f560a,6,,,,,,bolt,,,,,,,,,,,6,1,0,32,32,57,1,,,,,,,,,,,,,,,,,,,,,,,,,,,,,,,,,,,,,,,,,,,,,,,,,,,,,,,,,,,,,,,,,,,,,,
,,?,0.0008,0,,,,,,stimuli/images/PICTURE_2.png,FLIGHT,5b79bd77c4e6ad0001d2f312,11/15/1946,2020-07-09_13h10.47.890,proactive,2020.1.2,Win32,60,5f073de81c76c3308c0e4fb3,5f0779933f66b438105f560a,6,,,,,,tyre,,,,,,,,,,,2,1,0,33,33,15,1,,,,,,,,,,,,,,,,,,,,,,,,,,,,,,,,,,,,,,,,,,,,,,,,,,,,,,,,,,,,,,,,,,,,,,
,,?,0.000585,0,,,,,,stimuli/images/PICTURE_383.png,SERIES,5b79bd77c4e6ad0001d2f312,11/15/1946,2020-07-09_13h10.47.890,proactive,2020.1.2,Win32,60,5f073de81c76c3308c0e4fb3,5f0779933f66b438105f560a,6,,,,,,coin,,,,,,,,,,,5,1,0,34,34,46,1,,,,,,,,,,,,,,,,,,,,,,,,,,,,,,,,,,,,,,,,,,,,,,,,,,,,,,,,,,,,,,,,,,,,,,
,,COPS,15.01416,0,,,,,,stimuli/images/PICTURE_744.png,WEAPON,5b79bd77c4e6ad0001d2f312,11/15/1946,2020-07-09_13h10.47.890,proactive,2020.1.2,Win32,60,5f073de81c76c3308c0e4fb3,5f0779933f66b438105f560a,6,,,,,,ring,,,,,,,,,,,6,1,0,35,35,50,1,,,,,,,,,,,,,,,,,,,,,,,,,,,,,,,,,,,,,,,,,,,,,,,,,,,,,,,,,,,,,,,,,,,,,,
,,?,0.000995,0,,,,,,stimuli/images/PICTURE_750.png,HOTEL,5b79bd77c4e6ad0001d2f312,11/15/1946,2020-07-09_13h10.47.890,proactive,2020.1.2,Win32,60,5f073de81c76c3308c0e4fb3,5f0779933f66b438105f560a,6,,,,,,kettle,,,,,,,,,,,3,1,0,36,36,27,1,,,,,,,,,,,,,,,,,,,,,,,,,,,,,,,,,,,,,,,,,,,,,,,,,,,,,,,,,,,,,,,,,,,,,,
,,?,0.000605,0,,,,,,stimuli/images/PICTURE_32.png,KIND,5b79bd77c4e6ad0001d2f312,11/15/1946,2020-07-09_13h10.47.890,proactive,2020.1.2,Win32,60,5f073de81c76c3308c0e4fb3,5f0779933f66b438105f560a,6,,,,,,crown,,,,,,,,,,,4,1,0,37,37,35,1,,,,,,,,,,,,,,,,,,,,,,,,,,,,,,,,,,,,,,,,,,,,,,,,,,,,,,,,,,,,,,,,,,,,,,
,,?,0.000625,0,,,,,,stimuli/images/PICTURE_564.png,BATH,5b79bd77c4e6ad0001d2f312,11/15/1946,2020-07-09_13h10.47.890,proactive,2020.1.2,Win32,60,5f073de81c76c3308c0e4fb3,5f0779933f66b438105f560a,6,,,,,,spoon,,,,,,,,,,,3,1,0,38,38,26,1,,,,,,,,,,,,,,,,,,,,,,,,,,,,,,,,,,,,,,,,,,,,,,,,,,,,,,,,,,,,,,,,,,,,,,
,,?,0.00061,0,,,,,,stimuli/images/PICTURE_403.png,WRITER,5b79bd77c4e6ad0001d2f312,11/15/1946,2020-07-09_13h10.47.890,proactive,2020.1.2,Win32,60,5f073de81c76c3308c0e4fb3,5f0779933f66b438105f560a,6,,,,,,cathedral,,,,,,,,,,,4,1,0,39,39,31,1,,,,,,,,,,,,,,,,,,,,,,,,,,,,,,,,,,,,,,,,,,,,,,,,,,,,,,,,,,,,,,,,,,,,,,
,,?,0.000605,0,,,,,,stimuli/images/PICTURE_85.png,TOILET,5b79bd77c4e6ad0001d2f312,11/15/1946,2020-07-09_13h10.47.890,proactive,2020.1.2,Win32,60,5f073de81c76c3308c0e4fb3,5f0779933f66b438105f560a,6,,,,,,diamond,,,,,,,,,,,5,1,0,40,40,48,1,,,,,,,,,,,,,,,,,,,,,,,,,,,,,,,,,,,,,,,,,,,,,,,,,,,,,,,,,,,,,,,,,,,,,,
,,?,0.000625,0,,,,,,stimuli/images/PICTURE_57.png,MOMENT,5b79bd77c4e6ad0001d2f312,11/15/1946,2020-07-09_13h10.47.890,proactive,2020.1.2,Win32,60,5f073de81c76c3308c0e4fb3,5f0779933f66b438105f560a,6,,,,,,stamp,,,,,,,,,,,4,1,0,41,41,37,1,,,,,,,,,,,,,,,,,,,,,,,,,,,,,,,,,,,,,,,,,,,,,,,,,,,,,,,,,,,,,,,,,,,,,,
,,?,0.000625,0,,,,,,stimuli/images/PICTURE_469.png,AGENT,5b79bd77c4e6ad0001d2f312,11/15/1946,2020-07-09_13h10.47.890,proactive,2020.1.2,Win32,60,5f073de81c76c3308c0e4fb3,5f0779933f66b438105f560a,6,,,,,,stool,,,,,,,,,,,2,1,0,42,42,16,1,,,,,,,,,,,,,,,,,,,,,,,,,,,,,,,,,,,,,,,,,,,,,,,,,,,,,,,,,,,,,,,,,,,,,,
,,?,0.00089,0,,,,,,stimuli/images/PICTURE_667.png,RIVER,5b79bd77c4e6ad0001d2f312,11/15/1946,2020-07-09_13h10.47.890,proactive,2020.1.2,Win32,60,5f073de81c76c3308c0e4fb3,5f0779933f66b438105f560a,6,,,,,,daisy,,,,,,,,,,,2,1,0,43,43,10,1,,,,,,,,,,,,,,,,,,,,,,,,,,,,,,,,,,,,,,,,,,,,,,,,,,,,,,,,,,,,,,,,,,,,,,
,,?,0.00057,0,,,,,,stimuli/images/PICTURE_296.png,LOTS,5b79bd77c4e6ad0001d2f312,11/15/1946,2020-07-09_13h10.47.890,proactive,2020.1.2,Win32,60,5f073de81c76c3308c0e4fb3,5f0779933f66b438105f560a,6,,,,,,bolt,,,,,,,,,,,1,1,0,44,44,9,1,,,,,,,,,,,,,,,,,,,,,,,,,,,,,,,,,,,,,,,,,,,,,,,,,,,,,,,,,,,,,,,,,,,,,,
,,?,0.000585,0,,,,,,stimuli/images/PICTURE_327.png,CASINO,5b79bd77c4e6ad0001d2f312,11/15/1946,2020-07-09_13h10.47.890,proactive,2020.1.2,Win32,60,5f073de81c76c3308c0e4fb3,5f0779933f66b438105f560a,6,,,,,,helmet,,,,,,,,,,,3,1,0,45,45,20,1,,,,,,,,,,,,,,,,,,,,,,,,,,,,,,,,,,,,,,,,,,,,,,,,,,,,,,,,,,,,,,,,,,,,,,
,,?,0.00095,0,,,,,,stimuli/images/PICTURE_675.png,SALE,5b79bd77c4e6ad0001d2f312,11/15/1946,2020-07-09_13h10.47.890,proactive,2020.1.2,Win32,60,5f073de81c76c3308c0e4fb3,5f0779933f66b438105f560a,6,,,,,,windmill,,,,,,,,,,,5,1,0,46,46,47,1,,,,,,,,,,,,,,,,,,,,,,,,,,,,,,,,,,,,,,,,,,,,,,,,,,,,,,,,,,,,,,,,,,,,,,
,,?,0.000955,0,,,,,,stimuli/images/PICTURE_677.png,APPLE,5b79bd77c4e6ad0001d2f312,11/15/1946,2020-07-09_13h10.47.890,proactive,2020.1.2,Win32,60,5f073de81c76c3308c0e4fb3,5f0779933f66b438105f560a,6,,,,,,map,,,,,,,,,,,5,1,0,47,47,43,1,,,,,,,,,,,,,,,,,,,,,,,,,,,,,,,,,,,,,,,,,,,,,,,,,,,,,,,,,,,,,,,,,,,,,,
,,?,0.00109,0,,,,,,stimuli/images/PICTURE_203.png,GODS,5b79bd77c4e6ad0001d2f312,11/15/1946,2020-07-09_13h10.47.890,proactive,2020.1.2,Win32,60,5f073de81c76c3308c0e4fb3,5f0779933f66b438105f560a,6,,,,,,cap,,,,,,,,,,,4,1,0,48,48,30,1,,,,,,,,,,,,,,,,,,,,,,,,,,,,,,,,,,,,,,,,,,,,,,,,,,,,,,,,,,,,,,,,,,,,,,
,,?,0.00091,0,,,,,,stimuli/images/PICTURE_654.png,MONTH,5b79bd77c4e6ad0001d2f312,11/15/1946,2020-07-09_13h10.47.890,proactive,2020.1.2,Win32,60,5f073de81c76c3308c0e4fb3,5f0779933f66b438105f560a,6,,,,,,pencil,,,,,,,,,,,3,1,0,49,49,29,1,,,,,,,,,,,,,,,,,,,,,,,,,,,,,,,,,,,,,,,,,,,,,,,,,,,,,,,,,,,,,,,,,,,,,,
,,?,15.01308,0,,,,,,stimuli/images/PICTURE_68.png,MILE,5b79bd77c4e6ad0001d2f312,11/15/1946,2020-07-09_13h10.47.890,proactive,2020.1.2,Win32,60,5f073de81c76c3308c0e4fb3,5f0779933f66b438105f560a,6,,,,,,candle,,,,,,,,,,,6,1,0,50,50,51,1,,,,,,,,,,,,,,,,,,,,,,,,,,,,,,,,,,,,,,,,,,,,,,,,,,,,,,,,,,,,,,,,,,,,,,
,,?,0.00076,0,,,,,,stimuli/images/PICTURE_685.png,PENNY,5b79bd77c4e6ad0001d2f312,11/15/1946,2020-07-09_13h10.47.890,proactive,2020.1.2,Win32,60,5f073de81c76c3308c0e4fb3,5f0779933f66b438105f560a,6,,,,,,goose,,,,,,,,,,,1,1,0,51,51,4,1,,,,,,,,,,,,,,,,,,,,,,,,,,,,,,,,,,,,,,,,,,,,,,,,,,,,,,,,,,,,,,,,,,,,,,
,,?,0.000565,0,,,,,,stimuli/images/PICTURE_95.png,HONEY,5b79bd77c4e6ad0001d2f312,11/15/1946,2020-07-09_13h10.47.890,proactive,2020.1.2,Win32,60,5f073de81c76c3308c0e4fb3,5f0779933f66b438105f560a,6,,,,,,suitcase,,,,,,,,,,,5,1,0,52,52,44,1,,,,,,,,,,,,,,,,,,,,,,,,,,,,,,,,,,,,,,,,,,,,,,,,,,,,,,,,,,,,,,,,,,,,,,
,,?,0.000555,0,,,,,,stimuli/images/PICTURE_68.png,ROOF,5b79bd77c4e6ad0001d2f312,11/15/1946,2020-07-09_13h10.47.890,proactive,2020.1.2,Win32,60,5f073de81c76c3308c0e4fb3,5f0779933f66b438105f560a,6,,,,,,candle,,,,,,,,,,,4,1,0,53,53,38,1,,,,,,,,,,,,,,,,,,,,,,,,,,,,,,,,,,,,,,,,,,,,,,,,,,,,,,,,,,,,,,,,,,,,,,
,,?,15.012695,0,,,,,,stimuli/images/PICTURE_340.png,VALLEY,5b79bd77c4e6ad0001d2f312,11/15/1946,2020-07-09_13h10.47.890,proactive,2020.1.2,Win32,60,5f073de81c76c3308c0e4fb3,5f0779933f66b438105f560a,6,,,,,,mirror,,,,,,,,,,,6,1,0,54,54,54,1,,,,,,,,,,,,,,,,,,,,,,,,,,,,,,,,,,,,,,,,,,,,,,,,,,,,,,,,,,,,,,,,,,,,,,
,,?,0.00072,0,,,,,,stimuli/images/PICTURE_491.png,RIVER,5b79bd77c4e6ad0001d2f312,11/15/1946,2020-07-09_13h10.47.890,proactive,2020.1.2,Win32,60,5f073de81c76c3308c0e4fb3,5f0779933f66b438105f560a,6,,,,,,rug,,,,,,,,,,,1,1,0,55,55,6,1,,,,,,,,,,,,,,,,,,,,,,,,,,,,,,,,,,,,,,,,,,,,,,,,,,,,,,,,,,,,,,,,,,,,,,
,,?,0.000575,0,,,,,,stimuli/images/PICTURE_449.png,DUDE,5b79bd77c4e6ad0001d2f312,11/15/1946,2020-07-09_13h10.47.890,proactive,2020.1.2,Win32,60,5f073de81c76c3308c0e4fb3,5f0779933f66b438105f560a,6,,,,,,bench,,,,,,,,,,,2,1,0,56,56,17,1,,,,,,,,,,,,,,,,,,,,,,,,,,,,,,,,,,,,,,,,,,,,,,,,,,,,,,,,,,,,,,,,,,,,,,
,,?,0.00054,0,,,,,,stimuli/images/PICTURE_504.png,YEAR,5b79bd77c4e6ad0001d2f312,11/15/1946,2020-07-09_13h10.47.890,proactive,2020.1.2,Win32,60,5f073de81c76c3308c0e4fb3,5f0779933f66b438105f560a,6,,,,,,wheel,,,,,,,,,,,2,1,0,57,57,13,1,,,,,,,,,,,,,,,,,,,,,,,,,,,,,,,,,,,,,,,,,,,,,,,,,,,,,,,,,,,,,,,,,,,,,,
,,?,15.01289,0,,,,,,stimuli/images/PICTURE_504.png,COPS,5b79bd77c4e6ad0001d2f312,11/15/1946,2020-07-09_13h10.47.890,proactive,2020.1.2,Win32,60,5f073de81c76c3308c0e4fb3,5f0779933f66b438105f560a,6,,,,,,wheel,,,,,,,,,,,6,1,0,58,58,52,1,,,,,,,,,,,,,,,,,,,,,,,,,,,,,,,,,,,,,,,,,,,,,,,,,,,,,,,,,,,,,,,,,,,,,,
,,?,0.000685,0,,,,,,stimuli/images/PICTURE_208.png,SYSTEM,5b79bd77c4e6ad0001d2f312,11/15/1946,2020-07-09_13h10.47.890,proactive,2020.1.2,Win32,60,5f073de81c76c3308c0e4fb3,5f0779933f66b438105f560a,6,,,,,,microphone,,,,,,,,,,,4,1,0,59,59,32,1,,,,,,,,,,,,,,,,,,,,,,,,,,,,,,,,,,,,,,,,,,,,,,,,,,,,,,,,,,,,,,,,,,,,,,
,,,,,,,,,,,,5b79bd77c4e6ad0001d2f312,11/15/1946,2020-07-09_13h10.47.890,proactive,2020.1.2,Win32,60,5f073de81c76c3308c0e4fb3,5f0779933f66b438105f560a,6,,,,,,,,,,,,,,,,,,,,,,,,0,0,0,1,1,stimuli/learn-block2.csv,,,,,,,,,,,,,,,,,,,,,,,,,,,,,,,,,,,,,,,,,,,,,,,,,,,,,,,,,,,,,,,,
,,,,,,,,,,stimuli/images/PICTURE_308.png,ESTATE,5b79bd77c4e6ad0001d2f312,11/15/1946,2020-07-09_13h10.47.890,proactive,2020.1.2,Win32,60,5f073de81c76c3308c0e4fb3,5f0779933f66b438105f560a,6,,,,,,dice,,,,,,0,0,0,46,1,5,0,,,,,,,,,,,,,,,,,,,,,,,,,,,,,,,,,,,,,,,,,,,,,,,,,,,,,,,,,,,,,,,,,,,,,,,,,,,
,,,,,,,,,,stimuli/images/PICTURE_488.png,STYLE,5b79bd77c4e6ad0001d2f312,11/15/1946,2020-07-09_13h10.47.890,proactive,2020.1.2,Win32,60,5f073de81c76c3308c0e4fb3,5f0779933f66b438105f560a,6,,,,,,sun,,,,,,0,1,1,33,1,4,0,,,,,,,,,,,,,,,,,,,,,,,,,,,,,,,,,,,,,,,,,,,,,,,,,,,,,,,,,,,,,,,,,,,,,,,,,,,
,,,,,,,,,,stimuli/images/PICTURE_233.png,IDEAS,5b79bd77c4e6ad0001d2f312,11/15/1946,2020-07-09_13h10.47.890,proactive,2020.1.2,Win32,60,5f073de81c76c3308c0e4fb3,5f0779933f66b438105f560a,6,,,,,,salt,,,,,,0,2,2,28,1,3,0,,,,,,,,,,,,,,,,,,,,,,,,,,,,,,,,,,,,,,,,,,,,,,,,,,,,,,,,,,,,,,,,,,,,,,,,,,,
,,,,,,,,,,stimuli/images/PICTURE_233.png,WOMEN,5b79bd77c4e6ad0001d2f312,11/15/1946,2020-07-09_13h10.47.890,proactive,2020.1.2,Win32,60,5f073de81c76c3308c0e4fb3,5f0779933f66b438105f560a,6,,,,,,salt,,,,,,0,3,3,38,1,4,0,,,,,,,,,,,,,,,,,,,,,,,,,,,,,,,,,,,,,,,,,,,,,,,,,,,,,,,,,,,,,,,,,,,,,,,,,,,
,,,,,,,,,,stimuli/images/PICTURE_147.png,MOMENT,5b79bd77c4e6ad0001d2f312,11/15/1946,2020-07-09_13h10.47.890,proactive,2020.1.2,Win32,60,5f073de81c76c3308c0e4fb3,5f0779933f66b438105f560a,6,,,,,,hanger,,,,,,0,4,4,51,1,6,0,,,,,,,,,,,,,,,,,,,,,,,,,,,,,,,,,,,,,,,,,,,,,,,,,,,,,,,,,,,,,,,,,,,,,,,,,,,
,,,,,,,,,,stimuli/images/PICTURE_380.png,DEATH,5b79bd77c4e6ad0001d2f312,11/15/1946,2020-07-09_13h10.47.890,proactive,2020.1.2,Win32,60,5f073de81c76c3308c0e4fb3,5f0779933f66b438105f560a,6,,,,,,gorilla,,,,,,0,5,5,49,1,5,0,,,,,,,,,,,,,,,,,,,,,,,,,,,,,,,,,,,,,,,,,,,,,,,,,,,,,,,,,,,,,,,,,,,,,,,,,,,
,,,,,,,,,,stimuli/images/PICTURE_356.png,DANGER,5b79bd77c4e6ad0001d2f312,11/15/1946,2020-07-09_13h10.47.890,proactive,2020.1.2,Win32,60,5f073de81c76c3308c0e4fb3,5f0779933f66b438105f560a,6,,,,,,pawn,,,,,,0,6,6,55,1,6,0,,,,,,,,,,,,,,,,,,,,,,,,,,,,,,,,,,,,,,,,,,,,,,,,,,,,,,,,,,,,,,,,,,,,,,,,,,,
,,,,,,,,,,stimuli/images/PICTURE_208.png,MONTH,5b79bd77c4e6ad0001d2f312,11/15/1946,2020-07-09_13h10.47.890,proactive,2020.1.2,Win32,60,5f073de81c76c3308c0e4fb3,5f0779933f66b438105f560a,6,,,,,,microphone,,,,,,0,7,7,53,1,6,0,,,,,,,,,,,,,,,,,,,,,,,,,,,,,,,,,,,,,,,,,,,,,,,,,,,,,,,,,,,,,,,,,,,,,,,,,,,
,,,,,,,,,,stimuli/images/PICTURE_491.png,WRITER,5b79bd77c4e6ad0001d2f312,11/15/1946,2020-07-09_13h10.47.890,proactive,2020.1.2,Win32,60,5f073de81c76c3308c0e4fb3,5f0779933f66b438105f560a,6,,,,,,rug,,,,,,0,8,8,57,1,6,0,,,,,,,,,,,,,,,,,,,,,,,,,,,,,,,,,,,,,,,,,,,,,,,,,,,,,,,,,,,,,,,,,,,,,,,,,,,
,,,,,,,,,,stimuli/images/PICTURE_677.png,MILE,5b79bd77c4e6ad0001d2f312,11/15/1946,2020-07-09_13h10.47.890,proactive,2020.1.2,Win32,60,5f073de81c76c3308c0e4fb3,5f0779933f66b438105f560a,6,,,,,,map,,,,,,0,9,9,30,1,4,0,,,,,,,,,,,,,,,,,,,,,,,,,,,,,,,,,,,,,,,,,,,,,,,,,,,,,,,,,,,,,,,,,,,,,,,,,,,
,,,,,,,,,,stimuli/images/PICTURE_487.png,FLIGHT,5b79bd77c4e6ad0001d2f312,11/15/1946,2020-07-09_13h10.47.890,proactive,2020.1.2,Win32,60,5f073de81c76c3308c0e4fb3,5f0779933f66b438105f560a,6,,,,,,basket,,,,,,0,10,10,9,1,1,0,,,,,,,,,,,,,,,,,,,,,,,,,,,,,,,,,,,,,,,,,,,,,,,,,,,,,,,,,,,,,,,,,,,,,,,,,,,
,,,,,,,,,,stimuli/images/PICTURE_160.png,LEADER,5b79bd77c4e6ad0001d2f312,11/15/1946,2020-07-09_13h10.47.890,proactive,2020.1.2,Win32,60,5f073de81c76c3308c0e4fb3,5f0779933f66b438105f560a,6,,,,,,wheelbarrow,,,,,,0,11,11,3,1,1,0,,,,,,,,,,,,,,,,,,,,,,,,,,,,,,,,,,,,,,,,,,,,,,,,,,,,,,,,,,,,,,,,,,,,,,,,,,,
,,,,,,,,,,stimuli/images/PICTURE_469.png,ARTIST,5b79bd77c4e6ad0001d2f312,11/15/1946,2020-07-09_13h10.47.890,proactive,2020.1.2,Win32,60,5f073de81c76c3308c0e4fb3,5f0779933f66b438105f560a,6,,,,,,stool,,,,,,0,12,12,6,1,1,0,,,,,,,,,,,,,,,,,,,,,,,,,,,,,,,,,,,,,,,,,,,,,,,,,,,,,,,,,,,,,,,,,,,,,,,,,,,
,,,,,,,,,,stimuli/images/PICTURE_151.png,GIRL,5b79bd77c4e6ad0001d2f312,11/15/1946,2020-07-09_13h10.47.890,proactive,2020.1.2,Win32,60,5f073de81c76c3308c0e4fb3,5f0779933f66b438105f560a,6,,,,,,tray,,,,,,0,13,13,19,1,2,0,,,,,,,,,,,,,,,,,,,,,,,,,,,,,,,,,,,,,,,,,,,,,,,,,,,,,,,,,,,,,,,,,,,,,,,,,,,
,,,,,,,,,,stimuli/images/PICTURE_667.png,PLENTY,5b79bd77c4e6ad0001d2f312,11/15/1946,2020-07-09_13h10.47.890,proactive,2020.1.2,Win32,60,5f073de81c76c3308c0e4fb3,5f0779933f66b438105f560a,6,,,,,,daisy,,,,,,0,14,14,41,1,5,0,,,,,,,,,,,,,,,,,,,,,,,,,,,,,,,,,,,,,,,,,,,,,,,,,,,,,,,,,,,,,,,,,,,,,,,,,,,
,,,,,,,,,,stimuli/images/PICTURE_692.png,MONTH,5b79bd77c4e6ad0001d2f312,11/15/1946,2020-07-09_13h10.47.890,proactive,2020.1.2,Win32,60,5f073de81c76c3308c0e4fb3,5f0779933f66b438105f560a,6,,,,,,cherry,,,,,,0,15,15,16,1,2,0,,,,,,,,,,,,,,,,,,,,,,,,,,,,,,,,,,,,,,,,,,,,,,,,,,,,,,,,,,,,,,,,,,,,,,,,,,,
,,,,,,,,,,stimuli/images/PICTURE_123.png,ADVICE,5b79bd77c4e6ad0001d2f312,11/15/1946,2020-07-09_13h10.47.890,proactive,2020.1.2,Win32,60,5f073de81c76c3308c0e4fb3,5f0779933f66b438105f560a,6,,,,,,dart,,,,,,0,16,16,40,1,5,0,,,,,,,,,,,,,,,,,,,,,,,,,,,,,,,,,,,,,,,,,,,,,,,,,,,,,,,,,,,,,,,,,,,,,,,,,,,
,,,,,,,,,,stimuli/images/PICTURE_348.png,SPEECH,5b79bd77c4e6ad0001d2f312,11/15/1946,2020-07-09_13h10.47.890,proactive,2020.1.2,Win32,60,5f073de81c76c3308c0e4fb3,5f0779933f66b438105f560a,6,,,,,,pepper,,,,,,0,17,17,20,1,3,0,,,,,,,,,,,,,,,,,,,,,,,,,,,,,,,,,,,,,,,,,,,,,,,,,,,,,,,,,,,,,,,,,,,,,,,,,,,
,,,,,,,,,,stimuli/images/PICTURE_469.png,LETTER,5b79bd77c4e6ad0001d2f312,11/15/1946,2020-07-09_13h10.47.890,proactive,2020.1.2,Win32,60,5f073de81c76c3308c0e4fb3,5f0779933f66b438105f560a,6,,,,,,stool,,,,,,0,18,18,42,1,5,0,,,,,,,,,,,,,,,,,,,,,,,,,,,,,,,,,,,,,,,,,,,,,,,,,,,,,,,,,,,,,,,,,,,,,,,,,,,
,,,,,,,,,,stimuli/images/PICTURE_744.png,SAKE,5b79bd77c4e6ad0001d2f312,11/15/1946,2020-07-09_13h10.47.890,proactive,2020.1.2,Win32,60,5f073de81c76c3308c0e4fb3,5f0779933f66b438105f560a,6,,,,,,ring,,,,,,0,19,19,17,1,2,0,,,,,,,,,,,,,,,,,,,,,,,,,,,,,,,,,,,,,,,,,,,,,,,,,,,,,,,,,,,,,,,,,,,,,,,,,,,
,,,,,,,,,,stimuli/images/PICTURE_311.png,FRIEND,5b79bd77c4e6ad0001d2f312,11/15/1946,2020-07-09_13h10.47.890,proactive,2020.1.2,Win32,60,5f073de81c76c3308c0e4fb3,5f0779933f66b438105f560a,6,,,,,,razor,,,,,,0,20,20,34,1,4,0,,,,,,,,,,,,,,,,,,,,,,,,,,,,,,,,,,,,,,,,,,,,,,,,,,,,,,,,,,,,,,,,,,,,,,,,,,,
,,,,,,,,,,stimuli/images/PICTURE_380.png,PHOTO,5b79bd77c4e6ad0001d2f312,11/15/1946,2020-07-09_13h10.47.890,proactive,2020.1.2,Win32,60,5f073de81c76c3308c0e4fb3,5f0779933f66b438105f560a,6,,,,,,gorilla,,,,,,0,21,21,52,1,6,0,,,,,,,,,,,,,,,,,,,,,,,,,,,,,,,,,,,,,,,,,,,,,,,,,,,,,,,,,,,,,,,,,,,,,,,,,,,
,,,,,,,,,,stimuli/images/PICTURE_95.png,STYLE,5b79bd77c4e6ad0001d2f312,11/15/1946,2020-07-09_13h10.47.890,proactive,2020.1.2,Win32,60,5f073de81c76c3308c0e4fb3,5f0779933f66b438105f560a,6,,,,,,suitcase,,,,,,0,22,22,25,1,3,0,,,,,,,,,,,,,,,,,,,,,,,,,,,,,,,,,,,,,,,,,,,,,,,,,,,,,,,,,,,,,,,,,,,,,,,,,,,
,,,,,,,,,,stimuli/images/PICTURE_311.png,BEAUTY,5b79bd77c4e6ad0001d2f312,11/15/1946,2020-07-09_13h10.47.890,proactive,2020.1.2,Win32,60,5f073de81c76c3308c0e4fb3,5f0779933f66b438105f560a,6,,,,,,razor,,,,,,0,23,23,13,1,2,0,,,,,,,,,,,,,,,,,,,,,,,,,,,,,,,,,,,,,,,,,,,,,,,,,,,,,,,,,,,,,,,,,,,,,,,,,,,
,,,,,,,,,,stimuli/images/PICTURE_453.png,PLENTY,5b79bd77c4e6ad0001d2f312,11/15/1946,2020-07-09_13h10.47.890,proactive,2020.1.2,Win32,60,5f073de81c76c3308c0e4fb3,5f0779933f66b438105f560a,6,,,,,,scissors,,,,,,0,24,24,56,1,6,0,,,,,,,,,,,,,,,,,,,,,,,,,,,,,,,,,,,,,,,,,,,,,,,,,,,,,,,,,,,,,,,,,,,,,,,,,,,
,,,,,,,,,,stimuli/images/PICTURE_654.png,VALLEY,5b79bd77c4e6ad0001d2f312,11/15/1946,2020-07-09_13h10.47.890,proactive,2020.1.2,Win32,60,5f073de81c76c3308c0e4fb3,5f0779933f66b438105f560a,6,,,,,,pencil,,,,,,0,25,25,1,1,1,0,,,,,,,,,,,,,,,,,,,,,,,,,,,,,,,,,,,,,,,,,,,,,,,,,,,,,,,,,,,,,,,,,,,,,,,,,,,
,,,,,,,,,,stimuli/images/PICTURE_708.png,YARD,5b79bd77c4e6ad0001d2f312,11/15/1946,2020-07-09_13h10.47.890,proactive,2020.1.2,Win32,60,5f073de81c76c3308c0e4fb3,5f0779933f66b438105f560a,6,,,,,,monkey,,,,,,0,26,26,29,1,3,0,,,,,,,,,,,,,,,,,,,,,,,,,,,,,,,,,,,,,,,,,,,,,,,,,,,,,,,,,,,,,,,,,,,,,,,,,,,
,,,,,,,,,,stimuli/images/PICTURE_285.png,ADVICE,5b79bd77c4e6ad0001d2f312,11/15/1946,2020-07-09_13h10.47.890,proactive,2020.1.2,Win32,60,5f073de81c76c3308c0e4fb3,5f0779933f66b438105f560a,6,,,,,,carrot,,,,,,0,27,27,12,1,2,0,,,,,,,,,,,,,,,,,,,,,,,,,,,,,,,,,,,,,,,,,,,,,,,,,,,,,,,,,,,,,,,,,,,,,,,,,,,
,,,,,,,,,,stimuli/images/PICTURE_467.png,DEMON,5b79bd77c4e6ad0001d2f312,11/15/1946,2020-07-09_13h10.47.890,proactive,2020.1.2,Win32,60,5f073de81c76c3308c0e4fb3,5f0779933f66b438105f560a,6,,,,,,peg,,,,,,0,28,28,23,1,3,0,,,,,,,,,,,,,,,,,,,,,,,,,,,,,,,,,,,,,,,,,,,,,,,,,,,,,,,,,,,,,,,,,,,,,,,,,,,
,,,,,,,,,,stimuli/images/PICTURE_314.png,SAKE,5b79bd77c4e6ad0001d2f312,11/15/1946,2020-07-09_13h10.47.890,proactive,2020.1.2,Win32,60,5f073de81c76c3308c0e4fb3,5f0779933f66b438105f560a,6,,,,,,perfume,,,,,,0,29,29,7,1,1,0,,,,,,,,,,,,,,,,,,,,,,,,,,,,,,,,,,,,,,,,,,,,,,,,,,,,,,,,,,,,,,,,,,,,,,,,,,,
,,,,,,,,,,stimuli/images/PICTURE_68.png,MILE,5b79bd77c4e6ad0001d2f312,11/15/1946,2020-07-09_13h10.47.890,proactive,2020.1.2,Win32,60,5f073de81c76c3308c0e4fb3,5f0779933f66b438105f560a,6,,,,,,candle,,,,,,0,30,30,44,1,5,0,,,,,,,,,,,,,,,,,,,,,,,,,,,,,,,,,,,,,,,,,,,,,,,,,,,,,,,,,,,,,,,,,,,,,,,,,,,
,,,,,,,,,,stimuli/images/PICTURE_688.png,WOMEN,5b79bd77c4e6ad0001d2f312,11/15/1946,2020-07-09_13h10.47.890,proactive,2020.1.2,Win32,60,5f073de81c76c3308c0e4fb3,5f0779933f66b438105f560a,6,,,,,,runner,,,,,,0,31,31,14,1,2,0,,,,,,,,,,,,,,,,,,,,,,,,,,,,,,,,,,,,,,,,,,,,,,,,,,,,,,,,,,,,,,,,,,,,,,,,,,,
,,,,,,,,,,stimuli/images/PICTURE_708.png,PENNY,5b79bd77c4e6ad0001d2f312,11/15/1946,2020-07-09_13h10.47.890,proactive,2020.1.2,Win32,60,5f073de81c76c3308c0e4fb3,5f0779933f66b438105f560a,6,,,,,,monkey,,,,,,0,32,32,31,1,4,0,,,,,,,,,,,,,,,,,,,,,,,,,,,,,,,,,,,,,,,,,,,,,,,,,,,,,,,,,,,,,,,,,,,,,,,,,,,
,,,,,,,,,,stimuli/images/PICTURE_504.png,BODY,5b79bd77c4e6ad0001d2f312,11/15/1946,2020-07-09_13h10.47.890,proactive,2020.1.2,Win32,60,5f073de81c76c3308c0e4fb3,5f0779933f66b438105f560a,6,,,,,,wheel,,,,,,0,33,33,8,1,1,0,,,,,,,,,,,,,,,,,,,,,,,,,,,,,,,,,,,,,,,,,,,,,,,,,,,,,,,,,,,,,,,,,,,,,,,,,,,
,,,,,,,,,,stimuli/images/PICTURE_203.png,ARTIST,5b79bd77c4e6ad0001d2f312,11/15/1946,2020-07-09_13h10.47.890,proactive,2020.1.2,Win32,60,5f073de81c76c3308c0e4fb3,5f0779933f66b438105f560a,6,,,,,,cap,,,,,,0,34,34,26,1,3,0,,,,,,,,,,,,,,,,,,,,,,,,,,,,,,,,,,,,,,,,,,,,,,,,,,,,,,,,,,,,,,,,,,,,,,,,,,,
,,,,,,,,,,stimuli/images/PICTURE_160.png,FEET,5b79bd77c4e6ad0001d2f312,11/15/1946,2020-07-09_13h10.47.890,proactive,2020.1.2,Win32,60,5f073de81c76c3308c0e4fb3,5f0779933f66b438105f560a,6,,,,,,wheelbarrow,,,,,,0,35,35,58,1,6,0,,,,,,,,,,,,,,,,,,,,,,,,,,,,,,,,,,,,,,,,,,,,,,,,,,,,,,,,,,,,,,,,,,,,,,,,,,,
,,,,,,,,,,stimuli/images/PICTURE_744.png,SYSTEM,5b79bd77c4e6ad0001d2f312,11/15/1946,2020-07-09_13h10.47.890,proactive,2020.1.2,Win32,60,5f073de81c76c3308c0e4fb3,5f0779933f66b438105f560a,6,,,,,,ring,,,,,,0,36,36,43,1,5,0,,,,,,,,,,,,,,,,,,,,,,,,,,,,,,,,,,,,,,,,,,,,,,,,,,,,,,,,,,,,,,,,,,,,,,,,,,,
,,,,,,,,,,stimuli/images/PICTURE_453.png,DUDE,5b79bd77c4e6ad0001d2f312,11/15/1946,2020-07-09_13h10.47.890,proactive,2020.1.2,Win32,60,5f073de81c76c3308c0e4fb3,5f0779933f66b438105f560a,6,,,,,,scissors,,,,,,0,37,37,27,1,3,0,,,,,,,,,,,,,,,,,,,,,,,,,,,,,,,,,,,,,,,,,,,,,,,,,,,,,,,,,,,,,,,,,,,,,,,,,,,
,,,,,,,,,,stimuli/images/PICTURE_339.png,PLENTY,5b79bd77c4e6ad0001d2f312,11/15/1946,2020-07-09_13h10.47.890,proactive,2020.1.2,Win32,60,5f073de81c76c3308c0e4fb3,5f0779933f66b438105f560a,6,,,,,,backpack,,,,,,0,38,38,0,1,1,0,,,,,,,,,,,,,,,,,,,,,,,,,,,,,,,,,,,,,,,,,,,,,,,,,,,,,,,,,,,,,,,,,,,,,,,,,,,
,,,,,,,,,,stimuli/images/PICTURE_255.png,AREA,5b79bd77c4e6ad0001d2f312,11/15/1946,2020-07-09_13h10.47.890,proactive,2020.1.2,Win32,60,5f073de81c76c3308c0e4fb3,5f0779933f66b438105f560a,6,,,,,,shovel,,,,,,0,39,39,22,1,3,0,,,,,,,,,,,,,,,,,,,,,,,,,,,,,,,,,,,,,,,,,,,,,,,,,,,,,,,,,,,,,,,,,,,,,,,,,,,
,,,,,,,,,,stimuli/images/PICTURE_123.png,ADVICE,5b79bd77c4e6ad0001d2f312,11/15/1946,2020-07-09_13h10.47.890,proactive,2020.1.2,Win32,60,5f073de81c76c3308c0e4fb3,5f0779933f66b438105f560a,6,,,,,,dart,,,,,,0,40,40,50,1,6,0,,,,,,,,,,,,,,,,,,,,,,,,,,,,,,,,,,,,,,,,,,,,,,,,,,,,,,,,,,,,,,,,,,,,,,,,,,,
,,,,,,,,,,stimuli/images/PICTURE_215.png,PLENTY,5b79bd77c4e6ad0001d2f312,11/15/1946,2020-07-09_13h10.47.890,proactive,2020.1.2,Win32,60,5f073de81c76c3308c0e4fb3,5f0779933f66b438105f560a,6,,,,,,boot,,,,,,0,41,41,37,1,4,0,,,,,,,,,,,,,,,,,,,,,,,,,,,,,,,,,,,,,,,,,,,,,,,,,,,,,,,,,,,,,,,,,,,,,,,,,,,
,,,,,,,,,,stimuli/images/PICTURE_85.png,THING,5b79bd77c4e6ad0001d2f312,11/15/1946,2020-07-09_13h10.47.890,proactive,2020.1.2,Win32,60,5f073de81c76c3308c0e4fb3,5f0779933f66b438105f560a,6,,,,,,diamond,,,,,,0,42,42,15,1,2,0,,,,,,,,,,,,,,,,,,,,,,,,,,,,,,,,,,,,,,,,,,,,,,,,,,,,,,,,,,,,,,,,,,,,,,,,,,,
,,,,,,,,,,stimuli/images/PICTURE_327.png,BEAUTY,5b79bd77c4e6ad0001d2f312,11/15/1946,2020-07-09_13h10.47.890,proactive,2020.1.2,Win32,60,5f073de81c76c3308c0e4fb3,5f0779933f66b438105f560a,6,,,,,,helmet,,,,,,0,43,43,48,1,5,0,,,,,,,,,,,,,,,,,,,,,,,,,,,,,,,,,,,,,,,,,,,,,,,,,,,,,,,,,,,,,,,,,,,,,,,,,,,
,,,,,,,,,,stimuli/images/PICTURE_208.png,THING,5b79bd77c4e6ad0001d2f312,11/15/1946,2020-07-09_13h10.47.890,proactive,2020.1.2,Win32,60,5f073de81c76c3308c0e4fb3,5f0779933f66b438105f560a,6,,,,,,microphone,,,,,,0,44,44,47,1,5,0,,,,,,,,,,,,,,,,,,,,,,,,,,,,,,,,,,,,,,,,,,,,,,,,,,,,,,,,,,,,,,,,,,,,,,,,,,,
,,,,,,,,,,stimuli/images/PICTURE_509.png,PHOTO,5b79bd77c4e6ad0001d2f312,11/15/1946,2020-07-09_13h10.47.890,proactive,2020.1.2,Win32,60,5f073de81c76c3308c0e4fb3,5f0779933f66b438105f560a,6,,,,,,telephone,,,,,,0,45,45,21,1,3,0,,,,,,,,,,,,,,,,,,,,,,,,,,,,,,,,,,,,,,,,,,,,,,,,,,,,,,,,,,,,,,,,,,,,,,,,,,,
,,,,,,,,,,stimuli/images/PICTURE_314.png,GODS,5b79bd77c4e6ad0001d2f312,11/15/1946,2020-07-09_13h10.47.890,proactive,2020.1.2,Win32,60,5f073de81c76c3308c0e4fb3,5f0779933f66b438105f560a,6,,,,,,perfume,,,,,,0,46,46,11,1,2,0,,,,,,,,,,,,,,,,,,,,,,,,,,,,,,,,,,,,,,,,,,,,,,,,,,,,,,,,,,,,,,,,,,,,,,,,,,,
,,,,,,,,,,stimuli/images/PICTURE_491.png,ROOF,5b79bd77c4e6ad0001d2f312,11/15/1946,2020-07-09_13h10.47.890,proactive,2020.1.2,Win32,60,5f073de81c76c3308c0e4fb3,5f0779933f66b438105f560a,6,,,,,,rug,,,,,,0,47,47,24,1,3,0,,,,,,,,,,,,,,,,,,,,,,,,,,,,,,,,,,,,,,,,,,,,,,,,,,,,,,,,,,,,,,,,,,,,,,,,,,,
,,,,,,,,,,stimuli/images/PICTURE_177.png,CARS,5b79bd77c4e6ad0001d2f312,11/15/1946,2020-07-09_13h10.47.890,proactive,2020.1.2,Win32,60,5f073de81c76c3308c0e4fb3,5f0779933f66b438105f560a,6,,,,,,mushroom,,,,,,0,48,48,35,1,4,0,,,,,,,,,,,,,,,,,,,,,,,,,,,,,,,,,,,,,,,,,,,,,,,,,,,,,,,,,,,,,,,,,,,,,,,,,,,
,,,,,,,,,,stimuli/images/PICTURE_32.png,JUNGLE,5b79bd77c4e6ad0001d2f312,11/15/1946,2020-07-09_13h10.47.890,proactive,2020.1.2,Win32,60,5f073de81c76c3308c0e4fb3,5f0779933f66b438105f560a,6,,,,,,crown,,,,,,0,49,49,45,1,5,0,,,,,,,,,,,,,,,,,,,,,,,,,,,,,,,,,,,,,,,,,,,,,,,,,,,,,,,,,,,,,,,,,,,,,,,,,,,
,,,,,,,,,,stimuli/images/PICTURE_248.png,DOZEN,5b79bd77c4e6ad0001d2f312,11/15/1946,2020-07-09_13h10.47.890,proactive,2020.1.2,Win32,60,5f073de81c76c3308c0e4fb3,5f0779933f66b438105f560a,6,,,,,,cart,,,,,,0,50,50,39,1,4,0,,,,,,,,,,,,,,,,,,,,,,,,,,,,,,,,,,,,,,,,,,,,,,,,,,,,,,,,,,,,,,,,,,,,,,,,,,,
,,,,,,,,,,stimuli/images/PICTURE_675.png,WEAPON,5b79bd77c4e6ad0001d2f312,11/15/1946,2020-07-09_13h10.47.890,proactive,2020.1.2,Win32,60,5f073de81c76c3308c0e4fb3,5f0779933f66b438105f560a,6,,,,,,windmill,,,,,,0,51,51,32,1,4,0,,,,,,,,,,,,,,,,,,,,,,,,,,,,,,,,,,,,,,,,,,,,,,,,,,,,,,,,,,,,,,,,,,,,,,,,,,,
,,,,,,,,,,stimuli/images/PICTURE_667.png,BATH,5b79bd77c4e6ad0001d2f312,11/15/1946,2020-07-09_13h10.47.890,proactive,2020.1.2,Win32,60,5f073de81c76c3308c0e4fb3,5f0779933f66b438105f560a,6,,,,,,daisy,,,,,,0,52,52,4,1,1,0,,,,,,,,,,,,,,,,,,,,,,,,,,,,,,,,,,,,,,,,,,,,,,,,,,,,,,,,,,,,,,,,,,,,,,,,,,,
,,,,,,,,,,stimuli/images/PICTURE_688.png,CASINO,5b79bd77c4e6ad0001d2f312,11/15/1946,2020-07-09_13h10.47.890,proactive,2020.1.2,Win32,60,5f073de81c76c3308c0e4fb3,5f0779933f66b438105f560a,6,,,,,,runner,,,,,,0,53,53,2,1,1,0,,,,,,,,,,,,,,,,,,,,,,,,,,,,,,,,,,,,,,,,,,,,,,,,,,,,,,,,,,,,,,,,,,,,,,,,,,,
,,,,,,,,,,stimuli/images/PICTURE_302.png,FAMILY,5b79bd77c4e6ad0001d2f312,11/15/1946,2020-07-09_13h10.47.890,proactive,2020.1.2,Win32,60,5f073de81c76c3308c0e4fb3,5f0779933f66b438105f560a,6,,,,,,taxi,,,,,,0,54,54,18,1,2,0,,,,,,,,,,,,,,,,,,,,,,,,,,,,,,,,,,,,,,,,,,,,,,,,,,,,,,,,,,,,,,,,,,,,,,,,,,,
,,,,,,,,,,stimuli/images/PICTURE_708.png,CLIENT,5b79bd77c4e6ad0001d2f312,11/15/1946,2020-07-09_13h10.47.890,proactive,2020.1.2,Win32,60,5f073de81c76c3308c0e4fb3,5f0779933f66b438105f560a,6,,,,,,monkey,,,,,,0,55,55,5,1,1,0,,,,,,,,,,,,,,,,,,,,,,,,,,,,,,,,,,,,,,,,,,,,,,,,,,,,,,,,,,,,,,,,,,,,,,,,,,,
,,,,,,,,,,stimuli/images/PICTURE_208.png,LOTS,5b79bd77c4e6ad0001d2f312,11/15/1946,2020-07-09_13h10.47.890,proactive,2020.1.2,Win32,60,5f073de81c76c3308c0e4fb3,5f0779933f66b438105f560a,6,,,,,,microphone,,,,,,0,56,56,10,1,2,0,,,,,,,,,,,,,,,,,,,,,,,,,,,,,,,,,,,,,,,,,,,,,,,,,,,,,,,,,,,,,,,,,,,,,,,,,,,
,,,,,,,,,,stimuli/images/PICTURE_308.png,KIND,5b79bd77c4e6ad0001d2f312,11/15/1946,2020-07-09_13h10.47.890,proactive,2020.1.2,Win32,60,5f073de81c76c3308c0e4fb3,5f0779933f66b438105f560a,6,,,,,,dice,,,,,,0,57,57,54,1,6,0,,,,,,,,,,,,,,,,,,,,,,,,,,,,,,,,,,,,,,,,,,,,,,,,,,,,,,,,,,,,,,,,,,,,,,,,,,,
,,,,,,,,,,stimuli/images/PICTURE_470.png,CASINO,5b79bd77c4e6ad0001d2f312,11/15/1946,2020-07-09_13h10.47.890,proactive,2020.1.2,Win32,60,5f073de81c76c3308c0e4fb3,5f0779933f66b438105f560a,6,,,,,,motorbike,,,,,,0,58,58,36,1,4,0,,,,,,,,,,,,,,,,,,,,,,,,,,,,,,,,,,,,,,,,,,,,,,,,,,,,,,,,,,,,,,,,,,,,,,,,,,,
,,?,15.01173,0,,,,,,stimuli/images/PICTURE_308.png,KIND,5b79bd77c4e6ad0001d2f312,11/15/1946,2020-07-09_13h10.47.890,proactive,2020.1.2,Win32,60,5f073de81c76c3308c0e4fb3,5f0779933f66b438105f560a,6,,,,,,dice,,,,,,,,,,,6,0,0,0,0,54,1,,,,,,,,,,,,,,,,,,,,,,,,,,,,,,,,,,,,,,,,,,,,,,,,,,,,,,,,,,,,,,,,,,,,,,
,,?,0.00071,0,,,,,,stimuli/images/PICTURE_675.png,WEAPON,5b79bd77c4e6ad0001d2f312,11/15/1946,2020-07-09_13h10.47.890,proactive,2020.1.2,Win32,60,5f073de81c76c3308c0e4fb3,5f0779933f66b438105f560a,6,,,,,,windmill,,,,,,,,,,,4,0,0,1,1,32,1,,,,,,,,,,,,,,,,,,,,,,,,,,,,,,,,,,,,,,,,,,,,,,,,,,,,,,,,,,,,,,,,,,,,,,
,,?,0.000555,0,,,,,,stimuli/images/PICTURE_339.png,PLENTY,5b79bd77c4e6ad0001d2f312,11/15/1946,2020-07-09_13h10.47.890,proactive,2020.1.2,Win32,60,5f073de81c76c3308c0e4fb3,5f0779933f66b438105f560a,6,,,,,,backpack,,,,,,,,,,,1,0,0,2,2,0,1,,,,,,,,,,,,,,,,,,,,,,,,,,,,,,,,,,,,,,,,,,,,,,,,,,,,,,,,,,,,,,,,,,,,,,
,,?,0.00054,0,,,,,,stimuli/images/PICTURE_248.png,DOZEN,5b79bd77c4e6ad0001d2f312,11/15/1946,2020-07-09_13h10.47.890,proactive,2020.1.2,Win32,60,5f073de81c76c3308c0e4fb3,5f0779933f66b438105f560a,6,,,,,,cart,,,,,,,,,,,4,0,0,3,3,39,1,,,,,,,,,,,,,,,,,,,,,,,,,,,,,,,,,,,,,,,,,,,,,,,,,,,,,,,,,,,,,,,,,,,,,,
,,?,0.000535,0,,,,,,stimuli/images/PICTURE_469.png,ARTIST,5b79bd77c4e6ad0001d2f312,11/15/1946,2020-07-09_13h10.47.890,proactive,2020.1.2,Win32,60,5f073de81c76c3308c0e4fb3,5f0779933f66b438105f560a,6,,,,,,stool,,,,,,,,,,,1,0,0,4,4,6,1,,,,,,,,,,,,,,,,,,,,,,,,,,,,,,,,,,,,,,,,,,,,,,,,,,,,,,,,,,,,,,,,,,,,,,
,,?,0.00056,0,,,,,,stimuli/images/PICTURE_85.png,THING,5b79bd77c4e6ad0001d2f312,11/15/1946,2020-07-09_13h10.47.890,proactive,2020.1.2,Win32,60,5f073de81c76c3308c0e4fb3,5f0779933f66b438105f560a,6,,,,,,diamond,,,,,,,,,,,2,0,0,5,5,15,1,,,,,,,,,,,,,,,,,,,,,,,,,,,,,,,,,,,,,,,,,,,,,,,,,,,,,,,,,,,,,,,,,,,,,,
,,?,0.000635,0,,,,,,stimuli/images/PICTURE_488.png,STYLE,5b79bd77c4e6ad0001d2f312,11/15/1946,2020-07-09_13h10.47.890,proactive,2020.1.2,Win32,60,5f073de81c76c3308c0e4fb3,5f0779933f66b438105f560a,6,,,,,,sun,,,,,,,,,,,4,0,0,6,6,33,1,,,,,,,,,,,,,,,,,,,,,,,,,,,,,,,,,,,,,,,,,,,,,,,,,,,,,,,,,,,,,,,,,,,,,,
,,PHOTO,15.007565,1,,,,,,stimuli/images/PICTURE_380.png,PHOTO,5b79bd77c4e6ad0001d2f312,11/15/1946,2020-07-09_13h10.47.890,proactive,2020.1.2,Win32,60,5f073de81c76c3308c0e4fb3,5f0779933f66b438105f560a,6,,,,,,gorilla,,,,,,,,,,,6,0,0,7,7,52,1,,,,,,,,,,,,,,,,,,,,,,,,,,,,,,,,,,,,,,,,,,,,,,,,,,,,,,,,,,,,,,,,,,,,,,
,,?,0.000685,0,,,,,,stimuli/images/PICTURE_509.png,PHOTO,5b79bd77c4e6ad0001d2f312,11/15/1946,2020-07-09_13h10.47.890,proactive,2020.1.2,Win32,60,5f073de81c76c3308c0e4fb3,5f0779933f66b438105f560a,6,,,,,,telephone,,,,,,,,,,,3,0,0,8,8,21,1,,,,,,,,,,,,,,,,,,,,,,,,,,,,,,,,,,,,,,,,,,,,,,,,,,,,,,,,,,,,,,,,,,,,,,
,,?,0.000545,0,,,,,,stimuli/images/PICTURE_744.png,SAKE,5b79bd77c4e6ad0001d2f312,11/15/1946,2020-07-09_13h10.47.890,proactive,2020.1.2,Win32,60,5f073de81c76c3308c0e4fb3,5f0779933f66b438105f560a,6,,,,,,ring,,,,,,,,,,,2,0,0,9,9,17,1,,,,,,,,,,,,,,,,,,,,,,,,,,,,,,,,,,,,,,,,,,,,,,,,,,,,,,,,,,,,,,,,,,,,,,
,,?,0.000555,0,,,,,,stimuli/images/PICTURE_311.png,BEAUTY,5b79bd77c4e6ad0001d2f312,11/15/1946,2020-07-09_13h10.47.890,proactive,2020.1.2,Win32,60,5f073de81c76c3308c0e4fb3,5f0779933f66b438105f560a,6,,,,,,razor,,,,,,,,,,,2,0,0,10,10,13,1,,,,,,,,,,,,,,,,,,,,,,,,,,,,,,,,,,,,,,,,,,,,,,,,,,,,,,,,,,,,,,,,,,,,,,
,,?,0.00053,0,,,,,,stimuli/images/PICTURE_677.png,MILE,5b79bd77c4e6ad0001d2f312,11/15/1946,2020-07-09_13h10.47.890,proactive,2020.1.2,Win32,60,5f073de81c76c3308c0e4fb3,5f0779933f66b438105f560a,6,,,,,,map,,,,,,,,,,,4,0,0,11,11,30,1,,,,,,,,,,,,,,,,,,,,,,,,,,,,,,,,,,,,,,,,,,,,,,,,,,,,,,,,,,,,,,,,,,,,,,
,,?,0.000565,0,,,,,,stimuli/images/PICTURE_314.png,GODS,5b79bd77c4e6ad0001d2f312,11/15/1946,2020-07-09_13h10.47.890,proactive,2020.1.2,Win32,60,5f073de81c76c3308c0e4fb3,5f0779933f66b438105f560a,6,,,,,,perfume,,,,,,,,,,,2,0,0,12,12,11,1,,,,,,,,,,,,,,,,,,,,,,,,,,,,,,,,,,,,,,,,,,,,,,,,,,,,,,,,,,,,,,,,,,,,,,
,,?,0.00054,0,,,,,,stimuli/images/PICTURE_177.png,CARS,5b79bd77c4e6ad0001d2f312,11/15/1946,2020-07-09_13h10.47.890,proactive,2020.1.2,Win32,60,5f073de81c76c3308c0e4fb3,5f0779933f66b438105f560a,6,,,,,,mushroom,,,,,,,,,,,4,0,0,13,13,35,1,,,,,,,,,,,,,,,,,,,,,,,,,,,,,,,,,,,,,,,,,,,,,,,,,,,,,,,,,,,,,,,,,,,,,,
,,?,15.00864,0,,,,,,stimuli/images/PICTURE_147.png,MOMENT,5b79bd77c4e6ad0001d2f312,11/15/1946,2020-07-09_13h10.47.890,proactive,2020.1.2,Win32,60,5f073de81c76c3308c0e4fb3,5f0779933f66b438105f560a,6,,,,,,hanger,,,,,,,,,,,6,0,0,14,14,51,1,,,,,,,,,,,,,,,,,,,,,,,,,,,,,,,,,,,,,,,,,,,,,,,,,,,,,,,,,,,,,,,,,,,,,,
,,MONTH,15.016905,1,,,,,,stimuli/images/PICTURE_208.png,MONTH,5b79bd77c4e6ad0001d2f312,11/15/1946,2020-07-09_13h10.47.890,proactive,2020.1.2,Win32,60,5f073de81c76c3308c0e4fb3,5f0779933f66b438105f560a,6,,,,,,microphone,,,,,,,,,,,6,0,0,15,15,53,1,,,,,,,,,,,,,,,,,,,,,,,,,,,,,,,,,,,,,,,,,,,,,,,,,,,,,,,,,,,,,,,,,,,,,,
,,?,0.00069,0,,,,,,stimuli/images/PICTURE_504.png,BODY,5b79bd77c4e6ad0001d2f312,11/15/1946,2020-07-09_13h10.47.890,proactive,2020.1.2,Win32,60,5f073de81c76c3308c0e4fb3,5f0779933f66b438105f560a,6,,,,,,wheel,,,,,,,,,,,1,0,0,16,16,8,1,,,,,,,,,,,,,,,,,,,,,,,,,,,,,,,,,,,,,,,,,,,,,,,,,,,,,,,,,,,,,,,,,,,,,,
,,?,0.00061,0,,,,,,stimuli/images/PICTURE_233.png,WOMEN,5b79bd77c4e6ad0001d2f312,11/15/1946,2020-07-09_13h10.47.890,proactive,2020.1.2,Win32,60,5f073de81c76c3308c0e4fb3,5f0779933f66b438105f560a,6,,,,,,salt,,,,,,,,,,,4,0,0,17,17,38,1,,,,,,,,,,,,,,,,,,,,,,,,,,,,,,,,,,,,,,,,,,,,,,,,,,,,,,,,,,,,,,,,,,,,,,
,,?,0.00059,0,,,,,,stimuli/images/PICTURE_215.png,PLENTY,5b79bd77c4e6ad0001d2f312,11/15/1946,2020-07-09_13h10.47.890,proactive,2020.1.2,Win32,60,5f073de81c76c3308c0e4fb3,5f0779933f66b438105f560a,6,,,,,,boot,,,,,,,,,,,4,0,0,18,18,37,1,,,,,,,,,,,,,,,,,,,,,,,,,,,,,,,,,,,,,,,,,,,,,,,,,,,,,,,,,,,,,,,,,,,,,,
,,?,0.00053,0,,,,,,stimuli/images/PICTURE_708.png,YARD,5b79bd77c4e6ad0001d2f312,11/15/1946,2020-07-09_13h10.47.890,proactive,2020.1.2,Win32,60,5f073de81c76c3308c0e4fb3,5f0779933f66b438105f560a,6,,,,,,monkey,,,,,,,,,,,3,0,0,19,19,29,1,,,,,,,,,,,,,,,,,,,,,,,,,,,,,,,,,,,,,,,,,,,,,,,,,,,,,,,,,,,,,,,,,,,,,,
,,?,0.000525,0,,,,,,stimuli/images/PICTURE_208.png,LOTS,5b79bd77c4e6ad0001d2f312,11/15/1946,2020-07-09_13h10.47.890,proactive,2020.1.2,Win32,60,5f073de81c76c3308c0e4fb3,5f0779933f66b438105f560a,6,,,,,,microphone,,,,,,,,,,,2,0,0,20,20,10,1,,,,,,,,,,,,,,,,,,,,,,,,,,,,,,,,,,,,,,,,,,,,,,,,,,,,,,,,,,,,,,,,,,,,,,
,,?,0.00055,0,,,,,,stimuli/images/PICTURE_470.png,CASINO,5b79bd77c4e6ad0001d2f312,11/15/1946,2020-07-09_13h10.47.890,proactive,2020.1.2,Win32,60,5f073de81c76c3308c0e4fb3,5f0779933f66b438105f560a,6,,,,,,motorbike,,,,,,,,,,,4,0,0,21,21,36,1,,,,,,,,,,,,,,,,,,,,,,,,,,,,,,,,,,,,,,,,,,,,,,,,,,,,,,,,,,,,,,,,,,,,,,
,,?,0.000525,0,,,,,,stimuli/images/PICTURE_467.png,DEMON,5b79bd77c4e6ad0001d2f312,11/15/1946,2020-07-09_13h10.47.890,proactive,2020.1.2,Win32,60,5f073de81c76c3308c0e4fb3,5f0779933f66b438105f560a,6,,,,,,peg,,,,,,,,,,,3,0,0,22,22,23,1,,,,,,,,,,,,,,,,,,,,,,,,,,,,,,,,,,,,,,,,,,,,,,,,,,,,,,,,,,,,,,,,,,,,,,
,,?,0.000515,0,,,,,,stimuli/images/PICTURE_692.png,MONTH,5b79bd77c4e6ad0001d2f312,11/15/1946,2020-07-09_13h10.47.890,proactive,2020.1.2,Win32,60,5f073de81c76c3308c0e4fb3,5f0779933f66b438105f560a,6,,,,,,cherry,,,,,,,,,,,2,0,0,23,23,16,1,,,,,,,,,,,,,,,,,,,,,,,,,,,,,,,,,,,,,,,,,,,,,,,,,,,,,,,,,,,,,,,,,,,,,,
,,?,0.001055,0,,,,,,stimuli/images/PICTURE_151.png,GIRL,5b79bd77c4e6ad0001d2f312,11/15/1946,2020-07-09_13h10.47.890,proactive,2020.1.2,Win32,60,5f073de81c76c3308c0e4fb3,5f0779933f66b438105f560a,6,,,,,,tray,,,,,,,,,,,2,0,0,24,24,19,1,,,,,,,,,,,,,,,,,,,,,,,,,,,,,,,,,,,,,,,,,,,,,,,,,,,,,,,,,,,,,,,,,,,,,,
,,?,15.00235,0,,,,,,stimuli/images/PICTURE_356.png,DANGER,5b79bd77c4e6ad0001d2f312,11/15/1946,2020-07-09_13h10.47.890,proactive,2020.1.2,Win32,60,5f073de81c76c3308c0e4fb3,5f0779933f66b438105f560a,6,,,,,,pawn,,,,,,,,,,,6,0,0,25,25,55,1,,,,,,,,,,,,,,,,,,,,,,,,,,,,,,,,,,,,,,,,,,,,,,,,,,,,,,,,,,,,,,,,,,,,,,
,,?,0.000685,0,,,,,,stimuli/images/PICTURE_123.png,ADVICE,5b79bd77c4e6ad0001d2f312,11/15/1946,2020-07-09_13h10.47.890,proactive,2020.1.2,Win32,60,5f073de81c76c3308c0e4fb3,5f0779933f66b438105f560a,6,,,,,,dart,,,,,,,,,,,5,0,0,26,26,40,1,,,,,,,,,,,,,,,,,,,,,,,,,,,,,,,,,,,,,,,,,,,,,,,,,,,,,,,,,,,,,,,,,,,,,,
,,?,0.001775,0,,,,,,stimuli/images/PICTURE_380.png,DEATH,5b79bd77c4e6ad0001d2f312,11/15/1946,2020-07-09_13h10.47.890,proactive,2020.1.2,Win32,60,5f073de81c76c3308c0e4fb3,5f0779933f66b438105f560a,6,,,,,,gorilla,,,,,,,,,,,5,0,0,27,27,49,1,,,,,,,,,,,,,,,,,,,,,,,,,,,,,,,,,,,,,,,,,,,,,,,,,,,,,,,,,,,,,,,,,,,,,,
,,?,0.000685,0,,,,,,stimuli/images/PICTURE_708.png,CLIENT,5b79bd77c4e6ad0001d2f312,11/15/1946,2020-07-09_13h10.47.890,proactive,2020.1.2,Win32,60,5f073de81c76c3308c0e4fb3,5f0779933f66b438105f560a,6,,,,,,monkey,,,,,,,,,,,1,0,0,28,28,5,1,,,,,,,,,,,,,,,,,,,,,,,,,,,,,,,,,,,,,,,,,,,,,,,,,,,,,,,,,,,,,,,,,,,,,,
,,?,0.000545,0,,,,,,stimuli/images/PICTURE_32.png,JUNGLE,5b79bd77c4e6ad0001d2f312,11/15/1946,2020-07-09_13h10.47.890,proactive,2020.1.2,Win32,60,5f073de81c76c3308c0e4fb3,5f0779933f66b438105f560a,6,,,,,,crown,,,,,,,,,,,5,0,0,29,29,45,1,,,,,,,,,,,,,,,,,,,,,,,,,,,,,,,,,,,,,,,,,,,,,,,,,,,,,,,,,,,,,,,,,,,,,,
,,?,15.010215,0,,,,,,stimuli/images/PICTURE_453.png,PLENTY,5b79bd77c4e6ad0001d2f312,11/15/1946,2020-07-09_13h10.47.890,proactive,2020.1.2,Win32,60,5f073de81c76c3308c0e4fb3,5f0779933f66b438105f560a,6,,,,,,scissors,,,,,,,,,,,6,0,0,30,30,56,1,,,,,,,,,,,,,,,,,,,,,,,,,,,,,,,,,,,,,,,,,,,,,,,,,,,,,,,,,,,,,,,,,,,,,,
,,THING,15.0166,1,,,,,,stimuli/images/PICTURE_449.png,THING,5b79bd77c4e6ad0001d2f312,11/15/1946,2020-07-09_13h10.47.890,proactive,2020.1.2,Win32,60,5f073de81c76c3308c0e4fb3,5f0779933f66b438105f560a,6,,,,,,bench,,,,,,,,,,,6,0,0,31,31,59,1,,,,,,,,,,,,,,,,,,,,,,,,,,,,,,,,,,,,,,,,,,,,,,,,,,,,,,,,,,,,,,,,,,,,,,
,,?,0.000905,0,,,,,,stimuli/images/PICTURE_708.png,PENNY,5b79bd77c4e6ad0001d2f312,11/15/1946,2020-07-09_13h10.47.890,proactive,2020.1.2,Win32,60,5f073de81c76c3308c0e4fb3,5f0779933f66b438105f560a,6,,,,,,monkey,,,,,,,,,,,4,0,0,32,32,31,1,,,,,,,,,,,,,,,,,,,,,,,,,,,,,,,,,,,,,,,,,,,,,,,,,,,,,,,,,,,,,,,,,,,,,,
,,?,0.00094,0,,,,,,stimuli/images/PICTURE_327.png,BEAUTY,5b79bd77c4e6ad0001d2f312,11/15/1946,2020-07-09_13h10.47.890,proactive,2020.1.2,Win32,60,5f073de81c76c3308c0e4fb3,5f0779933f66b438105f560a,6,,,,,,helmet,,,,,,,,,,,5,0,0,33,33,48,1,,,,,,,,,,,,,,,,,,,,,,,,,,,,,,,,,,,,,,,,,,,,,,,,,,,,,,,,,,,,,,,,,,,,,,
,,?,0.000895,0,,,,,,stimuli/images/PICTURE_302.png,FAMILY,5b79bd77c4e6ad0001d2f312,11/15/1946,2020-07-09_13h10.47.890,proactive,2020.1.2,Win32,60,5f073de81c76c3308c0e4fb3,5f0779933f66b438105f560a,6,,,,,,taxi,,,,,,,,,,,2,0,0,34,34,18,1,,,,,,,,,,,,,,,,,,,,,,,,,,,,,,,,,,,,,,,,,,,,,,,,,,,,,,,,,,,,,,,,,,,,,,
,,?,0.001245,0,,,,,,stimuli/images/PICTURE_688.png,CASINO,5b79bd77c4e6ad0001d2f312,11/15/1946,2020-07-09_13h10.47.890,proactive,2020.1.2,Win32,60,5f073de81c76c3308c0e4fb3,5f0779933f66b438105f560a,6,,,,,,runner,,,,,,,,,,,1,0,0,35,35,2,1,,,,,,,,,,,,,,,,,,,,,,,,,,,,,,,,,,,,,,,,,,,,,,,,,,,,,,,,,,,,,,,,,,,,,,
,,?,0.000865,0,,,,,,stimuli/images/PICTURE_311.png,FRIEND,5b79bd77c4e6ad0001d2f312,11/15/1946,2020-07-09_13h10.47.890,proactive,2020.1.2,Win32,60,5f073de81c76c3308c0e4fb3,5f0779933f66b438105f560a,6,,,,,,razor,,,,,,,,,,,4,0,0,36,36,34,1,,,,,,,,,,,,,,,,,,,,,,,,,,,,,,,,,,,,,,,,,,,,,,,,,,,,,,,,,,,,,,,,,,,,,,
,,?,0.000815,0,,,,,,stimuli/images/PICTURE_308.png,ESTATE,5b79bd77c4e6ad0001d2f312,11/15/1946,2020-07-09_13h10.47.890,proactive,2020.1.2,Win32,60,5f073de81c76c3308c0e4fb3,5f0779933f66b438105f560a,6,,,,,,dice,,,,,,,,,,,5,0,0,37,37,46,1,,,,,,,,,,,,,,,,,,,,,,,,,,,,,,,,,,,,,,,,,,,,,,,,,,,,,,,,,,,,,,,,,,,,,,
,,?,0.000775,0,,,,,,stimuli/images/PICTURE_160.png,LEADER,5b79bd77c4e6ad0001d2f312,11/15/1946,2020-07-09_13h10.47.890,proactive,2020.1.2,Win32,60,5f073de81c76c3308c0e4fb3,5f0779933f66b438105f560a,6,,,,,,wheelbarrow,,,,,,,,,,,1,0,0,38,38,3,1,,,,,,,,,,,,,,,,,,,,,,,,,,,,,,,,,,,,,,,,,,,,,,,,,,,,,,,,,,,,,,,,,,,,,,
,,?,0.000945,0,,,,,,stimuli/images/PICTURE_203.png,ARTIST,5b79bd77c4e6ad0001d2f312,11/15/1946,2020-07-09_13h10.47.890,proactive,2020.1.2,Win32,60,5f073de81c76c3308c0e4fb3,5f0779933f66b438105f560a,6,,,,,,cap,,,,,,,,,,,3,0,0,39,39,26,1,,,,,,,,,,,,,,,,,,,,,,,,,,,,,,,,,,,,,,,,,,,,,,,,,,,,,,,,,,,,,,,,,,,,,,
,,WRITER,15.023315,1,,,,,,stimuli/images/PICTURE_491.png,WRITER,5b79bd77c4e6ad0001d2f312,11/15/1946,2020-07-09_13h10.47.890,proactive,2020.1.2,Win32,60,5f073de81c76c3308c0e4fb3,5f0779933f66b438105f560a,6,,,,,,rug,,,,,,,,,,,6,0,0,40,40,57,1,,,,,,,,,,,,,,,,,,,,,,,,,,,,,,,,,,,,,,,,,,,,,,,,,,,,,,,,,,,,,,,,,,,,,,
,,?,0.000655,0,,,,,,stimuli/images/PICTURE_285.png,ADVICE,5b79bd77c4e6ad0001d2f312,11/15/1946,2020-07-09_13h10.47.890,proactive,2020.1.2,Win32,60,5f073de81c76c3308c0e4fb3,5f0779933f66b438105f560a,6,,,,,,carrot,,,,,,,,,,,2,0,0,41,41,12,1,,,,,,,,,,,,,,,,,,,,,,,,,,,,,,,,,,,,,,,,,,,,,,,,,,,,,,,,,,,,,,,,,,,,,,
,,?,0.00052,0,,,,,,stimuli/images/PICTURE_95.png,STYLE,5b79bd77c4e6ad0001d2f312,11/15/1946,2020-07-09_13h10.47.890,proactive,2020.1.2,Win32,60,5f073de81c76c3308c0e4fb3,5f0779933f66b438105f560a,6,,,,,,suitcase,,,,,,,,,,,3,0,0,42,42,25,1,,,,,,,,,,,,,,,,,,,,,,,,,,,,,,,,,,,,,,,,,,,,,,,,,,,,,,,,,,,,,,,,,,,,,,
,,?,0.000765,0,,,,,,stimuli/images/PICTURE_667.png,BATH,5b79bd77c4e6ad0001d2f312,11/15/1946,2020-07-09_13h10.47.890,proactive,2020.1.2,Win32,60,5f073de81c76c3308c0e4fb3,5f0779933f66b438105f560a,6,,,,,,daisy,,,,,,,,,,,1,0,0,43,43,4,1,,,,,,,,,,,,,,,,,,,,,,,,,,,,,,,,,,,,,,,,,,,,,,,,,,,,,,,,,,,,,,,,,,,,,,
,,?,0.00053,0,,,,,,stimuli/images/PICTURE_654.png,VALLEY,5b79bd77c4e6ad0001d2f312,11/15/1946,2020-07-09_13h10.47.890,proactive,2020.1.2,Win32,60,5f073de81c76c3308c0e4fb3,5f0779933f66b438105f560a,6,,,,,,pencil,,,,,,,,,,,1,0,0,44,44,1,1,,,,,,,,,,,,,,,,,,,,,,,,,,,,,,,,,,,,,,,,,,,,,,,,,,,,,,,,,,,,,,,,,,,,,,
,,?,0.00053,0,,,,,,stimuli/images/PICTURE_491.png,ROOF,5b79bd77c4e6ad0001d2f312,11/15/1946,2020-07-09_13h10.47.890,proactive,2020.1.2,Win32,60,5f073de81c76c3308c0e4fb3,5f0779933f66b438105f560a,6,,,,,,rug,,,,,,,,,,,3,0,0,45,45,24,1,,,,,,,,,,,,,,,,,,,,,,,,,,,,,,,,,,,,,,,,,,,,,,,,,,,,,,,,,,,,,,,,,,,,,,
,,?,0.00053,0,,,,,,stimuli/images/PICTURE_255.png,AREA,5b79bd77c4e6ad0001d2f312,11/15/1946,2020-07-09_13h10.47.890,proactive,2020.1.2,Win32,60,5f073de81c76c3308c0e4fb3,5f0779933f66b438105f560a,6,,,,,,shovel,,,,,,,,,,,3,0,0,46,46,22,1,,,,,,,,,,,,,,,,,,,,,,,,,,,,,,,,,,,,,,,,,,,,,,,,,,,,,,,,,,,,,,,,,,,,,,
,,?,0.0005,0,,,,,,stimuli/images/PICTURE_453.png,DUDE,5b79bd77c4e6ad0001d2f312,11/15/1946,2020-07-09_13h10.47.890,proactive,2020.1.2,Win32,60,5f073de81c76c3308c0e4fb3,5f0779933f66b438105f560a,6,,,,,,scissors,,,,,,,,,,,3,0,0,47,47,27,1,,,,,,,,,,,,,,,,,,,,,,,,,,,,,,,,,,,,,,,,,,,,,,,,,,,,,,,,,,,,,,,,,,,,,,
,,?,15.01037,0,,,,,,stimuli/images/PICTURE_123.png,ADVICE,5b79bd77c4e6ad0001d2f312,11/15/1946,2020-07-09_13h10.47.890,proactive,2020.1.2,Win32,60,5f073de81c76c3308c0e4fb3,5f0779933f66b438105f560a,6,,,,,,dart,,,,,,,,,,,6,0,0,48,48,50,1,,,,,,,,,,,,,,,,,,,,,,,,,,,,,,,,,,,,,,,,,,,,,,,,,,,,,,,,,,,,,,,,,,,,,,
,,?,15.016725,0,,,,,,stimuli/images/PICTURE_160.png,FEET,5b79bd77c4e6ad0001d2f312,11/15/1946,2020-07-09_13h10.47.890,proactive,2020.1.2,Win32,60,5f073de81c76c3308c0e4fb3,5f0779933f66b438105f560a,6,,,,,,wheelbarrow,,,,,,,,,,,6,0,0,49,49,58,1,,,,,,,,,,,,,,,,,,,,,,,,,,,,,,,,,,,,,,,,,,,,,,,,,,,,,,,,,,,,,,,,,,,,,,
,,?,0.00072,0,,,,,,stimuli/images/PICTURE_68.png,MILE,5b79bd77c4e6ad0001d2f312,11/15/1946,2020-07-09_13h10.47.890,proactive,2020.1.2,Win32,60,5f073de81c76c3308c0e4fb3,5f0779933f66b438105f560a,6,,,,,,candle,,,,,,,,,,,5,0,0,50,50,44,1,,,,,,,,,,,,,,,,,,,,,,,,,,,,,,,,,,,,,,,,,,,,,,,,,,,,,,,,,,,,,,,,,,,,,,
,,?,0.000685,0,,,,,,stimuli/images/PICTURE_208.png,THING,5b79bd77c4e6ad0001d2f312,11/15/1946,2020-07-09_13h10.47.890,proactive,2020.1.2,Win32,60,5f073de81c76c3308c0e4fb3,5f0779933f66b438105f560a,6,,,,,,microphone,,,,,,,,,,,5,0,0,51,51,47,1,,,,,,,,,,,,,,,,,,,,,,,,,,,,,,,,,,,,,,,,,,,,,,,,,,,,,,,,,,,,,,,,,,,,,,
,,?,0.00055,0,,,,,,stimuli/images/PICTURE_688.png,WOMEN,5b79bd77c4e6ad0001d2f312,11/15/1946,2020-07-09_13h10.47.890,proactive,2020.1.2,Win32,60,5f073de81c76c3308c0e4fb3,5f0779933f66b438105f560a,6,,,,,,runner,,,,,,,,,,,2,0,0,52,52,14,1,,,,,,,,,,,,,,,,,,,,,,,,,,,,,,,,,,,,,,,,,,,,,,,,,,,,,,,,,,,,,,,,,,,,,,
,,?,0.0005,0,,,,,,stimuli/images/PICTURE_744.png,SYSTEM,5b79bd77c4e6ad0001d2f312,11/15/1946,2020-07-09_13h10.47.890,proactive,2020.1.2,Win32,60,5f073de81c76c3308c0e4fb3,5f0779933f66b438105f560a,6,,,,,,ring,,,,,,,,,,,5,0,0,53,53,43,1,,,,,,,,,,,,,,,,,,,,,,,,,,,,,,,,,,,,,,,,,,,,,,,,,,,,,,,,,,,,,,,,,,,,,,
,,?,0.000555,0,,,,,,stimuli/images/PICTURE_233.png,IDEAS,5b79bd77c4e6ad0001d2f312,11/15/1946,2020-07-09_13h10.47.890,proactive,2020.1.2,Win32,60,5f073de81c76c3308c0e4fb3,5f0779933f66b438105f560a,6,,,,,,salt,,,,,,,,,,,3,0,0,54,54,28,1,,,,,,,,,,,,,,,,,,,,,,,,,,,,,,,,,,,,,,,,,,,,,,,,,,,,,,,,,,,,,,,,,,,,,,
,,?,0.00062,0,,,,,,stimuli/images/PICTURE_487.png,FLIGHT,5b79bd77c4e6ad0001d2f312,11/15/1946,2020-07-09_13h10.47.890,proactive,2020.1.2,Win32,60,5f073de81c76c3308c0e4fb3,5f0779933f66b438105f560a,6,,,,,,basket,,,,,,,,,,,1,0,0,55,55,9,1,,,,,,,,,,,,,,,,,,,,,,,,,,,,,,,,,,,,,,,,,,,,,,,,,,,,,,,,,,,,,,,,,,,,,,
,,?,0.00052,0,,,,,,stimuli/images/PICTURE_314.png,SAKE,5b79bd77c4e6ad0001d2f312,11/15/1946,2020-07-09_13h10.47.890,proactive,2020.1.2,Win32,60,5f073de81c76c3308c0e4fb3,5f0779933f66b438105f560a,6,,,,,,perfume,,,,,,,,,,,1,0,0,56,56,7,1,,,,,,,,,,,,,,,,,,,,,,,,,,,,,,,,,,,,,,,,,,,,,,,,,,,,,,,,,,,,,,,,,,,,,,
,,?,0.000515,0,,,,,,stimuli/images/PICTURE_469.png,LETTER,5b79bd77c4e6ad0001d2f312,11/15/1946,2020-07-09_13h10.47.890,proactive,2020.1.2,Win32,60,5f073de81c76c3308c0e4fb3,5f0779933f66b438105f560a,6,,,,,,stool,,,,,,,,,,,5,0,0,57,57,42,1,,,,,,,,,,,,,,,,,,,,,,,,,,,,,,,,,,,,,,,,,,,,,,,,,,,,,,,,,,,,,,,,,,,,,,
,,?,0.00059,0,,,,,,stimuli/images/PICTURE_348.png,SPEECH,5b79bd77c4e6ad0001d2f312,11/15/1946,2020-07-09_13h10.47.890,proactive,2020.1.2,Win32,60,5f073de81c76c3308c0e4fb3,5f0779933f66b438105f560a,6,,,,,,pepper,,,,,,,,,,,3,0,0,58,58,20,1,,,,,,,,,,,,,,,,,,,,,,,,,,,,,,,,,,,,,,,,,,,,,,,,,,,,,,,,,,,,,,,,,,,,,,
,,?,0.00059,0,,,,,,stimuli/images/PICTURE_667.png,PLENTY,5b79bd77c4e6ad0001d2f312,11/15/1946,2020-07-09_13h10.47.890,proactive,2020.1.2,Win32,60,5f073de81c76c3308c0e4fb3,5f0779933f66b438105f560a,6,,,,,,daisy,,,,,,,,,,,5,0,0,59,59,41,1,,,,,,,,,,,,,,,,,,,,,,,,,,,,,,,,,,,,,,,,,,,,,,,,,,,,,,,,,,,,,,,,,,,,,,
,,,,,,,,,,,,5b79bd77c4e6ad0001d2f312,11/15/1946,2020-07-09_13h10.47.890,proactive,2020.1.2,Win32,60,5f073de81c76c3308c0e4fb3,5f0779933f66b438105f560a,6,,,,,,,,,,,,,,,,,,,,,,,,0,1,1,0,1,stimuli/learn-block1.csv,,,,,,,,,,,,,,,,,,,,,,,,,,,,,,,,,,,,,,,,,,,,,,,,,,,,,,,,,,,,,,,,
,,,,,,,,,,stimuli/images/PICTURE_509.png,APPLE,5b79bd77c4e6ad0001d2f312,11/15/1946,2020-07-09_13h10.47.890,proactive,2020.1.2,Win32,60,5f073de81c76c3308c0e4fb3,5f0779933f66b438105f560a,6,,,,,,telephone,,,,,,0,0,0,38,1,4,2,,,,,,,,,,,,,,,,,,,,,,,,,,,,,,,,,,,,,,,,,,,,,,,,,,,,,,,,,,,,,,,,,,,,,,,,,,,
,,,,,,,,,,stimuli/images/PICTURE_208.png,SPIRIT,5b79bd77c4e6ad0001d2f312,11/15/1946,2020-07-09_13h10.47.890,proactive,2020.1.2,Win32,60,5f073de81c76c3308c0e4fb3,5f0779933f66b438105f560a,6,,,,,,microphone,,,,,,0,1,1,28,1,3,2,,,,,,,,,,,,,,,,,,,,,,,,,,,,,,,,,,,,,,,,,,,,,,,,,,,,,,,,,,,,,,,,,,,,,,,,,,,
,,,,,,,,,,stimuli/images/PICTURE_509.png,MILLER,5b79bd77c4e6ad0001d2f312,11/15/1946,2020-07-09_13h10.47.890,proactive,2020.1.2,Win32,60,5f073de81c76c3308c0e4fb3,5f0779933f66b438105f560a,6,,,,,,telephone,,,,,,0,2,2,49,1,5,2,,,,,,,,,,,,,,,,,,,,,,,,,,,,,,,,,,,,,,,,,,,,,,,,,,,,,,,,,,,,,,,,,,,,,,,,,,,
,,,,,,,,,,stimuli/images/PICTURE_255.png,PENNY,5b79bd77c4e6ad0001d2f312,11/15/1946,2020-07-09_13h10.47.890,proactive,2020.1.2,Win32,60,5f073de81c76c3308c0e4fb3,5f0779933f66b438105f560a,6,,,,,,shovel,,,,,,0,3,3,19,1,2,2,,,,,,,,,,,,,,,,,,,,,,,,,,,,,,,,,,,,,,,,,,,,,,,,,,,,,,,,,,,,,,,,,,,,,,,,,,,
,,,,,,,,,,stimuli/images/PICTURE_667.png,GLASS,5b79bd77c4e6ad0001d2f312,11/15/1946,2020-07-09_13h10.47.890,proactive,2020.1.2,Win32,60,5f073de81c76c3308c0e4fb3,5f0779933f66b438105f560a,6,,,,,,daisy,,,,,,0,4,4,27,1,3,2,,,,,,,,,,,,,,,,,,,,,,,,,,,,,,,,,,,,,,,,,,,,,,,,,,,,,,,,,,,,,,,,,,,,,,,,,,,
,,,,,,,,,,stimuli/images/PICTURE_403.png,FAMILY,5b79bd77c4e6ad0001d2f312,11/15/1946,2020-07-09_13h10.47.890,proactive,2020.1.2,Win32,60,5f073de81c76c3308c0e4fb3,5f0779933f66b438105f560a,6,,,,,,cathedral,,,,,,0,5,5,9,1,1,2,,,,,,,,,,,,,,,,,,,,,,,,,,,,,,,,,,,,,,,,,,,,,,,,,,,,,,,,,,,,,,,,,,,,,,,,,,,
,,,,,,,,,,stimuli/images/PICTURE_285.png,PRINCE,5b79bd77c4e6ad0001d2f312,11/15/1946,2020-07-09_13h10.47.890,proactive,2020.1.2,Win32,60,5f073de81c76c3308c0e4fb3,5f0779933f66b438105f560a,6,,,,,,carrot,,,,,,0,6,6,20,1,3,2,,,,,,,,,,,,,,,,,,,,,,,,,,,,,,,,,,,,,,,,,,,,,,,,,,,,,,,,,,,,,,,,,,,,,,,,,,,
,,,,,,,,,,stimuli/images/PICTURE_470.png,MOMENT,5b79bd77c4e6ad0001d2f312,11/15/1946,2020-07-09_13h10.47.890,proactive,2020.1.2,Win32,60,5f073de81c76c3308c0e4fb3,5f0779933f66b438105f560a,6,,,,,,motorbike,,,,,,0,7,7,40,1,5,2,,,,,,,,,,,,,,,,,,,,,,,,,,,,,,,,,,,,,,,,,,,,,,,,,,,,,,,,,,,,,,,,,,,,,,,,,,,
,,,,,,,,,,stimuli/images/PICTURE_57.png,NATION,5b79bd77c4e6ad0001d2f312,11/15/1946,2020-07-09_13h10.47.890,proactive,2020.1.2,Win32,60,5f073de81c76c3308c0e4fb3,5f0779933f66b438105f560a,6,,,,,,stamp,,,,,,0,8,8,21,1,3,2,,,,,,,,,,,,,,,,,,,,,,,,,,,,,,,,,,,,,,,,,,,,,,,,,,,,,,,,,,,,,,,,,,,,,,,,,,,
,,,,,,,,,,stimuli/images/PICTURE_2.png,AREA,5b79bd77c4e6ad0001d2f312,11/15/1946,2020-07-09_13h10.47.890,proactive,2020.1.2,Win32,60,5f073de81c76c3308c0e4fb3,5f0779933f66b438105f560a,6,,,,,,tyre,,,,,,0,9,9,32,1,4,2,,,,,,,,,,,,,,,,,,,,,,,,,,,,,,,,,,,,,,,,,,,,,,,,,,,,,,,,,,,,,,,,,,,,,,,,,,,
,,,,,,,,,,stimuli/images/PICTURE_688.png,CLOCK,5b79bd77c4e6ad0001d2f312,11/15/1946,2020-07-09_13h10.47.890,proactive,2020.1.2,Win32,60,5f073de81c76c3308c0e4fb3,5f0779933f66b438105f560a,6,,,,,,runner,,,,,,0,10,10,42,1,5,2,,,,,,,,,,,,,,,,,,,,,,,,,,,,,,,,,,,,,,,,,,,,,,,,,,,,,,,,,,,,,,,,,,,,,,,,,,,
,,,,,,,,,,stimuli/images/PICTURE_405.png,JUNGLE,5b79bd77c4e6ad0001d2f312,11/15/1946,2020-07-09_13h10.47.890,proactive,2020.1.2,Win32,60,5f073de81c76c3308c0e4fb3,5f0779933f66b438105f560a,6,,,,,,anchor,,,,,,0,11,11,13,1,2,2,,,,,,,,,,,,,,,,,,,,,,,,,,,,,,,,,,,,,,,,,,,,,,,,,,,,,,,,,,,,,,,,,,,,,,,,,,,
,,,,,,,,,,stimuli/images/PICTURE_509.png,BATH,5b79bd77c4e6ad0001d2f312,11/15/1946,2020-07-09_13h10.47.890,proactive,2020.1.2,Win32,60,5f073de81c76c3308c0e4fb3,5f0779933f66b438105f560a,6,,,,,,telephone,,,,,,0,12,12,15,1,2,2,,,,,,,,,,,,,,,,,,,,,,,,,,,,,,,,,,,,,,,,,,,,,,,,,,,,,,,,,,,,,,,,,,,,,,,,,,,
,,,,,,,,,,stimuli/images/PICTURE_564.png,PLENTY,5b79bd77c4e6ad0001d2f312,11/15/1946,2020-07-09_13h10.47.890,proactive,2020.1.2,Win32,60,5f073de81c76c3308c0e4fb3,5f0779933f66b438105f560a,6,,,,,,spoon,,,,,,0,13,13,11,1,2,2,,,,,,,,,,,,,,,,,,,,,,,,,,,,,,,,,,,,,,,,,,,,,,,,,,,,,,,,,,,,,,,,,,,,,,,,,,,
,,,,,,,,,,stimuli/images/PICTURE_297.png,BODY,5b79bd77c4e6ad0001d2f312,11/15/1946,2020-07-09_13h10.47.890,proactive,2020.1.2,Win32,60,5f073de81c76c3308c0e4fb3,5f0779933f66b438105f560a,6,,,,,,aeroplane,,,,,,0,14,14,51,1,6,2,,,,,,,,,,,,,,,,,,,,,,,,,,,,,,,,,,,,,,,,,,,,,,,,,,,,,,,,,,,,,,,,,,,,,,,,,,,
,,,,,,,,,,stimuli/images/PICTURE_504.png,HOUSE,5b79bd77c4e6ad0001d2f312,11/15/1946,2020-07-09_13h10.47.890,proactive,2020.1.2,Win32,60,5f073de81c76c3308c0e4fb3,5f0779933f66b438105f560a,6,,,,,,wheel,,,,,,0,15,15,36,1,4,2,,,,,,,,,,,,,,,,,,,,,,,,,,,,,,,,,,,,,,,,,,,,,,,,,,,,,,,,,,,,,,,,,,,,,,,,,,,
,,,,,,,,,,stimuli/images/PICTURE_348.png,TOILET,5b79bd77c4e6ad0001d2f312,11/15/1946,2020-07-09_13h10.47.890,proactive,2020.1.2,Win32,60,5f073de81c76c3308c0e4fb3,5f0779933f66b438105f560a,6,,,,,,pepper,,,,,,0,16,16,4,1,1,2,,,,,,,,,,,,,,,,,,,,,,,,,,,,,,,,,,,,,,,,,,,,,,,,,,,,,,,,,,,,,,,,,,,,,,,,,,,
,,,,,,,,,,stimuli/images/PICTURE_296.png,CLOCK,5b79bd77c4e6ad0001d2f312,11/15/1946,2020-07-09_13h10.47.890,proactive,2020.1.2,Win32,60,5f073de81c76c3308c0e4fb3,5f0779933f66b438105f560a,6,,,,,,bolt,,,,,,0,17,17,18,1,2,2,,,,,,,,,,,,,,,,,,,,,,,,,,,,,,,,,,,,,,,,,,,,,,,,,,,,,,,,,,,,,,,,,,,,,,,,,,,
,,,,,,,,,,stimuli/images/PICTURE_57.png,CANDY,5b79bd77c4e6ad0001d2f312,11/15/1946,2020-07-09_13h10.47.890,proactive,2020.1.2,Win32,60,5f073de81c76c3308c0e4fb3,5f0779933f66b438105f560a,6,,,,,,stamp,,,,,,0,18,18,52,1,6,2,,,,,,,,,,,,,,,,,,,,,,,,,,,,,,,,,,,,,,,,,,,,,,,,,,,,,,,,,,,,,,,,,,,,,,,,,,,
,,,,,,,,,,stimuli/images/PICTURE_405.png,HOUSE,5b79bd77c4e6ad0001d2f312,11/15/1946,2020-07-09_13h10.47.890,proactive,2020.1.2,Win32,60,5f073de81c76c3308c0e4fb3,5f0779933f66b438105f560a,6,,,,,,anchor,,,,,,0,19,19,2,1,1,2,,,,,,,,,,,,,,,,,,,,,,,,,,,,,,,,,,,,,,,,,,,,,,,,,,,,,,,,,,,,,,,,,,,,,,,,,,,
,,,,,,,,,,stimuli/images/PICTURE_160.png,HOTEL,5b79bd77c4e6ad0001d2f312,11/15/1946,2020-07-09_13h10.47.890,proactive,2020.1.2,Win32,60,5f073de81c76c3308c0e4fb3,5f0779933f66b438105f560a,6,,,,,,wheelbarrow,,,,,,0,20,20,16,1,2,2,,,,,,,,,,,,,,,,,,,,,,,,,,,,,,,,,,,,,,,,,,,,,,,,,,,,,,,,,,,,,,,,,,,,,,,,,,,
,,,,,,,,,,stimuli/images/PICTURE_750.png,POLICY,5b79bd77c4e6ad0001d2f312,11/15/1946,2020-07-09_13h10.47.890,proactive,2020.1.2,Win32,60,5f073de81c76c3308c0e4fb3,5f0779933f66b438105f560a,6,,,,,,kettle,,,,,,0,21,21,44,1,5,2,,,,,,,,,,,,,,,,,,,,,,,,,,,,,,,,,,,,,,,,,,,,,,,,,,,,,,,,,,,,,,,,,,,,,,,,,,,
,,,,,,,,,,stimuli/images/PICTURE_452.png,COPS,5b79bd77c4e6ad0001d2f312,11/15/1946,2020-07-09_13h10.47.890,proactive,2020.1.2,Win32,60,5f073de81c76c3308c0e4fb3,5f0779933f66b438105f560a,6,,,,,,watch,,,,,,0,22,22,0,1,1,2,,,,,,,,,,,,,,,,,,,,,,,,,,,,,,,,,,,,,,,,,,,,,,,,,,,,,,,,,,,,,,,,,,,,,,,,,,,
,,,,,,,,,,stimuli/images/PICTURE_655.png,SALE,5b79bd77c4e6ad0001d2f312,11/15/1946,2020-07-09_13h10.47.890,proactive,2020.1.2,Win32,60,5f073de81c76c3308c0e4fb3,5f0779933f66b438105f560a,6,,,,,,megaphone,,,,,,0,23,23,57,1,6,2,,,,,,,,,,,,,,,,,,,,,,,,,,,,,,,,,,,,,,,,,,,,,,,,,,,,,,,,,,,,,,,,,,,,,,,,,,,
,,,,,,,,,,stimuli/images/PICTURE_677.png,PHOTO,5b79bd77c4e6ad0001d2f312,11/15/1946,2020-07-09_13h10.47.890,proactive,2020.1.2,Win32,60,5f073de81c76c3308c0e4fb3,5f0779933f66b438105f560a,6,,,,,,map,,,,,,0,24,24,14,1,2,2,,,,,,,,,,,,,,,,,,,,,,,,,,,,,,,,,,,,,,,,,,,,,,,,,,,,,,,,,,,,,,,,,,,,,,,,,,,
,,,,,,,,,,stimuli/images/PICTURE_177.png,HOUSE,5b79bd77c4e6ad0001d2f312,11/15/1946,2020-07-09_13h10.47.890,proactive,2020.1.2,Win32,60,5f073de81c76c3308c0e4fb3,5f0779933f66b438105f560a,6,,,,,,mushroom,,,,,,0,25,25,25,1,3,2,,,,,,,,,,,,,,,,,,,,,,,,,,,,,,,,,,,,,,,,,,,,,,,,,,,,,,,,,,,,,,,,,,,,,,,,,,,
,,,,,,,,,,stimuli/images/PICTURE_57.png,CASINO,5b79bd77c4e6ad0001d2f312,11/15/1946,2020-07-09_13h10.47.890,proactive,2020.1.2,Win32,60,5f073de81c76c3308c0e4fb3,5f0779933f66b438105f560a,6,,,,,,stamp,,,,,,0,26,26,12,1,2,2,,,,,,,,,,,,,,,,,,,,,,,,,,,,,,,,,,,,,,,,,,,,,,,,,,,,,,,,,,,,,,,,,,,,,,,,,,,
,,,,,,,,,,stimuli/images/PICTURE_509.png,SHOTS,5b79bd77c4e6ad0001d2f312,11/15/1946,2020-07-09_13h10.47.890,proactive,2020.1.2,Win32,60,5f073de81c76c3308c0e4fb3,5f0779933f66b438105f560a,6,,,,,,telephone,,,,,,0,27,27,7,1,1,2,,,,,,,,,,,,,,,,,,,,,,,,,,,,,,,,,,,,,,,,,,,,,,,,,,,,,,,,,,,,,,,,,,,,,,,,,,,
,,,,,,,,,,stimuli/images/PICTURE_311.png,TOILET,5b79bd77c4e6ad0001d2f312,11/15/1946,2020-07-09_13h10.47.890,proactive,2020.1.2,Win32,60,5f073de81c76c3308c0e4fb3,5f0779933f66b438105f560a,6,,,,,,razor,,,,,,0,28,28,54,1,6,2,,,,,,,,,,,,,,,,,,,,,,,,,,,,,,,,,,,,,,,,,,,,,,,,,,,,,,,,,,,,,,,,,,,,,,,,,,,
,,,,,,,,,,stimuli/images/PICTURE_93.png,GIRL,5b79bd77c4e6ad0001d2f312,11/15/1946,2020-07-09_13h10.47.890,proactive,2020.1.2,Win32,60,5f073de81c76c3308c0e4fb3,5f0779933f66b438105f560a,6,,,,,,skateboard,,,,,,0,29,29,31,1,4,2,,,,,,,,,,,,,,,,,,,,,,,,,,,,,,,,,,,,,,,,,,,,,,,,,,,,,,,,,,,,,,,,,,,,,,,,,,,
,,,,,,,,,,stimuli/images/PICTURE_215.png,FOOD,5b79bd77c4e6ad0001d2f312,11/15/1946,2020-07-09_13h10.47.890,proactive,2020.1.2,Win32,60,5f073de81c76c3308c0e4fb3,5f0779933f66b438105f560a,6,,,,,,boot,,,,,,0,30,30,5,1,1,2,,,,,,,,,,,,,,,,,,,,,,,,,,,,,,,,,,,,,,,,,,,,,,,,,,,,,,,,,,,,,,,,,,,,,,,,,,,
,,,,,,,,,,stimuli/images/PICTURE_2.png,YARD,5b79bd77c4e6ad0001d2f312,11/15/1946,2020-07-09_13h10.47.890,proactive,2020.1.2,Win32,60,5f073de81c76c3308c0e4fb3,5f0779933f66b438105f560a,6,,,,,,tyre,,,,,,0,31,31,55,1,6,2,,,,,,,,,,,,,,,,,,,,,,,,,,,,,,,,,,,,,,,,,,,,,,,,,,,,,,,,,,,,,,,,,,,,,,,,,,,
,,,,,,,,,,stimuli/images/PICTURE_487.png,ROOF,5b79bd77c4e6ad0001d2f312,11/15/1946,2020-07-09_13h10.47.890,proactive,2020.1.2,Win32,60,5f073de81c76c3308c0e4fb3,5f0779933f66b438105f560a,6,,,,,,basket,,,,,,0,32,32,50,1,6,2,,,,,,,,,,,,,,,,,,,,,,,,,,,,,,,,,,,,,,,,,,,,,,,,,,,,,,,,,,,,,,,,,,,,,,,,,,,
,,,,,,,,,,stimuli/images/PICTURE_708.png,VALLEY,5b79bd77c4e6ad0001d2f312,11/15/1946,2020-07-09_13h10.47.890,proactive,2020.1.2,Win32,60,5f073de81c76c3308c0e4fb3,5f0779933f66b438105f560a,6,,,,,,monkey,,,,,,0,33,33,45,1,5,2,,,,,,,,,,,,,,,,,,,,,,,,,,,,,,,,,,,,,,,,,,,,,,,,,,,,,,,,,,,,,,,,,,,,,,,,,,,
,,,,,,,,,,stimuli/images/PICTURE_491.png,SERIES,5b79bd77c4e6ad0001d2f312,11/15/1946,2020-07-09_13h10.47.890,proactive,2020.1.2,Win32,60,5f073de81c76c3308c0e4fb3,5f0779933f66b438105f560a,6,,,,,,rug,,,,,,0,34,34,39,1,4,2,,,,,,,,,,,,,,,,,,,,,,,,,,,,,,,,,,,,,,,,,,,,,,,,,,,,,,,,,,,,,,,,,,,,,,,,,,,
,,,,,,,,,,stimuli/images/PICTURE_453.png,FAMILY,5b79bd77c4e6ad0001d2f312,11/15/1946,2020-07-09_13h10.47.890,proactive,2020.1.2,Win32,60,5f073de81c76c3308c0e4fb3,5f0779933f66b438105f560a,6,,,,,,scissors,,,,,,0,35,35,48,1,5,2,,,,,,,,,,,,,,,,,,,,,,,,,,,,,,,,,,,,,,,,,,,,,,,,,,,,,,,,,,,,,,,,,,,,,,,,,,,
,,,,,,,,,,stimuli/images/PICTURE_33.png,COPS,5b79bd77c4e6ad0001d2f312,11/15/1946,2020-07-09_13h10.47.890,proactive,2020.1.2,Win32,60,5f073de81c76c3308c0e4fb3,5f0779933f66b438105f560a,6,,,,,,frame,,,,,,0,36,36,29,1,3,2,,,,,,,,,,,,,,,,,,,,,,,,,,,,,,,,,,,,,,,,,,,,,,,,,,,,,,,,,,,,,,,,,,,,,,,,,,,
,,,,,,,,,,stimuli/images/PICTURE_215.png,LEADER,5b79bd77c4e6ad0001d2f312,11/15/1946,2020-07-09_13h10.47.890,proactive,2020.1.2,Win32,60,5f073de81c76c3308c0e4fb3,5f0779933f66b438105f560a,6,,,,,,boot,,,,,,0,37,37,43,1,5,2,,,,,,,,,,,,,,,,,,,,,,,,,,,,,,,,,,,,,,,,,,,,,,,,,,,,,,,,,,,,,,,,,,,,,,,,,,,
,,,,,,,,,,stimuli/images/PICTURE_215.png,BOYS,5b79bd77c4e6ad0001d2f312,11/15/1946,2020-07-09_13h10.47.890,proactive,2020.1.2,Win32,60,5f073de81c76c3308c0e4fb3,5f0779933f66b438105f560a,6,,,,,,boot,,,,,,0,38,38,24,1,3,2,,,,,,,,,,,,,,,,,,,,,,,,,,,,,,,,,,,,,,,,,,,,,,,,,,,,,,,,,,,,,,,,,,,,,,,,,,,
,,,,,,,,,,stimuli/images/PICTURE_18.png,RIVER,5b79bd77c4e6ad0001d2f312,11/15/1946,2020-07-09_13h10.47.890,proactive,2020.1.2,Win32,60,5f073de81c76c3308c0e4fb3,5f0779933f66b438105f560a,6,,,,,,planet,,,,,,0,39,39,22,1,3,2,,,,,,,,,,,,,,,,,,,,,,,,,,,,,,,,,,,,,,,,,,,,,,,,,,,,,,,,,,,,,,,,,,,,,,,,,,,
,,,,,,,,,,stimuli/images/PICTURE_677.png,FAMILY,5b79bd77c4e6ad0001d2f312,11/15/1946,2020-07-09_13h10.47.890,proactive,2020.1.2,Win32,60,5f073de81c76c3308c0e4fb3,5f0779933f66b438105f560a,6,,,,,,map,,,,,,0,40,40,53,1,6,2,,,,,,,,,,,,,,,,,,,,,,,,,,,,,,,,,,,,,,,,,,,,,,,,,,,,,,,,,,,,,,,,,,,,,,,,,,,
,,,,,,,,,,stimuli/images/PICTURE_487.png,POLICY,5b79bd77c4e6ad0001d2f312,11/15/1946,2020-07-09_13h10.47.890,proactive,2020.1.2,Win32,60,5f073de81c76c3308c0e4fb3,5f0779933f66b438105f560a,6,,,,,,basket,,,,,,0,41,41,34,1,4,2,,,,,,,,,,,,,,,,,,,,,,,,,,,,,,,,,,,,,,,,,,,,,,,,,,,,,,,,,,,,,,,,,,,,,,,,,,,
,,,,,,,,,,stimuli/images/PICTURE_348.png,DUDE,5b79bd77c4e6ad0001d2f312,11/15/1946,2020-07-09_13h10.47.890,proactive,2020.1.2,Win32,60,5f073de81c76c3308c0e4fb3,5f0779933f66b438105f560a,6,,,,,,pepper,,,,,,0,42,42,59,1,6,2,,,,,,,,,,,,,,,,,,,,,,,,,,,,,,,,,,,,,,,,,,,,,,,,,,,,,,,,,,,,,,,,,,,,,,,,,,,
,,,,,,,,,,stimuli/images/PICTURE_285.png,WRITER,5b79bd77c4e6ad0001d2f312,11/15/1946,2020-07-09_13h10.47.890,proactive,2020.1.2,Win32,60,5f073de81c76c3308c0e4fb3,5f0779933f66b438105f560a,6,,,,,,carrot,,,,,,0,43,43,6,1,1,2,,,,,,,,,,,,,,,,,,,,,,,,,,,,,,,,,,,,,,,,,,,,,,,,,,,,,,,,,,,,,,,,,,,,,,,,,,,
,,,,,,,,,,stimuli/images/PICTURE_654.png,YEAR,5b79bd77c4e6ad0001d2f312,11/15/1946,2020-07-09_13h10.47.890,proactive,2020.1.2,Win32,60,5f073de81c76c3308c0e4fb3,5f0779933f66b438105f560a,6,,,,,,pencil,,,,,,0,44,44,41,1,5,2,,,,,,,,,,,,,,,,,,,,,,,,,,,,,,,,,,,,,,,,,,,,,,,,,,,,,,,,,,,,,,,,,,,,,,,,,,,
,,,,,,,,,,stimuli/images/PICTURE_147.png,LEADER,5b79bd77c4e6ad0001d2f312,11/15/1946,2020-07-09_13h10.47.890,proactive,2020.1.2,Win32,60,5f073de81c76c3308c0e4fb3,5f0779933f66b438105f560a,6,,,,,,hanger,,,,,,0,45,45,33,1,4,2,,,,,,,,,,,,,,,,,,,,,,,,,,,,,,,,,,,,,,,,,,,,,,,,,,,,,,,,,,,,,,,,,,,,,,,,,,,
,,,,,,,,,,stimuli/images/PICTURE_405.png,JUNGLE,5b79bd77c4e6ad0001d2f312,11/15/1946,2020-07-09_13h10.47.890,proactive,2020.1.2,Win32,60,5f073de81c76c3308c0e4fb3,5f0779933f66b438105f560a,6,,,,,,anchor,,,,,,0,46,46,58,1,6,2,,,,,,,,,,,,,,,,,,,,,,,,,,,,,,,,,,,,,,,,,,,,,,,,,,,,,,,,,,,,,,,,,,,,,,,,,,,
,,,,,,,,,,stimuli/images/PICTURE_68.png,KIND,5b79bd77c4e6ad0001d2f312,11/15/1946,2020-07-09_13h10.47.890,proactive,2020.1.2,Win32,60,5f073de81c76c3308c0e4fb3,5f0779933f66b438105f560a,6,,,,,,candle,,,,,,0,47,47,23,1,3,2,,,,,,,,,,,,,,,,,,,,,,,,,,,,,,,,,,,,,,,,,,,,,,,,,,,,,,,,,,,,,,,,,,,,,,,,,,,
,,,,,,,,,,stimuli/images/PICTURE_470.png,BEAUTY,5b79bd77c4e6ad0001d2f312,11/15/1946,2020-07-09_13h10.47.890,proactive,2020.1.2,Win32,60,5f073de81c76c3308c0e4fb3,5f0779933f66b438105f560a,6,,,,,,motorbike,,,,,,0,48,48,26,1,3,2,,,,,,,,,,,,,,,,,,,,,,,,,,,,,,,,,,,,,,,,,,,,,,,,,,,,,,,,,,,,,,,,,,,,,,,,,,,
,,,,,,,,,,stimuli/images/PICTURE_32.png,LETTER,5b79bd77c4e6ad0001d2f312,11/15/1946,2020-07-09_13h10.47.890,proactive,2020.1.2,Win32,60,5f073de81c76c3308c0e4fb3,5f0779933f66b438105f560a,6,,,,,,crown,,,,,,0,49,49,56,1,6,2,,,,,,,,,,,,,,,,,,,,,,,,,,,,,,,,,,,,,,,,,,,,,,,,,,,,,,,,,,,,,,,,,,,,,,,,,,,
,,,,,,,,,,stimuli/images/PICTURE_314.png,SPEECH,5b79bd77c4e6ad0001d2f312,11/15/1946,2020-07-09_13h10.47.890,proactive,2020.1.2,Win32,60,5f073de81c76c3308c0e4fb3,5f0779933f66b438105f560a,6,,,,,,perfume,,,,,,0,50,50,35,1,4,2,,,,,,,,,,,,,,,,,,,,,,,,,,,,,,,,,,,,,,,,,,,,,,,,,,,,,,,,,,,,,,,,,,,,,,,,,,,
,,,,,,,,,,stimuli/images/PICTURE_141.png,CLIENT,5b79bd77c4e6ad0001d2f312,11/15/1946,2020-07-09_13h10.47.890,proactive,2020.1.2,Win32,60,5f073de81c76c3308c0e4fb3,5f0779933f66b438105f560a,6,,,,,,sunflower,,,,,,0,51,51,30,1,4,2,,,,,,,,,,,,,,,,,,,,,,,,,,,,,,,,,,,,,,,,,,,,,,,,,,,,,,,,,,,,,,,,,,,,,,,,,,,
,,,,,,,,,,stimuli/images/PICTURE_327.png,LEADER,5b79bd77c4e6ad0001d2f312,11/15/1946,2020-07-09_13h10.47.890,proactive,2020.1.2,Win32,60,5f073de81c76c3308c0e4fb3,5f0779933f66b438105f560a,6,,,,,,helmet,,,,,,0,52,52,17,1,2,2,,,,,,,,,,,,,,,,,,,,,,,,,,,,,,,,,,,,,,,,,,,,,,,,,,,,,,,,,,,,,,,,,,,,,,,,,,,
,,,,,,,,,,stimuli/images/PICTURE_95.png,NIGHT,5b79bd77c4e6ad0001d2f312,11/15/1946,2020-07-09_13h10.47.890,proactive,2020.1.2,Win32,60,5f073de81c76c3308c0e4fb3,5f0779933f66b438105f560a,6,,,,,,suitcase,,,,,,0,53,53,37,1,4,2,,,,,,,,,,,,,,,,,,,,,,,,,,,,,,,,,,,,,,,,,,,,,,,,,,,,,,,,,,,,,,,,,,,,,,,,,,,
,,,,,,,,,,stimuli/images/PICTURE_654.png,COPS,5b79bd77c4e6ad0001d2f312,11/15/1946,2020-07-09_13h10.47.890,proactive,2020.1.2,Win32,60,5f073de81c76c3308c0e4fb3,5f0779933f66b438105f560a,6,,,,,,pencil,,,,,,0,54,54,10,1,2,2,,,,,,,,,,,,,,,,,,,,,,,,,,,,,,,,,,,,,,,,,,,,,,,,,,,,,,,,,,,,,,,,,,,,,,,,,,,
,,,,,,,,,,stimuli/images/PICTURE_692.png,DUDE,5b79bd77c4e6ad0001d2f312,11/15/1946,2020-07-09_13h10.47.890,proactive,2020.1.2,Win32,60,5f073de81c76c3308c0e4fb3,5f0779933f66b438105f560a,6,,,,,,cherry,,,,,,0,55,55,47,1,5,2,,,,,,,,,,,,,,,,,,,,,,,,,,,,,,,,,,,,,,,,,,,,,,,,,,,,,,,,,,,,,,,,,,,,,,,,,,,
,,,,,,,,,,stimuli/images/PICTURE_311.png,FLESH,5b79bd77c4e6ad0001d2f312,11/15/1946,2020-07-09_13h10.47.890,proactive,2020.1.2,Win32,60,5f073de81c76c3308c0e4fb3,5f0779933f66b438105f560a,6,,,,,,razor,,,,,,0,56,56,3,1,1,2,,,,,,,,,,,,,,,,,,,,,,,,,,,,,,,,,,,,,,,,,,,,,,,,,,,,,,,,,,,,,,,,,,,,,,,,,,,
,,,,,,,,,,stimuli/images/PICTURE_123.png,SALE,5b79bd77c4e6ad0001d2f312,11/15/1946,2020-07-09_13h10.47.890,proactive,2020.1.2,Win32,60,5f073de81c76c3308c0e4fb3,5f0779933f66b438105f560a,6,,,,,,dart,,,,,,0,57,57,8,1,1,2,,,,,,,,,,,,,,,,,,,,,,,,,,,,,,,,,,,,,,,,,,,,,,,,,,,,,,,,,,,,,,,,,,,,,,,,,,,
,,,,,,,,,,stimuli/images/PICTURE_2.png,JUNGLE,5b79bd77c4e6ad0001d2f312,11/15/1946,2020-07-09_13h10.47.890,proactive,2020.1.2,Win32,60,5f073de81c76c3308c0e4fb3,5f0779933f66b438105f560a,6,,,,,,tyre,,,,,,0,58,58,1,1,1,2,,,,,,,,,,,,,,,,,,,,,,,,,,,,,,,,,,,,,,,,,,,,,,,,,,,,,,,,,,,,,,,,,,,,,,,,,,,
,,?,0.00071,0,,,,,,stimuli/images/PICTURE_255.png,PENNY,5b79bd77c4e6ad0001d2f312,11/15/1946,2020-07-09_13h10.47.890,proactive,2020.1.2,Win32,60,5f073de81c76c3308c0e4fb3,5f0779933f66b438105f560a,6,,,,,,shovel,,,,,,,,,,,2,2,0,0,0,19,1,,,,,,,,,,,,,,,,,,,,,,,,,,,,,,,,,,,,,,,,,,,,,,,,,,,,,,,,,,,,,,,,,,,,,,
,,?,0.000765,0,,,,,,stimuli/images/PICTURE_18.png,RIVER,5b79bd77c4e6ad0001d2f312,11/15/1946,2020-07-09_13h10.47.890,proactive,2020.1.2,Win32,60,5f073de81c76c3308c0e4fb3,5f0779933f66b438105f560a,6,,,,,,planet,,,,,,,,,,,3,2,0,1,1,22,1,,,,,,,,,,,,,,,,,,,,,,,,,,,,,,,,,,,,,,,,,,,,,,,,,,,,,,,,,,,,,,,,,,,,,,
,,?,0.000545,0,,,,,,stimuli/images/PICTURE_348.png,TOILET,5b79bd77c4e6ad0001d2f312,11/15/1946,2020-07-09_13h10.47.890,proactive,2020.1.2,Win32,60,5f073de81c76c3308c0e4fb3,5f0779933f66b438105f560a,6,,,,,,pepper,,,,,,,,,,,1,2,0,2,2,4,1,,,,,,,,,,,,,,,,,,,,,,,,,,,,,,,,,,,,,,,,,,,,,,,,,,,,,,,,,,,,,,,,,,,,,,
,,BODY,15.00862,0,,,,,,stimuli/images/PICTURE_311.png,TOILET,5b79bd77c4e6ad0001d2f312,11/15/1946,2020-07-09_13h10.47.890,proactive,2020.1.2,Win32,60,5f073de81c76c3308c0e4fb3,5f0779933f66b438105f560a,6,,,,,,razor,,,,,,,,,,,6,2,0,3,3,54,1,,,,,,,,,,,,,,,,,,,,,,,,,,,,,,,,,,,,,,,,,,,,,,,,,,,,,,,,,,,,,,,,,,,,,,
,,?,0.000845,0,,,,,,stimuli/images/PICTURE_509.png,SHOTS,5b79bd77c4e6ad0001d2f312,11/15/1946,2020-07-09_13h10.47.890,proactive,2020.1.2,Win32,60,5f073de81c76c3308c0e4fb3,5f0779933f66b438105f560a,6,,,,,,telephone,,,,,,,,,,,1,2,0,4,4,7,1,,,,,,,,,,,,,,,,,,,,,,,,,,,,,,,,,,,,,,,,,,,,,,,,,,,,,,,,,,,,,,,,,,,,,,
,,?,0.00072,0,,,,,,stimuli/images/PICTURE_93.png,GIRL,5b79bd77c4e6ad0001d2f312,11/15/1946,2020-07-09_13h10.47.890,proactive,2020.1.2,Win32,60,5f073de81c76c3308c0e4fb3,5f0779933f66b438105f560a,6,,,,,,skateboard,,,,,,,,,,,4,2,0,5,5,31,1,,,,,,,,,,,,,,,,,,,,,,,,,,,,,,,,,,,,,,,,,,,,,,,,,,,,,,,,,,,,,,,,,,,,,,
,,?,0.00073,0,,,,,,stimuli/images/PICTURE_509.png,APPLE,5b79bd77c4e6ad0001d2f312,11/15/1946,2020-07-09_13h10.47.890,proactive,2020.1.2,Win32,60,5f073de81c76c3308c0e4fb3,5f0779933f66b438105f560a,6,,,,,,telephone,,,,,,,,,,,4,2,0,6,6,38,1,,,,,,,,,,,,,,,,,,,,,,,,,,,,,,,,,,,,,,,,,,,,,,,,,,,,,,,,,,,,,,,,,,,,,,
,,?,0.00083,0,,,,,,stimuli/images/PICTURE_296.png,CLOCK,5b79bd77c4e6ad0001d2f312,11/15/1946,2020-07-09_13h10.47.890,proactive,2020.1.2,Win32,60,5f073de81c76c3308c0e4fb3,5f0779933f66b438105f560a,6,,,,,,bolt,,,,,,,,,,,2,2,0,7,7,18,1,,,,,,,,,,,,,,,,,,,,,,,,,,,,,,,,,,,,,,,,,,,,,,,,,,,,,,,,,,,,,,,,,,,,,,
,,BODY,15.008455,1,,,,,,stimuli/images/PICTURE_297.png,BODY,5b79bd77c4e6ad0001d2f312,11/15/1946,2020-07-09_13h10.47.890,proactive,2020.1.2,Win32,60,5f073de81c76c3308c0e4fb3,5f0779933f66b438105f560a,6,,,,,,aeroplane,,,,,,,,,,,6,2,0,8,8,51,1,,,,,,,,,,,,,,,,,,,,,,,,,,,,,,,,,,,,,,,,,,,,,,,,,,,,,,,,,,,,,,,,,,,,,,
,,?,0.00067,0,,,,,,stimuli/images/PICTURE_504.png,HOUSE,5b79bd77c4e6ad0001d2f312,11/15/1946,2020-07-09_13h10.47.890,proactive,2020.1.2,Win32,60,5f073de81c76c3308c0e4fb3,5f0779933f66b438105f560a,6,,,,,,wheel,,,,,,,,,,,4,2,0,9,9,36,1,,,,,,,,,,,,,,,,,,,,,,,,,,,,,,,,,,,,,,,,,,,,,,,,,,,,,,,,,,,,,,,,,,,,,,
,,?,0.00052,0,,,,,,stimuli/images/PICTURE_487.png,POLICY,5b79bd77c4e6ad0001d2f312,11/15/1946,2020-07-09_13h10.47.890,proactive,2020.1.2,Win32,60,5f073de81c76c3308c0e4fb3,5f0779933f66b438105f560a,6,,,,,,basket,,,,,,,,,,,4,2,0,10,10,34,1,,,,,,,,,,,,,,,,,,,,,,,,,,,,,,,,,,,,,,,,,,,,,,,,,,,,,,,,,,,,,,,,,,,,,,
,,?,0.00054,0,,,,,,stimuli/images/PICTURE_453.png,FAMILY,5b79bd77c4e6ad0001d2f312,11/15/1946,2020-07-09_13h10.47.890,proactive,2020.1.2,Win32,60,5f073de81c76c3308c0e4fb3,5f0779933f66b438105f560a,6,,,,,,scissors,,,,,,,,,,,5,2,0,11,11,48,1,,,,,,,,,,,,,,,,,,,,,,,,,,,,,,,,,,,,,,,,,,,,,,,,,,,,,,,,,,,,,,,,,,,,,,
,,?,0.00056,0,,,,,,stimuli/images/PICTURE_57.png,NATION,5b79bd77c4e6ad0001d2f312,11/15/1946,2020-07-09_13h10.47.890,proactive,2020.1.2,Win32,60,5f073de81c76c3308c0e4fb3,5f0779933f66b438105f560a,6,,,,,,stamp,,,,,,,,,,,3,2,0,12,12,21,1,,,,,,,,,,,,,,,,,,,,,,,,,,,,,,,,,,,,,,,,,,,,,,,,,,,,,,,,,,,,,,,,,,,,,,
,,?,0.000565,0,,,,,,stimuli/images/PICTURE_750.png,POLICY,5b79bd77c4e6ad0001d2f312,11/15/1946,2020-07-09_13h10.47.890,proactive,2020.1.2,Win32,60,5f073de81c76c3308c0e4fb3,5f0779933f66b438105f560a,6,,,,,,kettle,,,,,,,,,,,5,2,0,13,13,44,1,,,,,,,,,,,,,,,,,,,,,,,,,,,,,,,,,,,,,,,,,,,,,,,,,,,,,,,,,,,,,,,,,,,,,,
,,?,0.000775,0,,,,,,stimuli/images/PICTURE_285.png,PRINCE,5b79bd77c4e6ad0001d2f312,11/15/1946,2020-07-09_13h10.47.890,proactive,2020.1.2,Win32,60,5f073de81c76c3308c0e4fb3,5f0779933f66b438105f560a,6,,,,,,carrot,,,,,,,,,,,3,2,0,14,14,20,1,,,,,,,,,,,,,,,,,,,,,,,,,,,,,,,,,,,,,,,,,,,,,,,,,,,,,,,,,,,,,,,,,,,,,,
,,?,0.000935,0,,,,,,stimuli/images/PICTURE_68.png,KIND,5b79bd77c4e6ad0001d2f312,11/15/1946,2020-07-09_13h10.47.890,proactive,2020.1.2,Win32,60,5f073de81c76c3308c0e4fb3,5f0779933f66b438105f560a,6,,,,,,candle,,,,,,,,,,,3,2,0,15,15,23,1,,,,,,,,,,,,,,,,,,,,,,,,,,,,,,,,,,,,,,,,,,,,,,,,,,,,,,,,,,,,,,,,,,,,,,
,,?,0.000885,0,,,,,,stimuli/images/PICTURE_57.png,CASINO,5b79bd77c4e6ad0001d2f312,11/15/1946,2020-07-09_13h10.47.890,proactive,2020.1.2,Win32,60,5f073de81c76c3308c0e4fb3,5f0779933f66b438105f560a,6,,,,,,stamp,,,,,,,,,,,2,2,0,16,16,12,1,,,,,,,,,,,,,,,,,,,,,,,,,,,,,,,,,,,,,,,,,,,,,,,,,,,,,,,,,,,,,,,,,,,,,,
