consent_key.keys,consent_key.rt,recalled,recalled_rt,recall_acc,example_recall.thisRepN,example_recall.thisTrialN,example_recall.thisN,example_recall.thisIndex,example_recall.ran,file,word,participant,please enter your date of birth (dd/mm/yyyy),date,expName,psychopyVersion,OS,frameRate,STUDY_ID,SESSION_ID,list,prac_learn_study_loop.thisRepN,prac_learn_study_loop.thisTrialN,prac_learn_study_loop.thisN,prac_learn_study_loop.thisIndex,prac_learn_study_loop.ran,image,prac_learn_test_loop.thisRepN,prac_learn_test_loop.thisTrialN,prac_learn_test_loop.thisN,prac_learn_test_loop.thisIndex,prac_learn_test_loop.ran,learn_study_loop.thisRepN,learn_study_loop.thisTrialN,learn_study_loop.thisN,learn_study_loop.thisIndex,learn_study_loop.ran,list_no,block_no,learn_test_loop.thisRepN,learn_test_loop.thisTrialN,learn_test_loop.thisN,learn_test_loop.thisIndex,learn_test_loop.ran,learn_blocks.thisRepN,learn_blocks.thisTrialN,learn_blocks.thisN,learn_blocks.thisIndex,learn_blocks.ran,block_csv,key_resp_13.keys,key_resp_13.rt,learn_blocks_loop.thisRepN,learn_blocks_loop.thisTrialN,learn_blocks_loop.thisN,learn_blocks_loop.thisIndex,learn_blocks_loop.ran,final_learn_test.thisRepN,final_learn_test.thisTrialN,final_learn_test.thisN,final_learn_test.thisIndex,final_learn_test.ran,prac_wm_test_loop.thisRepN,prac_wm_test_loop.thisTrialN,prac_wm_test_loop.thisN,prac_wm_test_loop.thisIndex,prac_wm_test_loop.ran,wm_recalled1,wm_recall_rt1,wm_probed1,wm_recall_acc1,wm_recalled2,wm_recall_rt2,wm_probed2,wm_recall_acc2,wm_recalled3,wm_recall_rt3,wm_probed3,wm_recall_acc3,wm_recalled4,wm_recall_rt4,wm_probed4,wm_recall_acc4,prac_wm_trial_loop.thisRepN,prac_wm_trial_loop.thisTrialN,prac_wm_trial_loop.thisN,prac_wm_trial_loop.thisIndex,prac_wm_trial_loop.ran,word1,image1,file1,item_type1,word2,image2,file2,item_type2,word4,image4,file4,item_type4,word3,image3,file3,item_type3,wm_test_loop.thisRepN,wm_test_loop.thisTrialN,wm_test_loop.thisN,wm_test_loop.thisIndex,wm_test_loop.ran,wm_trial_loop.thisRepN,wm_trial_loop.thisTrialN,wm_trial_loop.thisN,wm_trial_loop.thisIndex,wm_trial_loop.ran
y,33.097,TOUGH,5.786,1,0,0,0,0,1,stimuli/images/PICTURE_747.png,TOUGH,5c4da47734ee9300011d2299,29/01/1948,2020-07-09_18h31.51.987,proactive,2020.1.2,Win32,60,5f073de81c76c3308c0e4fb3,5f0754510e3ac4332a99894d,4,,,,,,,,,,,,,,,,,,,,,,,,,,,,,,,,,,,,,,,,,,,,,,,,,,,,,,,,,,,,,,,,,,,,,,,,,,,,,,,,,,,,,,,,,,,,,
,,,,,,,,,,stimuli/images/PICTURE_378.png,LOSS,5c4da47734ee9300011d2299,29/01/1948,2020-07-09_18h31.51.987,proactive,2020.1.2,Win32,60,5f073de81c76c3308c0e4fb3,5f0754510e3ac4332a99894d,4,0,0,0,2,1,lobster,,,,,,,,,,,,,,,,,,,,,,,,,,,,,,,,,,,,,,,,,,,,,,,,,,,,,,,,,,,,,,,,,,,,,,,,,,,,,,,,,,,,,,,
,,,,,,,,,,stimuli/images/PICTURE_658.png,DEVIL,5c4da47734ee9300011d2299,29/01/1948,2020-07-09_18h31.51.987,proactive,2020.1.2,Win32,60,5f073de81c76c3308c0e4fb3,5f0754510e3ac4332a99894d,4,0,1,1,3,1,crow,,,,,,,,,,,,,,,,,,,,,,,,,,,,,,,,,,,,,,,,,,,,,,,,,,,,,,,,,,,,,,,,,,,,,,,,,,,,,,,,,,,,,,,
,,,,,,,,,,stimuli/images/PICTURE_697.png,KILLER,5c4da47734ee9300011d2299,29/01/1948,2020-07-09_18h31.51.987,proactive,2020.1.2,Win32,60,5f073de81c76c3308c0e4fb3,5f0754510e3ac4332a99894d,4,0,2,2,4,1,peach,,,,,,,,,,,,,,,,,,,,,,,,,,,,,,,,,,,,,,,,,,,,,,,,,,,,,,,,,,,,,,,,,,,,,,,,,,,,,,,,,,,,,,,
,,,,,,,,,,stimuli/images/PICTURE_727.png,CELL,5c4da47734ee9300011d2299,29/01/1948,2020-07-09_18h31.51.987,proactive,2020.1.2,Win32,60,5f073de81c76c3308c0e4fb3,5f0754510e3ac4332a99894d,4,0,3,3,1,1,hose,,,,,,,,,,,,,,,,,,,,,,,,,,,,,,,,,,,,,,,,,,,,,,,,,,,,,,,,,,,,,,,,,,,,,,,,,,,,,,,,,,,,,,,
,,KILLER,6.678,0,,,,,,stimuli/images/PICTURE_658.png,DEVIL,5c4da47734ee9300011d2299,29/01/1948,2020-07-09_18h31.51.987,proactive,2020.1.2,Win32,60,5f073de81c76c3308c0e4fb3,5f0754510e3ac4332a99894d,4,,,,,,crow,0,0,0,3,1,,,,,,,,,,,,,,,,,,,,,,,,,,,,,,,,,,,,,,,,,,,,,,,,,,,,,,,,,,,,,,,,,,,,,,,,,,,,,,,,,,
,,CELL,7.167,1,,,,,,stimuli/images/PICTURE_727.png,CELL,5c4da47734ee9300011d2299,29/01/1948,2020-07-09_18h31.51.987,proactive,2020.1.2,Win32,60,5f073de81c76c3308c0e4fb3,5f0754510e3ac4332a99894d,4,,,,,,hose,0,1,1,1,1,,,,,,,,,,,,,,,,,,,,,,,,,,,,,,,,,,,,,,,,,,,,,,,,,,,,,,,,,,,,,,,,,,,,,,,,,,,,,,,,,,
,,KILLER,7.833,1,,,,,,stimuli/images/PICTURE_697.png,KILLER,5c4da47734ee9300011d2299,29/01/1948,2020-07-09_18h31.51.987,proactive,2020.1.2,Win32,60,5f073de81c76c3308c0e4fb3,5f0754510e3ac4332a99894d,4,,,,,,peach,0,2,2,4,1,,,,,,,,,,,,,,,,,,,,,,,,,,,,,,,,,,,,,,,,,,,,,,,,,,,,,,,,,,,,,,,,,,,,,,,,,,,,,,,,,,
,,DEAD,4.449,0,,,,,,stimuli/images/PICTURE_269.png,GENIUS,5c4da47734ee9300011d2299,29/01/1948,2020-07-09_18h31.51.987,proactive,2020.1.2,Win32,60,5f073de81c76c3308c0e4fb3,5f0754510e3ac4332a99894d,4,,,,,,chameleon,0,3,3,0,1,,,,,,,,,,,,,,,,,,,,,,,,,,,,,,,,,,,,,,,,,,,,,,,,,,,,,,,,,,,,,,,,,,,,,,,,,,,,,,,,,,
,,?,7.833,0,,,,,,stimuli/images/PICTURE_378.png,LOSS,5c4da47734ee9300011d2299,29/01/1948,2020-07-09_18h31.51.987,proactive,2020.1.2,Win32,60,5f073de81c76c3308c0e4fb3,5f0754510e3ac4332a99894d,4,,,,,,lobster,0,4,4,2,1,,,,,,,,,,,,,,,,,,,,,,,,,,,,,,,,,,,,,,,,,,,,,,,,,,,,,,,,,,,,,,,,,,,,,,,,,,,,,,,,,,
,,,,,,,,,,stimuli/images/PICTURE_32.png,PILLS,5c4da47734ee9300011d2299,29/01/1948,2020-07-09_18h31.51.987,proactive,2020.1.2,Win32,60,5f073de81c76c3308c0e4fb3,5f0754510e3ac4332a99894d,4,,,,,,crown,,,,,,0,0,0,18,1,2,1,,,,,,,,,,,,,,,,,,,,,,,,,,,,,,,,,,,,,,,,,,,,,,,,,,,,,,,,,,,,,,,,,,,,,,,,,,,
,,,,,,,,,,stimuli/images/PICTURE_203.png,GODS,5c4da47734ee9300011d2299,29/01/1948,2020-07-09_18h31.51.987,proactive,2020.1.2,Win32,60,5f073de81c76c3308c0e4fb3,5f0754510e3ac4332a99894d,4,,,,,,cap,,,,,,0,1,1,30,1,4,1,,,,,,,,,,,,,,,,,,,,,,,,,,,,,,,,,,,,,,,,,,,,,,,,,,,,,,,,,,,,,,,,,,,,,,,,,,,
,,,,,,,,,,stimuli/images/PICTURE_744.png,WEAPON,5c4da47734ee9300011d2299,29/01/1948,2020-07-09_18h31.51.987,proactive,2020.1.2,Win32,60,5f073de81c76c3308c0e4fb3,5f0754510e3ac4332a99894d,4,,,,,,ring,,,,,,0,2,2,50,1,6,1,,,,,,,,,,,,,,,,,,,,,,,,,,,,,,,,,,,,,,,,,,,,,,,,,,,,,,,,,,,,,,,,,,,,,,,,,,,
,,,,,,,,,,stimuli/images/PICTURE_297.png,RIVER,5c4da47734ee9300011d2299,29/01/1948,2020-07-09_18h31.51.987,proactive,2020.1.2,Win32,60,5f073de81c76c3308c0e4fb3,5f0754510e3ac4332a99894d,4,,,,,,aeroplane,,,,,,0,3,3,39,1,4,1,,,,,,,,,,,,,,,,,,,,,,,,,,,,,,,,,,,,,,,,,,,,,,,,,,,,,,,,,,,,,,,,,,,,,,,,,,,
,,,,,,,,,,stimuli/images/PICTURE_308.png,FAMILY,5c4da47734ee9300011d2299,29/01/1948,2020-07-09_18h31.51.987,proactive,2020.1.2,Win32,60,5f073de81c76c3308c0e4fb3,5f0754510e3ac4332a99894d,4,,,,,,dice,,,,,,0,4,4,36,1,4,1,,,,,,,,,,,,,,,,,,,,,,,,,,,,,,,,,,,,,,,,,,,,,,,,,,,,,,,,,,,,,,,,,,,,,,,,,,,
,,,,,,,,,,stimuli/images/PICTURE_208.png,SYSTEM,5c4da47734ee9300011d2299,29/01/1948,2020-07-09_18h31.51.987,proactive,2020.1.2,Win32,60,5f073de81c76c3308c0e4fb3,5f0754510e3ac4332a99894d,4,,,,,,microphone,,,,,,0,5,5,32,1,4,1,,,,,,,,,,,,,,,,,,,,,,,,,,,,,,,,,,,,,,,,,,,,,,,,,,,,,,,,,,,,,,,,,,,,,,,,,,,
,,,,,,,,,,stimuli/images/PICTURE_667.png,RIVER,5c4da47734ee9300011d2299,29/01/1948,2020-07-09_18h31.51.987,proactive,2020.1.2,Win32,60,5f073de81c76c3308c0e4fb3,5f0754510e3ac4332a99894d,4,,,,,,daisy,,,,,,0,6,6,10,1,2,1,,,,,,,,,,,,,,,,,,,,,,,,,,,,,,,,,,,,,,,,,,,,,,,,,,,,,,,,,,,,,,,,,,,,,,,,,,,
,,,,,,,,,,stimuli/images/PICTURE_403.png,WRITER,5c4da47734ee9300011d2299,29/01/1948,2020-07-09_18h31.51.987,proactive,2020.1.2,Win32,60,5f073de81c76c3308c0e4fb3,5f0754510e3ac4332a99894d,4,,,,,,cathedral,,,,,,0,7,7,31,1,4,1,,,,,,,,,,,,,,,,,,,,,,,,,,,,,,,,,,,,,,,,,,,,,,,,,,,,,,,,,,,,,,,,,,,,,,,,,,,
,,,,,,,,,,stimuli/images/PICTURE_95.png,MILLER,5c4da47734ee9300011d2299,29/01/1948,2020-07-09_18h31.51.987,proactive,2020.1.2,Win32,60,5f073de81c76c3308c0e4fb3,5f0754510e3ac4332a99894d,4,,,,,,suitcase,,,,,,0,8,8,56,1,6,1,,,,,,,,,,,,,,,,,,,,,,,,,,,,,,,,,,,,,,,,,,,,,,,,,,,,,,,,,,,,,,,,,,,,,,,,,,,
,,,,,,,,,,stimuli/images/PICTURE_177.png,WRITER,5c4da47734ee9300011d2299,29/01/1948,2020-07-09_18h31.51.987,proactive,2020.1.2,Win32,60,5f073de81c76c3308c0e4fb3,5f0754510e3ac4332a99894d,4,,,,,,mushroom,,,,,,0,9,9,41,1,5,1,,,,,,,,,,,,,,,,,,,,,,,,,,,,,,,,,,,,,,,,,,,,,,,,,,,,,,,,,,,,,,,,,,,,,,,,,,,
,,,,,,,,,,stimuli/images/PICTURE_285.png,LIFE,5c4da47734ee9300011d2299,29/01/1948,2020-07-09_18h31.51.987,proactive,2020.1.2,Win32,60,5f073de81c76c3308c0e4fb3,5f0754510e3ac4332a99894d,4,,,,,,carrot,,,,,,0,10,10,33,1,4,1,,,,,,,,,,,,,,,,,,,,,,,,,,,,,,,,,,,,,,,,,,,,,,,,,,,,,,,,,,,,,,,,,,,,,,,,,,,
,,,,,,,,,,stimuli/images/PICTURE_340.png,VALLEY,5c4da47734ee9300011d2299,29/01/1948,2020-07-09_18h31.51.987,proactive,2020.1.2,Win32,60,5f073de81c76c3308c0e4fb3,5f0754510e3ac4332a99894d,4,,,,,,mirror,,,,,,0,11,11,54,1,6,1,,,,,,,,,,,,,,,,,,,,,,,,,,,,,,,,,,,,,,,,,,,,,,,,,,,,,,,,,,,,,,,,,,,,,,,,,,,
,,,,,,,,,,stimuli/images/PICTURE_2.png,FLIGHT,5c4da47734ee9300011d2299,29/01/1948,2020-07-09_18h31.51.987,proactive,2020.1.2,Win32,60,5f073de81c76c3308c0e4fb3,5f0754510e3ac4332a99894d,4,,,,,,tyre,,,,,,0,12,12,15,1,2,1,,,,,,,,,,,,,,,,,,,,,,,,,,,,,,,,,,,,,,,,,,,,,,,,,,,,,,,,,,,,,,,,,,,,,,,,,,,
,,,,,,,,,,stimuli/images/PICTURE_296.png,LIFE,5c4da47734ee9300011d2299,29/01/1948,2020-07-09_18h31.51.987,proactive,2020.1.2,Win32,60,5f073de81c76c3308c0e4fb3,5f0754510e3ac4332a99894d,4,,,,,,bolt,,,,,,0,13,13,57,1,6,1,,,,,,,,,,,,,,,,,,,,,,,,,,,,,,,,,,,,,,,,,,,,,,,,,,,,,,,,,,,,,,,,,,,,,,,,,,,
,,,,,,,,,,stimuli/images/PICTURE_685.png,PENNY,5c4da47734ee9300011d2299,29/01/1948,2020-07-09_18h31.51.987,proactive,2020.1.2,Win32,60,5f073de81c76c3308c0e4fb3,5f0754510e3ac4332a99894d,4,,,,,,goose,,,,,,0,14,14,4,1,1,1,,,,,,,,,,,,,,,,,,,,,,,,,,,,,,,,,,,,,,,,,,,,,,,,,,,,,,,,,,,,,,,,,,,,,,,,,,,
,,,,,,,,,,stimuli/images/PICTURE_655.png,TOILET,5c4da47734ee9300011d2299,29/01/1948,2020-07-09_18h31.51.987,proactive,2020.1.2,Win32,60,5f073de81c76c3308c0e4fb3,5f0754510e3ac4332a99894d,4,,,,,,megaphone,,,,,,0,15,15,12,1,2,1,,,,,,,,,,,,,,,,,,,,,,,,,,,,,,,,,,,,,,,,,,,,,,,,,,,,,,,,,,,,,,,,,,,,,,,,,,,
,,,,,,,,,,stimuli/images/PICTURE_491.png,GLASS,5c4da47734ee9300011d2299,29/01/1948,2020-07-09_18h31.51.987,proactive,2020.1.2,Win32,60,5f073de81c76c3308c0e4fb3,5f0754510e3ac4332a99894d,4,,,,,,rug,,,,,,0,16,16,14,1,2,1,,,,,,,,,,,,,,,,,,,,,,,,,,,,,,,,,,,,,,,,,,,,,,,,,,,,,,,,,,,,,,,,,,,,,,,,,,,
,,,,,,,,,,stimuli/images/PICTURE_42.png,BOYS,5c4da47734ee9300011d2299,29/01/1948,2020-07-09_18h31.51.987,proactive,2020.1.2,Win32,60,5f073de81c76c3308c0e4fb3,5f0754510e3ac4332a99894d,4,,,,,,pear,,,,,,0,17,17,55,1,6,1,,,,,,,,,,,,,,,,,,,,,,,,,,,,,,,,,,,,,,,,,,,,,,,,,,,,,,,,,,,,,,,,,,,,,,,,,,,
,,,,,,,,,,stimuli/images/PICTURE_708.png,RECORD,5c4da47734ee9300011d2299,29/01/1948,2020-07-09_18h31.51.987,proactive,2020.1.2,Win32,60,5f073de81c76c3308c0e4fb3,5f0754510e3ac4332a99894d,4,,,,,,monkey,,,,,,0,18,18,58,1,6,1,,,,,,,,,,,,,,,,,,,,,,,,,,,,,,,,,,,,,,,,,,,,,,,,,,,,,,,,,,,,,,,,,,,,,,,,,,,
,,,,,,,,,,stimuli/images/PICTURE_405.png,PLENTY,5c4da47734ee9300011d2299,29/01/1948,2020-07-09_18h31.51.987,proactive,2020.1.2,Win32,60,5f073de81c76c3308c0e4fb3,5f0754510e3ac4332a99894d,4,,,,,,anchor,,,,,,0,19,19,23,1,3,1,,,,,,,,,,,,,,,,,,,,,,,,,,,,,,,,,,,,,,,,,,,,,,,,,,,,,,,,,,,,,,,,,,,,,,,,,,,
,,,,,,,,,,stimuli/images/PICTURE_654.png,MONTH,5c4da47734ee9300011d2299,29/01/1948,2020-07-09_18h31.51.987,proactive,2020.1.2,Win32,60,5f073de81c76c3308c0e4fb3,5f0754510e3ac4332a99894d,4,,,,,,pencil,,,,,,0,20,20,29,1,3,1,,,,,,,,,,,,,,,,,,,,,,,,,,,,,,,,,,,,,,,,,,,,,,,,,,,,,,,,,,,,,,,,,,,,,,,,,,,
,,,,,,,,,,stimuli/images/PICTURE_675.png,SALE,5c4da47734ee9300011d2299,29/01/1948,2020-07-09_18h31.51.987,proactive,2020.1.2,Win32,60,5f073de81c76c3308c0e4fb3,5f0754510e3ac4332a99894d,4,,,,,,windmill,,,,,,0,21,21,47,1,5,1,,,,,,,,,,,,,,,,,,,,,,,,,,,,,,,,,,,,,,,,,,,,,,,,,,,,,,,,,,,,,,,,,,,,,,,,,,,
,,,,,,,,,,stimuli/images/PICTURE_57.png,MOMENT,5c4da47734ee9300011d2299,29/01/1948,2020-07-09_18h31.51.987,proactive,2020.1.2,Win32,60,5f073de81c76c3308c0e4fb3,5f0754510e3ac4332a99894d,4,,,,,,stamp,,,,,,0,22,22,37,1,4,1,,,,,,,,,,,,,,,,,,,,,,,,,,,,,,,,,,,,,,,,,,,,,,,,,,,,,,,,,,,,,,,,,,,,,,,,,,,
,,,,,,,,,,stimuli/images/PICTURE_467.png,POLICY,5c4da47734ee9300011d2299,29/01/1948,2020-07-09_18h31.51.987,proactive,2020.1.2,Win32,60,5f073de81c76c3308c0e4fb3,5f0754510e3ac4332a99894d,4,,,,,,peg,,,,,,0,23,23,53,1,6,1,,,,,,,,,,,,,,,,,,,,,,,,,,,,,,,,,,,,,,,,,,,,,,,,,,,,,,,,,,,,,,,,,,,,,,,,,,,
,,,,,,,,,,stimuli/images/PICTURE_108.png,FLIGHT,5c4da47734ee9300011d2299,29/01/1948,2020-07-09_18h31.51.987,proactive,2020.1.2,Win32,60,5f073de81c76c3308c0e4fb3,5f0754510e3ac4332a99894d,4,,,,,,calendar,,,,,,0,24,24,59,1,6,1,,,,,,,,,,,,,,,,,,,,,,,,,,,,,,,,,,,,,,,,,,,,,,,,,,,,,,,,,,,,,,,,,,,,,,,,,,,
,,,,,,,,,,stimuli/images/PICTURE_33.png,FRIEND,5c4da47734ee9300011d2299,29/01/1948,2020-07-09_18h31.51.987,proactive,2020.1.2,Win32,60,5f073de81c76c3308c0e4fb3,5f0754510e3ac4332a99894d,4,,,,,,frame,,,,,,0,25,25,8,1,1,1,,,,,,,,,,,,,,,,,,,,,,,,,,,,,,,,,,,,,,,,,,,,,,,,,,,,,,,,,,,,,,,,,,,,,,,,,,,
,,,,,,,,,,stimuli/images/PICTURE_487.png,GIRL,5c4da47734ee9300011d2299,29/01/1948,2020-07-09_18h31.51.987,proactive,2020.1.2,Win32,60,5f073de81c76c3308c0e4fb3,5f0754510e3ac4332a99894d,4,,,,,,basket,,,,,,0,26,26,45,1,5,1,,,,,,,,,,,,,,,,,,,,,,,,,,,,,,,,,,,,,,,,,,,,,,,,,,,,,,,,,,,,,,,,,,,,,,,,,,,
,,,,,,,,,,stimuli/images/PICTURE_233.png,LOTS,5c4da47734ee9300011d2299,29/01/1948,2020-07-09_18h31.51.987,proactive,2020.1.2,Win32,60,5f073de81c76c3308c0e4fb3,5f0754510e3ac4332a99894d,4,,,,,,salt,,,,,,0,27,27,42,1,5,1,,,,,,,,,,,,,,,,,,,,,,,,,,,,,,,,,,,,,,,,,,,,,,,,,,,,,,,,,,,,,,,,,,,,,,,,,,,
,,,,,,,,,,stimuli/images/PICTURE_380.png,HONEY,5c4da47734ee9300011d2299,29/01/1948,2020-07-09_18h31.51.987,proactive,2020.1.2,Win32,60,5f073de81c76c3308c0e4fb3,5f0754510e3ac4332a99894d,4,,,,,,gorilla,,,,,,0,28,28,19,1,2,1,,,,,,,,,,,,,,,,,,,,,,,,,,,,,,,,,,,,,,,,,,,,,,,,,,,,,,,,,,,,,,,,,,,,,,,,,,,
,,,,,,,,,,stimuli/images/PICTURE_32.png,KIND,5c4da47734ee9300011d2299,29/01/1948,2020-07-09_18h31.51.987,proactive,2020.1.2,Win32,60,5f073de81c76c3308c0e4fb3,5f0754510e3ac4332a99894d,4,,,,,,crown,,,,,,0,29,29,35,1,4,1,,,,,,,,,,,,,,,,,,,,,,,,,,,,,,,,,,,,,,,,,,,,,,,,,,,,,,,,,,,,,,,,,,,,,,,,,,,
,,,,,,,,,,stimuli/images/PICTURE_68.png,MILE,5c4da47734ee9300011d2299,29/01/1948,2020-07-09_18h31.51.987,proactive,2020.1.2,Win32,60,5f073de81c76c3308c0e4fb3,5f0754510e3ac4332a99894d,4,,,,,,candle,,,,,,0,30,30,51,1,6,1,,,,,,,,,,,,,,,,,,,,,,,,,,,,,,,,,,,,,,,,,,,,,,,,,,,,,,,,,,,,,,,,,,,,,,,,,,,
,,,,,,,,,,stimuli/images/PICTURE_340.png,LETTER,5c4da47734ee9300011d2299,29/01/1948,2020-07-09_18h31.51.987,proactive,2020.1.2,Win32,60,5f073de81c76c3308c0e4fb3,5f0754510e3ac4332a99894d,4,,,,,,mirror,,,,,,0,31,31,24,1,3,1,,,,,,,,,,,,,,,,,,,,,,,,,,,,,,,,,,,,,,,,,,,,,,,,,,,,,,,,,,,,,,,,,,,,,,,,,,,
,,,,,,,,,,stimuli/images/PICTURE_405.png,YEAR,5c4da47734ee9300011d2299,29/01/1948,2020-07-09_18h31.51.987,proactive,2020.1.2,Win32,60,5f073de81c76c3308c0e4fb3,5f0754510e3ac4332a99894d,4,,,,,,anchor,,,,,,0,32,32,34,1,4,1,,,,,,,,,,,,,,,,,,,,,,,,,,,,,,,,,,,,,,,,,,,,,,,,,,,,,,,,,,,,,,,,,,,,,,,,,,,
,,,,,,,,,,stimuli/images/PICTURE_108.png,POLICY,5c4da47734ee9300011d2299,29/01/1948,2020-07-09_18h31.51.987,proactive,2020.1.2,Win32,60,5f073de81c76c3308c0e4fb3,5f0754510e3ac4332a99894d,4,,,,,,calendar,,,,,,0,33,33,22,1,3,1,,,,,,,,,,,,,,,,,,,,,,,,,,,,,,,,,,,,,,,,,,,,,,,,,,,,,,,,,,,,,,,,,,,,,,,,,,,
,,,,,,,,,,stimuli/images/PICTURE_296.png,LOTS,5c4da47734ee9300011d2299,29/01/1948,2020-07-09_18h31.51.987,proactive,2020.1.2,Win32,60,5f073de81c76c3308c0e4fb3,5f0754510e3ac4332a99894d,4,,,,,,bolt,,,,,,0,34,34,9,1,1,1,,,,,,,,,,,,,,,,,,,,,,,,,,,,,,,,,,,,,,,,,,,,,,,,,,,,,,,,,,,,,,,,,,,,,,,,,,,
,,,,,,,,,,stimuli/images/PICTURE_504.png,COPS,5c4da47734ee9300011d2299,29/01/1948,2020-07-09_18h31.51.987,proactive,2020.1.2,Win32,60,5f073de81c76c3308c0e4fb3,5f0754510e3ac4332a99894d,4,,,,,,wheel,,,,,,0,35,35,52,1,6,1,,,,,,,,,,,,,,,,,,,,,,,,,,,,,,,,,,,,,,,,,,,,,,,,,,,,,,,,,,,,,,,,,,,,,,,,,,,
,,,,,,,,,,stimuli/images/PICTURE_564.png,BATH,5c4da47734ee9300011d2299,29/01/1948,2020-07-09_18h31.51.987,proactive,2020.1.2,Win32,60,5f073de81c76c3308c0e4fb3,5f0754510e3ac4332a99894d,4,,,,,,spoon,,,,,,0,36,36,26,1,3,1,,,,,,,,,,,,,,,,,,,,,,,,,,,,,,,,,,,,,,,,,,,,,,,,,,,,,,,,,,,,,,,,,,,,,,,,,,,
,,,,,,,,,,stimuli/images/PICTURE_203.png,NIGHT,5c4da47734ee9300011d2299,29/01/1948,2020-07-09_18h31.51.987,proactive,2020.1.2,Win32,60,5f073de81c76c3308c0e4fb3,5f0754510e3ac4332a99894d,4,,,,,,cap,,,,,,0,37,37,2,1,1,1,,,,,,,,,,,,,,,,,,,,,,,,,,,,,,,,,,,,,,,,,,,,,,,,,,,,,,,,,,,,,,,,,,,,,,,,,,,
,,,,,,,,,,stimuli/images/PICTURE_68.png,ROOF,5c4da47734ee9300011d2299,29/01/1948,2020-07-09_18h31.51.987,proactive,2020.1.2,Win32,60,5f073de81c76c3308c0e4fb3,5f0754510e3ac4332a99894d,4,,,,,,candle,,,,,,0,38,38,38,1,4,1,,,,,,,,,,,,,,,,,,,,,,,,,,,,,,,,,,,,,,,,,,,,,,,,,,,,,,,,,,,,,,,,,,,,,,,,,,,
,,,,,,,,,,stimuli/images/PICTURE_383.png,SERIES,5c4da47734ee9300011d2299,29/01/1948,2020-07-09_18h31.51.987,proactive,2020.1.2,Win32,60,5f073de81c76c3308c0e4fb3,5f0754510e3ac4332a99894d,4,,,,,,coin,,,,,,0,39,39,46,1,5,1,,,,,,,,,,,,,,,,,,,,,,,,,,,,,,,,,,,,,,,,,,,,,,,,,,,,,,,,,,,,,,,,,,,,,,,,,,,
,,,,,,,,,,stimuli/images/PICTURE_403.png,RIVER,5c4da47734ee9300011d2299,29/01/1948,2020-07-09_18h31.51.987,proactive,2020.1.2,Win32,60,5f073de81c76c3308c0e4fb3,5f0754510e3ac4332a99894d,4,,,,,,cathedral,,,,,,0,40,40,40,1,5,1,,,,,,,,,,,,,,,,,,,,,,,,,,,,,,,,,,,,,,,,,,,,,,,,,,,,,,,,,,,,,,,,,,,,,,,,,,,
,,,,,,,,,,stimuli/images/PICTURE_403.png,TOILET,5c4da47734ee9300011d2299,29/01/1948,2020-07-09_18h31.51.987,proactive,2020.1.2,Win32,60,5f073de81c76c3308c0e4fb3,5f0754510e3ac4332a99894d,4,,,,,,cathedral,,,,,,0,41,41,25,1,3,1,,,,,,,,,,,,,,,,,,,,,,,,,,,,,,,,,,,,,,,,,,,,,,,,,,,,,,,,,,,,,,,,,,,,,,,,,,,
,,,,,,,,,,stimuli/images/PICTURE_380.png,CANDY,5c4da47734ee9300011d2299,29/01/1948,2020-07-09_18h31.51.987,proactive,2020.1.2,Win32,60,5f073de81c76c3308c0e4fb3,5f0754510e3ac4332a99894d,4,,,,,,gorilla,,,,,,0,42,42,0,1,1,1,,,,,,,,,,,,,,,,,,,,,,,,,,,,,,,,,,,,,,,,,,,,,,,,,,,,,,,,,,,,,,,,,,,,,,,,,,,
,,,,,,,,,,stimuli/images/PICTURE_504.png,YEAR,5c4da47734ee9300011d2299,29/01/1948,2020-07-09_18h31.51.987,proactive,2020.1.2,Win32,60,5f073de81c76c3308c0e4fb3,5f0754510e3ac4332a99894d,4,,,,,,wheel,,,,,,0,43,43,13,1,2,1,,,,,,,,,,,,,,,,,,,,,,,,,,,,,,,,,,,,,,,,,,,,,,,,,,,,,,,,,,,,,,,,,,,,,,,,,,,
,,,,,,,,,,stimuli/images/PICTURE_85.png,NATION,5c4da47734ee9300011d2299,29/01/1948,2020-07-09_18h31.51.987,proactive,2020.1.2,Win32,60,5f073de81c76c3308c0e4fb3,5f0754510e3ac4332a99894d,4,,,,,,diamond,,,,,,0,44,44,5,1,1,1,,,,,,,,,,,,,,,,,,,,,,,,,,,,,,,,,,,,,,,,,,,,,,,,,,,,,,,,,,,,,,,,,,,,,,,,,,,
,,,,,,,,,,stimuli/images/PICTURE_504.png,ARTIST,5c4da47734ee9300011d2299,29/01/1948,2020-07-09_18h31.51.987,proactive,2020.1.2,Win32,60,5f073de81c76c3308c0e4fb3,5f0754510e3ac4332a99894d,4,,,,,,wheel,,,,,,0,45,45,49,1,5,1,,,,,,,,,,,,,,,,,,,,,,,,,,,,,,,,,,,,,,,,,,,,,,,,,,,,,,,,,,,,,,,,,,,,,,,,,,,
,,,,,,,,,,stimuli/images/PICTURE_750.png,HOTEL,5c4da47734ee9300011d2299,29/01/1948,2020-07-09_18h31.51.987,proactive,2020.1.2,Win32,60,5f073de81c76c3308c0e4fb3,5f0754510e3ac4332a99894d,4,,,,,,kettle,,,,,,0,46,46,27,1,3,1,,,,,,,,,,,,,,,,,,,,,,,,,,,,,,,,,,,,,,,,,,,,,,,,,,,,,,,,,,,,,,,,,,,,,,,,,,,
,,,,,,,,,,stimuli/images/PICTURE_85.png,TOILET,5c4da47734ee9300011d2299,29/01/1948,2020-07-09_18h31.51.987,proactive,2020.1.2,Win32,60,5f073de81c76c3308c0e4fb3,5f0754510e3ac4332a99894d,4,,,,,,diamond,,,,,,0,47,47,48,1,5,1,,,,,,,,,,,,,,,,,,,,,,,,,,,,,,,,,,,,,,,,,,,,,,,,,,,,,,,,,,,,,,,,,,,,,,,,,,,
,,,,,,,,,,stimuli/images/PICTURE_95.png,BOYS,5c4da47734ee9300011d2299,29/01/1948,2020-07-09_18h31.51.987,proactive,2020.1.2,Win32,60,5f073de81c76c3308c0e4fb3,5f0754510e3ac4332a99894d,4,,,,,,suitcase,,,,,,0,48,48,1,1,1,1,,,,,,,,,,,,,,,,,,,,,,,,,,,,,,,,,,,,,,,,,,,,,,,,,,,,,,,,,,,,,,,,,,,,,,,,,,,
,,,,,,,,,,stimuli/images/PICTURE_449.png,DUDE,5c4da47734ee9300011d2299,29/01/1948,2020-07-09_18h31.51.987,proactive,2020.1.2,Win32,60,5f073de81c76c3308c0e4fb3,5f0754510e3ac4332a99894d,4,,,,,,bench,,,,,,0,49,49,17,1,2,1,,,,,,,,,,,,,,,,,,,,,,,,,,,,,,,,,,,,,,,,,,,,,,,,,,,,,,,,,,,,,,,,,,,,,,,,,,,
,,,,,,,,,,stimuli/images/PICTURE_327.png,CASINO,5c4da47734ee9300011d2299,29/01/1948,2020-07-09_18h31.51.987,proactive,2020.1.2,Win32,60,5f073de81c76c3308c0e4fb3,5f0754510e3ac4332a99894d,4,,,,,,helmet,,,,,,0,50,50,20,1,3,1,,,,,,,,,,,,,,,,,,,,,,,,,,,,,,,,,,,,,,,,,,,,,,,,,,,,,,,,,,,,,,,,,,,,,,,,,,,
,,,,,,,,,,stimuli/images/PICTURE_147.png,YEAR,5c4da47734ee9300011d2299,29/01/1948,2020-07-09_18h31.51.987,proactive,2020.1.2,Win32,60,5f073de81c76c3308c0e4fb3,5f0754510e3ac4332a99894d,4,,,,,,hanger,,,,,,0,51,51,21,1,3,1,,,,,,,,,,,,,,,,,,,,,,,,,,,,,,,,,,,,,,,,,,,,,,,,,,,,,,,,,,,,,,,,,,,,,,,,,,,
,,,,,,,,,,stimuli/images/PICTURE_95.png,HONEY,5c4da47734ee9300011d2299,29/01/1948,2020-07-09_18h31.51.987,proactive,2020.1.2,Win32,60,5f073de81c76c3308c0e4fb3,5f0754510e3ac4332a99894d,4,,,,,,suitcase,,,,,,0,52,52,44,1,5,1,,,,,,,,,,,,,,,,,,,,,,,,,,,,,,,,,,,,,,,,,,,,,,,,,,,,,,,,,,,,,,,,,,,,,,,,,,,
,,,,,,,,,,stimuli/images/PICTURE_339.png,CLIENT,5c4da47734ee9300011d2299,29/01/1948,2020-07-09_18h31.51.987,proactive,2020.1.2,Win32,60,5f073de81c76c3308c0e4fb3,5f0754510e3ac4332a99894d,4,,,,,,backpack,,,,,,0,53,53,11,1,2,1,,,,,,,,,,,,,,,,,,,,,,,,,,,,,,,,,,,,,,,,,,,,,,,,,,,,,,,,,,,,,,,,,,,,,,,,,,,
,,,,,,,,,,stimuli/images/PICTURE_491.png,RIVER,5c4da47734ee9300011d2299,29/01/1948,2020-07-09_18h31.51.987,proactive,2020.1.2,Win32,60,5f073de81c76c3308c0e4fb3,5f0754510e3ac4332a99894d,4,,,,,,rug,,,,,,0,54,54,6,1,1,1,,,,,,,,,,,,,,,,,,,,,,,,,,,,,,,,,,,,,,,,,,,,,,,,,,,,,,,,,,,,,,,,,,,,,,,,,,,
,,,,,,,,,,stimuli/images/PICTURE_677.png,APPLE,5c4da47734ee9300011d2299,29/01/1948,2020-07-09_18h31.51.987,proactive,2020.1.2,Win32,60,5f073de81c76c3308c0e4fb3,5f0754510e3ac4332a99894d,4,,,,,,map,,,,,,0,55,55,43,1,5,1,,,,,,,,,,,,,,,,,,,,,,,,,,,,,,,,,,,,,,,,,,,,,,,,,,,,,,,,,,,,,,,,,,,,,,,,,,,
,,,,,,,,,,stimuli/images/PICTURE_327.png,SERIES,5c4da47734ee9300011d2299,29/01/1948,2020-07-09_18h31.51.987,proactive,2020.1.2,Win32,60,5f073de81c76c3308c0e4fb3,5f0754510e3ac4332a99894d,4,,,,,,helmet,,,,,,0,56,56,3,1,1,1,,,,,,,,,,,,,,,,,,,,,,,,,,,,,,,,,,,,,,,,,,,,,,,,,,,,,,,,,,,,,,,,,,,,,,,,,,,
,,,,,,,,,,stimuli/images/PICTURE_469.png,AGENT,5c4da47734ee9300011d2299,29/01/1948,2020-07-09_18h31.51.987,proactive,2020.1.2,Win32,60,5f073de81c76c3308c0e4fb3,5f0754510e3ac4332a99894d,4,,,,,,stool,,,,,,0,57,57,16,1,2,1,,,,,,,,,,,,,,,,,,,,,,,,,,,,,,,,,,,,,,,,,,,,,,,,,,,,,,,,,,,,,,,,,,,,,,,,,,,
,,,,,,,,,,stimuli/images/PICTURE_383.png,WRITER,5c4da47734ee9300011d2299,29/01/1948,2020-07-09_18h31.51.987,proactive,2020.1.2,Win32,60,5f073de81c76c3308c0e4fb3,5f0754510e3ac4332a99894d,4,,,,,,coin,,,,,,0,58,58,28,1,3,1,,,,,,,,,,,,,,,,,,,,,,,,,,,,,,,,,,,,,,,,,,,,,,,,,,,,,,,,,,,,,,,,,,,,,,,,,,,
,,?,0.002,0,,,,,,stimuli/images/PICTURE_340.png,VALLEY,5c4da47734ee9300011d2299,29/01/1948,2020-07-09_18h31.51.987,proactive,2020.1.2,Win32,60,5f073de81c76c3308c0e4fb3,5f0754510e3ac4332a99894d,4,,,,,,mirror,,,,,,,,,,,6,1,0,0,0,54,1,,,,,,,,,,,,,,,,,,,,,,,,,,,,,,,,,,,,,,,,,,,,,,,,,,,,,,,,,,,,,,,,,,,,,,
,,?,0.002,0,,,,,,stimuli/images/PICTURE_233.png,LOTS,5c4da47734ee9300011d2299,29/01/1948,2020-07-09_18h31.51.987,proactive,2020.1.2,Win32,60,5f073de81c76c3308c0e4fb3,5f0754510e3ac4332a99894d,4,,,,,,salt,,,,,,,,,,,5,1,0,1,1,42,1,,,,,,,,,,,,,,,,,,,,,,,,,,,,,,,,,,,,,,,,,,,,,,,,,,,,,,,,,,,,,,,,,,,,,,
,,?,0.001,0,,,,,,stimuli/images/PICTURE_449.png,DUDE,5c4da47734ee9300011d2299,29/01/1948,2020-07-09_18h31.51.987,proactive,2020.1.2,Win32,60,5f073de81c76c3308c0e4fb3,5f0754510e3ac4332a99894d,4,,,,,,bench,,,,,,,,,,,2,1,0,2,2,17,1,,,,,,,,,,,,,,,,,,,,,,,,,,,,,,,,,,,,,,,,,,,,,,,,,,,,,,,,,,,,,,,,,,,,,,
,,?,0,0,,,,,,stimuli/images/PICTURE_95.png,HONEY,5c4da47734ee9300011d2299,29/01/1948,2020-07-09_18h31.51.987,proactive,2020.1.2,Win32,60,5f073de81c76c3308c0e4fb3,5f0754510e3ac4332a99894d,4,,,,,,suitcase,,,,,,,,,,,5,1,0,3,3,44,1,,,,,,,,,,,,,,,,,,,,,,,,,,,,,,,,,,,,,,,,,,,,,,,,,,,,,,,,,,,,,,,,,,,,,,
,,?,0.002,0,,,,,,stimuli/images/PICTURE_654.png,MONTH,5c4da47734ee9300011d2299,29/01/1948,2020-07-09_18h31.51.987,proactive,2020.1.2,Win32,60,5f073de81c76c3308c0e4fb3,5f0754510e3ac4332a99894d,4,,,,,,pencil,,,,,,,,,,,3,1,0,4,4,29,1,,,,,,,,,,,,,,,,,,,,,,,,,,,,,,,,,,,,,,,,,,,,,,,,,,,,,,,,,,,,,,,,,,,,,,
,,?,0,0,,,,,,stimuli/images/PICTURE_2.png,FLIGHT,5c4da47734ee9300011d2299,29/01/1948,2020-07-09_18h31.51.987,proactive,2020.1.2,Win32,60,5f073de81c76c3308c0e4fb3,5f0754510e3ac4332a99894d,4,,,,,,tyre,,,,,,,,,,,2,1,0,5,5,15,1,,,,,,,,,,,,,,,,,,,,,,,,,,,,,,,,,,,,,,,,,,,,,,,,,,,,,,,,,,,,,,,,,,,,,,
,,?,0.001,0,,,,,,stimuli/images/PICTURE_85.png,TOILET,5c4da47734ee9300011d2299,29/01/1948,2020-07-09_18h31.51.987,proactive,2020.1.2,Win32,60,5f073de81c76c3308c0e4fb3,5f0754510e3ac4332a99894d,4,,,,,,diamond,,,,,,,,,,,5,1,0,6,6,48,1,,,,,,,,,,,,,,,,,,,,,,,,,,,,,,,,,,,,,,,,,,,,,,,,,,,,,,,,,,,,,,,,,,,,,,
,,?,0.001,0,,,,,,stimuli/images/PICTURE_147.png,YEAR,5c4da47734ee9300011d2299,29/01/1948,2020-07-09_18h31.51.987,proactive,2020.1.2,Win32,60,5f073de81c76c3308c0e4fb3,5f0754510e3ac4332a99894d,4,,,,,,hanger,,,,,,,,,,,3,1,0,7,7,21,1,,,,,,,,,,,,,,,,,,,,,,,,,,,,,,,,,,,,,,,,,,,,,,,,,,,,,,,,,,,,,,,,,,,,,,
,,?,0.001,0,,,,,,stimuli/images/PICTURE_750.png,HOTEL,5c4da47734ee9300011d2299,29/01/1948,2020-07-09_18h31.51.987,proactive,2020.1.2,Win32,60,5f073de81c76c3308c0e4fb3,5f0754510e3ac4332a99894d,4,,,,,,kettle,,,,,,,,,,,3,1,0,8,8,27,1,,,,,,,,,,,,,,,,,,,,,,,,,,,,,,,,,,,,,,,,,,,,,,,,,,,,,,,,,,,,,,,,,,,,,,
,,ROOF,2.348,1,,,,,,stimuli/images/PICTURE_68.png,ROOF,5c4da47734ee9300011d2299,29/01/1948,2020-07-09_18h31.51.987,proactive,2020.1.2,Win32,60,5f073de81c76c3308c0e4fb3,5f0754510e3ac4332a99894d,4,,,,,,candle,,,,,,,,,,,4,1,0,9,9,38,1,,,,,,,,,,,,,,,,,,,,,,,,,,,,,,,,,,,,,,,,,,,,,,,,,,,,,,,,,,,,,,,,,,,,,,
,,YEAR,8.316,1,,,,,,stimuli/images/PICTURE_405.png,YEAR,5c4da47734ee9300011d2299,29/01/1948,2020-07-09_18h31.51.987,proactive,2020.1.2,Win32,60,5f073de81c76c3308c0e4fb3,5f0754510e3ac4332a99894d,4,,,,,,anchor,,,,,,,,,,,4,1,0,10,10,34,1,,,,,,,,,,,,,,,,,,,,,,,,,,,,,,,,,,,,,,,,,,,,,,,,,,,,,,,,,,,,,,,,,,,,,,
,,?,0.005,0,,,,,,stimuli/images/PICTURE_403.png,RIVER,5c4da47734ee9300011d2299,29/01/1948,2020-07-09_18h31.51.987,proactive,2020.1.2,Win32,60,5f073de81c76c3308c0e4fb3,5f0754510e3ac4332a99894d,4,,,,,,cathedral,,,,,,,,,,,5,1,0,11,11,40,1,,,,,,,,,,,,,,,,,,,,,,,,,,,,,,,,,,,,,,,,,,,,,,,,,,,,,,,,,,,,,,,,,,,,,,
,,?,15.008,0,,,,,,stimuli/images/PICTURE_208.png,SYSTEM,5c4da47734ee9300011d2299,29/01/1948,2020-07-09_18h31.51.987,proactive,2020.1.2,Win32,60,5f073de81c76c3308c0e4fb3,5f0754510e3ac4332a99894d,4,,,,,,microphone,,,,,,,,,,,4,1,0,12,12,32,1,,,,,,,,,,,,,,,,,,,,,,,,,,,,,,,,,,,,,,,,,,,,,,,,,,,,,,,,,,,,,,,,,,,,,,
,,ROOF,15.016,0,,,,,,stimuli/images/PICTURE_403.png,WRITER,5c4da47734ee9300011d2299,29/01/1948,2020-07-09_18h31.51.987,proactive,2020.1.2,Win32,60,5f073de81c76c3308c0e4fb3,5f0754510e3ac4332a99894d,4,,,,,,cathedral,,,,,,,,,,,4,1,0,13,13,31,1,,,,,,,,,,,,,,,,,,,,,,,,,,,,,,,,,,,,,,,,,,,,,,,,,,,,,,,,,,,,,,,,,,,,,,
,,?,0.004,0,,,,,,stimuli/images/PICTURE_296.png,LOTS,5c4da47734ee9300011d2299,29/01/1948,2020-07-09_18h31.51.987,proactive,2020.1.2,Win32,60,5f073de81c76c3308c0e4fb3,5f0754510e3ac4332a99894d,4,,,,,,bolt,,,,,,,,,,,1,1,0,14,14,9,1,,,,,,,,,,,,,,,,,,,,,,,,,,,,,,,,,,,,,,,,,,,,,,,,,,,,,,,,,,,,,,,,,,,,,,
,,?,0.001,0,,,,,,stimuli/images/PICTURE_177.png,WRITER,5c4da47734ee9300011d2299,29/01/1948,2020-07-09_18h31.51.987,proactive,2020.1.2,Win32,60,5f073de81c76c3308c0e4fb3,5f0754510e3ac4332a99894d,4,,,,,,mushroom,,,,,,,,,,,5,1,0,15,15,41,1,,,,,,,,,,,,,,,,,,,,,,,,,,,,,,,,,,,,,,,,,,,,,,,,,,,,,,,,,,,,,,,,,,,,,,
,,?,0.001,0,,,,,,stimuli/images/PICTURE_667.png,RIVER,5c4da47734ee9300011d2299,29/01/1948,2020-07-09_18h31.51.987,proactive,2020.1.2,Win32,60,5f073de81c76c3308c0e4fb3,5f0754510e3ac4332a99894d,4,,,,,,daisy,,,,,,,,,,,2,1,0,16,16,10,1,,,,,,,,,,,,,,,,,,,,,,,,,,,,,,,,,,,,,,,,,,,,,,,,,,,,,,,,,,,,,,,,,,,,,,
,,?,0.002,0,,,,,,stimuli/images/PICTURE_339.png,CLIENT,5c4da47734ee9300011d2299,29/01/1948,2020-07-09_18h31.51.987,proactive,2020.1.2,Win32,60,5f073de81c76c3308c0e4fb3,5f0754510e3ac4332a99894d,4,,,,,,backpack,,,,,,,,,,,2,1,0,17,17,11,1,,,,,,,,,,,,,,,,,,,,,,,,,,,,,,,,,,,,,,,,,,,,,,,,,,,,,,,,,,,,,,,,,,,,,,
,,?,0.002,0,,,,,,stimuli/images/PICTURE_708.png,RECORD,5c4da47734ee9300011d2299,29/01/1948,2020-07-09_18h31.51.987,proactive,2020.1.2,Win32,60,5f073de81c76c3308c0e4fb3,5f0754510e3ac4332a99894d,4,,,,,,monkey,,,,,,,,,,,6,1,0,18,18,58,1,,,,,,,,,,,,,,,,,,,,,,,,,,,,,,,,,,,,,,,,,,,,,,,,,,,,,,,,,,,,,,,,,,,,,,
,,KIND,3.363,1,,,,,,stimuli/images/PICTURE_32.png,KIND,5c4da47734ee9300011d2299,29/01/1948,2020-07-09_18h31.51.987,proactive,2020.1.2,Win32,60,5f073de81c76c3308c0e4fb3,5f0754510e3ac4332a99894d,4,,,,,,crown,,,,,,,,,,,4,1,0,19,19,35,1,,,,,,,,,,,,,,,,,,,,,,,,,,,,,,,,,,,,,,,,,,,,,,,,,,,,,,,,,,,,,,,,,,,,,,
,,FIRST,4.249,0,,,,,,stimuli/images/PICTURE_57.png,MOMENT,5c4da47734ee9300011d2299,29/01/1948,2020-07-09_18h31.51.987,proactive,2020.1.2,Win32,60,5f073de81c76c3308c0e4fb3,5f0754510e3ac4332a99894d,4,,,,,,stamp,,,,,,,,,,,4,1,0,20,20,37,1,,,,,,,,,,,,,,,,,,,,,,,,,,,,,,,,,,,,,,,,,,,,,,,,,,,,,,,,,,,,,,,,,,,,,,
,,?,0.003,0,,,,,,stimuli/images/PICTURE_32.png,PILLS,5c4da47734ee9300011d2299,29/01/1948,2020-07-09_18h31.51.987,proactive,2020.1.2,Win32,60,5f073de81c76c3308c0e4fb3,5f0754510e3ac4332a99894d,4,,,,,,crown,,,,,,,,,,,2,1,0,21,21,18,1,,,,,,,,,,,,,,,,,,,,,,,,,,,,,,,,,,,,,,,,,,,,,,,,,,,,,,,,,,,,,,,,,,,,,,
,,?,0.002,0,,,,,,stimuli/images/PICTURE_469.png,AGENT,5c4da47734ee9300011d2299,29/01/1948,2020-07-09_18h31.51.987,proactive,2020.1.2,Win32,60,5f073de81c76c3308c0e4fb3,5f0754510e3ac4332a99894d,4,,,,,,stool,,,,,,,,,,,2,1,0,22,22,16,1,,,,,,,,,,,,,,,,,,,,,,,,,,,,,,,,,,,,,,,,,,,,,,,,,,,,,,,,,,,,,,,,,,,,,,
,,?,0.001,0,,,,,,stimuli/images/PICTURE_68.png,MILE,5c4da47734ee9300011d2299,29/01/1948,2020-07-09_18h31.51.987,proactive,2020.1.2,Win32,60,5f073de81c76c3308c0e4fb3,5f0754510e3ac4332a99894d,4,,,,,,candle,,,,,,,,,,,6,1,0,23,23,51,1,,,,,,,,,,,,,,,,,,,,,,,,,,,,,,,,,,,,,,,,,,,,,,,,,,,,,,,,,,,,,,,,,,,,,,
,,?,0.001,0,,,,,,stimuli/images/PICTURE_504.png,COPS,5c4da47734ee9300011d2299,29/01/1948,2020-07-09_18h31.51.987,proactive,2020.1.2,Win32,60,5f073de81c76c3308c0e4fb3,5f0754510e3ac4332a99894d,4,,,,,,wheel,,,,,,,,,,,6,1,0,24,24,52,1,,,,,,,,,,,,,,,,,,,,,,,,,,,,,,,,,,,,,,,,,,,,,,,,,,,,,,,,,,,,,,,,,,,,,,
,,?,0.001,0,,,,,,stimuli/images/PICTURE_403.png,TOILET,5c4da47734ee9300011d2299,29/01/1948,2020-07-09_18h31.51.987,proactive,2020.1.2,Win32,60,5f073de81c76c3308c0e4fb3,5f0754510e3ac4332a99894d,4,,,,,,cathedral,,,,,,,,,,,3,1,0,25,25,25,1,,,,,,,,,,,,,,,,,,,,,,,,,,,,,,,,,,,,,,,,,,,,,,,,,,,,,,,,,,,,,,,,,,,,,,
,,?,0.001,0,,,,,,stimuli/images/PICTURE_108.png,FLIGHT,5c4da47734ee9300011d2299,29/01/1948,2020-07-09_18h31.51.987,proactive,2020.1.2,Win32,60,5f073de81c76c3308c0e4fb3,5f0754510e3ac4332a99894d,4,,,,,,calendar,,,,,,,,,,,6,1,0,26,26,59,1,,,,,,,,,,,,,,,,,,,,,,,,,,,,,,,,,,,,,,,,,,,,,,,,,,,,,,,,,,,,,,,,,,,,,,
,,?,0.001,0,,,,,,stimuli/images/PICTURE_491.png,RIVER,5c4da47734ee9300011d2299,29/01/1948,2020-07-09_18h31.51.987,proactive,2020.1.2,Win32,60,5f073de81c76c3308c0e4fb3,5f0754510e3ac4332a99894d,4,,,,,,rug,,,,,,,,,,,1,1,0,27,27,6,1,,,,,,,,,,,,,,,,,,,,,,,,,,,,,,,,,,,,,,,,,,,,,,,,,,,,,,,,,,,,,,,,,,,,,,
,,?,0,0,,,,,,stimuli/images/PICTURE_655.png,TOILET,5c4da47734ee9300011d2299,29/01/1948,2020-07-09_18h31.51.987,proactive,2020.1.2,Win32,60,5f073de81c76c3308c0e4fb3,5f0754510e3ac4332a99894d,4,,,,,,megaphone,,,,,,,,,,,2,1,0,28,28,12,1,,,,,,,,,,,,,,,,,,,,,,,,,,,,,,,,,,,,,,,,,,,,,,,,,,,,,,,,,,,,,,,,,,,,,,
,,?,0.001,0,,,,,,stimuli/images/PICTURE_504.png,YEAR,5c4da47734ee9300011d2299,29/01/1948,2020-07-09_18h31.51.987,proactive,2020.1.2,Win32,60,5f073de81c76c3308c0e4fb3,5f0754510e3ac4332a99894d,4,,,,,,wheel,,,,,,,,,,,2,1,0,29,29,13,1,,,,,,,,,,,,,,,,,,,,,,,,,,,,,,,,,,,,,,,,,,,,,,,,,,,,,,,,,,,,,,,,,,,,,,
,,?,0,0,,,,,,stimuli/images/PICTURE_677.png,APPLE,5c4da47734ee9300011d2299,29/01/1948,2020-07-09_18h31.51.987,proactive,2020.1.2,Win32,60,5f073de81c76c3308c0e4fb3,5f0754510e3ac4332a99894d,4,,,,,,map,,,,,,,,,,,5,1,0,30,30,43,1,,,,,,,,,,,,,,,,,,,,,,,,,,,,,,,,,,,,,,,,,,,,,,,,,,,,,,,,,,,,,,,,,,,,,,
,,?,0.001,0,,,,,,stimuli/images/PICTURE_95.png,BOYS,5c4da47734ee9300011d2299,29/01/1948,2020-07-09_18h31.51.987,proactive,2020.1.2,Win32,60,5f073de81c76c3308c0e4fb3,5f0754510e3ac4332a99894d,4,,,,,,suitcase,,,,,,,,,,,1,1,0,31,31,1,1,,,,,,,,,,,,,,,,,,,,,,,,,,,,,,,,,,,,,,,,,,,,,,,,,,,,,,,,,,,,,,,,,,,,,,
,,FISH,4.986,0,,,,,,stimuli/images/PICTURE_297.png,RIVER,5c4da47734ee9300011d2299,29/01/1948,2020-07-09_18h31.51.987,proactive,2020.1.2,Win32,60,5f073de81c76c3308c0e4fb3,5f0754510e3ac4332a99894d,4,,,,,,aeroplane,,,,,,,,,,,4,1,0,32,32,39,1,,,,,,,,,,,,,,,,,,,,,,,,,,,,,,,,,,,,,,,,,,,,,,,,,,,,,,,,,,,,,,,,,,,,,,
,,?,0.003,0,,,,,,stimuli/images/PICTURE_487.png,GIRL,5c4da47734ee9300011d2299,29/01/1948,2020-07-09_18h31.51.987,proactive,2020.1.2,Win32,60,5f073de81c76c3308c0e4fb3,5f0754510e3ac4332a99894d,4,,,,,,basket,,,,,,,,,,,5,1,0,33,33,45,1,,,,,,,,,,,,,,,,,,,,,,,,,,,,,,,,,,,,,,,,,,,,,,,,,,,,,,,,,,,,,,,,,,,,,,
,,?,0.001,0,,,,,,stimuli/images/PICTURE_296.png,LIFE,5c4da47734ee9300011d2299,29/01/1948,2020-07-09_18h31.51.987,proactive,2020.1.2,Win32,60,5f073de81c76c3308c0e4fb3,5f0754510e3ac4332a99894d,4,,,,,,bolt,,,,,,,,,,,6,1,0,34,34,57,1,,,,,,,,,,,,,,,,,,,,,,,,,,,,,,,,,,,,,,,,,,,,,,,,,,,,,,,,,,,,,,,,,,,,,,
,,?,0,0,,,,,,stimuli/images/PICTURE_108.png,POLICY,5c4da47734ee9300011d2299,29/01/1948,2020-07-09_18h31.51.987,proactive,2020.1.2,Win32,60,5f073de81c76c3308c0e4fb3,5f0754510e3ac4332a99894d,4,,,,,,calendar,,,,,,,,,,,3,1,0,35,35,22,1,,,,,,,,,,,,,,,,,,,,,,,,,,,,,,,,,,,,,,,,,,,,,,,,,,,,,,,,,,,,,,,,,,,,,,
,,?,0.001,0,,,,,,stimuli/images/PICTURE_42.png,BOYS,5c4da47734ee9300011d2299,29/01/1948,2020-07-09_18h31.51.987,proactive,2020.1.2,Win32,60,5f073de81c76c3308c0e4fb3,5f0754510e3ac4332a99894d,4,,,,,,pear,,,,,,,,,,,6,1,0,36,36,55,1,,,,,,,,,,,,,,,,,,,,,,,,,,,,,,,,,,,,,,,,,,,,,,,,,,,,,,,,,,,,,,,,,,,,,,
,,?,4.371,0,,,,,,stimuli/images/PICTURE_203.png,GODS,5c4da47734ee9300011d2299,29/01/1948,2020-07-09_18h31.51.987,proactive,2020.1.2,Win32,60,5f073de81c76c3308c0e4fb3,5f0754510e3ac4332a99894d,4,,,,,,cap,,,,,,,,,,,4,1,0,37,37,30,1,,,,,,,,,,,,,,,,,,,,,,,,,,,,,,,,,,,,,,,,,,,,,,,,,,,,,,,,,,,,,,,,,,,,,,
,,?,0.003,0,,,,,,stimuli/images/PICTURE_504.png,ARTIST,5c4da47734ee9300011d2299,29/01/1948,2020-07-09_18h31.51.987,proactive,2020.1.2,Win32,60,5f073de81c76c3308c0e4fb3,5f0754510e3ac4332a99894d,4,,,,,,wheel,,,,,,,,,,,5,1,0,38,38,49,1,,,,,,,,,,,,,,,,,,,,,,,,,,,,,,,,,,,,,,,,,,,,,,,,,,,,,,,,,,,,,,,,,,,,,,
,,?,0.003,0,,,,,,stimuli/images/PICTURE_85.png,NATION,5c4da47734ee9300011d2299,29/01/1948,2020-07-09_18h31.51.987,proactive,2020.1.2,Win32,60,5f073de81c76c3308c0e4fb3,5f0754510e3ac4332a99894d,4,,,,,,diamond,,,,,,,,,,,1,1,0,39,39,5,1,,,,,,,,,,,,,,,,,,,,,,,,,,,,,,,,,,,,,,,,,,,,,,,,,,,,,,,,,,,,,,,,,,,,,,
,,?,0.003,0,,,,,,stimuli/images/PICTURE_380.png,CANDY,5c4da47734ee9300011d2299,29/01/1948,2020-07-09_18h31.51.987,proactive,2020.1.2,Win32,60,5f073de81c76c3308c0e4fb3,5f0754510e3ac4332a99894d,4,,,,,,gorilla,,,,,,,,,,,1,1,0,40,40,0,1,,,,,,,,,,,,,,,,,,,,,,,,,,,,,,,,,,,,,,,,,,,,,,,,,,,,,,,,,,,,,,,,,,,,,,
,,?,0.001,0,,,,,,stimuli/images/PICTURE_203.png,NIGHT,5c4da47734ee9300011d2299,29/01/1948,2020-07-09_18h31.51.987,proactive,2020.1.2,Win32,60,5f073de81c76c3308c0e4fb3,5f0754510e3ac4332a99894d,4,,,,,,cap,,,,,,,,,,,1,1,0,41,41,2,1,,,,,,,,,,,,,,,,,,,,,,,,,,,,,,,,,,,,,,,,,,,,,,,,,,,,,,,,,,,,,,,,,,,,,,
,,?,0,0,,,,,,stimuli/images/PICTURE_491.png,GLASS,5c4da47734ee9300011d2299,29/01/1948,2020-07-09_18h31.51.987,proactive,2020.1.2,Win32,60,5f073de81c76c3308c0e4fb3,5f0754510e3ac4332a99894d,4,,,,,,rug,,,,,,,,,,,2,1,0,42,42,14,1,,,,,,,,,,,,,,,,,,,,,,,,,,,,,,,,,,,,,,,,,,,,,,,,,,,,,,,,,,,,,,,,,,,,,,
,,FIRST,4.193,0,,,,,,stimuli/images/PICTURE_285.png,LIFE,5c4da47734ee9300011d2299,29/01/1948,2020-07-09_18h31.51.987,proactive,2020.1.2,Win32,60,5f073de81c76c3308c0e4fb3,5f0754510e3ac4332a99894d,4,,,,,,carrot,,,,,,,,,,,4,1,0,43,43,33,1,,,,,,,,,,,,,,,,,,,,,,,,,,,,,,,,,,,,,,,,,,,,,,,,,,,,,,,,,,,,,,,,,,,,,,
,,?,0.003,0,,,,,,stimuli/images/PICTURE_380.png,HONEY,5c4da47734ee9300011d2299,29/01/1948,2020-07-09_18h31.51.987,proactive,2020.1.2,Win32,60,5f073de81c76c3308c0e4fb3,5f0754510e3ac4332a99894d,4,,,,,,gorilla,,,,,,,,,,,2,1,0,44,44,19,1,,,,,,,,,,,,,,,,,,,,,,,,,,,,,,,,,,,,,,,,,,,,,,,,,,,,,,,,,,,,,,,,,,,,,,
,,?,0.001,0,,,,,,stimuli/images/PICTURE_95.png,MILLER,5c4da47734ee9300011d2299,29/01/1948,2020-07-09_18h31.51.987,proactive,2020.1.2,Win32,60,5f073de81c76c3308c0e4fb3,5f0754510e3ac4332a99894d,4,,,,,,suitcase,,,,,,,,,,,6,1,0,45,45,56,1,,,,,,,,,,,,,,,,,,,,,,,,,,,,,,,,,,,,,,,,,,,,,,,,,,,,,,,,,,,,,,,,,,,,,,
,,?,0.001,0,,,,,,stimuli/images/PICTURE_383.png,SERIES,5c4da47734ee9300011d2299,29/01/1948,2020-07-09_18h31.51.987,proactive,2020.1.2,Win32,60,5f073de81c76c3308c0e4fb3,5f0754510e3ac4332a99894d,4,,,,,,coin,,,,,,,,,,,5,1,0,46,46,46,1,,,,,,,,,,,,,,,,,,,,,,,,,,,,,,,,,,,,,,,,,,,,,,,,,,,,,,,,,,,,,,,,,,,,,,
,,?,0.001,0,,,,,,stimuli/images/PICTURE_327.png,CASINO,5c4da47734ee9300011d2299,29/01/1948,2020-07-09_18h31.51.987,proactive,2020.1.2,Win32,60,5f073de81c76c3308c0e4fb3,5f0754510e3ac4332a99894d,4,,,,,,helmet,,,,,,,,,,,3,1,0,47,47,20,1,,,,,,,,,,,,,,,,,,,,,,,,,,,,,,,,,,,,,,,,,,,,,,,,,,,,,,,,,,,,,,,,,,,,,,
,,?,0.001,0,,,,,,stimuli/images/PICTURE_744.png,WEAPON,5c4da47734ee9300011d2299,29/01/1948,2020-07-09_18h31.51.987,proactive,2020.1.2,Win32,60,5f073de81c76c3308c0e4fb3,5f0754510e3ac4332a99894d,4,,,,,,ring,,,,,,,,,,,6,1,0,48,48,50,1,,,,,,,,,,,,,,,,,,,,,,,,,,,,,,,,,,,,,,,,,,,,,,,,,,,,,,,,,,,,,,,,,,,,,,
,,?,0.002,0,,,,,,stimuli/images/PICTURE_467.png,POLICY,5c4da47734ee9300011d2299,29/01/1948,2020-07-09_18h31.51.987,proactive,2020.1.2,Win32,60,5f073de81c76c3308c0e4fb3,5f0754510e3ac4332a99894d,4,,,,,,peg,,,,,,,,,,,6,1,0,49,49,53,1,,,,,,,,,,,,,,,,,,,,,,,,,,,,,,,,,,,,,,,,,,,,,,,,,,,,,,,,,,,,,,,,,,,,,,
,,?,0.001,0,,,,,,stimuli/images/PICTURE_675.png,SALE,5c4da47734ee9300011d2299,29/01/1948,2020-07-09_18h31.51.987,proactive,2020.1.2,Win32,60,5f073de81c76c3308c0e4fb3,5f0754510e3ac4332a99894d,4,,,,,,windmill,,,,,,,,,,,5,1,0,50,50,47,1,,,,,,,,,,,,,,,,,,,,,,,,,,,,,,,,,,,,,,,,,,,,,,,,,,,,,,,,,,,,,,,,,,,,,,
,,?,0.001,0,,,,,,stimuli/images/PICTURE_327.png,SERIES,5c4da47734ee9300011d2299,29/01/1948,2020-07-09_18h31.51.987,proactive,2020.1.2,Win32,60,5f073de81c76c3308c0e4fb3,5f0754510e3ac4332a99894d,4,,,,,,helmet,,,,,,,,,,,1,1,0,51,51,3,1,,,,,,,,,,,,,,,,,,,,,,,,,,,,,,,,,,,,,,,,,,,,,,,,,,,,,,,,,,,,,,,,,,,,,,
,,FAMILY,4.809,1,,,,,,stimuli/images/PICTURE_308.png,FAMILY,5c4da47734ee9300011d2299,29/01/1948,2020-07-09_18h31.51.987,proactive,2020.1.2,Win32,60,5f073de81c76c3308c0e4fb3,5f0754510e3ac4332a99894d,4,,,,,,dice,,,,,,,,,,,4,1,0,52,52,36,1,,,,,,,,,,,,,,,,,,,,,,,,,,,,,,,,,,,,,,,,,,,,,,,,,,,,,,,,,,,,,,,,,,,,,,
,,?,0.004,0,,,,,,stimuli/images/PICTURE_383.png,WRITER,5c4da47734ee9300011d2299,29/01/1948,2020-07-09_18h31.51.987,proactive,2020.1.2,Win32,60,5f073de81c76c3308c0e4fb3,5f0754510e3ac4332a99894d,4,,,,,,coin,,,,,,,,,,,3,1,0,53,53,28,1,,,,,,,,,,,,,,,,,,,,,,,,,,,,,,,,,,,,,,,,,,,,,,,,,,,,,,,,,,,,,,,,,,,,,,
,,?,0.002,0,,,,,,stimuli/images/PICTURE_405.png,PLENTY,5c4da47734ee9300011d2299,29/01/1948,2020-07-09_18h31.51.987,proactive,2020.1.2,Win32,60,5f073de81c76c3308c0e4fb3,5f0754510e3ac4332a99894d,4,,,,,,anchor,,,,,,,,,,,3,1,0,54,54,23,1,,,,,,,,,,,,,,,,,,,,,,,,,,,,,,,,,,,,,,,,,,,,,,,,,,,,,,,,,,,,,,,,,,,,,,
,,?,0.001,0,,,,,,stimuli/images/PICTURE_340.png,LETTER,5c4da47734ee9300011d2299,29/01/1948,2020-07-09_18h31.51.987,proactive,2020.1.2,Win32,60,5f073de81c76c3308c0e4fb3,5f0754510e3ac4332a99894d,4,,,,,,mirror,,,,,,,,,,,3,1,0,55,55,24,1,,,,,,,,,,,,,,,,,,,,,,,,,,,,,,,,,,,,,,,,,,,,,,,,,,,,,,,,,,,,,,,,,,,,,,
,,?,0.002,0,,,,,,stimuli/images/PICTURE_685.png,PENNY,5c4da47734ee9300011d2299,29/01/1948,2020-07-09_18h31.51.987,proactive,2020.1.2,Win32,60,5f073de81c76c3308c0e4fb3,5f0754510e3ac4332a99894d,4,,,,,,goose,,,,,,,,,,,1,1,0,56,56,4,1,,,,,,,,,,,,,,,,,,,,,,,,,,,,,,,,,,,,,,,,,,,,,,,,,,,,,,,,,,,,,,,,,,,,,,
,,?,0.001,0,,,,,,stimuli/images/PICTURE_564.png,BATH,5c4da47734ee9300011d2299,29/01/1948,2020-07-09_18h31.51.987,proactive,2020.1.2,Win32,60,5f073de81c76c3308c0e4fb3,5f0754510e3ac4332a99894d,4,,,,,,spoon,,,,,,,,,,,3,1,0,57,57,26,1,,,,,,,,,,,,,,,,,,,,,,,,,,,,,,,,,,,,,,,,,,,,,,,,,,,,,,,,,,,,,,,,,,,,,,
,,?,0,0,,,,,,stimuli/images/PICTURE_33.png,FRIEND,5c4da47734ee9300011d2299,29/01/1948,2020-07-09_18h31.51.987,proactive,2020.1.2,Win32,60,5f073de81c76c3308c0e4fb3,5f0754510e3ac4332a99894d,4,,,,,,frame,,,,,,,,,,,1,1,0,58,58,8,1,,,,,,,,,,,,,,,,,,,,,,,,,,,,,,,,,,,,,,,,,,,,,,,,,,,,,,,,,,,,,,,,,,,,,,
,,?,0.001,0,,,,,,stimuli/images/PICTURE_147.png,WOMEN,5c4da47734ee9300011d2299,29/01/1948,2020-07-09_18h31.51.987,proactive,2020.1.2,Win32,60,5f073de81c76c3308c0e4fb3,5f0754510e3ac4332a99894d,4,,,,,,hanger,,,,,,,,,,,1,1,0,59,59,7,1,,,,,,,,,,,,,,,,,,,,,,,,,,,,,,,,,,,,,,,,,,,,,,,,,,,,,,,,,,,,,,,,,,,,,,
,,,,,,,,,,,,5c4da47734ee9300011d2299,29/01/1948,2020-07-09_18h31.51.987,proactive,2020.1.2,Win32,60,5f073de81c76c3308c0e4fb3,5f0754510e3ac4332a99894d,4,,,,,,,,,,,,,,,,,,,,,,,,0,0,0,1,1,stimuli/learn-block2.csv,,,,,,,,,,,,,,,,,,,,,,,,,,,,,,,,,,,,,,,,,,,,,,,,,,,,,,,,,,,,,,,,
,,,,,,,,,,stimuli/images/PICTURE_208.png,SPIRIT,5c4da47734ee9300011d2299,29/01/1948,2020-07-09_18h31.51.987,proactive,2020.1.2,Win32,60,5f073de81c76c3308c0e4fb3,5f0754510e3ac4332a99894d,4,,,,,,microphone,,,,,,0,0,0,28,1,3,2,,,,,,,,,,,,,,,,,,,,,,,,,,,,,,,,,,,,,,,,,,,,,,,,,,,,,,,,,,,,,,,,,,,,,,,,,,,
,,,,,,,,,,stimuli/images/PICTURE_750.png,POLICY,5c4da47734ee9300011d2299,29/01/1948,2020-07-09_18h31.51.987,proactive,2020.1.2,Win32,60,5f073de81c76c3308c0e4fb3,5f0754510e3ac4332a99894d,4,,,,,,kettle,,,,,,0,1,1,44,1,5,2,,,,,,,,,,,,,,,,,,,,,,,,,,,,,,,,,,,,,,,,,,,,,,,,,,,,,,,,,,,,,,,,,,,,,,,,,,,
,,,,,,,,,,stimuli/images/PICTURE_403.png,FAMILY,5c4da47734ee9300011d2299,29/01/1948,2020-07-09_18h31.51.987,proactive,2020.1.2,Win32,60,5f073de81c76c3308c0e4fb3,5f0754510e3ac4332a99894d,4,,,,,,cathedral,,,,,,0,2,2,9,1,1,2,,,,,,,,,,,,,,,,,,,,,,,,,,,,,,,,,,,,,,,,,,,,,,,,,,,,,,,,,,,,,,,,,,,,,,,,,,,
,,,,,,,,,,stimuli/images/PICTURE_255.png,PENNY,5c4da47734ee9300011d2299,29/01/1948,2020-07-09_18h31.51.987,proactive,2020.1.2,Win32,60,5f073de81c76c3308c0e4fb3,5f0754510e3ac4332a99894d,4,,,,,,shovel,,,,,,0,3,3,19,1,2,2,,,,,,,,,,,,,,,,,,,,,,,,,,,,,,,,,,,,,,,,,,,,,,,,,,,,,,,,,,,,,,,,,,,,,,,,,,,
,,,,,,,,,,stimuli/images/PICTURE_215.png,LEADER,5c4da47734ee9300011d2299,29/01/1948,2020-07-09_18h31.51.987,proactive,2020.1.2,Win32,60,5f073de81c76c3308c0e4fb3,5f0754510e3ac4332a99894d,4,,,,,,boot,,,,,,0,4,4,43,1,5,2,,,,,,,,,,,,,,,,,,,,,,,,,,,,,,,,,,,,,,,,,,,,,,,,,,,,,,,,,,,,,,,,,,,,,,,,,,,
,,,,,,,,,,stimuli/images/PICTURE_453.png,FAMILY,5c4da47734ee9300011d2299,29/01/1948,2020-07-09_18h31.51.987,proactive,2020.1.2,Win32,60,5f073de81c76c3308c0e4fb3,5f0754510e3ac4332a99894d,4,,,,,,scissors,,,,,,0,5,5,48,1,5,2,,,,,,,,,,,,,,,,,,,,,,,,,,,,,,,,,,,,,,,,,,,,,,,,,,,,,,,,,,,,,,,,,,,,,,,,,,,
,,,,,,,,,,stimuli/images/PICTURE_147.png,LEADER,5c4da47734ee9300011d2299,29/01/1948,2020-07-09_18h31.51.987,proactive,2020.1.2,Win32,60,5f073de81c76c3308c0e4fb3,5f0754510e3ac4332a99894d,4,,,,,,hanger,,,,,,0,6,6,33,1,4,2,,,,,,,,,,,,,,,,,,,,,,,,,,,,,,,,,,,,,,,,,,,,,,,,,,,,,,,,,,,,,,,,,,,,,,,,,,,
,,,,,,,,,,stimuli/images/PICTURE_141.png,CLIENT,5c4da47734ee9300011d2299,29/01/1948,2020-07-09_18h31.51.987,proactive,2020.1.2,Win32,60,5f073de81c76c3308c0e4fb3,5f0754510e3ac4332a99894d,4,,,,,,sunflower,,,,,,0,7,7,30,1,4,2,,,,,,,,,,,,,,,,,,,,,,,,,,,,,,,,,,,,,,,,,,,,,,,,,,,,,,,,,,,,,,,,,,,,,,,,,,,
,,,,,,,,,,stimuli/images/PICTURE_470.png,MOMENT,5c4da47734ee9300011d2299,29/01/1948,2020-07-09_18h31.51.987,proactive,2020.1.2,Win32,60,5f073de81c76c3308c0e4fb3,5f0754510e3ac4332a99894d,4,,,,,,motorbike,,,,,,0,8,8,40,1,5,2,,,,,,,,,,,,,,,,,,,,,,,,,,,,,,,,,,,,,,,,,,,,,,,,,,,,,,,,,,,,,,,,,,,,,,,,,,,
,,,,,,,,,,stimuli/images/PICTURE_677.png,FAMILY,5c4da47734ee9300011d2299,29/01/1948,2020-07-09_18h31.51.987,proactive,2020.1.2,Win32,60,5f073de81c76c3308c0e4fb3,5f0754510e3ac4332a99894d,4,,,,,,map,,,,,,0,9,9,53,1,6,2,,,,,,,,,,,,,,,,,,,,,,,,,,,,,,,,,,,,,,,,,,,,,,,,,,,,,,,,,,,,,,,,,,,,,,,,,,,
,,,,,,,,,,stimuli/images/PICTURE_2.png,AREA,5c4da47734ee9300011d2299,29/01/1948,2020-07-09_18h31.51.987,proactive,2020.1.2,Win32,60,5f073de81c76c3308c0e4fb3,5f0754510e3ac4332a99894d,4,,,,,,tyre,,,,,,0,10,10,32,1,4,2,,,,,,,,,,,,,,,,,,,,,,,,,,,,,,,,,,,,,,,,,,,,,,,,,,,,,,,,,,,,,,,,,,,,,,,,,,,
,,,,,,,,,,stimuli/images/PICTURE_509.png,APPLE,5c4da47734ee9300011d2299,29/01/1948,2020-07-09_18h31.51.987,proactive,2020.1.2,Win32,60,5f073de81c76c3308c0e4fb3,5f0754510e3ac4332a99894d,4,,,,,,telephone,,,,,,0,11,11,38,1,4,2,,,,,,,,,,,,,,,,,,,,,,,,,,,,,,,,,,,,,,,,,,,,,,,,,,,,,,,,,,,,,,,,,,,,,,,,,,,
,,,,,,,,,,stimuli/images/PICTURE_405.png,HOUSE,5c4da47734ee9300011d2299,29/01/1948,2020-07-09_18h31.51.987,proactive,2020.1.2,Win32,60,5f073de81c76c3308c0e4fb3,5f0754510e3ac4332a99894d,4,,,,,,anchor,,,,,,0,12,12,2,1,1,2,,,,,,,,,,,,,,,,,,,,,,,,,,,,,,,,,,,,,,,,,,,,,,,,,,,,,,,,,,,,,,,,,,,,,,,,,,,
,,,,,,,,,,stimuli/images/PICTURE_487.png,ROOF,5c4da47734ee9300011d2299,29/01/1948,2020-07-09_18h31.51.987,proactive,2020.1.2,Win32,60,5f073de81c76c3308c0e4fb3,5f0754510e3ac4332a99894d,4,,,,,,basket,,,,,,0,13,13,50,1,6,2,,,,,,,,,,,,,,,,,,,,,,,,,,,,,,,,,,,,,,,,,,,,,,,,,,,,,,,,,,,,,,,,,,,,,,,,,,,
,,,,,,,,,,stimuli/images/PICTURE_348.png,DUDE,5c4da47734ee9300011d2299,29/01/1948,2020-07-09_18h31.51.987,proactive,2020.1.2,Win32,60,5f073de81c76c3308c0e4fb3,5f0754510e3ac4332a99894d,4,,,,,,pepper,,,,,,0,14,14,59,1,6,2,,,,,,,,,,,,,,,,,,,,,,,,,,,,,,,,,,,,,,,,,,,,,,,,,,,,,,,,,,,,,,,,,,,,,,,,,,,
,,,,,,,,,,stimuli/images/PICTURE_348.png,TOILET,5c4da47734ee9300011d2299,29/01/1948,2020-07-09_18h31.51.987,proactive,2020.1.2,Win32,60,5f073de81c76c3308c0e4fb3,5f0754510e3ac4332a99894d,4,,,,,,pepper,,,,,,0,15,15,4,1,1,2,,,,,,,,,,,,,,,,,,,,,,,,,,,,,,,,,,,,,,,,,,,,,,,,,,,,,,,,,,,,,,,,,,,,,,,,,,,
,,,,,,,,,,stimuli/images/PICTURE_677.png,PHOTO,5c4da47734ee9300011d2299,29/01/1948,2020-07-09_18h31.51.987,proactive,2020.1.2,Win32,60,5f073de81c76c3308c0e4fb3,5f0754510e3ac4332a99894d,4,,,,,,map,,,,,,0,16,16,14,1,2,2,,,,,,,,,,,,,,,,,,,,,,,,,,,,,,,,,,,,,,,,,,,,,,,,,,,,,,,,,,,,,,,,,,,,,,,,,,,
,,,,,,,,,,stimuli/images/PICTURE_405.png,JUNGLE,5c4da47734ee9300011d2299,29/01/1948,2020-07-09_18h31.51.987,proactive,2020.1.2,Win32,60,5f073de81c76c3308c0e4fb3,5f0754510e3ac4332a99894d,4,,,,,,anchor,,,,,,0,17,17,58,1,6,2,,,,,,,,,,,,,,,,,,,,,,,,,,,,,,,,,,,,,,,,,,,,,,,,,,,,,,,,,,,,,,,,,,,,,,,,,,,
,,,,,,,,,,stimuli/images/PICTURE_215.png,FOOD,5c4da47734ee9300011d2299,29/01/1948,2020-07-09_18h31.51.987,proactive,2020.1.2,Win32,60,5f073de81c76c3308c0e4fb3,5f0754510e3ac4332a99894d,4,,,,,,boot,,,,,,0,18,18,5,1,1,2,,,,,,,,,,,,,,,,,,,,,,,,,,,,,,,,,,,,,,,,,,,,,,,,,,,,,,,,,,,,,,,,,,,,,,,,,,,
,,,,,,,,,,stimuli/images/PICTURE_509.png,BATH,5c4da47734ee9300011d2299,29/01/1948,2020-07-09_18h31.51.987,proactive,2020.1.2,Win32,60,5f073de81c76c3308c0e4fb3,5f0754510e3ac4332a99894d,4,,,,,,telephone,,,,,,0,19,19,15,1,2,2,,,,,,,,,,,,,,,,,,,,,,,,,,,,,,,,,,,,,,,,,,,,,,,,,,,,,,,,,,,,,,,,,,,,,,,,,,,
,,,,,,,,,,stimuli/images/PICTURE_667.png,GLASS,5c4da47734ee9300011d2299,29/01/1948,2020-07-09_18h31.51.987,proactive,2020.1.2,Win32,60,5f073de81c76c3308c0e4fb3,5f0754510e3ac4332a99894d,4,,,,,,daisy,,,,,,0,20,20,27,1,3,2,,,,,,,,,,,,,,,,,,,,,,,,,,,,,,,,,,,,,,,,,,,,,,,,,,,,,,,,,,,,,,,,,,,,,,,,,,,
,,,,,,,,,,stimuli/images/PICTURE_491.png,SERIES,5c4da47734ee9300011d2299,29/01/1948,2020-07-09_18h31.51.987,proactive,2020.1.2,Win32,60,5f073de81c76c3308c0e4fb3,5f0754510e3ac4332a99894d,4,,,,,,rug,,,,,,0,21,21,39,1,4,2,,,,,,,,,,,,,,,,,,,,,,,,,,,,,,,,,,,,,,,,,,,,,,,,,,,,,,,,,,,,,,,,,,,,,,,,,,,
,,,,,,,,,,stimuli/images/PICTURE_509.png,MILLER,5c4da47734ee9300011d2299,29/01/1948,2020-07-09_18h31.51.987,proactive,2020.1.2,Win32,60,5f073de81c76c3308c0e4fb3,5f0754510e3ac4332a99894d,4,,,,,,telephone,,,,,,0,22,22,49,1,5,2,,,,,,,,,,,,,,,,,,,,,,,,,,,,,,,,,,,,,,,,,,,,,,,,,,,,,,,,,,,,,,,,,,,,,,,,,,,
,,,,,,,,,,stimuli/images/PICTURE_487.png,POLICY,5c4da47734ee9300011d2299,29/01/1948,2020-07-09_18h31.51.987,proactive,2020.1.2,Win32,60,5f073de81c76c3308c0e4fb3,5f0754510e3ac4332a99894d,4,,,,,,basket,,,,,,0,23,23,34,1,4,2,,,,,,,,,,,,,,,,,,,,,,,,,,,,,,,,,,,,,,,,,,,,,,,,,,,,,,,,,,,,,,,,,,,,,,,,,,,
,,,,,,,,,,stimuli/images/PICTURE_68.png,KIND,5c4da47734ee9300011d2299,29/01/1948,2020-07-09_18h31.51.987,proactive,2020.1.2,Win32,60,5f073de81c76c3308c0e4fb3,5f0754510e3ac4332a99894d,4,,,,,,candle,,,,,,0,24,24,23,1,3,2,,,,,,,,,,,,,,,,,,,,,,,,,,,,,,,,,,,,,,,,,,,,,,,,,,,,,,,,,,,,,,,,,,,,,,,,,,,
,,,,,,,,,,stimuli/images/PICTURE_655.png,SALE,5c4da47734ee9300011d2299,29/01/1948,2020-07-09_18h31.51.987,proactive,2020.1.2,Win32,60,5f073de81c76c3308c0e4fb3,5f0754510e3ac4332a99894d,4,,,,,,megaphone,,,,,,0,25,25,57,1,6,2,,,,,,,,,,,,,,,,,,,,,,,,,,,,,,,,,,,,,,,,,,,,,,,,,,,,,,,,,,,,,,,,,,,,,,,,,,,
,,,,,,,,,,stimuli/images/PICTURE_311.png,FLESH,5c4da47734ee9300011d2299,29/01/1948,2020-07-09_18h31.51.987,proactive,2020.1.2,Win32,60,5f073de81c76c3308c0e4fb3,5f0754510e3ac4332a99894d,4,,,,,,razor,,,,,,0,26,26,3,1,1,2,,,,,,,,,,,,,,,,,,,,,,,,,,,,,,,,,,,,,,,,,,,,,,,,,,,,,,,,,,,,,,,,,,,,,,,,,,,
,,,,,,,,,,stimuli/images/PICTURE_314.png,SPEECH,5c4da47734ee9300011d2299,29/01/1948,2020-07-09_18h31.51.987,proactive,2020.1.2,Win32,60,5f073de81c76c3308c0e4fb3,5f0754510e3ac4332a99894d,4,,,,,,perfume,,,,,,0,27,27,35,1,4,2,,,,,,,,,,,,,,,,,,,,,,,,,,,,,,,,,,,,,,,,,,,,,,,,,,,,,,,,,,,,,,,,,,,,,,,,,,,
,,,,,,,,,,stimuli/images/PICTURE_215.png,BOYS,5c4da47734ee9300011d2299,29/01/1948,2020-07-09_18h31.51.987,proactive,2020.1.2,Win32,60,5f073de81c76c3308c0e4fb3,5f0754510e3ac4332a99894d,4,,,,,,boot,,,,,,0,28,28,24,1,3,2,,,,,,,,,,,,,,,,,,,,,,,,,,,,,,,,,,,,,,,,,,,,,,,,,,,,,,,,,,,,,,,,,,,,,,,,,,,
,,,,,,,,,,stimuli/images/PICTURE_2.png,YARD,5c4da47734ee9300011d2299,29/01/1948,2020-07-09_18h31.51.987,proactive,2020.1.2,Win32,60,5f073de81c76c3308c0e4fb3,5f0754510e3ac4332a99894d,4,,,,,,tyre,,,,,,0,29,29,55,1,6,2,,,,,,,,,,,,,,,,,,,,,,,,,,,,,,,,,,,,,,,,,,,,,,,,,,,,,,,,,,,,,,,,,,,,,,,,,,,
,,,,,,,,,,stimuli/images/PICTURE_57.png,CANDY,5c4da47734ee9300011d2299,29/01/1948,2020-07-09_18h31.51.987,proactive,2020.1.2,Win32,60,5f073de81c76c3308c0e4fb3,5f0754510e3ac4332a99894d,4,,,,,,stamp,,,,,,0,30,30,52,1,6,2,,,,,,,,,,,,,,,,,,,,,,,,,,,,,,,,,,,,,,,,,,,,,,,,,,,,,,,,,,,,,,,,,,,,,,,,,,,
,,,,,,,,,,stimuli/images/PICTURE_285.png,WRITER,5c4da47734ee9300011d2299,29/01/1948,2020-07-09_18h31.51.987,proactive,2020.1.2,Win32,60,5f073de81c76c3308c0e4fb3,5f0754510e3ac4332a99894d,4,,,,,,carrot,,,,,,0,31,31,6,1,1,2,,,,,,,,,,,,,,,,,,,,,,,,,,,,,,,,,,,,,,,,,,,,,,,,,,,,,,,,,,,,,,,,,,,,,,,,,,,
,,,,,,,,,,stimuli/images/PICTURE_327.png,LEADER,5c4da47734ee9300011d2299,29/01/1948,2020-07-09_18h31.51.987,proactive,2020.1.2,Win32,60,5f073de81c76c3308c0e4fb3,5f0754510e3ac4332a99894d,4,,,,,,helmet,,,,,,0,32,32,17,1,2,2,,,,,,,,,,,,,,,,,,,,,,,,,,,,,,,,,,,,,,,,,,,,,,,,,,,,,,,,,,,,,,,,,,,,,,,,,,,
,,,,,,,,,,stimuli/images/PICTURE_654.png,COPS,5c4da47734ee9300011d2299,29/01/1948,2020-07-09_18h31.51.987,proactive,2020.1.2,Win32,60,5f073de81c76c3308c0e4fb3,5f0754510e3ac4332a99894d,4,,,,,,pencil,,,,,,0,33,33,10,1,2,2,,,,,,,,,,,,,,,,,,,,,,,,,,,,,,,,,,,,,,,,,,,,,,,,,,,,,,,,,,,,,,,,,,,,,,,,,,,
,,,,,,,,,,stimuli/images/PICTURE_18.png,RIVER,5c4da47734ee9300011d2299,29/01/1948,2020-07-09_18h31.51.987,proactive,2020.1.2,Win32,60,5f073de81c76c3308c0e4fb3,5f0754510e3ac4332a99894d,4,,,,,,planet,,,,,,0,34,34,22,1,3,2,,,,,,,,,,,,,,,,,,,,,,,,,,,,,,,,,,,,,,,,,,,,,,,,,,,,,,,,,,,,,,,,,,,,,,,,,,,
,,,,,,,,,,stimuli/images/PICTURE_285.png,PRINCE,5c4da47734ee9300011d2299,29/01/1948,2020-07-09_18h31.51.987,proactive,2020.1.2,Win32,60,5f073de81c76c3308c0e4fb3,5f0754510e3ac4332a99894d,4,,,,,,carrot,,,,,,0,35,35,20,1,3,2,,,,,,,,,,,,,,,,,,,,,,,,,,,,,,,,,,,,,,,,,,,,,,,,,,,,,,,,,,,,,,,,,,,,,,,,,,,
,,,,,,,,,,stimuli/images/PICTURE_296.png,CLOCK,5c4da47734ee9300011d2299,29/01/1948,2020-07-09_18h31.51.987,proactive,2020.1.2,Win32,60,5f073de81c76c3308c0e4fb3,5f0754510e3ac4332a99894d,4,,,,,,bolt,,,,,,0,36,36,18,1,2,2,,,,,,,,,,,,,,,,,,,,,,,,,,,,,,,,,,,,,,,,,,,,,,,,,,,,,,,,,,,,,,,,,,,,,,,,,,,
,,,,,,,,,,stimuli/images/PICTURE_57.png,NATION,5c4da47734ee9300011d2299,29/01/1948,2020-07-09_18h31.51.987,proactive,2020.1.2,Win32,60,5f073de81c76c3308c0e4fb3,5f0754510e3ac4332a99894d,4,,,,,,stamp,,,,,,0,37,37,21,1,3,2,,,,,,,,,,,,,,,,,,,,,,,,,,,,,,,,,,,,,,,,,,,,,,,,,,,,,,,,,,,,,,,,,,,,,,,,,,,
,,,,,,,,,,stimuli/images/PICTURE_93.png,GIRL,5c4da47734ee9300011d2299,29/01/1948,2020-07-09_18h31.51.987,proactive,2020.1.2,Win32,60,5f073de81c76c3308c0e4fb3,5f0754510e3ac4332a99894d,4,,,,,,skateboard,,,,,,0,38,38,31,1,4,2,,,,,,,,,,,,,,,,,,,,,,,,,,,,,,,,,,,,,,,,,,,,,,,,,,,,,,,,,,,,,,,,,,,,,,,,,,,
,,,,,,,,,,stimuli/images/PICTURE_708.png,VALLEY,5c4da47734ee9300011d2299,29/01/1948,2020-07-09_18h31.51.987,proactive,2020.1.2,Win32,60,5f073de81c76c3308c0e4fb3,5f0754510e3ac4332a99894d,4,,,,,,monkey,,,,,,0,39,39,45,1,5,2,,,,,,,,,,,,,,,,,,,,,,,,,,,,,,,,,,,,,,,,,,,,,,,,,,,,,,,,,,,,,,,,,,,,,,,,,,,
,,,,,,,,,,stimuli/images/PICTURE_692.png,DUDE,5c4da47734ee9300011d2299,29/01/1948,2020-07-09_18h31.51.987,proactive,2020.1.2,Win32,60,5f073de81c76c3308c0e4fb3,5f0754510e3ac4332a99894d,4,,,,,,cherry,,,,,,0,40,40,47,1,5,2,,,,,,,,,,,,,,,,,,,,,,,,,,,,,,,,,,,,,,,,,,,,,,,,,,,,,,,,,,,,,,,,,,,,,,,,,,,
,,,,,,,,,,stimuli/images/PICTURE_297.png,BODY,5c4da47734ee9300011d2299,29/01/1948,2020-07-09_18h31.51.987,proactive,2020.1.2,Win32,60,5f073de81c76c3308c0e4fb3,5f0754510e3ac4332a99894d,4,,,,,,aeroplane,,,,,,0,41,41,51,1,6,2,,,,,,,,,,,,,,,,,,,,,,,,,,,,,,,,,,,,,,,,,,,,,,,,,,,,,,,,,,,,,,,,,,,,,,,,,,,
,,,,,,,,,,stimuli/images/PICTURE_654.png,YEAR,5c4da47734ee9300011d2299,29/01/1948,2020-07-09_18h31.51.987,proactive,2020.1.2,Win32,60,5f073de81c76c3308c0e4fb3,5f0754510e3ac4332a99894d,4,,,,,,pencil,,,,,,0,42,42,41,1,5,2,,,,,,,,,,,,,,,,,,,,,,,,,,,,,,,,,,,,,,,,,,,,,,,,,,,,,,,,,,,,,,,,,,,,,,,,,,,
,,,,,,,,,,stimuli/images/PICTURE_452.png,COPS,5c4da47734ee9300011d2299,29/01/1948,2020-07-09_18h31.51.987,proactive,2020.1.2,Win32,60,5f073de81c76c3308c0e4fb3,5f0754510e3ac4332a99894d,4,,,,,,watch,,,,,,0,43,43,0,1,1,2,,,,,,,,,,,,,,,,,,,,,,,,,,,,,,,,,,,,,,,,,,,,,,,,,,,,,,,,,,,,,,,,,,,,,,,,,,,
,,,,,,,,,,stimuli/images/PICTURE_33.png,COPS,5c4da47734ee9300011d2299,29/01/1948,2020-07-09_18h31.51.987,proactive,2020.1.2,Win32,60,5f073de81c76c3308c0e4fb3,5f0754510e3ac4332a99894d,4,,,,,,frame,,,,,,0,44,44,29,1,3,2,,,,,,,,,,,,,,,,,,,,,,,,,,,,,,,,,,,,,,,,,,,,,,,,,,,,,,,,,,,,,,,,,,,,,,,,,,,
,,,,,,,,,,stimuli/images/PICTURE_123.png,SALE,5c4da47734ee9300011d2299,29/01/1948,2020-07-09_18h31.51.987,proactive,2020.1.2,Win32,60,5f073de81c76c3308c0e4fb3,5f0754510e3ac4332a99894d,4,,,,,,dart,,,,,,0,45,45,8,1,1,2,,,,,,,,,,,,,,,,,,,,,,,,,,,,,,,,,,,,,,,,,,,,,,,,,,,,,,,,,,,,,,,,,,,,,,,,,,,
,,,,,,,,,,stimuli/images/PICTURE_688.png,CLOCK,5c4da47734ee9300011d2299,29/01/1948,2020-07-09_18h31.51.987,proactive,2020.1.2,Win32,60,5f073de81c76c3308c0e4fb3,5f0754510e3ac4332a99894d,4,,,,,,runner,,,,,,0,46,46,42,1,5,2,,,,,,,,,,,,,,,,,,,,,,,,,,,,,,,,,,,,,,,,,,,,,,,,,,,,,,,,,,,,,,,,,,,,,,,,,,,
,,,,,,,,,,stimuli/images/PICTURE_2.png,JUNGLE,5c4da47734ee9300011d2299,29/01/1948,2020-07-09_18h31.51.987,proactive,2020.1.2,Win32,60,5f073de81c76c3308c0e4fb3,5f0754510e3ac4332a99894d,4,,,,,,tyre,,,,,,0,47,47,1,1,1,2,,,,,,,,,,,,,,,,,,,,,,,,,,,,,,,,,,,,,,,,,,,,,,,,,,,,,,,,,,,,,,,,,,,,,,,,,,,
,,,,,,,,,,stimuli/images/PICTURE_356.png,CANDY,5c4da47734ee9300011d2299,29/01/1948,2020-07-09_18h31.51.987,proactive,2020.1.2,Win32,60,5f073de81c76c3308c0e4fb3,5f0754510e3ac4332a99894d,4,,,,,,pawn,,,,,,0,48,48,46,1,5,2,,,,,,,,,,,,,,,,,,,,,,,,,,,,,,,,,,,,,,,,,,,,,,,,,,,,,,,,,,,,,,,,,,,,,,,,,,,
,,,,,,,,,,stimuli/images/PICTURE_160.png,HOTEL,5c4da47734ee9300011d2299,29/01/1948,2020-07-09_18h31.51.987,proactive,2020.1.2,Win32,60,5f073de81c76c3308c0e4fb3,5f0754510e3ac4332a99894d,4,,,,,,wheelbarrow,,,,,,0,49,49,16,1,2,2,,,,,,,,,,,,,,,,,,,,,,,,,,,,,,,,,,,,,,,,,,,,,,,,,,,,,,,,,,,,,,,,,,,,,,,,,,,
,,,,,,,,,,stimuli/images/PICTURE_95.png,NIGHT,5c4da47734ee9300011d2299,29/01/1948,2020-07-09_18h31.51.987,proactive,2020.1.2,Win32,60,5f073de81c76c3308c0e4fb3,5f0754510e3ac4332a99894d,4,,,,,,suitcase,,,,,,0,50,50,37,1,4,2,,,,,,,,,,,,,,,,,,,,,,,,,,,,,,,,,,,,,,,,,,,,,,,,,,,,,,,,,,,,,,,,,,,,,,,,,,,
,,,,,,,,,,stimuli/images/PICTURE_177.png,HOUSE,5c4da47734ee9300011d2299,29/01/1948,2020-07-09_18h31.51.987,proactive,2020.1.2,Win32,60,5f073de81c76c3308c0e4fb3,5f0754510e3ac4332a99894d,4,,,,,,mushroom,,,,,,0,51,51,25,1,3,2,,,,,,,,,,,,,,,,,,,,,,,,,,,,,,,,,,,,,,,,,,,,,,,,,,,,,,,,,,,,,,,,,,,,,,,,,,,
,,,,,,,,,,stimuli/images/PICTURE_470.png,BEAUTY,5c4da47734ee9300011d2299,29/01/1948,2020-07-09_18h31.51.987,proactive,2020.1.2,Win32,60,5f073de81c76c3308c0e4fb3,5f0754510e3ac4332a99894d,4,,,,,,motorbike,,,,,,0,52,52,26,1,3,2,,,,,,,,,,,,,,,,,,,,,,,,,,,,,,,,,,,,,,,,,,,,,,,,,,,,,,,,,,,,,,,,,,,,,,,,,,,
,,,,,,,,,,stimuli/images/PICTURE_509.png,SHOTS,5c4da47734ee9300011d2299,29/01/1948,2020-07-09_18h31.51.987,proactive,2020.1.2,Win32,60,5f073de81c76c3308c0e4fb3,5f0754510e3ac4332a99894d,4,,,,,,telephone,,,,,,0,53,53,7,1,1,2,,,,,,,,,,,,,,,,,,,,,,,,,,,,,,,,,,,,,,,,,,,,,,,,,,,,,,,,,,,,,,,,,,,,,,,,,,,
,,,,,,,,,,stimuli/images/PICTURE_504.png,HOUSE,5c4da47734ee9300011d2299,29/01/1948,2020-07-09_18h31.51.987,proactive,2020.1.2,Win32,60,5f073de81c76c3308c0e4fb3,5f0754510e3ac4332a99894d,4,,,,,,wheel,,,,,,0,54,54,36,1,4,2,,,,,,,,,,,,,,,,,,,,,,,,,,,,,,,,,,,,,,,,,,,,,,,,,,,,,,,,,,,,,,,,,,,,,,,,,,,
,,,,,,,,,,stimuli/images/PICTURE_57.png,CASINO,5c4da47734ee9300011d2299,29/01/1948,2020-07-09_18h31.51.987,proactive,2020.1.2,Win32,60,5f073de81c76c3308c0e4fb3,5f0754510e3ac4332a99894d,4,,,,,,stamp,,,,,,0,55,55,12,1,2,2,,,,,,,,,,,,,,,,,,,,,,,,,,,,,,,,,,,,,,,,,,,,,,,,,,,,,,,,,,,,,,,,,,,,,,,,,,,
,,,,,,,,,,stimuli/images/PICTURE_32.png,LETTER,5c4da47734ee9300011d2299,29/01/1948,2020-07-09_18h31.51.987,proactive,2020.1.2,Win32,60,5f073de81c76c3308c0e4fb3,5f0754510e3ac4332a99894d,4,,,,,,crown,,,,,,0,56,56,56,1,6,2,,,,,,,,,,,,,,,,,,,,,,,,,,,,,,,,,,,,,,,,,,,,,,,,,,,,,,,,,,,,,,,,,,,,,,,,,,,
,,,,,,,,,,stimuli/images/PICTURE_311.png,TOILET,5c4da47734ee9300011d2299,29/01/1948,2020-07-09_18h31.51.987,proactive,2020.1.2,Win32,60,5f073de81c76c3308c0e4fb3,5f0754510e3ac4332a99894d,4,,,,,,razor,,,,,,0,57,57,54,1,6,2,,,,,,,,,,,,,,,,,,,,,,,,,,,,,,,,,,,,,,,,,,,,,,,,,,,,,,,,,,,,,,,,,,,,,,,,,,,
,,,,,,,,,,stimuli/images/PICTURE_564.png,PLENTY,5c4da47734ee9300011d2299,29/01/1948,2020-07-09_18h31.51.987,proactive,2020.1.2,Win32,60,5f073de81c76c3308c0e4fb3,5f0754510e3ac4332a99894d,4,,,,,,spoon,,,,,,0,58,58,11,1,2,2,,,,,,,,,,,,,,,,,,,,,,,,,,,,,,,,,,,,,,,,,,,,,,,,,,,,,,,,,,,,,,,,,,,,,,,,,,,
,,?,0.002,0,,,,,,stimuli/images/PICTURE_215.png,BOYS,5c4da47734ee9300011d2299,29/01/1948,2020-07-09_18h31.51.987,proactive,2020.1.2,Win32,60,5f073de81c76c3308c0e4fb3,5f0754510e3ac4332a99894d,4,,,,,,boot,,,,,,,,,,,3,2,0,0,0,24,1,,,,,,,,,,,,,,,,,,,,,,,,,,,,,,,,,,,,,,,,,,,,,,,,,,,,,,,,,,,,,,,,,,,,,,
,,?,0.001,0,,,,,,stimuli/images/PICTURE_453.png,FAMILY,5c4da47734ee9300011d2299,29/01/1948,2020-07-09_18h31.51.987,proactive,2020.1.2,Win32,60,5f073de81c76c3308c0e4fb3,5f0754510e3ac4332a99894d,4,,,,,,scissors,,,,,,,,,,,5,2,0,1,1,48,1,,,,,,,,,,,,,,,,,,,,,,,,,,,,,,,,,,,,,,,,,,,,,,,,,,,,,,,,,,,,,,,,,,,,,,
,,?,0.001,0,,,,,,stimuli/images/PICTURE_123.png,SALE,5c4da47734ee9300011d2299,29/01/1948,2020-07-09_18h31.51.987,proactive,2020.1.2,Win32,60,5f073de81c76c3308c0e4fb3,5f0754510e3ac4332a99894d,4,,,,,,dart,,,,,,,,,,,1,2,0,2,2,8,1,,,,,,,,,,,,,,,,,,,,,,,,,,,,,,,,,,,,,,,,,,,,,,,,,,,,,,,,,,,,,,,,,,,,,,
,,?,0.001,0,,,,,,stimuli/images/PICTURE_509.png,MILLER,5c4da47734ee9300011d2299,29/01/1948,2020-07-09_18h31.51.987,proactive,2020.1.2,Win32,60,5f073de81c76c3308c0e4fb3,5f0754510e3ac4332a99894d,4,,,,,,telephone,,,,,,,,,,,5,2,0,3,3,49,1,,,,,,,,,,,,,,,,,,,,,,,,,,,,,,,,,,,,,,,,,,,,,,,,,,,,,,,,,,,,,,,,,,,,,,
,,?,0,0,,,,,,stimuli/images/PICTURE_654.png,YEAR,5c4da47734ee9300011d2299,29/01/1948,2020-07-09_18h31.51.987,proactive,2020.1.2,Win32,60,5f073de81c76c3308c0e4fb3,5f0754510e3ac4332a99894d,4,,,,,,pencil,,,,,,,,,,,5,2,0,4,4,41,1,,,,,,,,,,,,,,,,,,,,,,,,,,,,,,,,,,,,,,,,,,,,,,,,,,,,,,,,,,,,,,,,,,,,,,
,,?,0,0,,,,,,stimuli/images/PICTURE_405.png,JUNGLE,5c4da47734ee9300011d2299,29/01/1948,2020-07-09_18h31.51.987,proactive,2020.1.2,Win32,60,5f073de81c76c3308c0e4fb3,5f0754510e3ac4332a99894d,4,,,,,,anchor,,,,,,,,,,,6,2,0,5,5,58,1,,,,,,,,,,,,,,,,,,,,,,,,,,,,,,,,,,,,,,,,,,,,,,,,,,,,,,,,,,,,,,,,,,,,,,
,,?,0,0,,,,,,stimuli/images/PICTURE_18.png,RIVER,5c4da47734ee9300011d2299,29/01/1948,2020-07-09_18h31.51.987,proactive,2020.1.2,Win32,60,5f073de81c76c3308c0e4fb3,5f0754510e3ac4332a99894d,4,,,,,,planet,,,,,,,,,,,3,2,0,6,6,22,1,,,,,,,,,,,,,,,,,,,,,,,,,,,,,,,,,,,,,,,,,,,,,,,,,,,,,,,,,,,,,,,,,,,,,,
,,?,0,0,,,,,,stimuli/images/PICTURE_655.png,SALE,5c4da47734ee9300011d2299,29/01/1948,2020-07-09_18h31.51.987,proactive,2020.1.2,Win32,60,5f073de81c76c3308c0e4fb3,5f0754510e3ac4332a99894d,4,,,,,,megaphone,,,,,,,,,,,6,2,0,7,7,57,1,,,,,,,,,,,,,,,,,,,,,,,,,,,,,,,,,,,,,,,,,,,,,,,,,,,,,,,,,,,,,,,,,,,,,,
,,SPECTRUM,9.534,0,,,,,,stimuli/images/PICTURE_491.png,SERIES,5c4da47734ee9300011d2299,29/01/1948,2020-07-09_18h31.51.987,proactive,2020.1.2,Win32,60,5f073de81c76c3308c0e4fb3,5f0754510e3ac4332a99894d,4,,,,,,rug,,,,,,,,,,,4,2,0,8,8,39,1,,,,,,,,,,,,,,,,,,,,,,,,,,,,,,,,,,,,,,,,,,,,,,,,,,,,,,,,,,,,,,,,,,,,,,
,,?,0.002,0,,,,,,stimuli/images/PICTURE_348.png,DUDE,5c4da47734ee9300011d2299,29/01/1948,2020-07-09_18h31.51.987,proactive,2020.1.2,Win32,60,5f073de81c76c3308c0e4fb3,5f0754510e3ac4332a99894d,4,,,,,,pepper,,,,,,,,,,,6,2,0,9,9,59,1,,,,,,,,,,,,,,,,,,,,,,,,,,,,,,,,,,,,,,,,,,,,,,,,,,,,,,,,,,,,,,,,,,,,,,
,,HOUSE,3.577,1,,,,,,stimuli/images/PICTURE_504.png,HOUSE,5c4da47734ee9300011d2299,29/01/1948,2020-07-09_18h31.51.987,proactive,2020.1.2,Win32,60,5f073de81c76c3308c0e4fb3,5f0754510e3ac4332a99894d,4,,,,,,wheel,,,,,,,,,,,4,2,0,10,10,36,1,,,,,,,,,,,,,,,,,,,,,,,,,,,,,,,,,,,,,,,,,,,,,,,,,,,,,,,,,,,,,,,,,,,,,,
,,?,0.003,0,,,,,,stimuli/images/PICTURE_57.png,CASINO,5c4da47734ee9300011d2299,29/01/1948,2020-07-09_18h31.51.987,proactive,2020.1.2,Win32,60,5f073de81c76c3308c0e4fb3,5f0754510e3ac4332a99894d,4,,,,,,stamp,,,,,,,,,,,2,2,0,11,11,12,1,,,,,,,,,,,,,,,,,,,,,,,,,,,,,,,,,,,,,,,,,,,,,,,,,,,,,,,,,,,,,,,,,,,,,,
,,?,0.001,0,,,,,,stimuli/images/PICTURE_509.png,SHOTS,5c4da47734ee9300011d2299,29/01/1948,2020-07-09_18h31.51.987,proactive,2020.1.2,Win32,60,5f073de81c76c3308c0e4fb3,5f0754510e3ac4332a99894d,4,,,,,,telephone,,,,,,,,,,,1,2,0,12,12,7,1,,,,,,,,,,,,,,,,,,,,,,,,,,,,,,,,,,,,,,,,,,,,,,,,,,,,,,,,,,,,,,,,,,,,,,
,,?,0.001,0,,,,,,stimuli/images/PICTURE_654.png,COPS,5c4da47734ee9300011d2299,29/01/1948,2020-07-09_18h31.51.987,proactive,2020.1.2,Win32,60,5f073de81c76c3308c0e4fb3,5f0754510e3ac4332a99894d,4,,,,,,pencil,,,,,,,,,,,2,2,0,13,13,10,1,,,,,,,,,,,,,,,,,,,,,,,,,,,,,,,,,,,,,,,,,,,,,,,,,,,,,,,,,,,,,,,,,,,,,,
,,?,0.001,0,,,,,,stimuli/images/PICTURE_564.png,PLENTY,5c4da47734ee9300011d2299,29/01/1948,2020-07-09_18h31.51.987,proactive,2020.1.2,Win32,60,5f073de81c76c3308c0e4fb3,5f0754510e3ac4332a99894d,4,,,,,,spoon,,,,,,,,,,,2,2,0,14,14,11,1,,,,,,,,,,,,,,,,,,,,,,,,,,,,,,,,,,,,,,,,,,,,,,,,,,,,,,,,,,,,,,,,,,,,,,
,,?,0.001,0,,,,,,stimuli/images/PICTURE_677.png,FAMILY,5c4da47734ee9300011d2299,29/01/1948,2020-07-09_18h31.51.987,proactive,2020.1.2,Win32,60,5f073de81c76c3308c0e4fb3,5f0754510e3ac4332a99894d,4,,,,,,map,,,,,,,,,,,6,2,0,15,15,53,1,,,,,,,,,,,,,,,,,,,,,,,,,,,,,,,,,,,,,,,,,,,,,,,,,,,,,,,,,,,,,,,,,,,,,,
,,?,0,0,,,,,,stimuli/images/PICTURE_667.png,GLASS,5c4da47734ee9300011d2299,29/01/1948,2020-07-09_18h31.51.987,proactive,2020.1.2,Win32,60,5f073de81c76c3308c0e4fb3,5f0754510e3ac4332a99894d,4,,,,,,daisy,,,,,,,,,,,3,2,0,16,16,27,1,,,,,,,,,,,,,,,,,,,,,,,,,,,,,,,,,,,,,,,,,,,,,,,,,,,,,,,,,,,,,,,,,,,,,,
,,?,0.001,0,,,,,,stimuli/images/PICTURE_160.png,HOTEL,5c4da47734ee9300011d2299,29/01/1948,2020-07-09_18h31.51.987,proactive,2020.1.2,Win32,60,5f073de81c76c3308c0e4fb3,5f0754510e3ac4332a99894d,4,,,,,,wheelbarrow,,,,,,,,,,,2,2,0,17,17,16,1,,,,,,,,,,,,,,,,,,,,,,,,,,,,,,,,,,,,,,,,,,,,,,,,,,,,,,,,,,,,,,,,,,,,,,
,,?,0.001,0,,,,,,stimuli/images/PICTURE_33.png,COPS,5c4da47734ee9300011d2299,29/01/1948,2020-07-09_18h31.51.987,proactive,2020.1.2,Win32,60,5f073de81c76c3308c0e4fb3,5f0754510e3ac4332a99894d,4,,,,,,frame,,,,,,,,,,,3,2,0,18,18,29,1,,,,,,,,,,,,,,,,,,,,,,,,,,,,,,,,,,,,,,,,,,,,,,,,,,,,,,,,,,,,,,,,,,,,,,
,,AREA,2.107,1,,,,,,stimuli/images/PICTURE_2.png,AREA,5c4da47734ee9300011d2299,29/01/1948,2020-07-09_18h31.51.987,proactive,2020.1.2,Win32,60,5f073de81c76c3308c0e4fb3,5f0754510e3ac4332a99894d,4,,,,,,tyre,,,,,,,,,,,4,2,0,19,19,32,1,,,,,,,,,,,,,,,,,,,,,,,,,,,,,,,,,,,,,,,,,,,,,,,,,,,,,,,,,,,,,,,,,,,,,,
,,?,0.003,0,,,,,,stimuli/images/PICTURE_57.png,NATION,5c4da47734ee9300011d2299,29/01/1948,2020-07-09_18h31.51.987,proactive,2020.1.2,Win32,60,5f073de81c76c3308c0e4fb3,5f0754510e3ac4332a99894d,4,,,,,,stamp,,,,,,,,,,,3,2,0,20,20,21,1,,,,,,,,,,,,,,,,,,,,,,,,,,,,,,,,,,,,,,,,,,,,,,,,,,,,,,,,,,,,,,,,,,,,,,
,,?,0.002,0,,,,,,stimuli/images/PICTURE_405.png,HOUSE,5c4da47734ee9300011d2299,29/01/1948,2020-07-09_18h31.51.987,proactive,2020.1.2,Win32,60,5f073de81c76c3308c0e4fb3,5f0754510e3ac4332a99894d,4,,,,,,anchor,,,,,,,,,,,1,2,0,21,21,2,1,,,,,,,,,,,,,,,,,,,,,,,,,,,,,,,,,,,,,,,,,,,,,,,,,,,,,,,,,,,,,,,,,,,,,,
,,?,0.002,0,,,,,,stimuli/images/PICTURE_2.png,YARD,5c4da47734ee9300011d2299,29/01/1948,2020-07-09_18h31.51.987,proactive,2020.1.2,Win32,60,5f073de81c76c3308c0e4fb3,5f0754510e3ac4332a99894d,4,,,,,,tyre,,,,,,,,,,,6,2,0,22,22,55,1,,,,,,,,,,,,,,,,,,,,,,,,,,,,,,,,,,,,,,,,,,,,,,,,,,,,,,,,,,,,,,,,,,,,,,
,,?,0.002,0,,,,,,stimuli/images/PICTURE_677.png,PHOTO,5c4da47734ee9300011d2299,29/01/1948,2020-07-09_18h31.51.987,proactive,2020.1.2,Win32,60,5f073de81c76c3308c0e4fb3,5f0754510e3ac4332a99894d,4,,,,,,map,,,,,,,,,,,2,2,0,23,23,14,1,,,,,,,,,,,,,,,,,,,,,,,,,,,,,,,,,,,,,,,,,,,,,,,,,,,,,,,,,,,,,,,,,,,,,,
,,?,0.002,0,,,,,,stimuli/images/PICTURE_327.png,LEADER,5c4da47734ee9300011d2299,29/01/1948,2020-07-09_18h31.51.987,proactive,2020.1.2,Win32,60,5f073de81c76c3308c0e4fb3,5f0754510e3ac4332a99894d,4,,,,,,helmet,,,,,,,,,,,2,2,0,24,24,17,1,,,,,,,,,,,,,,,,,,,,,,,,,,,,,,,,,,,,,,,,,,,,,,,,,,,,,,,,,,,,,,,,,,,,,,
,,?,0.001,0,,,,,,stimuli/images/PICTURE_750.png,POLICY,5c4da47734ee9300011d2299,29/01/1948,2020-07-09_18h31.51.987,proactive,2020.1.2,Win32,60,5f073de81c76c3308c0e4fb3,5f0754510e3ac4332a99894d,4,,,,,,kettle,,,,,,,,,,,5,2,0,25,25,44,1,,,,,,,,,,,,,,,,,,,,,,,,,,,,,,,,,,,,,,,,,,,,,,,,,,,,,,,,,,,,,,,,,,,,,,
,,?,3.41,0,,,,,,stimuli/images/PICTURE_141.png,CLIENT,5c4da47734ee9300011d2299,29/01/1948,2020-07-09_18h31.51.987,proactive,2020.1.2,Win32,60,5f073de81c76c3308c0e4fb3,5f0754510e3ac4332a99894d,4,,,,,,sunflower,,,,,,,,,,,4,2,0,26,26,30,1,,,,,,,,,,,,,,,,,,,,,,,,,,,,,,,,,,,,,,,,,,,,,,,,,,,,,,,,,,,,,,,,,,,,,,
,,?,0.003,0,,,,,,stimuli/images/PICTURE_57.png,CANDY,5c4da47734ee9300011d2299,29/01/1948,2020-07-09_18h31.51.987,proactive,2020.1.2,Win32,60,5f073de81c76c3308c0e4fb3,5f0754510e3ac4332a99894d,4,,,,,,stamp,,,,,,,,,,,6,2,0,27,27,52,1,,,,,,,,,,,,,,,,,,,,,,,,,,,,,,,,,,,,,,,,,,,,,,,,,,,,,,,,,,,,,,,,,,,,,,
,,?,0.002,0,,,,,,stimuli/images/PICTURE_452.png,COPS,5c4da47734ee9300011d2299,29/01/1948,2020-07-09_18h31.51.987,proactive,2020.1.2,Win32,60,5f073de81c76c3308c0e4fb3,5f0754510e3ac4332a99894d,4,,,,,,watch,,,,,,,,,,,1,2,0,28,28,0,1,,,,,,,,,,,,,,,,,,,,,,,,,,,,,,,,,,,,,,,,,,,,,,,,,,,,,,,,,,,,,,,,,,,,,,
,,?,0.002,0,,,,,,stimuli/images/PICTURE_405.png,JUNGLE,5c4da47734ee9300011d2299,29/01/1948,2020-07-09_18h31.51.987,proactive,2020.1.2,Win32,60,5f073de81c76c3308c0e4fb3,5f0754510e3ac4332a99894d,4,,,,,,anchor,,,,,,,,,,,2,2,0,29,29,13,1,,,,,,,,,,,,,,,,,,,,,,,,,,,,,,,,,,,,,,,,,,,,,,,,,,,,,,,,,,,,,,,,,,,,,,
,,?,0.001,0,,,,,,stimuli/images/PICTURE_177.png,HOUSE,5c4da47734ee9300011d2299,29/01/1948,2020-07-09_18h31.51.987,proactive,2020.1.2,Win32,60,5f073de81c76c3308c0e4fb3,5f0754510e3ac4332a99894d,4,,,,,,mushroom,,,,,,,,,,,3,2,0,30,30,25,1,,,,,,,,,,,,,,,,,,,,,,,,,,,,,,,,,,,,,,,,,,,,,,,,,,,,,,,,,,,,,,,,,,,,,,
,,?,0.002,0,,,,,,stimuli/images/PICTURE_2.png,JUNGLE,5c4da47734ee9300011d2299,29/01/1948,2020-07-09_18h31.51.987,proactive,2020.1.2,Win32,60,5f073de81c76c3308c0e4fb3,5f0754510e3ac4332a99894d,4,,,,,,tyre,,,,,,,,,,,1,2,0,31,31,1,1,,,,,,,,,,,,,,,,,,,,,,,,,,,,,,,,,,,,,,,,,,,,,,,,,,,,,,,,,,,,,,,,,,,,,,
,,?,0.001,0,,,,,,stimuli/images/PICTURE_487.png,ROOF,5c4da47734ee9300011d2299,29/01/1948,2020-07-09_18h31.51.987,proactive,2020.1.2,Win32,60,5f073de81c76c3308c0e4fb3,5f0754510e3ac4332a99894d,4,,,,,,basket,,,,,,,,,,,6,2,0,32,32,50,1,,,,,,,,,,,,,,,,,,,,,,,,,,,,,,,,,,,,,,,,,,,,,,,,,,,,,,,,,,,,,,,,,,,,,,
,,?,0,0,,,,,,stimuli/images/PICTURE_215.png,FOOD,5c4da47734ee9300011d2299,29/01/1948,2020-07-09_18h31.51.987,proactive,2020.1.2,Win32,60,5f073de81c76c3308c0e4fb3,5f0754510e3ac4332a99894d,4,,,,,,boot,,,,,,,,,,,1,2,0,33,33,5,1,,,,,,,,,,,,,,,,,,,,,,,,,,,,,,,,,,,,,,,,,,,,,,,,,,,,,,,,,,,,,,,,,,,,,,
,,GIRL,2.657,1,,,,,,stimuli/images/PICTURE_93.png,GIRL,5c4da47734ee9300011d2299,29/01/1948,2020-07-09_18h31.51.987,proactive,2020.1.2,Win32,60,5f073de81c76c3308c0e4fb3,5f0754510e3ac4332a99894d,4,,,,,,skateboard,,,,,,,,,,,4,2,0,34,34,31,1,,,,,,,,,,,,,,,,,,,,,,,,,,,,,,,,,,,,,,,,,,,,,,,,,,,,,,,,,,,,,,,,,,,,,,
,,?,0.004,0,,,,,,stimuli/images/PICTURE_692.png,DUDE,5c4da47734ee9300011d2299,29/01/1948,2020-07-09_18h31.51.987,proactive,2020.1.2,Win32,60,5f073de81c76c3308c0e4fb3,5f0754510e3ac4332a99894d,4,,,,,,cherry,,,,,,,,,,,5,2,0,35,35,47,1,,,,,,,,,,,,,,,,,,,,,,,,,,,,,,,,,,,,,,,,,,,,,,,,,,,,,,,,,,,,,,,,,,,,,,
,,?,0.002,0,,,,,,stimuli/images/PICTURE_708.png,VALLEY,5c4da47734ee9300011d2299,29/01/1948,2020-07-09_18h31.51.987,proactive,2020.1.2,Win32,60,5f073de81c76c3308c0e4fb3,5f0754510e3ac4332a99894d,4,,,,,,monkey,,,,,,,,,,,5,2,0,36,36,45,1,,,,,,,,,,,,,,,,,,,,,,,,,,,,,,,,,,,,,,,,,,,,,,,,,,,,,,,,,,,,,,,,,,,,,,
,,?,0.001,0,,,,,,stimuli/images/PICTURE_470.png,BEAUTY,5c4da47734ee9300011d2299,29/01/1948,2020-07-09_18h31.51.987,proactive,2020.1.2,Win32,60,5f073de81c76c3308c0e4fb3,5f0754510e3ac4332a99894d,4,,,,,,motorbike,,,,,,,,,,,3,2,0,37,37,26,1,,,,,,,,,,,,,,,,,,,,,,,,,,,,,,,,,,,,,,,,,,,,,,,,,,,,,,,,,,,,,,,,,,,,,,
,,?,0.001,0,,,,,,stimuli/images/PICTURE_356.png,CANDY,5c4da47734ee9300011d2299,29/01/1948,2020-07-09_18h31.51.987,proactive,2020.1.2,Win32,60,5f073de81c76c3308c0e4fb3,5f0754510e3ac4332a99894d,4,,,,,,pawn,,,,,,,,,,,5,2,0,38,38,46,1,,,,,,,,,,,,,,,,,,,,,,,,,,,,,,,,,,,,,,,,,,,,,,,,,,,,,,,,,,,,,,,,,,,,,,
,,?,0.002,0,,,,,,stimuli/images/PICTURE_509.png,BATH,5c4da47734ee9300011d2299,29/01/1948,2020-07-09_18h31.51.987,proactive,2020.1.2,Win32,60,5f073de81c76c3308c0e4fb3,5f0754510e3ac4332a99894d,4,,,,,,telephone,,,,,,,,,,,2,2,0,39,39,15,1,,,,,,,,,,,,,,,,,,,,,,,,,,,,,,,,,,,,,,,,,,,,,,,,,,,,,,,,,,,,,,,,,,,,,,
,,?,0.001,0,,,,,,stimuli/images/PICTURE_68.png,KIND,5c4da47734ee9300011d2299,29/01/1948,2020-07-09_18h31.51.987,proactive,2020.1.2,Win32,60,5f073de81c76c3308c0e4fb3,5f0754510e3ac4332a99894d,4,,,,,,candle,,,,,,,,,,,3,2,0,40,40,23,1,,,,,,,,,,,,,,,,,,,,,,,,,,,,,,,,,,,,,,,,,,,,,,,,,,,,,,,,,,,,,,,,,,,,,,
,,NIGHT,4.194,1,,,,,,stimuli/images/PICTURE_95.png,NIGHT,5c4da47734ee9300011d2299,29/01/1948,2020-07-09_18h31.51.987,proactive,2020.1.2,Win32,60,5f073de81c76c3308c0e4fb3,5f0754510e3ac4332a99894d,4,,,,,,suitcase,,,,,,,,,,,4,2,0,41,41,37,1,,,,,,,,,,,,,,,,,,,,,,,,,,,,,,,,,,,,,,,,,,,,,,,,,,,,,,,,,,,,,,,,,,,,,,
,,?,0.004,0,,,,,,stimuli/images/PICTURE_215.png,LEADER,5c4da47734ee9300011d2299,29/01/1948,2020-07-09_18h31.51.987,proactive,2020.1.2,Win32,60,5f073de81c76c3308c0e4fb3,5f0754510e3ac4332a99894d,4,,,,,,boot,,,,,,,,,,,5,2,0,42,42,43,1,,,,,,,,,,,,,,,,,,,,,,,,,,,,,,,,,,,,,,,,,,,,,,,,,,,,,,,,,,,,,,,,,,,,,,
,,,9.026,0,,,,,,stimuli/images/PICTURE_314.png,SPEECH,5c4da47734ee9300011d2299,29/01/1948,2020-07-09_18h31.51.987,proactive,2020.1.2,Win32,60,5f073de81c76c3308c0e4fb3,5f0754510e3ac4332a99894d,4,,,,,,perfume,,,,,,,,,,,4,2,0,43,43,35,1,,,,,,,,,,,,,,,,,,,,,,,,,,,,,,,,,,,,,,,,,,,,,,,,,,,,,,,,,,,,,,,,,,,,,,
,,?,0.002,0,,,,,,stimuli/images/PICTURE_311.png,FLESH,5c4da47734ee9300011d2299,29/01/1948,2020-07-09_18h31.51.987,proactive,2020.1.2,Win32,60,5f073de81c76c3308c0e4fb3,5f0754510e3ac4332a99894d,4,,,,,,razor,,,,,,,,,,,1,2,0,44,44,3,1,,,,,,,,,,,,,,,,,,,,,,,,,,,,,,,,,,,,,,,,,,,,,,,,,,,,,,,,,,,,,,,,,,,,,,
,,?,0.001,0,,,,,,stimuli/images/PICTURE_348.png,TOILET,5c4da47734ee9300011d2299,29/01/1948,2020-07-09_18h31.51.987,proactive,2020.1.2,Win32,60,5f073de81c76c3308c0e4fb3,5f0754510e3ac4332a99894d,4,,,,,,pepper,,,,,,,,,,,1,2,0,45,45,4,1,,,,,,,,,,,,,,,,,,,,,,,,,,,,,,,,,,,,,,,,,,,,,,,,,,,,,,,,,,,,,,,,,,,,,,
,,?,0.002,0,,,,,,stimuli/images/PICTURE_208.png,SPIRIT,5c4da47734ee9300011d2299,29/01/1948,2020-07-09_18h31.51.987,proactive,2020.1.2,Win32,60,5f073de81c76c3308c0e4fb3,5f0754510e3ac4332a99894d,4,,,,,,microphone,,,,,,,,,,,3,2,0,46,46,28,1,,,,,,,,,,,,,,,,,,,,,,,,,,,,,,,,,,,,,,,,,,,,,,,,,,,,,,,,,,,,,,,,,,,,,,
,,?,0.001,0,,,,,,stimuli/images/PICTURE_403.png,FAMILY,5c4da47734ee9300011d2299,29/01/1948,2020-07-09_18h31.51.987,proactive,2020.1.2,Win32,60,5f073de81c76c3308c0e4fb3,5f0754510e3ac4332a99894d,4,,,,,,cathedral,,,,,,,,,,,1,2,0,47,47,9,1,,,,,,,,,,,,,,,,,,,,,,,,,,,,,,,,,,,,,,,,,,,,,,,,,,,,,,,,,,,,,,,,,,,,,,
,,?,0.002,0,,,,,,stimuli/images/PICTURE_296.png,CLOCK,5c4da47734ee9300011d2299,29/01/1948,2020-07-09_18h31.51.987,proactive,2020.1.2,Win32,60,5f073de81c76c3308c0e4fb3,5f0754510e3ac4332a99894d,4,,,,,,bolt,,,,,,,,,,,2,2,0,48,48,18,1,,,,,,,,,,,,,,,,,,,,,,,,,,,,,,,,,,,,,,,,,,,,,,,,,,,,,,,,,,,,,,,,,,,,,,
,,LEADER,10.813,0,,,,,,stimuli/images/PICTURE_509.png,APPLE,5c4da47734ee9300011d2299,29/01/1948,2020-07-09_18h31.51.987,proactive,2020.1.2,Win32,60,5f073de81c76c3308c0e4fb3,5f0754510e3ac4332a99894d,4,,,,,,telephone,,,,,,,,,,,4,2,0,49,49,38,1,,,,,,,,,,,,,,,,,,,,,,,,,,,,,,,,,,,,,,,,,,,,,,,,,,,,,,,,,,,,,,,,,,,,,,
,,?,0.003,0,,,,,,stimuli/images/PICTURE_311.png,TOILET,5c4da47734ee9300011d2299,29/01/1948,2020-07-09_18h31.51.987,proactive,2020.1.2,Win32,60,5f073de81c76c3308c0e4fb3,5f0754510e3ac4332a99894d,4,,,,,,razor,,,,,,,,,,,6,2,0,50,50,54,1,,,,,,,,,,,,,,,,,,,,,,,,,,,,,,,,,,,,,,,,,,,,,,,,,,,,,,,,,,,,,,,,,,,,,,
,,LEADER,3.476,1,,,,,,stimuli/images/PICTURE_147.png,LEADER,5c4da47734ee9300011d2299,29/01/1948,2020-07-09_18h31.51.987,proactive,2020.1.2,Win32,60,5f073de81c76c3308c0e4fb3,5f0754510e3ac4332a99894d,4,,,,,,hanger,,,,,,,,,,,4,2,0,51,51,33,1,,,,,,,,,,,,,,,,,,,,,,,,,,,,,,,,,,,,,,,,,,,,,,,,,,,,,,,,,,,,,,,,,,,,,,
,,?,0.003,0,,,,,,stimuli/images/PICTURE_285.png,WRITER,5c4da47734ee9300011d2299,29/01/1948,2020-07-09_18h31.51.987,proactive,2020.1.2,Win32,60,5f073de81c76c3308c0e4fb3,5f0754510e3ac4332a99894d,4,,,,,,carrot,,,,,,,,,,,1,2,0,52,52,6,1,,,,,,,,,,,,,,,,,,,,,,,,,,,,,,,,,,,,,,,,,,,,,,,,,,,,,,,,,,,,,,,,,,,,,,
,,?,0,0,,,,,,stimuli/images/PICTURE_297.png,BODY,5c4da47734ee9300011d2299,29/01/1948,2020-07-09_18h31.51.987,proactive,2020.1.2,Win32,60,5f073de81c76c3308c0e4fb3,5f0754510e3ac4332a99894d,4,,,,,,aeroplane,,,,,,,,,,,6,2,0,53,53,51,1,,,,,,,,,,,,,,,,,,,,,,,,,,,,,,,,,,,,,,,,,,,,,,,,,,,,,,,,,,,,,,,,,,,,,,
,,?,0,0,,,,,,stimuli/images/PICTURE_470.png,MOMENT,5c4da47734ee9300011d2299,29/01/1948,2020-07-09_18h31.51.987,proactive,2020.1.2,Win32,60,5f073de81c76c3308c0e4fb3,5f0754510e3ac4332a99894d,4,,,,,,motorbike,,,,,,,,,,,5,2,0,54,54,40,1,,,,,,,,,,,,,,,,,,,,,,,,,,,,,,,,,,,,,,,,,,,,,,,,,,,,,,,,,,,,,,,,,,,,,,
,,?,0,0,,,,,,stimuli/images/PICTURE_285.png,PRINCE,5c4da47734ee9300011d2299,29/01/1948,2020-07-09_18h31.51.987,proactive,2020.1.2,Win32,60,5f073de81c76c3308c0e4fb3,5f0754510e3ac4332a99894d,4,,,,,,carrot,,,,,,,,,,,3,2,0,55,55,20,1,,,,,,,,,,,,,,,,,,,,,,,,,,,,,,,,,,,,,,,,,,,,,,,,,,,,,,,,,,,,,,,,,,,,,,
,,?,0.001,0,,,,,,stimuli/images/PICTURE_255.png,PENNY,5c4da47734ee9300011d2299,29/01/1948,2020-07-09_18h31.51.987,proactive,2020.1.2,Win32,60,5f073de81c76c3308c0e4fb3,5f0754510e3ac4332a99894d,4,,,,,,shovel,,,,,,,,,,,2,2,0,56,56,19,1,,,,,,,,,,,,,,,,,,,,,,,,,,,,,,,,,,,,,,,,,,,,,,,,,,,,,,,,,,,,,,,,,,,,,,
,,?,0,0,,,,,,stimuli/images/PICTURE_688.png,CLOCK,5c4da47734ee9300011d2299,29/01/1948,2020-07-09_18h31.51.987,proactive,2020.1.2,Win32,60,5f073de81c76c3308c0e4fb3,5f0754510e3ac4332a99894d,4,,,,,,runner,,,,,,,,,,,5,2,0,57,57,42,1,,,,,,,,,,,,,,,,,,,,,,,,,,,,,,,,,,,,,,,,,,,,,,,,,,,,,,,,,,,,,,,,,,,,,,
,,?,12.689,0,,,,,,stimuli/images/PICTURE_487.png,POLICY,5c4da47734ee9300011d2299,29/01/1948,2020-07-09_18h31.51.987,proactive,2020.1.2,Win32,60,5f073de81c76c3308c0e4fb3,5f0754510e3ac4332a99894d,4,,,,,,basket,,,,,,,,,,,4,2,0,58,58,34,1,,,,,,,,,,,,,,,,,,,,,,,,,,,,,,,,,,,,,,,,,,,,,,,,,,,,,,,,,,,,,,,,,,,,,,
,,?,0.003,0,,,,,,stimuli/images/PICTURE_32.png,LETTER,5c4da47734ee9300011d2299,29/01/1948,2020-07-09_18h31.51.987,proactive,2020.1.2,Win32,60,5f073de81c76c3308c0e4fb3,5f0754510e3ac4332a99894d,4,,,,,,crown,,,,,,,,,,,6,2,0,59,59,56,1,,,,,,,,,,,,,,,,,,,,,,,,,,,,,,,,,,,,,,,,,,,,,,,,,,,,,,,,,,,,,,,,,,,,,,
,,,,,,,,,,,,5c4da47734ee9300011d2299,29/01/1948,2020-07-09_18h31.51.987,proactive,2020.1.2,Win32,60,5f073de81c76c3308c0e4fb3,5f0754510e3ac4332a99894d,4,,,,,,,,,,,,,,,,,,,,,,,,0,1,1,2,1,stimuli/learn-block3.csv,,,,,,,,,,,,,,,,,,,,,,,,,,,,,,,,,,,,,,,,,,,,,,,,,,,,,,,,,,,,,,,,
,,,,,,,,,,stimuli/images/PICTURE_208.png,THING,5c4da47734ee9300011d2299,29/01/1948,2020-07-09_18h31.51.987,proactive,2020.1.2,Win32,60,5f073de81c76c3308c0e4fb3,5f0754510e3ac4332a99894d,4,,,,,,microphone,,,,,,0,0,0,47,1,5,0,,,,,,,,,,,,,,,,,,,,,,,,,,,,,,,,,,,,,,,,,,,,,,,,,,,,,,,,,,,,,,,,,,,,,,,,,,,
,,,,,,,,,,stimuli/images/PICTURE_675.png,WEAPON,5c4da47734ee9300011d2299,29/01/1948,2020-07-09_18h31.51.987,proactive,2020.1.2,Win32,60,5f073de81c76c3308c0e4fb3,5f0754510e3ac4332a99894d,4,,,,,,windmill,,,,,,0,1,1,32,1,4,0,,,,,,,,,,,,,,,,,,,,,,,,,,,,,,,,,,,,,,,,,,,,,,,,,,,,,,,,,,,,,,,,,,,,,,,,,,,
,,,,,,,,,,stimuli/images/PICTURE_708.png,YARD,5c4da47734ee9300011d2299,29/01/1948,2020-07-09_18h31.51.987,proactive,2020.1.2,Win32,60,5f073de81c76c3308c0e4fb3,5f0754510e3ac4332a99894d,4,,,,,,monkey,,,,,,0,2,2,29,1,3,0,,,,,,,,,,,,,,,,,,,,,,,,,,,,,,,,,,,,,,,,,,,,,,,,,,,,,,,,,,,,,,,,,,,,,,,,,,,
,,,,,,,,,,stimuli/images/PICTURE_708.png,CLIENT,5c4da47734ee9300011d2299,29/01/1948,2020-07-09_18h31.51.987,proactive,2020.1.2,Win32,60,5f073de81c76c3308c0e4fb3,5f0754510e3ac4332a99894d,4,,,,,,monkey,,,,,,0,3,3,5,1,1,0,,,,,,,,,,,,,,,,,,,,,,,,,,,,,,,,,,,,,,,,,,,,,,,,,,,,,,,,,,,,,,,,,,,,,,,,,,,
,,,,,,,,,,stimuli/images/PICTURE_151.png,GIRL,5c4da47734ee9300011d2299,29/01/1948,2020-07-09_18h31.51.987,proactive,2020.1.2,Win32,60,5f073de81c76c3308c0e4fb3,5f0754510e3ac4332a99894d,4,,,,,,tray,,,,,,0,4,4,19,1,2,0,,,,,,,,,,,,,,,,,,,,,,,,,,,,,,,,,,,,,,,,,,,,,,,,,,,,,,,,,,,,,,,,,,,,,,,,,,,
,,,,,,,,,,stimuli/images/PICTURE_308.png,KIND,5c4da47734ee9300011d2299,29/01/1948,2020-07-09_18h31.51.987,proactive,2020.1.2,Win32,60,5f073de81c76c3308c0e4fb3,5f0754510e3ac4332a99894d,4,,,,,,dice,,,,,,0,5,5,54,1,6,0,,,,,,,,,,,,,,,,,,,,,,,,,,,,,,,,,,,,,,,,,,,,,,,,,,,,,,,,,,,,,,,,,,,,,,,,,,,
,,,,,,,,,,stimuli/images/PICTURE_68.png,MILE,5c4da47734ee9300011d2299,29/01/1948,2020-07-09_18h31.51.987,proactive,2020.1.2,Win32,60,5f073de81c76c3308c0e4fb3,5f0754510e3ac4332a99894d,4,,,,,,candle,,,,,,0,6,6,44,1,5,0,,,,,,,,,,,,,,,,,,,,,,,,,,,,,,,,,,,,,,,,,,,,,,,,,,,,,,,,,,,,,,,,,,,,,,,,,,,
,,,,,,,,,,stimuli/images/PICTURE_509.png,PHOTO,5c4da47734ee9300011d2299,29/01/1948,2020-07-09_18h31.51.987,proactive,2020.1.2,Win32,60,5f073de81c76c3308c0e4fb3,5f0754510e3ac4332a99894d,4,,,,,,telephone,,,,,,0,7,7,21,1,3,0,,,,,,,,,,,,,,,,,,,,,,,,,,,,,,,,,,,,,,,,,,,,,,,,,,,,,,,,,,,,,,,,,,,,,,,,,,,
,,,,,,,,,,stimuli/images/PICTURE_688.png,CASINO,5c4da47734ee9300011d2299,29/01/1948,2020-07-09_18h31.51.987,proactive,2020.1.2,Win32,60,5f073de81c76c3308c0e4fb3,5f0754510e3ac4332a99894d,4,,,,,,runner,,,,,,0,8,8,2,1,1,0,,,,,,,,,,,,,,,,,,,,,,,,,,,,,,,,,,,,,,,,,,,,,,,,,,,,,,,,,,,,,,,,,,,,,,,,,,,
,,,,,,,,,,stimuli/images/PICTURE_95.png,STYLE,5c4da47734ee9300011d2299,29/01/1948,2020-07-09_18h31.51.987,proactive,2020.1.2,Win32,60,5f073de81c76c3308c0e4fb3,5f0754510e3ac4332a99894d,4,,,,,,suitcase,,,,,,0,9,9,25,1,3,0,,,,,,,,,,,,,,,,,,,,,,,,,,,,,,,,,,,,,,,,,,,,,,,,,,,,,,,,,,,,,,,,,,,,,,,,,,,
,,,,,,,,,,stimuli/images/PICTURE_85.png,THING,5c4da47734ee9300011d2299,29/01/1948,2020-07-09_18h31.51.987,proactive,2020.1.2,Win32,60,5f073de81c76c3308c0e4fb3,5f0754510e3ac4332a99894d,4,,,,,,diamond,,,,,,0,10,10,15,1,2,0,,,,,,,,,,,,,,,,,,,,,,,,,,,,,,,,,,,,,,,,,,,,,,,,,,,,,,,,,,,,,,,,,,,,,,,,,,,
,,,,,,,,,,stimuli/images/PICTURE_255.png,AREA,5c4da47734ee9300011d2299,29/01/1948,2020-07-09_18h31.51.987,proactive,2020.1.2,Win32,60,5f073de81c76c3308c0e4fb3,5f0754510e3ac4332a99894d,4,,,,,,shovel,,,,,,0,11,11,22,1,3,0,,,,,,,,,,,,,,,,,,,,,,,,,,,,,,,,,,,,,,,,,,,,,,,,,,,,,,,,,,,,,,,,,,,,,,,,,,,
,,,,,,,,,,stimuli/images/PICTURE_203.png,ARTIST,5c4da47734ee9300011d2299,29/01/1948,2020-07-09_18h31.51.987,proactive,2020.1.2,Win32,60,5f073de81c76c3308c0e4fb3,5f0754510e3ac4332a99894d,4,,,,,,cap,,,,,,0,12,12,26,1,3,0,,,,,,,,,,,,,,,,,,,,,,,,,,,,,,,,,,,,,,,,,,,,,,,,,,,,,,,,,,,,,,,,,,,,,,,,,,,
,,,,,,,,,,stimuli/images/PICTURE_248.png,DOZEN,5c4da47734ee9300011d2299,29/01/1948,2020-07-09_18h31.51.987,proactive,2020.1.2,Win32,60,5f073de81c76c3308c0e4fb3,5f0754510e3ac4332a99894d,4,,,,,,cart,,,,,,0,13,13,39,1,4,0,,,,,,,,,,,,,,,,,,,,,,,,,,,,,,,,,,,,,,,,,,,,,,,,,,,,,,,,,,,,,,,,,,,,,,,,,,,
,,,,,,,,,,stimuli/images/PICTURE_314.png,SAKE,5c4da47734ee9300011d2299,29/01/1948,2020-07-09_18h31.51.987,proactive,2020.1.2,Win32,60,5f073de81c76c3308c0e4fb3,5f0754510e3ac4332a99894d,4,,,,,,perfume,,,,,,0,14,14,7,1,1,0,,,,,,,,,,,,,,,,,,,,,,,,,,,,,,,,,,,,,,,,,,,,,,,,,,,,,,,,,,,,,,,,,,,,,,,,,,,
,,,,,,,,,,stimuli/images/PICTURE_708.png,PENNY,5c4da47734ee9300011d2299,29/01/1948,2020-07-09_18h31.51.987,proactive,2020.1.2,Win32,60,5f073de81c76c3308c0e4fb3,5f0754510e3ac4332a99894d,4,,,,,,monkey,,,,,,0,15,15,31,1,4,0,,,,,,,,,,,,,,,,,,,,,,,,,,,,,,,,,,,,,,,,,,,,,,,,,,,,,,,,,,,,,,,,,,,,,,,,,,,
,,,,,,,,,,stimuli/images/PICTURE_339.png,PLENTY,5c4da47734ee9300011d2299,29/01/1948,2020-07-09_18h31.51.987,proactive,2020.1.2,Win32,60,5f073de81c76c3308c0e4fb3,5f0754510e3ac4332a99894d,4,,,,,,backpack,,,,,,0,16,16,0,1,1,0,,,,,,,,,,,,,,,,,,,,,,,,,,,,,,,,,,,,,,,,,,,,,,,,,,,,,,,,,,,,,,,,,,,,,,,,,,,
,,,,,,,,,,stimuli/images/PICTURE_488.png,STYLE,5c4da47734ee9300011d2299,29/01/1948,2020-07-09_18h31.51.987,proactive,2020.1.2,Win32,60,5f073de81c76c3308c0e4fb3,5f0754510e3ac4332a99894d,4,,,,,,sun,,,,,,0,17,17,33,1,4,0,,,,,,,,,,,,,,,,,,,,,,,,,,,,,,,,,,,,,,,,,,,,,,,,,,,,,,,,,,,,,,,,,,,,,,,,,,,
,,,,,,,,,,stimuli/images/PICTURE_677.png,MILE,5c4da47734ee9300011d2299,29/01/1948,2020-07-09_18h31.51.987,proactive,2020.1.2,Win32,60,5f073de81c76c3308c0e4fb3,5f0754510e3ac4332a99894d,4,,,,,,map,,,,,,0,18,18,30,1,4,0,,,,,,,,,,,,,,,,,,,,,,,,,,,,,,,,,,,,,,,,,,,,,,,,,,,,,,,,,,,,,,,,,,,,,,,,,,,
,,,,,,,,,,stimuli/images/PICTURE_667.png,PLENTY,5c4da47734ee9300011d2299,29/01/1948,2020-07-09_18h31.51.987,proactive,2020.1.2,Win32,60,5f073de81c76c3308c0e4fb3,5f0754510e3ac4332a99894d,4,,,,,,daisy,,,,,,0,19,19,41,1,5,0,,,,,,,,,,,,,,,,,,,,,,,,,,,,,,,,,,,,,,,,,,,,,,,,,,,,,,,,,,,,,,,,,,,,,,,,,,,
,,,,,,,,,,stimuli/images/PICTURE_233.png,IDEAS,5c4da47734ee9300011d2299,29/01/1948,2020-07-09_18h31.51.987,proactive,2020.1.2,Win32,60,5f073de81c76c3308c0e4fb3,5f0754510e3ac4332a99894d,4,,,,,,salt,,,,,,0,20,20,28,1,3,0,,,,,,,,,,,,,,,,,,,,,,,,,,,,,,,,,,,,,,,,,,,,,,,,,,,,,,,,,,,,,,,,,,,,,,,,,,,
,,,,,,,,,,stimuli/images/PICTURE_311.png,BEAUTY,5c4da47734ee9300011d2299,29/01/1948,2020-07-09_18h31.51.987,proactive,2020.1.2,Win32,60,5f073de81c76c3308c0e4fb3,5f0754510e3ac4332a99894d,4,,,,,,razor,,,,,,0,21,21,13,1,2,0,,,,,,,,,,,,,,,,,,,,,,,,,,,,,,,,,,,,,,,,,,,,,,,,,,,,,,,,,,,,,,,,,,,,,,,,,,,
,,,,,,,,,,stimuli/images/PICTURE_208.png,MONTH,5c4da47734ee9300011d2299,29/01/1948,2020-07-09_18h31.51.987,proactive,2020.1.2,Win32,60,5f073de81c76c3308c0e4fb3,5f0754510e3ac4332a99894d,4,,,,,,microphone,,,,,,0,22,22,53,1,6,0,,,,,,,,,,,,,,,,,,,,,,,,,,,,,,,,,,,,,,,,,,,,,,,,,,,,,,,,,,,,,,,,,,,,,,,,,,,
,,,,,,,,,,stimuli/images/PICTURE_453.png,PLENTY,5c4da47734ee9300011d2299,29/01/1948,2020-07-09_18h31.51.987,proactive,2020.1.2,Win32,60,5f073de81c76c3308c0e4fb3,5f0754510e3ac4332a99894d,4,,,,,,scissors,,,,,,0,23,23,56,1,6,0,,,,,,,,,,,,,,,,,,,,,,,,,,,,,,,,,,,,,,,,,,,,,,,,,,,,,,,,,,,,,,,,,,,,,,,,,,,
,,,,,,,,,,stimuli/images/PICTURE_160.png,LEADER,5c4da47734ee9300011d2299,29/01/1948,2020-07-09_18h31.51.987,proactive,2020.1.2,Win32,60,5f073de81c76c3308c0e4fb3,5f0754510e3ac4332a99894d,4,,,,,,wheelbarrow,,,,,,0,24,24,3,1,1,0,,,,,,,,,,,,,,,,,,,,,,,,,,,,,,,,,,,,,,,,,,,,,,,,,,,,,,,,,,,,,,,,,,,,,,,,,,,
,,,,,,,,,,stimuli/images/PICTURE_504.png,BODY,5c4da47734ee9300011d2299,29/01/1948,2020-07-09_18h31.51.987,proactive,2020.1.2,Win32,60,5f073de81c76c3308c0e4fb3,5f0754510e3ac4332a99894d,4,,,,,,wheel,,,,,,0,25,25,8,1,1,0,,,,,,,,,,,,,,,,,,,,,,,,,,,,,,,,,,,,,,,,,,,,,,,,,,,,,,,,,,,,,,,,,,,,,,,,,,,
,,,,,,,,,,stimuli/images/PICTURE_285.png,ADVICE,5c4da47734ee9300011d2299,29/01/1948,2020-07-09_18h31.51.987,proactive,2020.1.2,Win32,60,5f073de81c76c3308c0e4fb3,5f0754510e3ac4332a99894d,4,,,,,,carrot,,,,,,0,26,26,12,1,2,0,,,,,,,,,,,,,,,,,,,,,,,,,,,,,,,,,,,,,,,,,,,,,,,,,,,,,,,,,,,,,,,,,,,,,,,,,,,
,,,,,,,,,,stimuli/images/PICTURE_692.png,MONTH,5c4da47734ee9300011d2299,29/01/1948,2020-07-09_18h31.51.987,proactive,2020.1.2,Win32,60,5f073de81c76c3308c0e4fb3,5f0754510e3ac4332a99894d,4,,,,,,cherry,,,,,,0,27,27,16,1,2,0,,,,,,,,,,,,,,,,,,,,,,,,,,,,,,,,,,,,,,,,,,,,,,,,,,,,,,,,,,,,,,,,,,,,,,,,,,,
,,,,,,,,,,stimuli/images/PICTURE_348.png,SPEECH,5c4da47734ee9300011d2299,29/01/1948,2020-07-09_18h31.51.987,proactive,2020.1.2,Win32,60,5f073de81c76c3308c0e4fb3,5f0754510e3ac4332a99894d,4,,,,,,pepper,,,,,,0,28,28,20,1,3,0,,,,,,,,,,,,,,,,,,,,,,,,,,,,,,,,,,,,,,,,,,,,,,,,,,,,,,,,,,,,,,,,,,,,,,,,,,,
,,,,,,,,,,stimuli/images/PICTURE_160.png,FEET,5c4da47734ee9300011d2299,29/01/1948,2020-07-09_18h31.51.987,proactive,2020.1.2,Win32,60,5f073de81c76c3308c0e4fb3,5f0754510e3ac4332a99894d,4,,,,,,wheelbarrow,,,,,,0,29,29,58,1,6,0,,,,,,,,,,,,,,,,,,,,,,,,,,,,,,,,,,,,,,,,,,,,,,,,,,,,,,,,,,,,,,,,,,,,,,,,,,,
,,,,,,,,,,stimuli/images/PICTURE_688.png,WOMEN,5c4da47734ee9300011d2299,29/01/1948,2020-07-09_18h31.51.987,proactive,2020.1.2,Win32,60,5f073de81c76c3308c0e4fb3,5f0754510e3ac4332a99894d,4,,,,,,runner,,,,,,0,30,30,14,1,2,0,,,,,,,,,,,,,,,,,,,,,,,,,,,,,,,,,,,,,,,,,,,,,,,,,,,,,,,,,,,,,,,,,,,,,,,,,,,
,,,,,,,,,,stimuli/images/PICTURE_311.png,FRIEND,5c4da47734ee9300011d2299,29/01/1948,2020-07-09_18h31.51.987,proactive,2020.1.2,Win32,60,5f073de81c76c3308c0e4fb3,5f0754510e3ac4332a99894d,4,,,,,,razor,,,,,,0,31,31,34,1,4,0,,,,,,,,,,,,,,,,,,,,,,,,,,,,,,,,,,,,,,,,,,,,,,,,,,,,,,,,,,,,,,,,,,,,,,,,,,,
,,,,,,,,,,stimuli/images/PICTURE_215.png,PLENTY,5c4da47734ee9300011d2299,29/01/1948,2020-07-09_18h31.51.987,proactive,2020.1.2,Win32,60,5f073de81c76c3308c0e4fb3,5f0754510e3ac4332a99894d,4,,,,,,boot,,,,,,0,32,32,37,1,4,0,,,,,,,,,,,,,,,,,,,,,,,,,,,,,,,,,,,,,,,,,,,,,,,,,,,,,,,,,,,,,,,,,,,,,,,,,,,
,,,,,,,,,,stimuli/images/PICTURE_327.png,BEAUTY,5c4da47734ee9300011d2299,29/01/1948,2020-07-09_18h31.51.987,proactive,2020.1.2,Win32,60,5f073de81c76c3308c0e4fb3,5f0754510e3ac4332a99894d,4,,,,,,helmet,,,,,,0,33,33,48,1,5,0,,,,,,,,,,,,,,,,,,,,,,,,,,,,,,,,,,,,,,,,,,,,,,,,,,,,,,,,,,,,,,,,,,,,,,,,,,,
,,,,,,,,,,stimuli/images/PICTURE_380.png,PHOTO,5c4da47734ee9300011d2299,29/01/1948,2020-07-09_18h31.51.987,proactive,2020.1.2,Win32,60,5f073de81c76c3308c0e4fb3,5f0754510e3ac4332a99894d,4,,,,,,gorilla,,,,,,0,34,34,52,1,6,0,,,,,,,,,,,,,,,,,,,,,,,,,,,,,,,,,,,,,,,,,,,,,,,,,,,,,,,,,,,,,,,,,,,,,,,,,,,
,,,,,,,,,,stimuli/images/PICTURE_469.png,LETTER,5c4da47734ee9300011d2299,29/01/1948,2020-07-09_18h31.51.987,proactive,2020.1.2,Win32,60,5f073de81c76c3308c0e4fb3,5f0754510e3ac4332a99894d,4,,,,,,stool,,,,,,0,35,35,42,1,5,0,,,,,,,,,,,,,,,,,,,,,,,,,,,,,,,,,,,,,,,,,,,,,,,,,,,,,,,,,,,,,,,,,,,,,,,,,,,
,,,,,,,,,,stimuli/images/PICTURE_467.png,DEMON,5c4da47734ee9300011d2299,29/01/1948,2020-07-09_18h31.51.987,proactive,2020.1.2,Win32,60,5f073de81c76c3308c0e4fb3,5f0754510e3ac4332a99894d,4,,,,,,peg,,,,,,0,36,36,23,1,3,0,,,,,,,,,,,,,,,,,,,,,,,,,,,,,,,,,,,,,,,,,,,,,,,,,,,,,,,,,,,,,,,,,,,,,,,,,,,
,,,,,,,,,,stimuli/images/PICTURE_487.png,FLIGHT,5c4da47734ee9300011d2299,29/01/1948,2020-07-09_18h31.51.987,proactive,2020.1.2,Win32,60,5f073de81c76c3308c0e4fb3,5f0754510e3ac4332a99894d,4,,,,,,basket,,,,,,0,37,37,9,1,1,0,,,,,,,,,,,,,,,,,,,,,,,,,,,,,,,,,,,,,,,,,,,,,,,,,,,,,,,,,,,,,,,,,,,,,,,,,,,
,,,,,,,,,,stimuli/images/PICTURE_177.png,CARS,5c4da47734ee9300011d2299,29/01/1948,2020-07-09_18h31.51.987,proactive,2020.1.2,Win32,60,5f073de81c76c3308c0e4fb3,5f0754510e3ac4332a99894d,4,,,,,,mushroom,,,,,,0,38,38,35,1,4,0,,,,,,,,,,,,,,,,,,,,,,,,,,,,,,,,,,,,,,,,,,,,,,,,,,,,,,,,,,,,,,,,,,,,,,,,,,,
,,,,,,,,,,stimuli/images/PICTURE_302.png,FAMILY,5c4da47734ee9300011d2299,29/01/1948,2020-07-09_18h31.51.987,proactive,2020.1.2,Win32,60,5f073de81c76c3308c0e4fb3,5f0754510e3ac4332a99894d,4,,,,,,taxi,,,,,,0,39,39,18,1,2,0,,,,,,,,,,,,,,,,,,,,,,,,,,,,,,,,,,,,,,,,,,,,,,,,,,,,,,,,,,,,,,,,,,,,,,,,,,,
,,,,,,,,,,stimuli/images/PICTURE_308.png,ESTATE,5c4da47734ee9300011d2299,29/01/1948,2020-07-09_18h31.51.987,proactive,2020.1.2,Win32,60,5f073de81c76c3308c0e4fb3,5f0754510e3ac4332a99894d,4,,,,,,dice,,,,,,0,40,40,46,1,5,0,,,,,,,,,,,,,,,,,,,,,,,,,,,,,,,,,,,,,,,,,,,,,,,,,,,,,,,,,,,,,,,,,,,,,,,,,,,
,,,,,,,,,,stimuli/images/PICTURE_147.png,MOMENT,5c4da47734ee9300011d2299,29/01/1948,2020-07-09_18h31.51.987,proactive,2020.1.2,Win32,60,5f073de81c76c3308c0e4fb3,5f0754510e3ac4332a99894d,4,,,,,,hanger,,,,,,0,41,41,51,1,6,0,,,,,,,,,,,,,,,,,,,,,,,,,,,,,,,,,,,,,,,,,,,,,,,,,,,,,,,,,,,,,,,,,,,,,,,,,,,
,,,,,,,,,,stimuli/images/PICTURE_449.png,THING,5c4da47734ee9300011d2299,29/01/1948,2020-07-09_18h31.51.987,proactive,2020.1.2,Win32,60,5f073de81c76c3308c0e4fb3,5f0754510e3ac4332a99894d,4,,,,,,bench,,,,,,0,42,42,59,1,6,0,,,,,,,,,,,,,,,,,,,,,,,,,,,,,,,,,,,,,,,,,,,,,,,,,,,,,,,,,,,,,,,,,,,,,,,,,,,
,,,,,,,,,,stimuli/images/PICTURE_667.png,BATH,5c4da47734ee9300011d2299,29/01/1948,2020-07-09_18h31.51.987,proactive,2020.1.2,Win32,60,5f073de81c76c3308c0e4fb3,5f0754510e3ac4332a99894d,4,,,,,,daisy,,,,,,0,43,43,4,1,1,0,,,,,,,,,,,,,,,,,,,,,,,,,,,,,,,,,,,,,,,,,,,,,,,,,,,,,,,,,,,,,,,,,,,,,,,,,,,
,,,,,,,,,,stimuli/images/PICTURE_744.png,SYSTEM,5c4da47734ee9300011d2299,29/01/1948,2020-07-09_18h31.51.987,proactive,2020.1.2,Win32,60,5f073de81c76c3308c0e4fb3,5f0754510e3ac4332a99894d,4,,,,,,ring,,,,,,0,44,44,43,1,5,0,,,,,,,,,,,,,,,,,,,,,,,,,,,,,,,,,,,,,,,,,,,,,,,,,,,,,,,,,,,,,,,,,,,,,,,,,,,
,,,,,,,,,,stimuli/images/PICTURE_314.png,GODS,5c4da47734ee9300011d2299,29/01/1948,2020-07-09_18h31.51.987,proactive,2020.1.2,Win32,60,5f073de81c76c3308c0e4fb3,5f0754510e3ac4332a99894d,4,,,,,,perfume,,,,,,0,45,45,11,1,2,0,,,,,,,,,,,,,,,,,,,,,,,,,,,,,,,,,,,,,,,,,,,,,,,,,,,,,,,,,,,,,,,,,,,,,,,,,,,
,,,,,,,,,,stimuli/images/PICTURE_744.png,SAKE,5c4da47734ee9300011d2299,29/01/1948,2020-07-09_18h31.51.987,proactive,2020.1.2,Win32,60,5f073de81c76c3308c0e4fb3,5f0754510e3ac4332a99894d,4,,,,,,ring,,,,,,0,46,46,17,1,2,0,,,,,,,,,,,,,,,,,,,,,,,,,,,,,,,,,,,,,,,,,,,,,,,,,,,,,,,,,,,,,,,,,,,,,,,,,,,
,,,,,,,,,,stimuli/images/PICTURE_123.png,ADVICE,5c4da47734ee9300011d2299,29/01/1948,2020-07-09_18h31.51.987,proactive,2020.1.2,Win32,60,5f073de81c76c3308c0e4fb3,5f0754510e3ac4332a99894d,4,,,,,,dart,,,,,,0,47,47,40,1,5,0,,,,,,,,,,,,,,,,,,,,,,,,,,,,,,,,,,,,,,,,,,,,,,,,,,,,,,,,,,,,,,,,,,,,,,,,,,,
,,,,,,,,,,stimuli/images/PICTURE_453.png,DUDE,5c4da47734ee9300011d2299,29/01/1948,2020-07-09_18h31.51.987,proactive,2020.1.2,Win32,60,5f073de81c76c3308c0e4fb3,5f0754510e3ac4332a99894d,4,,,,,,scissors,,,,,,0,48,48,27,1,3,0,,,,,,,,,,,,,,,,,,,,,,,,,,,,,,,,,,,,,,,,,,,,,,,,,,,,,,,,,,,,,,,,,,,,,,,,,,,
,,,,,,,,,,stimuli/images/PICTURE_356.png,DANGER,5c4da47734ee9300011d2299,29/01/1948,2020-07-09_18h31.51.987,proactive,2020.1.2,Win32,60,5f073de81c76c3308c0e4fb3,5f0754510e3ac4332a99894d,4,,,,,,pawn,,,,,,0,49,49,55,1,6,0,,,,,,,,,,,,,,,,,,,,,,,,,,,,,,,,,,,,,,,,,,,,,,,,,,,,,,,,,,,,,,,,,,,,,,,,,,,
,,,,,,,,,,stimuli/images/PICTURE_233.png,WOMEN,5c4da47734ee9300011d2299,29/01/1948,2020-07-09_18h31.51.987,proactive,2020.1.2,Win32,60,5f073de81c76c3308c0e4fb3,5f0754510e3ac4332a99894d,4,,,,,,salt,,,,,,0,50,50,38,1,4,0,,,,,,,,,,,,,,,,,,,,,,,,,,,,,,,,,,,,,,,,,,,,,,,,,,,,,,,,,,,,,,,,,,,,,,,,,,,
,,,,,,,,,,stimuli/images/PICTURE_208.png,LOTS,5c4da47734ee9300011d2299,29/01/1948,2020-07-09_18h31.51.987,proactive,2020.1.2,Win32,60,5f073de81c76c3308c0e4fb3,5f0754510e3ac4332a99894d,4,,,,,,microphone,,,,,,0,51,51,10,1,2,0,,,,,,,,,,,,,,,,,,,,,,,,,,,,,,,,,,,,,,,,,,,,,,,,,,,,,,,,,,,,,,,,,,,,,,,,,,,
,,,,,,,,,,stimuli/images/PICTURE_123.png,ADVICE,5c4da47734ee9300011d2299,29/01/1948,2020-07-09_18h31.51.987,proactive,2020.1.2,Win32,60,5f073de81c76c3308c0e4fb3,5f0754510e3ac4332a99894d,4,,,,,,dart,,,,,,0,52,52,50,1,6,0,,,,,,,,,,,,,,,,,,,,,,,,,,,,,,,,,,,,,,,,,,,,,,,,,,,,,,,,,,,,,,,,,,,,,,,,,,,
,,,,,,,,,,stimuli/images/PICTURE_469.png,ARTIST,5c4da47734ee9300011d2299,29/01/1948,2020-07-09_18h31.51.987,proactive,2020.1.2,Win32,60,5f073de81c76c3308c0e4fb3,5f0754510e3ac4332a99894d,4,,,,,,stool,,,,,,0,53,53,6,1,1,0,,,,,,,,,,,,,,,,,,,,,,,,,,,,,,,,,,,,,,,,,,,,,,,,,,,,,,,,,,,,,,,,,,,,,,,,,,,
,,,,,,,,,,stimuli/images/PICTURE_470.png,CASINO,5c4da47734ee9300011d2299,29/01/1948,2020-07-09_18h31.51.987,proactive,2020.1.2,Win32,60,5f073de81c76c3308c0e4fb3,5f0754510e3ac4332a99894d,4,,,,,,motorbike,,,,,,0,54,54,36,1,4,0,,,,,,,,,,,,,,,,,,,,,,,,,,,,,,,,,,,,,,,,,,,,,,,,,,,,,,,,,,,,,,,,,,,,,,,,,,,
,,,,,,,,,,stimuli/images/PICTURE_491.png,WRITER,5c4da47734ee9300011d2299,29/01/1948,2020-07-09_18h31.51.987,proactive,2020.1.2,Win32,60,5f073de81c76c3308c0e4fb3,5f0754510e3ac4332a99894d,4,,,,,,rug,,,,,,0,55,55,57,1,6,0,,,,,,,,,,,,,,,,,,,,,,,,,,,,,,,,,,,,,,,,,,,,,,,,,,,,,,,,,,,,,,,,,,,,,,,,,,,
,,,,,,,,,,stimuli/images/PICTURE_380.png,DEATH,5c4da47734ee9300011d2299,29/01/1948,2020-07-09_18h31.51.987,proactive,2020.1.2,Win32,60,5f073de81c76c3308c0e4fb3,5f0754510e3ac4332a99894d,4,,,,,,gorilla,,,,,,0,56,56,49,1,5,0,,,,,,,,,,,,,,,,,,,,,,,,,,,,,,,,,,,,,,,,,,,,,,,,,,,,,,,,,,,,,,,,,,,,,,,,,,,
,,,,,,,,,,stimuli/images/PICTURE_654.png,VALLEY,5c4da47734ee9300011d2299,29/01/1948,2020-07-09_18h31.51.987,proactive,2020.1.2,Win32,60,5f073de81c76c3308c0e4fb3,5f0754510e3ac4332a99894d,4,,,,,,pencil,,,,,,0,57,57,1,1,1,0,,,,,,,,,,,,,,,,,,,,,,,,,,,,,,,,,,,,,,,,,,,,,,,,,,,,,,,,,,,,,,,,,,,,,,,,,,,
,,,,,,,,,,stimuli/images/PICTURE_32.png,JUNGLE,5c4da47734ee9300011d2299,29/01/1948,2020-07-09_18h31.51.987,proactive,2020.1.2,Win32,60,5f073de81c76c3308c0e4fb3,5f0754510e3ac4332a99894d,4,,,,,,crown,,,,,,0,58,58,45,1,5,0,,,,,,,,,,,,,,,,,,,,,,,,,,,,,,,,,,,,,,,,,,,,,,,,,,,,,,,,,,,,,,,,,,,,,,,,,,,
,,?,0.001,0,,,,,,stimuli/images/PICTURE_68.png,MILE,5c4da47734ee9300011d2299,29/01/1948,2020-07-09_18h31.51.987,proactive,2020.1.2,Win32,60,5f073de81c76c3308c0e4fb3,5f0754510e3ac4332a99894d,4,,,,,,candle,,,,,,,,,,,5,0,0,0,0,44,1,,,,,,,,,,,,,,,,,,,,,,,,,,,,,,,,,,,,,,,,,,,,,,,,,,,,,,,,,,,,,,,,,,,,,,
,,?,0.001,0,,,,,,stimuli/images/PICTURE_688.png,CASINO,5c4da47734ee9300011d2299,29/01/1948,2020-07-09_18h31.51.987,proactive,2020.1.2,Win32,60,5f073de81c76c3308c0e4fb3,5f0754510e3ac4332a99894d,4,,,,,,runner,,,,,,,,,,,1,0,0,1,1,2,1,,,,,,,,,,,,,,,,,,,,,,,,,,,,,,,,,,,,,,,,,,,,,,,,,,,,,,,,,,,,,,,,,,,,,,
,,?,0.001,0,,,,,,stimuli/images/PICTURE_504.png,BODY,5c4da47734ee9300011d2299,29/01/1948,2020-07-09_18h31.51.987,proactive,2020.1.2,Win32,60,5f073de81c76c3308c0e4fb3,5f0754510e3ac4332a99894d,4,,,,,,wheel,,,,,,,,,,,1,0,0,2,2,8,1,,,,,,,,,,,,,,,,,,,,,,,,,,,,,,,,,,,,,,,,,,,,,,,,,,,,,,,,,,,,,,,,,,,,,,
,,?,0.001,0,,,,,,stimuli/images/PICTURE_453.png,DUDE,5c4da47734ee9300011d2299,29/01/1948,2020-07-09_18h31.51.987,proactive,2020.1.2,Win32,60,5f073de81c76c3308c0e4fb3,5f0754510e3ac4332a99894d,4,,,,,,scissors,,,,,,,,,,,3,0,0,3,3,27,1,,,,,,,,,,,,,,,,,,,,,,,,,,,,,,,,,,,,,,,,,,,,,,,,,,,,,,,,,,,,,,,,,,,,,,
,,?,0.001,0,,,,,,stimuli/images/PICTURE_123.png,ADVICE,5c4da47734ee9300011d2299,29/01/1948,2020-07-09_18h31.51.987,proactive,2020.1.2,Win32,60,5f073de81c76c3308c0e4fb3,5f0754510e3ac4332a99894d,4,,,,,,dart,,,,,,,,,,,6,0,0,4,4,50,1,,,,,,,,,,,,,,,,,,,,,,,,,,,,,,,,,,,,,,,,,,,,,,,,,,,,,,,,,,,,,,,,,,,,,,
,,?,0.001,0,,,,,,stimuli/images/PICTURE_469.png,ARTIST,5c4da47734ee9300011d2299,29/01/1948,2020-07-09_18h31.51.987,proactive,2020.1.2,Win32,60,5f073de81c76c3308c0e4fb3,5f0754510e3ac4332a99894d,4,,,,,,stool,,,,,,,,,,,1,0,0,5,5,6,1,,,,,,,,,,,,,,,,,,,,,,,,,,,,,,,,,,,,,,,,,,,,,,,,,,,,,,,,,,,,,,,,,,,,,,
,,?,0.001,0,,,,,,stimuli/images/PICTURE_314.png,GODS,5c4da47734ee9300011d2299,29/01/1948,2020-07-09_18h31.51.987,proactive,2020.1.2,Win32,60,5f073de81c76c3308c0e4fb3,5f0754510e3ac4332a99894d,4,,,,,,perfume,,,,,,,,,,,2,0,0,6,6,11,1,,,,,,,,,,,,,,,,,,,,,,,,,,,,,,,,,,,,,,,,,,,,,,,,,,,,,,,,,,,,,,,,,,,,,,
,,?,0.001,0,,,,,,stimuli/images/PICTURE_708.png,CLIENT,5c4da47734ee9300011d2299,29/01/1948,2020-07-09_18h31.51.987,proactive,2020.1.2,Win32,60,5f073de81c76c3308c0e4fb3,5f0754510e3ac4332a99894d,4,,,,,,monkey,,,,,,,,,,,1,0,0,7,7,5,1,,,,,,,,,,,,,,,,,,,,,,,,,,,,,,,,,,,,,,,,,,,,,,,,,,,,,,,,,,,,,,,,,,,,,,
,,?,0,0,,,,,,stimuli/images/PICTURE_491.png,ROOF,5c4da47734ee9300011d2299,29/01/1948,2020-07-09_18h31.51.987,proactive,2020.1.2,Win32,60,5f073de81c76c3308c0e4fb3,5f0754510e3ac4332a99894d,4,,,,,,rug,,,,,,,,,,,3,0,0,8,8,24,1,,,,,,,,,,,,,,,,,,,,,,,,,,,,,,,,,,,,,,,,,,,,,,,,,,,,,,,,,,,,,,,,,,,,,,
,,?,0.001,0,,,,,,stimuli/images/PICTURE_667.png,BATH,5c4da47734ee9300011d2299,29/01/1948,2020-07-09_18h31.51.987,proactive,2020.1.2,Win32,60,5f073de81c76c3308c0e4fb3,5f0754510e3ac4332a99894d,4,,,,,,daisy,,,,,,,,,,,1,0,0,9,9,4,1,,,,,,,,,,,,,,,,,,,,,,,,,,,,,,,,,,,,,,,,,,,,,,,,,,,,,,,,,,,,,,,,,,,,,,
,,?,0,0,,,,,,stimuli/images/PICTURE_744.png,SYSTEM,5c4da47734ee9300011d2299,29/01/1948,2020-07-09_18h31.51.987,proactive,2020.1.2,Win32,60,5f073de81c76c3308c0e4fb3,5f0754510e3ac4332a99894d,4,,,,,,ring,,,,,,,,,,,5,0,0,10,10,43,1,,,,,,,,,,,,,,,,,,,,,,,,,,,,,,,,,,,,,,,,,,,,,,,,,,,,,,,,,,,,,,,,,,,,,,
,,?,0.001,0,,,,,,stimuli/images/PICTURE_356.png,DANGER,5c4da47734ee9300011d2299,29/01/1948,2020-07-09_18h31.51.987,proactive,2020.1.2,Win32,60,5f073de81c76c3308c0e4fb3,5f0754510e3ac4332a99894d,4,,,,,,pawn,,,,,,,,,,,6,0,0,11,11,55,1,,,,,,,,,,,,,,,,,,,,,,,,,,,,,,,,,,,,,,,,,,,,,,,,,,,,,,,,,,,,,,,,,,,,,,
,,?,0.001,0,,,,,,stimuli/images/PICTURE_491.png,WRITER,5c4da47734ee9300011d2299,29/01/1948,2020-07-09_18h31.51.987,proactive,2020.1.2,Win32,60,5f073de81c76c3308c0e4fb3,5f0754510e3ac4332a99894d,4,,,,,,rug,,,,,,,,,,,6,0,0,12,12,57,1,,,,,,,,,,,,,,,,,,,,,,,,,,,,,,,,,,,,,,,,,,,,,,,,,,,,,,,,,,,,,,,,,,,,,,
,,PENNY,5.313,1,,,,,,stimuli/images/PICTURE_708.png,PENNY,5c4da47734ee9300011d2299,29/01/1948,2020-07-09_18h31.51.987,proactive,2020.1.2,Win32,60,5f073de81c76c3308c0e4fb3,5f0754510e3ac4332a99894d,4,,,,,,monkey,,,,,,,,,,,4,0,0,13,13,31,1,,,,,,,,,,,,,,,,,,,,,,,,,,,,,,,,,,,,,,,,,,,,,,,,,,,,,,,,,,,,,,,,,,,,,,
,,WEAPON,3.866,1,,,,,,stimuli/images/PICTURE_675.png,WEAPON,5c4da47734ee9300011d2299,29/01/1948,2020-07-09_18h31.51.987,proactive,2020.1.2,Win32,60,5f073de81c76c3308c0e4fb3,5f0754510e3ac4332a99894d,4,,,,,,windmill,,,,,,,,,,,4,0,0,14,14,32,1,,,,,,,,,,,,,,,,,,,,,,,,,,,,,,,,,,,,,,,,,,,,,,,,,,,,,,,,,,,,,,,,,,,,,,
,,?,0.003,0,,,,,,stimuli/images/PICTURE_509.png,PHOTO,5c4da47734ee9300011d2299,29/01/1948,2020-07-09_18h31.51.987,proactive,2020.1.2,Win32,60,5f073de81c76c3308c0e4fb3,5f0754510e3ac4332a99894d,4,,,,,,telephone,,,,,,,,,,,3,0,0,15,15,21,1,,,,,,,,,,,,,,,,,,,,,,,,,,,,,,,,,,,,,,,,,,,,,,,,,,,,,,,,,,,,,,,,,,,,,,
,,?,0.001,0,,,,,,stimuli/images/PICTURE_467.png,DEMON,5c4da47734ee9300011d2299,29/01/1948,2020-07-09_18h31.51.987,proactive,2020.1.2,Win32,60,5f073de81c76c3308c0e4fb3,5f0754510e3ac4332a99894d,4,,,,,,peg,,,,,,,,,,,3,0,0,16,16,23,1,,,,,,,,,,,,,,,,,,,,,,,,,,,,,,,,,,,,,,,,,,,,,,,,,,,,,,,,,,,,,,,,,,,,,,
,,?,0.002,0,,,,,,stimuli/images/PICTURE_348.png,SPEECH,5c4da47734ee9300011d2299,29/01/1948,2020-07-09_18h31.51.987,proactive,2020.1.2,Win32,60,5f073de81c76c3308c0e4fb3,5f0754510e3ac4332a99894d,4,,,,,,pepper,,,,,,,,,,,3,0,0,17,17,20,1,,,,,,,,,,,,,,,,,,,,,,,,,,,,,,,,,,,,,,,,,,,,,,,,,,,,,,,,,,,,,,,,,,,,,,
,,?,0.001,0,,,,,,stimuli/images/PICTURE_255.png,AREA,5c4da47734ee9300011d2299,29/01/1948,2020-07-09_18h31.51.987,proactive,2020.1.2,Win32,60,5f073de81c76c3308c0e4fb3,5f0754510e3ac4332a99894d,4,,,,,,shovel,,,,,,,,,,,3,0,0,18,18,22,1,,,,,,,,,,,,,,,,,,,,,,,,,,,,,,,,,,,,,,,,,,,,,,,,,,,,,,,,,,,,,,,,,,,,,,
