consent_key.keys,consent_key.rt,recalled,recalled_rt,recall_acc,example_recall.thisRepN,example_recall.thisTrialN,example_recall.thisN,example_recall.thisIndex,example_recall.ran,file,word,participant,please enter your date of birth (dd/mm/yyyy),date,expName,psychopyVersion,OS,frameRate,STUDY_ID,SESSION_ID,list,prac_learn_study_loop.thisRepN,prac_learn_study_loop.thisTrialN,prac_learn_study_loop.thisN,prac_learn_study_loop.thisIndex,prac_learn_study_loop.ran,image,prac_learn_test_loop.thisRepN,prac_learn_test_loop.thisTrialN,prac_learn_test_loop.thisN,prac_learn_test_loop.thisIndex,prac_learn_test_loop.ran,learn_study_loop.thisRepN,learn_study_loop.thisTrialN,learn_study_loop.thisN,learn_study_loop.thisIndex,learn_study_loop.ran,list_no,block_no,learn_test_loop.thisRepN,learn_test_loop.thisTrialN,learn_test_loop.thisN,learn_test_loop.thisIndex,learn_test_loop.ran,learn_blocks.thisRepN,learn_blocks.thisTrialN,learn_blocks.thisN,learn_blocks.thisIndex,learn_blocks.ran,block_csv,key_resp_13.keys,key_resp_13.rt,learn_blocks_loop.thisRepN,learn_blocks_loop.thisTrialN,learn_blocks_loop.thisN,learn_blocks_loop.thisIndex,learn_blocks_loop.ran,final_learn_test.thisRepN,final_learn_test.thisTrialN,final_learn_test.thisN,final_learn_test.thisIndex,final_learn_test.ran,prac_wm_test_loop.thisRepN,prac_wm_test_loop.thisTrialN,prac_wm_test_loop.thisN,prac_wm_test_loop.thisIndex,prac_wm_test_loop.ran,wm_recalled1,wm_recall_rt1,wm_probed1,wm_recall_acc1,wm_recalled2,wm_recall_rt2,wm_probed2,wm_recall_acc2,wm_recalled3,wm_recall_rt3,wm_probed3,wm_recall_acc3,wm_recalled4,wm_recall_rt4,wm_probed4,wm_recall_acc4,prac_wm_trial_loop.thisRepN,prac_wm_trial_loop.thisTrialN,prac_wm_trial_loop.thisN,prac_wm_trial_loop.thisIndex,prac_wm_trial_loop.ran,word1,image1,file1,item_type1,word2,image2,file2,item_type2,word4,image4,file4,item_type4,word3,image3,file3,item_type3,wm_test_loop.thisRepN,wm_test_loop.thisTrialN,wm_test_loop.thisN,wm_test_loop.thisIndex,wm_test_loop.ran,wm_trial_loop.thisRepN,wm_trial_loop.thisTrialN,wm_trial_loop.thisN,wm_trial_loop.thisIndex,wm_trial_loop.ran
y,44.609,TOUGH,7.569,1,0,0,0,0,1,stimuli/images/PICTURE_747.png,TOUGH,5c6d0da2d5221b000101da81,18/03/1951,2020-07-09_21h30.03.320,proactive,2020.1.2,MacIntel,60,5f073de81c76c3308c0e4fb3,5f077e2e14d49e1697b08f11,1,,,,,,,,,,,,,,,,,,,,,,,,,,,,,,,,,,,,,,,,,,,,,,,,,,,,,,,,,,,,,,,,,,,,,,,,,,,,,,,,,,,,,,,,,,,,,
,,,,,,,,,,stimuli/images/PICTURE_658.png,DEVIL,5c6d0da2d5221b000101da81,18/03/1951,2020-07-09_21h30.03.320,proactive,2020.1.2,MacIntel,60,5f073de81c76c3308c0e4fb3,5f077e2e14d49e1697b08f11,1,0,0,0,3,1,crow,,,,,,,,,,,,,,,,,,,,,,,,,,,,,,,,,,,,,,,,,,,,,,,,,,,,,,,,,,,,,,,,,,,,,,,,,,,,,,,,,,,,,,,
,,,,,,,,,,stimuli/images/PICTURE_697.png,KILLER,5c6d0da2d5221b000101da81,18/03/1951,2020-07-09_21h30.03.320,proactive,2020.1.2,MacIntel,60,5f073de81c76c3308c0e4fb3,5f077e2e14d49e1697b08f11,1,0,1,1,4,1,peach,,,,,,,,,,,,,,,,,,,,,,,,,,,,,,,,,,,,,,,,,,,,,,,,,,,,,,,,,,,,,,,,,,,,,,,,,,,,,,,,,,,,,,,
,,,,,,,,,,stimuli/images/PICTURE_378.png,LOSS,5c6d0da2d5221b000101da81,18/03/1951,2020-07-09_21h30.03.320,proactive,2020.1.2,MacIntel,60,5f073de81c76c3308c0e4fb3,5f077e2e14d49e1697b08f11,1,0,2,2,2,1,lobster,,,,,,,,,,,,,,,,,,,,,,,,,,,,,,,,,,,,,,,,,,,,,,,,,,,,,,,,,,,,,,,,,,,,,,,,,,,,,,,,,,,,,,,
,,,,,,,,,,stimuli/images/PICTURE_727.png,CELL,5c6d0da2d5221b000101da81,18/03/1951,2020-07-09_21h30.03.320,proactive,2020.1.2,MacIntel,60,5f073de81c76c3308c0e4fb3,5f077e2e14d49e1697b08f11,1,0,3,3,1,1,hose,,,,,,,,,,,,,,,,,,,,,,,,,,,,,,,,,,,,,,,,,,,,,,,,,,,,,,,,,,,,,,,,,,,,,,,,,,,,,,,,,,,,,,,
,,DEVIL,3.952,1,,,,,,stimuli/images/PICTURE_658.png,DEVIL,5c6d0da2d5221b000101da81,18/03/1951,2020-07-09_21h30.03.320,proactive,2020.1.2,MacIntel,60,5f073de81c76c3308c0e4fb3,5f077e2e14d49e1697b08f11,1,,,,,,crow,0,0,0,3,1,,,,,,,,,,,,,,,,,,,,,,,,,,,,,,,,,,,,,,,,,,,,,,,,,,,,,,,,,,,,,,,,,,,,,,,,,,,,,,,,,,
,,CELL,8.792,1,,,,,,stimuli/images/PICTURE_727.png,CELL,5c6d0da2d5221b000101da81,18/03/1951,2020-07-09_21h30.03.320,proactive,2020.1.2,MacIntel,60,5f073de81c76c3308c0e4fb3,5f077e2e14d49e1697b08f11,1,,,,,,hose,0,1,1,1,1,,,,,,,,,,,,,,,,,,,,,,,,,,,,,,,,,,,,,,,,,,,,,,,,,,,,,,,,,,,,,,,,,,,,,,,,,,,,,,,,,,
,,GENIUS,5.02,1,,,,,,stimuli/images/PICTURE_269.png,GENIUS,5c6d0da2d5221b000101da81,18/03/1951,2020-07-09_21h30.03.320,proactive,2020.1.2,MacIntel,60,5f073de81c76c3308c0e4fb3,5f077e2e14d49e1697b08f11,1,,,,,,chameleon,0,2,2,0,1,,,,,,,,,,,,,,,,,,,,,,,,,,,,,,,,,,,,,,,,,,,,,,,,,,,,,,,,,,,,,,,,,,,,,,,,,,,,,,,,,,
,,LOSS,2.468,1,,,,,,stimuli/images/PICTURE_378.png,LOSS,5c6d0da2d5221b000101da81,18/03/1951,2020-07-09_21h30.03.320,proactive,2020.1.2,MacIntel,60,5f073de81c76c3308c0e4fb3,5f077e2e14d49e1697b08f11,1,,,,,,lobster,0,3,3,2,1,,,,,,,,,,,,,,,,,,,,,,,,,,,,,,,,,,,,,,,,,,,,,,,,,,,,,,,,,,,,,,,,,,,,,,,,,,,,,,,,,,
,,KILLER,6.941,1,,,,,,stimuli/images/PICTURE_697.png,KILLER,5c6d0da2d5221b000101da81,18/03/1951,2020-07-09_21h30.03.320,proactive,2020.1.2,MacIntel,60,5f073de81c76c3308c0e4fb3,5f077e2e14d49e1697b08f11,1,,,,,,peach,0,4,4,4,1,,,,,,,,,,,,,,,,,,,,,,,,,,,,,,,,,,,,,,,,,,,,,,,,,,,,,,,,,,,,,,,,,,,,,,,,,,,,,,,,,,
,,,,,,,,,,stimuli/images/PICTURE_57.png,NATION,5c6d0da2d5221b000101da81,18/03/1951,2020-07-09_21h30.03.320,proactive,2020.1.2,MacIntel,60,5f073de81c76c3308c0e4fb3,5f077e2e14d49e1697b08f11,1,,,,,,stamp,,,,,,0,0,0,21,1,3,2,,,,,,,,,,,,,,,,,,,,,,,,,,,,,,,,,,,,,,,,,,,,,,,,,,,,,,,,,,,,,,,,,,,,,,,,,,,
,,,,,,,,,,stimuli/images/PICTURE_405.png,HOUSE,5c6d0da2d5221b000101da81,18/03/1951,2020-07-09_21h30.03.320,proactive,2020.1.2,MacIntel,60,5f073de81c76c3308c0e4fb3,5f077e2e14d49e1697b08f11,1,,,,,,anchor,,,,,,0,1,1,2,1,1,2,,,,,,,,,,,,,,,,,,,,,,,,,,,,,,,,,,,,,,,,,,,,,,,,,,,,,,,,,,,,,,,,,,,,,,,,,,,
,,,,,,,,,,stimuli/images/PICTURE_208.png,SPIRIT,5c6d0da2d5221b000101da81,18/03/1951,2020-07-09_21h30.03.320,proactive,2020.1.2,MacIntel,60,5f073de81c76c3308c0e4fb3,5f077e2e14d49e1697b08f11,1,,,,,,microphone,,,,,,0,2,2,28,1,3,2,,,,,,,,,,,,,,,,,,,,,,,,,,,,,,,,,,,,,,,,,,,,,,,,,,,,,,,,,,,,,,,,,,,,,,,,,,,
,,,,,,,,,,stimuli/images/PICTURE_141.png,CLIENT,5c6d0da2d5221b000101da81,18/03/1951,2020-07-09_21h30.03.320,proactive,2020.1.2,MacIntel,60,5f073de81c76c3308c0e4fb3,5f077e2e14d49e1697b08f11,1,,,,,,sunflower,,,,,,0,3,3,30,1,4,2,,,,,,,,,,,,,,,,,,,,,,,,,,,,,,,,,,,,,,,,,,,,,,,,,,,,,,,,,,,,,,,,,,,,,,,,,,,
,,,,,,,,,,stimuli/images/PICTURE_667.png,GLASS,5c6d0da2d5221b000101da81,18/03/1951,2020-07-09_21h30.03.320,proactive,2020.1.2,MacIntel,60,5f073de81c76c3308c0e4fb3,5f077e2e14d49e1697b08f11,1,,,,,,daisy,,,,,,0,4,4,27,1,3,2,,,,,,,,,,,,,,,,,,,,,,,,,,,,,,,,,,,,,,,,,,,,,,,,,,,,,,,,,,,,,,,,,,,,,,,,,,,
,,,,,,,,,,stimuli/images/PICTURE_504.png,HOUSE,5c6d0da2d5221b000101da81,18/03/1951,2020-07-09_21h30.03.320,proactive,2020.1.2,MacIntel,60,5f073de81c76c3308c0e4fb3,5f077e2e14d49e1697b08f11,1,,,,,,wheel,,,,,,0,5,5,36,1,4,2,,,,,,,,,,,,,,,,,,,,,,,,,,,,,,,,,,,,,,,,,,,,,,,,,,,,,,,,,,,,,,,,,,,,,,,,,,,
,,,,,,,,,,stimuli/images/PICTURE_68.png,KIND,5c6d0da2d5221b000101da81,18/03/1951,2020-07-09_21h30.03.320,proactive,2020.1.2,MacIntel,60,5f073de81c76c3308c0e4fb3,5f077e2e14d49e1697b08f11,1,,,,,,candle,,,,,,0,6,6,23,1,3,2,,,,,,,,,,,,,,,,,,,,,,,,,,,,,,,,,,,,,,,,,,,,,,,,,,,,,,,,,,,,,,,,,,,,,,,,,,,
,,,,,,,,,,stimuli/images/PICTURE_2.png,JUNGLE,5c6d0da2d5221b000101da81,18/03/1951,2020-07-09_21h30.03.320,proactive,2020.1.2,MacIntel,60,5f073de81c76c3308c0e4fb3,5f077e2e14d49e1697b08f11,1,,,,,,tyre,,,,,,0,7,7,1,1,1,2,,,,,,,,,,,,,,,,,,,,,,,,,,,,,,,,,,,,,,,,,,,,,,,,,,,,,,,,,,,,,,,,,,,,,,,,,,,
,,,,,,,,,,stimuli/images/PICTURE_509.png,APPLE,5c6d0da2d5221b000101da81,18/03/1951,2020-07-09_21h30.03.320,proactive,2020.1.2,MacIntel,60,5f073de81c76c3308c0e4fb3,5f077e2e14d49e1697b08f11,1,,,,,,telephone,,,,,,0,8,8,38,1,4,2,,,,,,,,,,,,,,,,,,,,,,,,,,,,,,,,,,,,,,,,,,,,,,,,,,,,,,,,,,,,,,,,,,,,,,,,,,,
,,,,,,,,,,stimuli/images/PICTURE_677.png,FAMILY,5c6d0da2d5221b000101da81,18/03/1951,2020-07-09_21h30.03.320,proactive,2020.1.2,MacIntel,60,5f073de81c76c3308c0e4fb3,5f077e2e14d49e1697b08f11,1,,,,,,map,,,,,,0,9,9,53,1,6,2,,,,,,,,,,,,,,,,,,,,,,,,,,,,,,,,,,,,,,,,,,,,,,,,,,,,,,,,,,,,,,,,,,,,,,,,,,,
,,,,,,,,,,stimuli/images/PICTURE_57.png,CANDY,5c6d0da2d5221b000101da81,18/03/1951,2020-07-09_21h30.03.320,proactive,2020.1.2,MacIntel,60,5f073de81c76c3308c0e4fb3,5f077e2e14d49e1697b08f11,1,,,,,,stamp,,,,,,0,10,10,52,1,6,2,,,,,,,,,,,,,,,,,,,,,,,,,,,,,,,,,,,,,,,,,,,,,,,,,,,,,,,,,,,,,,,,,,,,,,,,,,,
,,,,,,,,,,stimuli/images/PICTURE_405.png,JUNGLE,5c6d0da2d5221b000101da81,18/03/1951,2020-07-09_21h30.03.320,proactive,2020.1.2,MacIntel,60,5f073de81c76c3308c0e4fb3,5f077e2e14d49e1697b08f11,1,,,,,,anchor,,,,,,0,11,11,13,1,2,2,,,,,,,,,,,,,,,,,,,,,,,,,,,,,,,,,,,,,,,,,,,,,,,,,,,,,,,,,,,,,,,,,,,,,,,,,,,
,,,,,,,,,,stimuli/images/PICTURE_655.png,SALE,5c6d0da2d5221b000101da81,18/03/1951,2020-07-09_21h30.03.320,proactive,2020.1.2,MacIntel,60,5f073de81c76c3308c0e4fb3,5f077e2e14d49e1697b08f11,1,,,,,,megaphone,,,,,,0,12,12,57,1,6,2,,,,,,,,,,,,,,,,,,,,,,,,,,,,,,,,,,,,,,,,,,,,,,,,,,,,,,,,,,,,,,,,,,,,,,,,,,,
,,,,,,,,,,stimuli/images/PICTURE_564.png,PLENTY,5c6d0da2d5221b000101da81,18/03/1951,2020-07-09_21h30.03.320,proactive,2020.1.2,MacIntel,60,5f073de81c76c3308c0e4fb3,5f077e2e14d49e1697b08f11,1,,,,,,spoon,,,,,,0,13,13,11,1,2,2,,,,,,,,,,,,,,,,,,,,,,,,,,,,,,,,,,,,,,,,,,,,,,,,,,,,,,,,,,,,,,,,,,,,,,,,,,,
,,,,,,,,,,stimuli/images/PICTURE_2.png,AREA,5c6d0da2d5221b000101da81,18/03/1951,2020-07-09_21h30.03.320,proactive,2020.1.2,MacIntel,60,5f073de81c76c3308c0e4fb3,5f077e2e14d49e1697b08f11,1,,,,,,tyre,,,,,,0,14,14,32,1,4,2,,,,,,,,,,,,,,,,,,,,,,,,,,,,,,,,,,,,,,,,,,,,,,,,,,,,,,,,,,,,,,,,,,,,,,,,,,,
,,,,,,,,,,stimuli/images/PICTURE_327.png,LEADER,5c6d0da2d5221b000101da81,18/03/1951,2020-07-09_21h30.03.320,proactive,2020.1.2,MacIntel,60,5f073de81c76c3308c0e4fb3,5f077e2e14d49e1697b08f11,1,,,,,,helmet,,,,,,0,15,15,17,1,2,2,,,,,,,,,,,,,,,,,,,,,,,,,,,,,,,,,,,,,,,,,,,,,,,,,,,,,,,,,,,,,,,,,,,,,,,,,,,
,,,,,,,,,,stimuli/images/PICTURE_487.png,POLICY,5c6d0da2d5221b000101da81,18/03/1951,2020-07-09_21h30.03.320,proactive,2020.1.2,MacIntel,60,5f073de81c76c3308c0e4fb3,5f077e2e14d49e1697b08f11,1,,,,,,basket,,,,,,0,16,16,34,1,4,2,,,,,,,,,,,,,,,,,,,,,,,,,,,,,,,,,,,,,,,,,,,,,,,,,,,,,,,,,,,,,,,,,,,,,,,,,,,
,,,,,,,,,,stimuli/images/PICTURE_708.png,VALLEY,5c6d0da2d5221b000101da81,18/03/1951,2020-07-09_21h30.03.320,proactive,2020.1.2,MacIntel,60,5f073de81c76c3308c0e4fb3,5f077e2e14d49e1697b08f11,1,,,,,,monkey,,,,,,0,17,17,45,1,5,2,,,,,,,,,,,,,,,,,,,,,,,,,,,,,,,,,,,,,,,,,,,,,,,,,,,,,,,,,,,,,,,,,,,,,,,,,,,
,,,,,,,,,,stimuli/images/PICTURE_147.png,LEADER,5c6d0da2d5221b000101da81,18/03/1951,2020-07-09_21h30.03.320,proactive,2020.1.2,MacIntel,60,5f073de81c76c3308c0e4fb3,5f077e2e14d49e1697b08f11,1,,,,,,hanger,,,,,,0,18,18,33,1,4,2,,,,,,,,,,,,,,,,,,,,,,,,,,,,,,,,,,,,,,,,,,,,,,,,,,,,,,,,,,,,,,,,,,,,,,,,,,,
,,,,,,,,,,stimuli/images/PICTURE_93.png,GIRL,5c6d0da2d5221b000101da81,18/03/1951,2020-07-09_21h30.03.320,proactive,2020.1.2,MacIntel,60,5f073de81c76c3308c0e4fb3,5f077e2e14d49e1697b08f11,1,,,,,,skateboard,,,,,,0,19,19,31,1,4,2,,,,,,,,,,,,,,,,,,,,,,,,,,,,,,,,,,,,,,,,,,,,,,,,,,,,,,,,,,,,,,,,,,,,,,,,,,,
,,,,,,,,,,stimuli/images/PICTURE_509.png,MILLER,5c6d0da2d5221b000101da81,18/03/1951,2020-07-09_21h30.03.320,proactive,2020.1.2,MacIntel,60,5f073de81c76c3308c0e4fb3,5f077e2e14d49e1697b08f11,1,,,,,,telephone,,,,,,0,20,20,49,1,5,2,,,,,,,,,,,,,,,,,,,,,,,,,,,,,,,,,,,,,,,,,,,,,,,,,,,,,,,,,,,,,,,,,,,,,,,,,,,
,,,,,,,,,,stimuli/images/PICTURE_677.png,PHOTO,5c6d0da2d5221b000101da81,18/03/1951,2020-07-09_21h30.03.320,proactive,2020.1.2,MacIntel,60,5f073de81c76c3308c0e4fb3,5f077e2e14d49e1697b08f11,1,,,,,,map,,,,,,0,21,21,14,1,2,2,,,,,,,,,,,,,,,,,,,,,,,,,,,,,,,,,,,,,,,,,,,,,,,,,,,,,,,,,,,,,,,,,,,,,,,,,,,
,,,,,,,,,,stimuli/images/PICTURE_177.png,HOUSE,5c6d0da2d5221b000101da81,18/03/1951,2020-07-09_21h30.03.320,proactive,2020.1.2,MacIntel,60,5f073de81c76c3308c0e4fb3,5f077e2e14d49e1697b08f11,1,,,,,,mushroom,,,,,,0,22,22,25,1,3,2,,,,,,,,,,,,,,,,,,,,,,,,,,,,,,,,,,,,,,,,,,,,,,,,,,,,,,,,,,,,,,,,,,,,,,,,,,,
,,,,,,,,,,stimuli/images/PICTURE_453.png,FAMILY,5c6d0da2d5221b000101da81,18/03/1951,2020-07-09_21h30.03.320,proactive,2020.1.2,MacIntel,60,5f073de81c76c3308c0e4fb3,5f077e2e14d49e1697b08f11,1,,,,,,scissors,,,,,,0,23,23,48,1,5,2,,,,,,,,,,,,,,,,,,,,,,,,,,,,,,,,,,,,,,,,,,,,,,,,,,,,,,,,,,,,,,,,,,,,,,,,,,,
,,,,,,,,,,stimuli/images/PICTURE_57.png,CASINO,5c6d0da2d5221b000101da81,18/03/1951,2020-07-09_21h30.03.320,proactive,2020.1.2,MacIntel,60,5f073de81c76c3308c0e4fb3,5f077e2e14d49e1697b08f11,1,,,,,,stamp,,,,,,0,24,24,12,1,2,2,,,,,,,,,,,,,,,,,,,,,,,,,,,,,,,,,,,,,,,,,,,,,,,,,,,,,,,,,,,,,,,,,,,,,,,,,,,
,,,,,,,,,,stimuli/images/PICTURE_311.png,FLESH,5c6d0da2d5221b000101da81,18/03/1951,2020-07-09_21h30.03.320,proactive,2020.1.2,MacIntel,60,5f073de81c76c3308c0e4fb3,5f077e2e14d49e1697b08f11,1,,,,,,razor,,,,,,0,25,25,3,1,1,2,,,,,,,,,,,,,,,,,,,,,,,,,,,,,,,,,,,,,,,,,,,,,,,,,,,,,,,,,,,,,,,,,,,,,,,,,,,
,,,,,,,,,,stimuli/images/PICTURE_470.png,BEAUTY,5c6d0da2d5221b000101da81,18/03/1951,2020-07-09_21h30.03.320,proactive,2020.1.2,MacIntel,60,5f073de81c76c3308c0e4fb3,5f077e2e14d49e1697b08f11,1,,,,,,motorbike,,,,,,0,26,26,26,1,3,2,,,,,,,,,,,,,,,,,,,,,,,,,,,,,,,,,,,,,,,,,,,,,,,,,,,,,,,,,,,,,,,,,,,,,,,,,,,
,,,,,,,,,,stimuli/images/PICTURE_215.png,FOOD,5c6d0da2d5221b000101da81,18/03/1951,2020-07-09_21h30.03.320,proactive,2020.1.2,MacIntel,60,5f073de81c76c3308c0e4fb3,5f077e2e14d49e1697b08f11,1,,,,,,boot,,,,,,0,27,27,5,1,1,2,,,,,,,,,,,,,,,,,,,,,,,,,,,,,,,,,,,,,,,,,,,,,,,,,,,,,,,,,,,,,,,,,,,,,,,,,,,
,,,,,,,,,,stimuli/images/PICTURE_750.png,POLICY,5c6d0da2d5221b000101da81,18/03/1951,2020-07-09_21h30.03.320,proactive,2020.1.2,MacIntel,60,5f073de81c76c3308c0e4fb3,5f077e2e14d49e1697b08f11,1,,,,,,kettle,,,,,,0,28,28,44,1,5,2,,,,,,,,,,,,,,,,,,,,,,,,,,,,,,,,,,,,,,,,,,,,,,,,,,,,,,,,,,,,,,,,,,,,,,,,,,,
,,,,,,,,,,stimuli/images/PICTURE_215.png,BOYS,5c6d0da2d5221b000101da81,18/03/1951,2020-07-09_21h30.03.320,proactive,2020.1.2,MacIntel,60,5f073de81c76c3308c0e4fb3,5f077e2e14d49e1697b08f11,1,,,,,,boot,,,,,,0,29,29,24,1,3,2,,,,,,,,,,,,,,,,,,,,,,,,,,,,,,,,,,,,,,,,,,,,,,,,,,,,,,,,,,,,,,,,,,,,,,,,,,,
,,,,,,,,,,stimuli/images/PICTURE_348.png,TOILET,5c6d0da2d5221b000101da81,18/03/1951,2020-07-09_21h30.03.320,proactive,2020.1.2,MacIntel,60,5f073de81c76c3308c0e4fb3,5f077e2e14d49e1697b08f11,1,,,,,,pepper,,,,,,0,30,30,4,1,1,2,,,,,,,,,,,,,,,,,,,,,,,,,,,,,,,,,,,,,,,,,,,,,,,,,,,,,,,,,,,,,,,,,,,,,,,,,,,
,,,,,,,,,,stimuli/images/PICTURE_95.png,NIGHT,5c6d0da2d5221b000101da81,18/03/1951,2020-07-09_21h30.03.320,proactive,2020.1.2,MacIntel,60,5f073de81c76c3308c0e4fb3,5f077e2e14d49e1697b08f11,1,,,,,,suitcase,,,,,,0,31,31,37,1,4,2,,,,,,,,,,,,,,,,,,,,,,,,,,,,,,,,,,,,,,,,,,,,,,,,,,,,,,,,,,,,,,,,,,,,,,,,,,,
,,,,,,,,,,stimuli/images/PICTURE_33.png,COPS,5c6d0da2d5221b000101da81,18/03/1951,2020-07-09_21h30.03.320,proactive,2020.1.2,MacIntel,60,5f073de81c76c3308c0e4fb3,5f077e2e14d49e1697b08f11,1,,,,,,frame,,,,,,0,32,32,29,1,3,2,,,,,,,,,,,,,,,,,,,,,,,,,,,,,,,,,,,,,,,,,,,,,,,,,,,,,,,,,,,,,,,,,,,,,,,,,,,
,,,,,,,,,,stimuli/images/PICTURE_285.png,PRINCE,5c6d0da2d5221b000101da81,18/03/1951,2020-07-09_21h30.03.320,proactive,2020.1.2,MacIntel,60,5f073de81c76c3308c0e4fb3,5f077e2e14d49e1697b08f11,1,,,,,,carrot,,,,,,0,33,33,20,1,3,2,,,,,,,,,,,,,,,,,,,,,,,,,,,,,,,,,,,,,,,,,,,,,,,,,,,,,,,,,,,,,,,,,,,,,,,,,,,
,,,,,,,,,,stimuli/images/PICTURE_491.png,SERIES,5c6d0da2d5221b000101da81,18/03/1951,2020-07-09_21h30.03.320,proactive,2020.1.2,MacIntel,60,5f073de81c76c3308c0e4fb3,5f077e2e14d49e1697b08f11,1,,,,,,rug,,,,,,0,34,34,39,1,4,2,,,,,,,,,,,,,,,,,,,,,,,,,,,,,,,,,,,,,,,,,,,,,,,,,,,,,,,,,,,,,,,,,,,,,,,,,,,
,,,,,,,,,,stimuli/images/PICTURE_160.png,HOTEL,5c6d0da2d5221b000101da81,18/03/1951,2020-07-09_21h30.03.320,proactive,2020.1.2,MacIntel,60,5f073de81c76c3308c0e4fb3,5f077e2e14d49e1697b08f11,1,,,,,,wheelbarrow,,,,,,0,35,35,16,1,2,2,,,,,,,,,,,,,,,,,,,,,,,,,,,,,,,,,,,,,,,,,,,,,,,,,,,,,,,,,,,,,,,,,,,,,,,,,,,
,,,,,,,,,,stimuli/images/PICTURE_348.png,DUDE,5c6d0da2d5221b000101da81,18/03/1951,2020-07-09_21h30.03.320,proactive,2020.1.2,MacIntel,60,5f073de81c76c3308c0e4fb3,5f077e2e14d49e1697b08f11,1,,,,,,pepper,,,,,,0,36,36,59,1,6,2,,,,,,,,,,,,,,,,,,,,,,,,,,,,,,,,,,,,,,,,,,,,,,,,,,,,,,,,,,,,,,,,,,,,,,,,,,,
,,,,,,,,,,stimuli/images/PICTURE_296.png,CLOCK,5c6d0da2d5221b000101da81,18/03/1951,2020-07-09_21h30.03.320,proactive,2020.1.2,MacIntel,60,5f073de81c76c3308c0e4fb3,5f077e2e14d49e1697b08f11,1,,,,,,bolt,,,,,,0,37,37,18,1,2,2,,,,,,,,,,,,,,,,,,,,,,,,,,,,,,,,,,,,,,,,,,,,,,,,,,,,,,,,,,,,,,,,,,,,,,,,,,,
,,,,,,,,,,stimuli/images/PICTURE_509.png,BATH,5c6d0da2d5221b000101da81,18/03/1951,2020-07-09_21h30.03.320,proactive,2020.1.2,MacIntel,60,5f073de81c76c3308c0e4fb3,5f077e2e14d49e1697b08f11,1,,,,,,telephone,,,,,,0,38,38,15,1,2,2,,,,,,,,,,,,,,,,,,,,,,,,,,,,,,,,,,,,,,,,,,,,,,,,,,,,,,,,,,,,,,,,,,,,,,,,,,,
,,,,,,,,,,stimuli/images/PICTURE_403.png,FAMILY,5c6d0da2d5221b000101da81,18/03/1951,2020-07-09_21h30.03.320,proactive,2020.1.2,MacIntel,60,5f073de81c76c3308c0e4fb3,5f077e2e14d49e1697b08f11,1,,,,,,cathedral,,,,,,0,39,39,9,1,1,2,,,,,,,,,,,,,,,,,,,,,,,,,,,,,,,,,,,,,,,,,,,,,,,,,,,,,,,,,,,,,,,,,,,,,,,,,,,
,,,,,,,,,,stimuli/images/PICTURE_688.png,CLOCK,5c6d0da2d5221b000101da81,18/03/1951,2020-07-09_21h30.03.320,proactive,2020.1.2,MacIntel,60,5f073de81c76c3308c0e4fb3,5f077e2e14d49e1697b08f11,1,,,,,,runner,,,,,,0,40,40,42,1,5,2,,,,,,,,,,,,,,,,,,,,,,,,,,,,,,,,,,,,,,,,,,,,,,,,,,,,,,,,,,,,,,,,,,,,,,,,,,,
,,,,,,,,,,stimuli/images/PICTURE_255.png,PENNY,5c6d0da2d5221b000101da81,18/03/1951,2020-07-09_21h30.03.320,proactive,2020.1.2,MacIntel,60,5f073de81c76c3308c0e4fb3,5f077e2e14d49e1697b08f11,1,,,,,,shovel,,,,,,0,41,41,19,1,2,2,,,,,,,,,,,,,,,,,,,,,,,,,,,,,,,,,,,,,,,,,,,,,,,,,,,,,,,,,,,,,,,,,,,,,,,,,,,
,,,,,,,,,,stimuli/images/PICTURE_692.png,DUDE,5c6d0da2d5221b000101da81,18/03/1951,2020-07-09_21h30.03.320,proactive,2020.1.2,MacIntel,60,5f073de81c76c3308c0e4fb3,5f077e2e14d49e1697b08f11,1,,,,,,cherry,,,,,,0,42,42,47,1,5,2,,,,,,,,,,,,,,,,,,,,,,,,,,,,,,,,,,,,,,,,,,,,,,,,,,,,,,,,,,,,,,,,,,,,,,,,,,,
,,,,,,,,,,stimuli/images/PICTURE_487.png,ROOF,5c6d0da2d5221b000101da81,18/03/1951,2020-07-09_21h30.03.320,proactive,2020.1.2,MacIntel,60,5f073de81c76c3308c0e4fb3,5f077e2e14d49e1697b08f11,1,,,,,,basket,,,,,,0,43,43,50,1,6,2,,,,,,,,,,,,,,,,,,,,,,,,,,,,,,,,,,,,,,,,,,,,,,,,,,,,,,,,,,,,,,,,,,,,,,,,,,,
,,,,,,,,,,stimuli/images/PICTURE_285.png,WRITER,5c6d0da2d5221b000101da81,18/03/1951,2020-07-09_21h30.03.320,proactive,2020.1.2,MacIntel,60,5f073de81c76c3308c0e4fb3,5f077e2e14d49e1697b08f11,1,,,,,,carrot,,,,,,0,44,44,6,1,1,2,,,,,,,,,,,,,,,,,,,,,,,,,,,,,,,,,,,,,,,,,,,,,,,,,,,,,,,,,,,,,,,,,,,,,,,,,,,
,,,,,,,,,,stimuli/images/PICTURE_18.png,RIVER,5c6d0da2d5221b000101da81,18/03/1951,2020-07-09_21h30.03.320,proactive,2020.1.2,MacIntel,60,5f073de81c76c3308c0e4fb3,5f077e2e14d49e1697b08f11,1,,,,,,planet,,,,,,0,45,45,22,1,3,2,,,,,,,,,,,,,,,,,,,,,,,,,,,,,,,,,,,,,,,,,,,,,,,,,,,,,,,,,,,,,,,,,,,,,,,,,,,
,,,,,,,,,,stimuli/images/PICTURE_452.png,COPS,5c6d0da2d5221b000101da81,18/03/1951,2020-07-09_21h30.03.320,proactive,2020.1.2,MacIntel,60,5f073de81c76c3308c0e4fb3,5f077e2e14d49e1697b08f11,1,,,,,,watch,,,,,,0,46,46,0,1,1,2,,,,,,,,,,,,,,,,,,,,,,,,,,,,,,,,,,,,,,,,,,,,,,,,,,,,,,,,,,,,,,,,,,,,,,,,,,,
,,,,,,,,,,stimuli/images/PICTURE_311.png,TOILET,5c6d0da2d5221b000101da81,18/03/1951,2020-07-09_21h30.03.320,proactive,2020.1.2,MacIntel,60,5f073de81c76c3308c0e4fb3,5f077e2e14d49e1697b08f11,1,,,,,,razor,,,,,,0,47,47,54,1,6,2,,,,,,,,,,,,,,,,,,,,,,,,,,,,,,,,,,,,,,,,,,,,,,,,,,,,,,,,,,,,,,,,,,,,,,,,,,,
,,,,,,,,,,stimuli/images/PICTURE_405.png,JUNGLE,5c6d0da2d5221b000101da81,18/03/1951,2020-07-09_21h30.03.320,proactive,2020.1.2,MacIntel,60,5f073de81c76c3308c0e4fb3,5f077e2e14d49e1697b08f11,1,,,,,,anchor,,,,,,0,48,48,58,1,6,2,,,,,,,,,,,,,,,,,,,,,,,,,,,,,,,,,,,,,,,,,,,,,,,,,,,,,,,,,,,,,,,,,,,,,,,,,,,
,,,,,,,,,,stimuli/images/PICTURE_654.png,COPS,5c6d0da2d5221b000101da81,18/03/1951,2020-07-09_21h30.03.320,proactive,2020.1.2,MacIntel,60,5f073de81c76c3308c0e4fb3,5f077e2e14d49e1697b08f11,1,,,,,,pencil,,,,,,0,49,49,10,1,2,2,,,,,,,,,,,,,,,,,,,,,,,,,,,,,,,,,,,,,,,,,,,,,,,,,,,,,,,,,,,,,,,,,,,,,,,,,,,
,,,,,,,,,,stimuli/images/PICTURE_654.png,YEAR,5c6d0da2d5221b000101da81,18/03/1951,2020-07-09_21h30.03.320,proactive,2020.1.2,MacIntel,60,5f073de81c76c3308c0e4fb3,5f077e2e14d49e1697b08f11,1,,,,,,pencil,,,,,,0,50,50,41,1,5,2,,,,,,,,,,,,,,,,,,,,,,,,,,,,,,,,,,,,,,,,,,,,,,,,,,,,,,,,,,,,,,,,,,,,,,,,,,,
,,,,,,,,,,stimuli/images/PICTURE_470.png,MOMENT,5c6d0da2d5221b000101da81,18/03/1951,2020-07-09_21h30.03.320,proactive,2020.1.2,MacIntel,60,5f073de81c76c3308c0e4fb3,5f077e2e14d49e1697b08f11,1,,,,,,motorbike,,,,,,0,51,51,40,1,5,2,,,,,,,,,,,,,,,,,,,,,,,,,,,,,,,,,,,,,,,,,,,,,,,,,,,,,,,,,,,,,,,,,,,,,,,,,,,
,,,,,,,,,,stimuli/images/PICTURE_123.png,SALE,5c6d0da2d5221b000101da81,18/03/1951,2020-07-09_21h30.03.320,proactive,2020.1.2,MacIntel,60,5f073de81c76c3308c0e4fb3,5f077e2e14d49e1697b08f11,1,,,,,,dart,,,,,,0,52,52,8,1,1,2,,,,,,,,,,,,,,,,,,,,,,,,,,,,,,,,,,,,,,,,,,,,,,,,,,,,,,,,,,,,,,,,,,,,,,,,,,,
,,,,,,,,,,stimuli/images/PICTURE_2.png,YARD,5c6d0da2d5221b000101da81,18/03/1951,2020-07-09_21h30.03.320,proactive,2020.1.2,MacIntel,60,5f073de81c76c3308c0e4fb3,5f077e2e14d49e1697b08f11,1,,,,,,tyre,,,,,,0,53,53,55,1,6,2,,,,,,,,,,,,,,,,,,,,,,,,,,,,,,,,,,,,,,,,,,,,,,,,,,,,,,,,,,,,,,,,,,,,,,,,,,,
,,,,,,,,,,stimuli/images/PICTURE_356.png,CANDY,5c6d0da2d5221b000101da81,18/03/1951,2020-07-09_21h30.03.320,proactive,2020.1.2,MacIntel,60,5f073de81c76c3308c0e4fb3,5f077e2e14d49e1697b08f11,1,,,,,,pawn,,,,,,0,54,54,46,1,5,2,,,,,,,,,,,,,,,,,,,,,,,,,,,,,,,,,,,,,,,,,,,,,,,,,,,,,,,,,,,,,,,,,,,,,,,,,,,
,,,,,,,,,,stimuli/images/PICTURE_297.png,BODY,5c6d0da2d5221b000101da81,18/03/1951,2020-07-09_21h30.03.320,proactive,2020.1.2,MacIntel,60,5f073de81c76c3308c0e4fb3,5f077e2e14d49e1697b08f11,1,,,,,,aeroplane,,,,,,0,55,55,51,1,6,2,,,,,,,,,,,,,,,,,,,,,,,,,,,,,,,,,,,,,,,,,,,,,,,,,,,,,,,,,,,,,,,,,,,,,,,,,,,
,,,,,,,,,,stimuli/images/PICTURE_314.png,SPEECH,5c6d0da2d5221b000101da81,18/03/1951,2020-07-09_21h30.03.320,proactive,2020.1.2,MacIntel,60,5f073de81c76c3308c0e4fb3,5f077e2e14d49e1697b08f11,1,,,,,,perfume,,,,,,0,56,56,35,1,4,2,,,,,,,,,,,,,,,,,,,,,,,,,,,,,,,,,,,,,,,,,,,,,,,,,,,,,,,,,,,,,,,,,,,,,,,,,,,
,,,,,,,,,,stimuli/images/PICTURE_509.png,SHOTS,5c6d0da2d5221b000101da81,18/03/1951,2020-07-09_21h30.03.320,proactive,2020.1.2,MacIntel,60,5f073de81c76c3308c0e4fb3,5f077e2e14d49e1697b08f11,1,,,,,,telephone,,,,,,0,57,57,7,1,1,2,,,,,,,,,,,,,,,,,,,,,,,,,,,,,,,,,,,,,,,,,,,,,,,,,,,,,,,,,,,,,,,,,,,,,,,,,,,
,,,,,,,,,,stimuli/images/PICTURE_215.png,LEADER,5c6d0da2d5221b000101da81,18/03/1951,2020-07-09_21h30.03.320,proactive,2020.1.2,MacIntel,60,5f073de81c76c3308c0e4fb3,5f077e2e14d49e1697b08f11,1,,,,,,boot,,,,,,0,58,58,43,1,5,2,,,,,,,,,,,,,,,,,,,,,,,,,,,,,,,,,,,,,,,,,,,,,,,,,,,,,,,,,,,,,,,,,,,,,,,,,,,
,,?,0.001,0,,,,,,stimuli/images/PICTURE_2.png,YARD,5c6d0da2d5221b000101da81,18/03/1951,2020-07-09_21h30.03.320,proactive,2020.1.2,MacIntel,60,5f073de81c76c3308c0e4fb3,5f077e2e14d49e1697b08f11,1,,,,,,tyre,,,,,,,,,,,6,2,0,0,0,55,1,,,,,,,,,,,,,,,,,,,,,,,,,,,,,,,,,,,,,,,,,,,,,,,,,,,,,,,,,,,,,,,,,,,,,,
,,?,0.001,0,,,,,,stimuli/images/PICTURE_147.png,LEADER,5c6d0da2d5221b000101da81,18/03/1951,2020-07-09_21h30.03.320,proactive,2020.1.2,MacIntel,60,5f073de81c76c3308c0e4fb3,5f077e2e14d49e1697b08f11,1,,,,,,hanger,,,,,,,,,,,4,2,0,1,1,33,1,,,,,,,,,,,,,,,,,,,,,,,,,,,,,,,,,,,,,,,,,,,,,,,,,,,,,,,,,,,,,,,,,,,,,,
,,?,0.001,0,,,,,,stimuli/images/PICTURE_177.png,HOUSE,5c6d0da2d5221b000101da81,18/03/1951,2020-07-09_21h30.03.320,proactive,2020.1.2,MacIntel,60,5f073de81c76c3308c0e4fb3,5f077e2e14d49e1697b08f11,1,,,,,,mushroom,,,,,,,,,,,3,2,0,2,2,25,1,,,,,,,,,,,,,,,,,,,,,,,,,,,,,,,,,,,,,,,,,,,,,,,,,,,,,,,,,,,,,,,,,,,,,,
,,?,0.001,0,,,,,,stimuli/images/PICTURE_677.png,PHOTO,5c6d0da2d5221b000101da81,18/03/1951,2020-07-09_21h30.03.320,proactive,2020.1.2,MacIntel,60,5f073de81c76c3308c0e4fb3,5f077e2e14d49e1697b08f11,1,,,,,,map,,,,,,,,,,,2,2,0,3,3,14,1,,,,,,,,,,,,,,,,,,,,,,,,,,,,,,,,,,,,,,,,,,,,,,,,,,,,,,,,,,,,,,,,,,,,,,
,,?,0.001,0,,,,,,stimuli/images/PICTURE_141.png,CLIENT,5c6d0da2d5221b000101da81,18/03/1951,2020-07-09_21h30.03.320,proactive,2020.1.2,MacIntel,60,5f073de81c76c3308c0e4fb3,5f077e2e14d49e1697b08f11,1,,,,,,sunflower,,,,,,,,,,,4,2,0,4,4,30,1,,,,,,,,,,,,,,,,,,,,,,,,,,,,,,,,,,,,,,,,,,,,,,,,,,,,,,,,,,,,,,,,,,,,,,
,,?,0.001,0,,,,,,stimuli/images/PICTURE_208.png,SPIRIT,5c6d0da2d5221b000101da81,18/03/1951,2020-07-09_21h30.03.320,proactive,2020.1.2,MacIntel,60,5f073de81c76c3308c0e4fb3,5f077e2e14d49e1697b08f11,1,,,,,,microphone,,,,,,,,,,,3,2,0,5,5,28,1,,,,,,,,,,,,,,,,,,,,,,,,,,,,,,,,,,,,,,,,,,,,,,,,,,,,,,,,,,,,,,,,,,,,,,
,,?,0.001,0,,,,,,stimuli/images/PICTURE_215.png,BOYS,5c6d0da2d5221b000101da81,18/03/1951,2020-07-09_21h30.03.320,proactive,2020.1.2,MacIntel,60,5f073de81c76c3308c0e4fb3,5f077e2e14d49e1697b08f11,1,,,,,,boot,,,,,,,,,,,3,2,0,6,6,24,1,,,,,,,,,,,,,,,,,,,,,,,,,,,,,,,,,,,,,,,,,,,,,,,,,,,,,,,,,,,,,,,,,,,,,,
,,?,0.001,0,,,,,,stimuli/images/PICTURE_470.png,BEAUTY,5c6d0da2d5221b000101da81,18/03/1951,2020-07-09_21h30.03.320,proactive,2020.1.2,MacIntel,60,5f073de81c76c3308c0e4fb3,5f077e2e14d49e1697b08f11,1,,,,,,motorbike,,,,,,,,,,,3,2,0,7,7,26,1,,,,,,,,,,,,,,,,,,,,,,,,,,,,,,,,,,,,,,,,,,,,,,,,,,,,,,,,,,,,,,,,,,,,,,
,,?,0.001,0,,,,,,stimuli/images/PICTURE_509.png,MILLER,5c6d0da2d5221b000101da81,18/03/1951,2020-07-09_21h30.03.320,proactive,2020.1.2,MacIntel,60,5f073de81c76c3308c0e4fb3,5f077e2e14d49e1697b08f11,1,,,,,,telephone,,,,,,,,,,,5,2,0,8,8,49,1,,,,,,,,,,,,,,,,,,,,,,,,,,,,,,,,,,,,,,,,,,,,,,,,,,,,,,,,,,,,,,,,,,,,,,
,,?,0.001,0,,,,,,stimuli/images/PICTURE_405.png,JUNGLE,5c6d0da2d5221b000101da81,18/03/1951,2020-07-09_21h30.03.320,proactive,2020.1.2,MacIntel,60,5f073de81c76c3308c0e4fb3,5f077e2e14d49e1697b08f11,1,,,,,,anchor,,,,,,,,,,,2,2,0,9,9,13,1,,,,,,,,,,,,,,,,,,,,,,,,,,,,,,,,,,,,,,,,,,,,,,,,,,,,,,,,,,,,,,,,,,,,,,
,,?,0,0,,,,,,stimuli/images/PICTURE_491.png,SERIES,5c6d0da2d5221b000101da81,18/03/1951,2020-07-09_21h30.03.320,proactive,2020.1.2,MacIntel,60,5f073de81c76c3308c0e4fb3,5f077e2e14d49e1697b08f11,1,,,,,,rug,,,,,,,,,,,4,2,0,10,10,39,1,,,,,,,,,,,,,,,,,,,,,,,,,,,,,,,,,,,,,,,,,,,,,,,,,,,,,,,,,,,,,,,,,,,,,,
,,?,0.001,0,,,,,,stimuli/images/PICTURE_311.png,TOILET,5c6d0da2d5221b000101da81,18/03/1951,2020-07-09_21h30.03.320,proactive,2020.1.2,MacIntel,60,5f073de81c76c3308c0e4fb3,5f077e2e14d49e1697b08f11,1,,,,,,razor,,,,,,,,,,,6,2,0,11,11,54,1,,,,,,,,,,,,,,,,,,,,,,,,,,,,,,,,,,,,,,,,,,,,,,,,,,,,,,,,,,,,,,,,,,,,,,
,,?,0.001,0,,,,,,stimuli/images/PICTURE_285.png,PRINCE,5c6d0da2d5221b000101da81,18/03/1951,2020-07-09_21h30.03.320,proactive,2020.1.2,MacIntel,60,5f073de81c76c3308c0e4fb3,5f077e2e14d49e1697b08f11,1,,,,,,carrot,,,,,,,,,,,3,2,0,12,12,20,1,,,,,,,,,,,,,,,,,,,,,,,,,,,,,,,,,,,,,,,,,,,,,,,,,,,,,,,,,,,,,,,,,,,,,,
,,?,0.001,0,,,,,,stimuli/images/PICTURE_356.png,CANDY,5c6d0da2d5221b000101da81,18/03/1951,2020-07-09_21h30.03.320,proactive,2020.1.2,MacIntel,60,5f073de81c76c3308c0e4fb3,5f077e2e14d49e1697b08f11,1,,,,,,pawn,,,,,,,,,,,5,2,0,13,13,46,1,,,,,,,,,,,,,,,,,,,,,,,,,,,,,,,,,,,,,,,,,,,,,,,,,,,,,,,,,,,,,,,,,,,,,,
,,FOOD,3.634,1,,,,,,stimuli/images/PICTURE_215.png,FOOD,5c6d0da2d5221b000101da81,18/03/1951,2020-07-09_21h30.03.320,proactive,2020.1.2,MacIntel,60,5f073de81c76c3308c0e4fb3,5f077e2e14d49e1697b08f11,1,,,,,,boot,,,,,,,,,,,1,2,0,14,14,5,1,,,,,,,,,,,,,,,,,,,,,,,,,,,,,,,,,,,,,,,,,,,,,,,,,,,,,,,,,,,,,,,,,,,,,,
,,?,0.001,0,,,,,,stimuli/images/PICTURE_405.png,JUNGLE,5c6d0da2d5221b000101da81,18/03/1951,2020-07-09_21h30.03.320,proactive,2020.1.2,MacIntel,60,5f073de81c76c3308c0e4fb3,5f077e2e14d49e1697b08f11,1,,,,,,anchor,,,,,,,,,,,6,2,0,15,15,58,1,,,,,,,,,,,,,,,,,,,,,,,,,,,,,,,,,,,,,,,,,,,,,,,,,,,,,,,,,,,,,,,,,,,,,,
,,?,0,0,,,,,,stimuli/images/PICTURE_33.png,COPS,5c6d0da2d5221b000101da81,18/03/1951,2020-07-09_21h30.03.320,proactive,2020.1.2,MacIntel,60,5f073de81c76c3308c0e4fb3,5f077e2e14d49e1697b08f11,1,,,,,,frame,,,,,,,,,,,3,2,0,16,16,29,1,,,,,,,,,,,,,,,,,,,,,,,,,,,,,,,,,,,,,,,,,,,,,,,,,,,,,,,,,,,,,,,,,,,,,,
,,HOUSE,2.8,1,,,,,,stimuli/images/PICTURE_405.png,HOUSE,5c6d0da2d5221b000101da81,18/03/1951,2020-07-09_21h30.03.320,proactive,2020.1.2,MacIntel,60,5f073de81c76c3308c0e4fb3,5f077e2e14d49e1697b08f11,1,,,,,,anchor,,,,,,,,,,,1,2,0,17,17,2,1,,,,,,,,,,,,,,,,,,,,,,,,,,,,,,,,,,,,,,,,,,,,,,,,,,,,,,,,,,,,,,,,,,,,,,
,,?,0.001,0,,,,,,stimuli/images/PICTURE_487.png,POLICY,5c6d0da2d5221b000101da81,18/03/1951,2020-07-09_21h30.03.320,proactive,2020.1.2,MacIntel,60,5f073de81c76c3308c0e4fb3,5f077e2e14d49e1697b08f11,1,,,,,,basket,,,,,,,,,,,4,2,0,18,18,34,1,,,,,,,,,,,,,,,,,,,,,,,,,,,,,,,,,,,,,,,,,,,,,,,,,,,,,,,,,,,,,,,,,,,,,,
,,FAMILY,4.037,1,,,,,,stimuli/images/PICTURE_403.png,FAMILY,5c6d0da2d5221b000101da81,18/03/1951,2020-07-09_21h30.03.320,proactive,2020.1.2,MacIntel,60,5f073de81c76c3308c0e4fb3,5f077e2e14d49e1697b08f11,1,,,,,,cathedral,,,,,,,,,,,1,2,0,19,19,9,1,,,,,,,,,,,,,,,,,,,,,,,,,,,,,,,,,,,,,,,,,,,,,,,,,,,,,,,,,,,,,,,,,,,,,,
,,JUNGLE,3.587,1,,,,,,stimuli/images/PICTURE_2.png,JUNGLE,5c6d0da2d5221b000101da81,18/03/1951,2020-07-09_21h30.03.320,proactive,2020.1.2,MacIntel,60,5f073de81c76c3308c0e4fb3,5f077e2e14d49e1697b08f11,1,,,,,,tyre,,,,,,,,,,,1,2,0,20,20,1,1,,,,,,,,,,,,,,,,,,,,,,,,,,,,,,,,,,,,,,,,,,,,,,,,,,,,,,,,,,,,,,,,,,,,,,
,,WRITER,3.153,1,,,,,,stimuli/images/PICTURE_285.png,WRITER,5c6d0da2d5221b000101da81,18/03/1951,2020-07-09_21h30.03.320,proactive,2020.1.2,MacIntel,60,5f073de81c76c3308c0e4fb3,5f077e2e14d49e1697b08f11,1,,,,,,carrot,,,,,,,,,,,1,2,0,21,21,6,1,,,,,,,,,,,,,,,,,,,,,,,,,,,,,,,,,,,,,,,,,,,,,,,,,,,,,,,,,,,,,,,,,,,,,,
,,?,0.001,0,,,,,,stimuli/images/PICTURE_57.png,CASINO,5c6d0da2d5221b000101da81,18/03/1951,2020-07-09_21h30.03.320,proactive,2020.1.2,MacIntel,60,5f073de81c76c3308c0e4fb3,5f077e2e14d49e1697b08f11,1,,,,,,stamp,,,,,,,,,,,2,2,0,22,22,12,1,,,,,,,,,,,,,,,,,,,,,,,,,,,,,,,,,,,,,,,,,,,,,,,,,,,,,,,,,,,,,,,,,,,,,,
,,?,0,0,,,,,,stimuli/images/PICTURE_57.png,NATION,5c6d0da2d5221b000101da81,18/03/1951,2020-07-09_21h30.03.320,proactive,2020.1.2,MacIntel,60,5f073de81c76c3308c0e4fb3,5f077e2e14d49e1697b08f11,1,,,,,,stamp,,,,,,,,,,,3,2,0,23,23,21,1,,,,,,,,,,,,,,,,,,,,,,,,,,,,,,,,,,,,,,,,,,,,,,,,,,,,,,,,,,,,,,,,,,,,,,
,,?,0,0,,,,,,stimuli/images/PICTURE_160.png,HOTEL,5c6d0da2d5221b000101da81,18/03/1951,2020-07-09_21h30.03.320,proactive,2020.1.2,MacIntel,60,5f073de81c76c3308c0e4fb3,5f077e2e14d49e1697b08f11,1,,,,,,wheelbarrow,,,,,,,,,,,2,2,0,24,24,16,1,,,,,,,,,,,,,,,,,,,,,,,,,,,,,,,,,,,,,,,,,,,,,,,,,,,,,,,,,,,,,,,,,,,,,,
,,?,0.002,0,,,,,,stimuli/images/PICTURE_327.png,LEADER,5c6d0da2d5221b000101da81,18/03/1951,2020-07-09_21h30.03.320,proactive,2020.1.2,MacIntel,60,5f073de81c76c3308c0e4fb3,5f077e2e14d49e1697b08f11,1,,,,,,helmet,,,,,,,,,,,2,2,0,25,25,17,1,,,,,,,,,,,,,,,,,,,,,,,,,,,,,,,,,,,,,,,,,,,,,,,,,,,,,,,,,,,,,,,,,,,,,,
,,?,0,0,,,,,,stimuli/images/PICTURE_655.png,SALE,5c6d0da2d5221b000101da81,18/03/1951,2020-07-09_21h30.03.320,proactive,2020.1.2,MacIntel,60,5f073de81c76c3308c0e4fb3,5f077e2e14d49e1697b08f11,1,,,,,,megaphone,,,,,,,,,,,6,2,0,26,26,57,1,,,,,,,,,,,,,,,,,,,,,,,,,,,,,,,,,,,,,,,,,,,,,,,,,,,,,,,,,,,,,,,,,,,,,,
,,?,0.001,0,,,,,,stimuli/images/PICTURE_297.png,BODY,5c6d0da2d5221b000101da81,18/03/1951,2020-07-09_21h30.03.320,proactive,2020.1.2,MacIntel,60,5f073de81c76c3308c0e4fb3,5f077e2e14d49e1697b08f11,1,,,,,,aeroplane,,,,,,,,,,,6,2,0,27,27,51,1,,,,,,,,,,,,,,,,,,,,,,,,,,,,,,,,,,,,,,,,,,,,,,,,,,,,,,,,,,,,,,,,,,,,,,
,,?,0.001,0,,,,,,stimuli/images/PICTURE_692.png,DUDE,5c6d0da2d5221b000101da81,18/03/1951,2020-07-09_21h30.03.320,proactive,2020.1.2,MacIntel,60,5f073de81c76c3308c0e4fb3,5f077e2e14d49e1697b08f11,1,,,,,,cherry,,,,,,,,,,,5,2,0,28,28,47,1,,,,,,,,,,,,,,,,,,,,,,,,,,,,,,,,,,,,,,,,,,,,,,,,,,,,,,,,,,,,,,,,,,,,,,
,,?,0.001,0,,,,,,stimuli/images/PICTURE_509.png,APPLE,5c6d0da2d5221b000101da81,18/03/1951,2020-07-09_21h30.03.320,proactive,2020.1.2,MacIntel,60,5f073de81c76c3308c0e4fb3,5f077e2e14d49e1697b08f11,1,,,,,,telephone,,,,,,,,,,,4,2,0,29,29,38,1,,,,,,,,,,,,,,,,,,,,,,,,,,,,,,,,,,,,,,,,,,,,,,,,,,,,,,,,,,,,,,,,,,,,,,
,,?,0,0,,,,,,stimuli/images/PICTURE_688.png,CLOCK,5c6d0da2d5221b000101da81,18/03/1951,2020-07-09_21h30.03.320,proactive,2020.1.2,MacIntel,60,5f073de81c76c3308c0e4fb3,5f077e2e14d49e1697b08f11,1,,,,,,runner,,,,,,,,,,,5,2,0,30,30,42,1,,,,,,,,,,,,,,,,,,,,,,,,,,,,,,,,,,,,,,,,,,,,,,,,,,,,,,,,,,,,,,,,,,,,,,
,,COPS,2.691,1,,,,,,stimuli/images/PICTURE_452.png,COPS,5c6d0da2d5221b000101da81,18/03/1951,2020-07-09_21h30.03.320,proactive,2020.1.2,MacIntel,60,5f073de81c76c3308c0e4fb3,5f077e2e14d49e1697b08f11,1,,,,,,watch,,,,,,,,,,,1,2,0,31,31,0,1,,,,,,,,,,,,,,,,,,,,,,,,,,,,,,,,,,,,,,,,,,,,,,,,,,,,,,,,,,,,,,,,,,,,,,
,,TOILET,2.97,1,,,,,,stimuli/images/PICTURE_348.png,TOILET,5c6d0da2d5221b000101da81,18/03/1951,2020-07-09_21h30.03.320,proactive,2020.1.2,MacIntel,60,5f073de81c76c3308c0e4fb3,5f077e2e14d49e1697b08f11,1,,,,,,pepper,,,,,,,,,,,1,2,0,32,32,4,1,,,,,,,,,,,,,,,,,,,,,,,,,,,,,,,,,,,,,,,,,,,,,,,,,,,,,,,,,,,,,,,,,,,,,,
,,?,0.001,0,,,,,,stimuli/images/PICTURE_93.png,GIRL,5c6d0da2d5221b000101da81,18/03/1951,2020-07-09_21h30.03.320,proactive,2020.1.2,MacIntel,60,5f073de81c76c3308c0e4fb3,5f077e2e14d49e1697b08f11,1,,,,,,skateboard,,,,,,,,,,,4,2,0,33,33,31,1,,,,,,,,,,,,,,,,,,,,,,,,,,,,,,,,,,,,,,,,,,,,,,,,,,,,,,,,,,,,,,,,,,,,,,
,,?,0.001,0,,,,,,stimuli/images/PICTURE_453.png,FAMILY,5c6d0da2d5221b000101da81,18/03/1951,2020-07-09_21h30.03.320,proactive,2020.1.2,MacIntel,60,5f073de81c76c3308c0e4fb3,5f077e2e14d49e1697b08f11,1,,,,,,scissors,,,,,,,,,,,5,2,0,34,34,48,1,,,,,,,,,,,,,,,,,,,,,,,,,,,,,,,,,,,,,,,,,,,,,,,,,,,,,,,,,,,,,,,,,,,,,,
,,?,0,0,,,,,,stimuli/images/PICTURE_487.png,ROOF,5c6d0da2d5221b000101da81,18/03/1951,2020-07-09_21h30.03.320,proactive,2020.1.2,MacIntel,60,5f073de81c76c3308c0e4fb3,5f077e2e14d49e1697b08f11,1,,,,,,basket,,,,,,,,,,,6,2,0,35,35,50,1,,,,,,,,,,,,,,,,,,,,,,,,,,,,,,,,,,,,,,,,,,,,,,,,,,,,,,,,,,,,,,,,,,,,,,
,,?,0,0,,,,,,stimuli/images/PICTURE_654.png,YEAR,5c6d0da2d5221b000101da81,18/03/1951,2020-07-09_21h30.03.320,proactive,2020.1.2,MacIntel,60,5f073de81c76c3308c0e4fb3,5f077e2e14d49e1697b08f11,1,,,,,,pencil,,,,,,,,,,,5,2,0,36,36,41,1,,,,,,,,,,,,,,,,,,,,,,,,,,,,,,,,,,,,,,,,,,,,,,,,,,,,,,,,,,,,,,,,,,,,,,
,,?,0.001,0,,,,,,stimuli/images/PICTURE_509.png,BATH,5c6d0da2d5221b000101da81,18/03/1951,2020-07-09_21h30.03.320,proactive,2020.1.2,MacIntel,60,5f073de81c76c3308c0e4fb3,5f077e2e14d49e1697b08f11,1,,,,,,telephone,,,,,,,,,,,2,2,0,37,37,15,1,,,,,,,,,,,,,,,,,,,,,,,,,,,,,,,,,,,,,,,,,,,,,,,,,,,,,,,,,,,,,,,,,,,,,,
,,?,0,0,,,,,,stimuli/images/PICTURE_215.png,LEADER,5c6d0da2d5221b000101da81,18/03/1951,2020-07-09_21h30.03.320,proactive,2020.1.2,MacIntel,60,5f073de81c76c3308c0e4fb3,5f077e2e14d49e1697b08f11,1,,,,,,boot,,,,,,,,,,,5,2,0,38,38,43,1,,,,,,,,,,,,,,,,,,,,,,,,,,,,,,,,,,,,,,,,,,,,,,,,,,,,,,,,,,,,,,,,,,,,,,
,,?,0,0,,,,,,stimuli/images/PICTURE_470.png,MOMENT,5c6d0da2d5221b000101da81,18/03/1951,2020-07-09_21h30.03.320,proactive,2020.1.2,MacIntel,60,5f073de81c76c3308c0e4fb3,5f077e2e14d49e1697b08f11,1,,,,,,motorbike,,,,,,,,,,,5,2,0,39,39,40,1,,,,,,,,,,,,,,,,,,,,,,,,,,,,,,,,,,,,,,,,,,,,,,,,,,,,,,,,,,,,,,,,,,,,,,
,,?,0,0,,,,,,stimuli/images/PICTURE_296.png,CLOCK,5c6d0da2d5221b000101da81,18/03/1951,2020-07-09_21h30.03.320,proactive,2020.1.2,MacIntel,60,5f073de81c76c3308c0e4fb3,5f077e2e14d49e1697b08f11,1,,,,,,bolt,,,,,,,,,,,2,2,0,40,40,18,1,,,,,,,,,,,,,,,,,,,,,,,,,,,,,,,,,,,,,,,,,,,,,,,,,,,,,,,,,,,,,,,,,,,,,,
,,?,0,0,,,,,,stimuli/images/PICTURE_2.png,AREA,5c6d0da2d5221b000101da81,18/03/1951,2020-07-09_21h30.03.320,proactive,2020.1.2,MacIntel,60,5f073de81c76c3308c0e4fb3,5f077e2e14d49e1697b08f11,1,,,,,,tyre,,,,,,,,,,,4,2,0,41,41,32,1,,,,,,,,,,,,,,,,,,,,,,,,,,,,,,,,,,,,,,,,,,,,,,,,,,,,,,,,,,,,,,,,,,,,,,
,,?,0.001,0,,,,,,stimuli/images/PICTURE_708.png,VALLEY,5c6d0da2d5221b000101da81,18/03/1951,2020-07-09_21h30.03.320,proactive,2020.1.2,MacIntel,60,5f073de81c76c3308c0e4fb3,5f077e2e14d49e1697b08f11,1,,,,,,monkey,,,,,,,,,,,5,2,0,42,42,45,1,,,,,,,,,,,,,,,,,,,,,,,,,,,,,,,,,,,,,,,,,,,,,,,,,,,,,,,,,,,,,,,,,,,,,,
,,?,0.001,0,,,,,,stimuli/images/PICTURE_95.png,NIGHT,5c6d0da2d5221b000101da81,18/03/1951,2020-07-09_21h30.03.320,proactive,2020.1.2,MacIntel,60,5f073de81c76c3308c0e4fb3,5f077e2e14d49e1697b08f11,1,,,,,,suitcase,,,,,,,,,,,4,2,0,43,43,37,1,,,,,,,,,,,,,,,,,,,,,,,,,,,,,,,,,,,,,,,,,,,,,,,,,,,,,,,,,,,,,,,,,,,,,,
,,?,0,0,,,,,,stimuli/images/PICTURE_255.png,PENNY,5c6d0da2d5221b000101da81,18/03/1951,2020-07-09_21h30.03.320,proactive,2020.1.2,MacIntel,60,5f073de81c76c3308c0e4fb3,5f077e2e14d49e1697b08f11,1,,,,,,shovel,,,,,,,,,,,2,2,0,44,44,19,1,,,,,,,,,,,,,,,,,,,,,,,,,,,,,,,,,,,,,,,,,,,,,,,,,,,,,,,,,,,,,,,,,,,,,,
,,?,0.001,0,,,,,,stimuli/images/PICTURE_18.png,RIVER,5c6d0da2d5221b000101da81,18/03/1951,2020-07-09_21h30.03.320,proactive,2020.1.2,MacIntel,60,5f073de81c76c3308c0e4fb3,5f077e2e14d49e1697b08f11,1,,,,,,planet,,,,,,,,,,,3,2,0,45,45,22,1,,,,,,,,,,,,,,,,,,,,,,,,,,,,,,,,,,,,,,,,,,,,,,,,,,,,,,,,,,,,,,,,,,,,,,
,,?,0.001,0,,,,,,stimuli/images/PICTURE_667.png,GLASS,5c6d0da2d5221b000101da81,18/03/1951,2020-07-09_21h30.03.320,proactive,2020.1.2,MacIntel,60,5f073de81c76c3308c0e4fb3,5f077e2e14d49e1697b08f11,1,,,,,,daisy,,,,,,,,,,,3,2,0,46,46,27,1,,,,,,,,,,,,,,,,,,,,,,,,,,,,,,,,,,,,,,,,,,,,,,,,,,,,,,,,,,,,,,,,,,,,,,
,,?,0,0,,,,,,stimuli/images/PICTURE_564.png,PLENTY,5c6d0da2d5221b000101da81,18/03/1951,2020-07-09_21h30.03.320,proactive,2020.1.2,MacIntel,60,5f073de81c76c3308c0e4fb3,5f077e2e14d49e1697b08f11,1,,,,,,spoon,,,,,,,,,,,2,2,0,47,47,11,1,,,,,,,,,,,,,,,,,,,,,,,,,,,,,,,,,,,,,,,,,,,,,,,,,,,,,,,,,,,,,,,,,,,,,,
,,?,0,0,,,,,,stimuli/images/PICTURE_32.png,LETTER,5c6d0da2d5221b000101da81,18/03/1951,2020-07-09_21h30.03.320,proactive,2020.1.2,MacIntel,60,5f073de81c76c3308c0e4fb3,5f077e2e14d49e1697b08f11,1,,,,,,crown,,,,,,,,,,,6,2,0,48,48,56,1,,,,,,,,,,,,,,,,,,,,,,,,,,,,,,,,,,,,,,,,,,,,,,,,,,,,,,,,,,,,,,,,,,,,,,
,,?,0.001,0,,,,,,stimuli/images/PICTURE_504.png,HOUSE,5c6d0da2d5221b000101da81,18/03/1951,2020-07-09_21h30.03.320,proactive,2020.1.2,MacIntel,60,5f073de81c76c3308c0e4fb3,5f077e2e14d49e1697b08f11,1,,,,,,wheel,,,,,,,,,,,4,2,0,49,49,36,1,,,,,,,,,,,,,,,,,,,,,,,,,,,,,,,,,,,,,,,,,,,,,,,,,,,,,,,,,,,,,,,,,,,,,,
,,?,0.001,0,,,,,,stimuli/images/PICTURE_57.png,CANDY,5c6d0da2d5221b000101da81,18/03/1951,2020-07-09_21h30.03.320,proactive,2020.1.2,MacIntel,60,5f073de81c76c3308c0e4fb3,5f077e2e14d49e1697b08f11,1,,,,,,stamp,,,,,,,,,,,6,2,0,50,50,52,1,,,,,,,,,,,,,,,,,,,,,,,,,,,,,,,,,,,,,,,,,,,,,,,,,,,,,,,,,,,,,,,,,,,,,,
,,?,0.001,0,,,,,,stimuli/images/PICTURE_68.png,KIND,5c6d0da2d5221b000101da81,18/03/1951,2020-07-09_21h30.03.320,proactive,2020.1.2,MacIntel,60,5f073de81c76c3308c0e4fb3,5f077e2e14d49e1697b08f11,1,,,,,,candle,,,,,,,,,,,3,2,0,51,51,23,1,,,,,,,,,,,,,,,,,,,,,,,,,,,,,,,,,,,,,,,,,,,,,,,,,,,,,,,,,,,,,,,,,,,,,,
,,?,0.001,0,,,,,,stimuli/images/PICTURE_750.png,POLICY,5c6d0da2d5221b000101da81,18/03/1951,2020-07-09_21h30.03.320,proactive,2020.1.2,MacIntel,60,5f073de81c76c3308c0e4fb3,5f077e2e14d49e1697b08f11,1,,,,,,kettle,,,,,,,,,,,5,2,0,52,52,44,1,,,,,,,,,,,,,,,,,,,,,,,,,,,,,,,,,,,,,,,,,,,,,,,,,,,,,,,,,,,,,,,,,,,,,,
,,SAIL,2.842,0,,,,,,stimuli/images/PICTURE_123.png,SALE,5c6d0da2d5221b000101da81,18/03/1951,2020-07-09_21h30.03.320,proactive,2020.1.2,MacIntel,60,5f073de81c76c3308c0e4fb3,5f077e2e14d49e1697b08f11,1,,,,,,dart,,,,,,,,,,,1,2,0,53,53,8,1,,,,,,,,,,,,,,,,,,,,,,,,,,,,,,,,,,,,,,,,,,,,,,,,,,,,,,,,,,,,,,,,,,,,,,
,,SHOTS,3.72,1,,,,,,stimuli/images/PICTURE_509.png,SHOTS,5c6d0da2d5221b000101da81,18/03/1951,2020-07-09_21h30.03.320,proactive,2020.1.2,MacIntel,60,5f073de81c76c3308c0e4fb3,5f077e2e14d49e1697b08f11,1,,,,,,telephone,,,,,,,,,,,1,2,0,54,54,7,1,,,,,,,,,,,,,,,,,,,,,,,,,,,,,,,,,,,,,,,,,,,,,,,,,,,,,,,,,,,,,,,,,,,,,,
,,?,0.001,0,,,,,,stimuli/images/PICTURE_677.png,FAMILY,5c6d0da2d5221b000101da81,18/03/1951,2020-07-09_21h30.03.320,proactive,2020.1.2,MacIntel,60,5f073de81c76c3308c0e4fb3,5f077e2e14d49e1697b08f11,1,,,,,,map,,,,,,,,,,,6,2,0,55,55,53,1,,,,,,,,,,,,,,,,,,,,,,,,,,,,,,,,,,,,,,,,,,,,,,,,,,,,,,,,,,,,,,,,,,,,,,
,,?,0,0,,,,,,stimuli/images/PICTURE_314.png,SPEECH,5c6d0da2d5221b000101da81,18/03/1951,2020-07-09_21h30.03.320,proactive,2020.1.2,MacIntel,60,5f073de81c76c3308c0e4fb3,5f077e2e14d49e1697b08f11,1,,,,,,perfume,,,,,,,,,,,4,2,0,56,56,35,1,,,,,,,,,,,,,,,,,,,,,,,,,,,,,,,,,,,,,,,,,,,,,,,,,,,,,,,,,,,,,,,,,,,,,,
,,FLESH,5.02,1,,,,,,stimuli/images/PICTURE_311.png,FLESH,5c6d0da2d5221b000101da81,18/03/1951,2020-07-09_21h30.03.320,proactive,2020.1.2,MacIntel,60,5f073de81c76c3308c0e4fb3,5f077e2e14d49e1697b08f11,1,,,,,,razor,,,,,,,,,,,1,2,0,57,57,3,1,,,,,,,,,,,,,,,,,,,,,,,,,,,,,,,,,,,,,,,,,,,,,,,,,,,,,,,,,,,,,,,,,,,,,,
,,?,0.001,0,,,,,,stimuli/images/PICTURE_348.png,DUDE,5c6d0da2d5221b000101da81,18/03/1951,2020-07-09_21h30.03.320,proactive,2020.1.2,MacIntel,60,5f073de81c76c3308c0e4fb3,5f077e2e14d49e1697b08f11,1,,,,,,pepper,,,,,,,,,,,6,2,0,58,58,59,1,,,,,,,,,,,,,,,,,,,,,,,,,,,,,,,,,,,,,,,,,,,,,,,,,,,,,,,,,,,,,,,,,,,,,,
,,?,0,0,,,,,,stimuli/images/PICTURE_654.png,COPS,5c6d0da2d5221b000101da81,18/03/1951,2020-07-09_21h30.03.320,proactive,2020.1.2,MacIntel,60,5f073de81c76c3308c0e4fb3,5f077e2e14d49e1697b08f11,1,,,,,,pencil,,,,,,,,,,,2,2,0,59,59,10,1,,,,,,,,,,,,,,,,,,,,,,,,,,,,,,,,,,,,,,,,,,,,,,,,,,,,,,,,,,,,,,,,,,,,,,
,,,,,,,,,,,,5c6d0da2d5221b000101da81,18/03/1951,2020-07-09_21h30.03.320,proactive,2020.1.2,MacIntel,60,5f073de81c76c3308c0e4fb3,5f077e2e14d49e1697b08f11,1,,,,,,,,,,,,,,,,,,,,,,,,0,0,0,2,1,stimuli/learn-block3.csv,,,,,,,,,,,,,,,,,,,,,,,,,,,,,,,,,,,,,,,,,,,,,,,,,,,,,,,,,,,,,,,,
,,,,,,,,,,stimuli/images/PICTURE_744.png,WEAPON,5c6d0da2d5221b000101da81,18/03/1951,2020-07-09_21h30.03.320,proactive,2020.1.2,MacIntel,60,5f073de81c76c3308c0e4fb3,5f077e2e14d49e1697b08f11,1,,,,,,ring,,,,,,0,0,0,50,1,6,1,,,,,,,,,,,,,,,,,,,,,,,,,,,,,,,,,,,,,,,,,,,,,,,,,,,,,,,,,,,,,,,,,,,,,,,,,,,
,,,,,,,,,,stimuli/images/PICTURE_487.png,GIRL,5c6d0da2d5221b000101da81,18/03/1951,2020-07-09_21h30.03.320,proactive,2020.1.2,MacIntel,60,5f073de81c76c3308c0e4fb3,5f077e2e14d49e1697b08f11,1,,,,,,basket,,,,,,0,1,1,45,1,5,1,,,,,,,,,,,,,,,,,,,,,,,,,,,,,,,,,,,,,,,,,,,,,,,,,,,,,,,,,,,,,,,,,,,,,,,,,,,
,,,,,,,,,,stimuli/images/PICTURE_285.png,LIFE,5c6d0da2d5221b000101da81,18/03/1951,2020-07-09_21h30.03.320,proactive,2020.1.2,MacIntel,60,5f073de81c76c3308c0e4fb3,5f077e2e14d49e1697b08f11,1,,,,,,carrot,,,,,,0,2,2,33,1,4,1,,,,,,,,,,,,,,,,,,,,,,,,,,,,,,,,,,,,,,,,,,,,,,,,,,,,,,,,,,,,,,,,,,,,,,,,,,,
,,,,,,,,,,stimuli/images/PICTURE_95.png,HONEY,5c6d0da2d5221b000101da81,18/03/1951,2020-07-09_21h30.03.320,proactive,2020.1.2,MacIntel,60,5f073de81c76c3308c0e4fb3,5f077e2e14d49e1697b08f11,1,,,,,,suitcase,,,,,,0,3,3,44,1,5,1,,,,,,,,,,,,,,,,,,,,,,,,,,,,,,,,,,,,,,,,,,,,,,,,,,,,,,,,,,,,,,,,,,,,,,,,,,,
,,,,,,,,,,stimuli/images/PICTURE_491.png,GLASS,5c6d0da2d5221b000101da81,18/03/1951,2020-07-09_21h30.03.320,proactive,2020.1.2,MacIntel,60,5f073de81c76c3308c0e4fb3,5f077e2e14d49e1697b08f11,1,,,,,,rug,,,,,,0,4,4,14,1,2,1,,,,,,,,,,,,,,,,,,,,,,,,,,,,,,,,,,,,,,,,,,,,,,,,,,,,,,,,,,,,,,,,,,,,,,,,,,,
,,,,,,,,,,stimuli/images/PICTURE_42.png,BOYS,5c6d0da2d5221b000101da81,18/03/1951,2020-07-09_21h30.03.320,proactive,2020.1.2,MacIntel,60,5f073de81c76c3308c0e4fb3,5f077e2e14d49e1697b08f11,1,,,,,,pear,,,,,,0,5,5,55,1,6,1,,,,,,,,,,,,,,,,,,,,,,,,,,,,,,,,,,,,,,,,,,,,,,,,,,,,,,,,,,,,,,,,,,,,,,,,,,,
,,,,,,,,,,stimuli/images/PICTURE_203.png,NIGHT,5c6d0da2d5221b000101da81,18/03/1951,2020-07-09_21h30.03.320,proactive,2020.1.2,MacIntel,60,5f073de81c76c3308c0e4fb3,5f077e2e14d49e1697b08f11,1,,,,,,cap,,,,,,0,6,6,2,1,1,1,,,,,,,,,,,,,,,,,,,,,,,,,,,,,,,,,,,,,,,,,,,,,,,,,,,,,,,,,,,,,,,,,,,,,,,,,,,
,,,,,,,,,,stimuli/images/PICTURE_380.png,CANDY,5c6d0da2d5221b000101da81,18/03/1951,2020-07-09_21h30.03.320,proactive,2020.1.2,MacIntel,60,5f073de81c76c3308c0e4fb3,5f077e2e14d49e1697b08f11,1,,,,,,gorilla,,,,,,0,7,7,0,1,1,1,,,,,,,,,,,,,,,,,,,,,,,,,,,,,,,,,,,,,,,,,,,,,,,,,,,,,,,,,,,,,,,,,,,,,,,,,,,
,,,,,,,,,,stimuli/images/PICTURE_403.png,RIVER,5c6d0da2d5221b000101da81,18/03/1951,2020-07-09_21h30.03.320,proactive,2020.1.2,MacIntel,60,5f073de81c76c3308c0e4fb3,5f077e2e14d49e1697b08f11,1,,,,,,cathedral,,,,,,0,8,8,40,1,5,1,,,,,,,,,,,,,,,,,,,,,,,,,,,,,,,,,,,,,,,,,,,,,,,,,,,,,,,,,,,,,,,,,,,,,,,,,,,
,,,,,,,,,,stimuli/images/PICTURE_108.png,FLIGHT,5c6d0da2d5221b000101da81,18/03/1951,2020-07-09_21h30.03.320,proactive,2020.1.2,MacIntel,60,5f073de81c76c3308c0e4fb3,5f077e2e14d49e1697b08f11,1,,,,,,calendar,,,,,,0,9,9,59,1,6,1,,,,,,,,,,,,,,,,,,,,,,,,,,,,,,,,,,,,,,,,,,,,,,,,,,,,,,,,,,,,,,,,,,,,,,,,,,,
,,,,,,,,,,stimuli/images/PICTURE_57.png,MOMENT,5c6d0da2d5221b000101da81,18/03/1951,2020-07-09_21h30.03.320,proactive,2020.1.2,MacIntel,60,5f073de81c76c3308c0e4fb3,5f077e2e14d49e1697b08f11,1,,,,,,stamp,,,,,,0,10,10,37,1,4,1,,,,,,,,,,,,,,,,,,,,,,,,,,,,,,,,,,,,,,,,,,,,,,,,,,,,,,,,,,,,,,,,,,,,,,,,,,,
,,,,,,,,,,stimuli/images/PICTURE_340.png,VALLEY,5c6d0da2d5221b000101da81,18/03/1951,2020-07-09_21h30.03.320,proactive,2020.1.2,MacIntel,60,5f073de81c76c3308c0e4fb3,5f077e2e14d49e1697b08f11,1,,,,,,mirror,,,,,,0,11,11,54,1,6,1,,,,,,,,,,,,,,,,,,,,,,,,,,,,,,,,,,,,,,,,,,,,,,,,,,,,,,,,,,,,,,,,,,,,,,,,,,,
,,,,,,,,,,stimuli/images/PICTURE_675.png,SALE,5c6d0da2d5221b000101da81,18/03/1951,2020-07-09_21h30.03.320,proactive,2020.1.2,MacIntel,60,5f073de81c76c3308c0e4fb3,5f077e2e14d49e1697b08f11,1,,,,,,windmill,,,,,,0,12,12,47,1,5,1,,,,,,,,,,,,,,,,,,,,,,,,,,,,,,,,,,,,,,,,,,,,,,,,,,,,,,,,,,,,,,,,,,,,,,,,,,,
,,,,,,,,,,stimuli/images/PICTURE_85.png,NATION,5c6d0da2d5221b000101da81,18/03/1951,2020-07-09_21h30.03.320,proactive,2020.1.2,MacIntel,60,5f073de81c76c3308c0e4fb3,5f077e2e14d49e1697b08f11,1,,,,,,diamond,,,,,,0,13,13,5,1,1,1,,,,,,,,,,,,,,,,,,,,,,,,,,,,,,,,,,,,,,,,,,,,,,,,,,,,,,,,,,,,,,,,,,,,,,,,,,,
,,,,,,,,,,stimuli/images/PICTURE_380.png,HONEY,5c6d0da2d5221b000101da81,18/03/1951,2020-07-09_21h30.03.320,proactive,2020.1.2,MacIntel,60,5f073de81c76c3308c0e4fb3,5f077e2e14d49e1697b08f11,1,,,,,,gorilla,,,,,,0,14,14,19,1,2,1,,,,,,,,,,,,,,,,,,,,,,,,,,,,,,,,,,,,,,,,,,,,,,,,,,,,,,,,,,,,,,,,,,,,,,,,,,,
,,,,,,,,,,stimuli/images/PICTURE_655.png,TOILET,5c6d0da2d5221b000101da81,18/03/1951,2020-07-09_21h30.03.320,proactive,2020.1.2,MacIntel,60,5f073de81c76c3308c0e4fb3,5f077e2e14d49e1697b08f11,1,,,,,,megaphone,,,,,,0,15,15,12,1,2,1,,,,,,,,,,,,,,,,,,,,,,,,,,,,,,,,,,,,,,,,,,,,,,,,,,,,,,,,,,,,,,,,,,,,,,,,,,,
,,,,,,,,,,stimuli/images/PICTURE_504.png,COPS,5c6d0da2d5221b000101da81,18/03/1951,2020-07-09_21h30.03.320,proactive,2020.1.2,MacIntel,60,5f073de81c76c3308c0e4fb3,5f077e2e14d49e1697b08f11,1,,,,,,wheel,,,,,,0,16,16,52,1,6,1,,,,,,,,,,,,,,,,,,,,,,,,,,,,,,,,,,,,,,,,,,,,,,,,,,,,,,,,,,,,,,,,,,,,,,,,,,,
,,,,,,,,,,stimuli/images/PICTURE_383.png,WRITER,5c6d0da2d5221b000101da81,18/03/1951,2020-07-09_21h30.03.320,proactive,2020.1.2,MacIntel,60,5f073de81c76c3308c0e4fb3,5f077e2e14d49e1697b08f11,1,,,,,,coin,,,,,,0,17,17,28,1,3,1,,,,,,,,,,,,,,,,,,,,,,,,,,,,,,,,,,,,,,,,,,,,,,,,,,,,,,,,,,,,,,,,,,,,,,,,,,,
,,,,,,,,,,stimuli/images/PICTURE_340.png,LETTER,5c6d0da2d5221b000101da81,18/03/1951,2020-07-09_21h30.03.320,proactive,2020.1.2,MacIntel,60,5f073de81c76c3308c0e4fb3,5f077e2e14d49e1697b08f11,1,,,,,,mirror,,,,,,0,18,18,24,1,3,1,,,,,,,,,,,,,,,,,,,,,,,,,,,,,,,,,,,,,,,,,,,,,,,,,,,,,,,,,,,,,,,,,,,,,,,,,,,
,,,,,,,,,,stimuli/images/PICTURE_504.png,YEAR,5c6d0da2d5221b000101da81,18/03/1951,2020-07-09_21h30.03.320,proactive,2020.1.2,MacIntel,60,5f073de81c76c3308c0e4fb3,5f077e2e14d49e1697b08f11,1,,,,,,wheel,,,,,,0,19,19,13,1,2,1,,,,,,,,,,,,,,,,,,,,,,,,,,,,,,,,,,,,,,,,,,,,,,,,,,,,,,,,,,,,,,,,,,,,,,,,,,,
,,,,,,,,,,stimuli/images/PICTURE_296.png,LIFE,5c6d0da2d5221b000101da81,18/03/1951,2020-07-09_21h30.03.320,proactive,2020.1.2,MacIntel,60,5f073de81c76c3308c0e4fb3,5f077e2e14d49e1697b08f11,1,,,,,,bolt,,,,,,0,20,20,57,1,6,1,,,,,,,,,,,,,,,,,,,,,,,,,,,,,,,,,,,,,,,,,,,,,,,,,,,,,,,,,,,,,,,,,,,,,,,,,,,
,,,,,,,,,,stimuli/images/PICTURE_203.png,GODS,5c6d0da2d5221b000101da81,18/03/1951,2020-07-09_21h30.03.320,proactive,2020.1.2,MacIntel,60,5f073de81c76c3308c0e4fb3,5f077e2e14d49e1697b08f11,1,,,,,,cap,,,,,,0,21,21,30,1,4,1,,,,,,,,,,,,,,,,,,,,,,,,,,,,,,,,,,,,,,,,,,,,,,,,,,,,,,,,,,,,,,,,,,,,,,,,,,,
,,,,,,,,,,stimuli/images/PICTURE_2.png,FLIGHT,5c6d0da2d5221b000101da81,18/03/1951,2020-07-09_21h30.03.320,proactive,2020.1.2,MacIntel,60,5f073de81c76c3308c0e4fb3,5f077e2e14d49e1697b08f11,1,,,,,,tyre,,,,,,0,22,22,15,1,2,1,,,,,,,,,,,,,,,,,,,,,,,,,,,,,,,,,,,,,,,,,,,,,,,,,,,,,,,,,,,,,,,,,,,,,,,,,,,
,,,,,,,,,,stimuli/images/PICTURE_296.png,LOTS,5c6d0da2d5221b000101da81,18/03/1951,2020-07-09_21h30.03.320,proactive,2020.1.2,MacIntel,60,5f073de81c76c3308c0e4fb3,5f077e2e14d49e1697b08f11,1,,,,,,bolt,,,,,,0,23,23,9,1,1,1,,,,,,,,,,,,,,,,,,,,,,,,,,,,,,,,,,,,,,,,,,,,,,,,,,,,,,,,,,,,,,,,,,,,,,,,,,,
,,,,,,,,,,stimuli/images/PICTURE_469.png,AGENT,5c6d0da2d5221b000101da81,18/03/1951,2020-07-09_21h30.03.320,proactive,2020.1.2,MacIntel,60,5f073de81c76c3308c0e4fb3,5f077e2e14d49e1697b08f11,1,,,,,,stool,,,,,,0,24,24,16,1,2,1,,,,,,,,,,,,,,,,,,,,,,,,,,,,,,,,,,,,,,,,,,,,,,,,,,,,,,,,,,,,,,,,,,,,,,,,,,,
,,,,,,,,,,stimuli/images/PICTURE_297.png,RIVER,5c6d0da2d5221b000101da81,18/03/1951,2020-07-09_21h30.03.320,proactive,2020.1.2,MacIntel,60,5f073de81c76c3308c0e4fb3,5f077e2e14d49e1697b08f11,1,,,,,,aeroplane,,,,,,0,25,25,39,1,4,1,,,,,,,,,,,,,,,,,,,,,,,,,,,,,,,,,,,,,,,,,,,,,,,,,,,,,,,,,,,,,,,,,,,,,,,,,,,
,,,,,,,,,,stimuli/images/PICTURE_327.png,SERIES,5c6d0da2d5221b000101da81,18/03/1951,2020-07-09_21h30.03.320,proactive,2020.1.2,MacIntel,60,5f073de81c76c3308c0e4fb3,5f077e2e14d49e1697b08f11,1,,,,,,helmet,,,,,,0,26,26,3,1,1,1,,,,,,,,,,,,,,,,,,,,,,,,,,,,,,,,,,,,,,,,,,,,,,,,,,,,,,,,,,,,,,,,,,,,,,,,,,,
,,,,,,,,,,stimuli/images/PICTURE_405.png,YEAR,5c6d0da2d5221b000101da81,18/03/1951,2020-07-09_21h30.03.320,proactive,2020.1.2,MacIntel,60,5f073de81c76c3308c0e4fb3,5f077e2e14d49e1697b08f11,1,,,,,,anchor,,,,,,0,27,27,34,1,4,1,,,,,,,,,,,,,,,,,,,,,,,,,,,,,,,,,,,,,,,,,,,,,,,,,,,,,,,,,,,,,,,,,,,,,,,,,,,
,,,,,,,,,,stimuli/images/PICTURE_403.png,TOILET,5c6d0da2d5221b000101da81,18/03/1951,2020-07-09_21h30.03.320,proactive,2020.1.2,MacIntel,60,5f073de81c76c3308c0e4fb3,5f077e2e14d49e1697b08f11,1,,,,,,cathedral,,,,,,0,28,28,25,1,3,1,,,,,,,,,,,,,,,,,,,,,,,,,,,,,,,,,,,,,,,,,,,,,,,,,,,,,,,,,,,,,,,,,,,,,,,,,,,
,,,,,,,,,,stimuli/images/PICTURE_467.png,POLICY,5c6d0da2d5221b000101da81,18/03/1951,2020-07-09_21h30.03.320,proactive,2020.1.2,MacIntel,60,5f073de81c76c3308c0e4fb3,5f077e2e14d49e1697b08f11,1,,,,,,peg,,,,,,0,29,29,53,1,6,1,,,,,,,,,,,,,,,,,,,,,,,,,,,,,,,,,,,,,,,,,,,,,,,,,,,,,,,,,,,,,,,,,,,,,,,,,,,
,,,,,,,,,,stimuli/images/PICTURE_32.png,KIND,5c6d0da2d5221b000101da81,18/03/1951,2020-07-09_21h30.03.320,proactive,2020.1.2,MacIntel,60,5f073de81c76c3308c0e4fb3,5f077e2e14d49e1697b08f11,1,,,,,,crown,,,,,,0,30,30,35,1,4,1,,,,,,,,,,,,,,,,,,,,,,,,,,,,,,,,,,,,,,,,,,,,,,,,,,,,,,,,,,,,,,,,,,,,,,,,,,,
,,,,,,,,,,stimuli/images/PICTURE_449.png,DUDE,5c6d0da2d5221b000101da81,18/03/1951,2020-07-09_21h30.03.320,proactive,2020.1.2,MacIntel,60,5f073de81c76c3308c0e4fb3,5f077e2e14d49e1697b08f11,1,,,,,,bench,,,,,,0,31,31,17,1,2,1,,,,,,,,,,,,,,,,,,,,,,,,,,,,,,,,,,,,,,,,,,,,,,,,,,,,,,,,,,,,,,,,,,,,,,,,,,,
,,,,,,,,,,stimuli/images/PICTURE_654.png,MONTH,5c6d0da2d5221b000101da81,18/03/1951,2020-07-09_21h30.03.320,proactive,2020.1.2,MacIntel,60,5f073de81c76c3308c0e4fb3,5f077e2e14d49e1697b08f11,1,,,,,,pencil,,,,,,0,32,32,29,1,3,1,,,,,,,,,,,,,,,,,,,,,,,,,,,,,,,,,,,,,,,,,,,,,,,,,,,,,,,,,,,,,,,,,,,,,,,,,,,
,,,,,,,,,,stimuli/images/PICTURE_33.png,FRIEND,5c6d0da2d5221b000101da81,18/03/1951,2020-07-09_21h30.03.320,proactive,2020.1.2,MacIntel,60,5f073de81c76c3308c0e4fb3,5f077e2e14d49e1697b08f11,1,,,,,,frame,,,,,,0,33,33,8,1,1,1,,,,,,,,,,,,,,,,,,,,,,,,,,,,,,,,,,,,,,,,,,,,,,,,,,,,,,,,,,,,,,,,,,,,,,,,,,,
,,,,,,,,,,stimuli/images/PICTURE_491.png,RIVER,5c6d0da2d5221b000101da81,18/03/1951,2020-07-09_21h30.03.320,proactive,2020.1.2,MacIntel,60,5f073de81c76c3308c0e4fb3,5f077e2e14d49e1697b08f11,1,,,,,,rug,,,,,,0,34,34,6,1,1,1,,,,,,,,,,,,,,,,,,,,,,,,,,,,,,,,,,,,,,,,,,,,,,,,,,,,,,,,,,,,,,,,,,,,,,,,,,,
,,,,,,,,,,stimuli/images/PICTURE_383.png,SERIES,5c6d0da2d5221b000101da81,18/03/1951,2020-07-09_21h30.03.320,proactive,2020.1.2,MacIntel,60,5f073de81c76c3308c0e4fb3,5f077e2e14d49e1697b08f11,1,,,,,,coin,,,,,,0,35,35,46,1,5,1,,,,,,,,,,,,,,,,,,,,,,,,,,,,,,,,,,,,,,,,,,,,,,,,,,,,,,,,,,,,,,,,,,,,,,,,,,,
,,,,,,,,,,stimuli/images/PICTURE_667.png,RIVER,5c6d0da2d5221b000101da81,18/03/1951,2020-07-09_21h30.03.320,proactive,2020.1.2,MacIntel,60,5f073de81c76c3308c0e4fb3,5f077e2e14d49e1697b08f11,1,,,,,,daisy,,,,,,0,36,36,10,1,2,1,,,,,,,,,,,,,,,,,,,,,,,,,,,,,,,,,,,,,,,,,,,,,,,,,,,,,,,,,,,,,,,,,,,,,,,,,,,
,,,,,,,,,,stimuli/images/PICTURE_564.png,BATH,5c6d0da2d5221b000101da81,18/03/1951,2020-07-09_21h30.03.320,proactive,2020.1.2,MacIntel,60,5f073de81c76c3308c0e4fb3,5f077e2e14d49e1697b08f11,1,,,,,,spoon,,,,,,0,37,37,26,1,3,1,,,,,,,,,,,,,,,,,,,,,,,,,,,,,,,,,,,,,,,,,,,,,,,,,,,,,,,,,,,,,,,,,,,,,,,,,,,
,,,,,,,,,,stimuli/images/PICTURE_405.png,PLENTY,5c6d0da2d5221b000101da81,18/03/1951,2020-07-09_21h30.03.320,proactive,2020.1.2,MacIntel,60,5f073de81c76c3308c0e4fb3,5f077e2e14d49e1697b08f11,1,,,,,,anchor,,,,,,0,38,38,23,1,3,1,,,,,,,,,,,,,,,,,,,,,,,,,,,,,,,,,,,,,,,,,,,,,,,,,,,,,,,,,,,,,,,,,,,,,,,,,,,
,,,,,,,,,,stimuli/images/PICTURE_327.png,CASINO,5c6d0da2d5221b000101da81,18/03/1951,2020-07-09_21h30.03.320,proactive,2020.1.2,MacIntel,60,5f073de81c76c3308c0e4fb3,5f077e2e14d49e1697b08f11,1,,,,,,helmet,,,,,,0,39,39,20,1,3,1,,,,,,,,,,,,,,,,,,,,,,,,,,,,,,,,,,,,,,,,,,,,,,,,,,,,,,,,,,,,,,,,,,,,,,,,,,,
,,,,,,,,,,stimuli/images/PICTURE_147.png,YEAR,5c6d0da2d5221b000101da81,18/03/1951,2020-07-09_21h30.03.320,proactive,2020.1.2,MacIntel,60,5f073de81c76c3308c0e4fb3,5f077e2e14d49e1697b08f11,1,,,,,,hanger,,,,,,0,40,40,21,1,3,1,,,,,,,,,,,,,,,,,,,,,,,,,,,,,,,,,,,,,,,,,,,,,,,,,,,,,,,,,,,,,,,,,,,,,,,,,,,
,,,,,,,,,,stimuli/images/PICTURE_95.png,MILLER,5c6d0da2d5221b000101da81,18/03/1951,2020-07-09_21h30.03.320,proactive,2020.1.2,MacIntel,60,5f073de81c76c3308c0e4fb3,5f077e2e14d49e1697b08f11,1,,,,,,suitcase,,,,,,0,41,41,56,1,6,1,,,,,,,,,,,,,,,,,,,,,,,,,,,,,,,,,,,,,,,,,,,,,,,,,,,,,,,,,,,,,,,,,,,,,,,,,,,
,,,,,,,,,,stimuli/images/PICTURE_147.png,WOMEN,5c6d0da2d5221b000101da81,18/03/1951,2020-07-09_21h30.03.320,proactive,2020.1.2,MacIntel,60,5f073de81c76c3308c0e4fb3,5f077e2e14d49e1697b08f11,1,,,,,,hanger,,,,,,0,42,42,7,1,1,1,,,,,,,,,,,,,,,,,,,,,,,,,,,,,,,,,,,,,,,,,,,,,,,,,,,,,,,,,,,,,,,,,,,,,,,,,,,
,,,,,,,,,,stimuli/images/PICTURE_403.png,WRITER,5c6d0da2d5221b000101da81,18/03/1951,2020-07-09_21h30.03.320,proactive,2020.1.2,MacIntel,60,5f073de81c76c3308c0e4fb3,5f077e2e14d49e1697b08f11,1,,,,,,cathedral,,,,,,0,43,43,31,1,4,1,,,,,,,,,,,,,,,,,,,,,,,,,,,,,,,,,,,,,,,,,,,,,,,,,,,,,,,,,,,,,,,,,,,,,,,,,,,
,,,,,,,,,,stimuli/images/PICTURE_85.png,TOILET,5c6d0da2d5221b000101da81,18/03/1951,2020-07-09_21h30.03.320,proactive,2020.1.2,MacIntel,60,5f073de81c76c3308c0e4fb3,5f077e2e14d49e1697b08f11,1,,,,,,diamond,,,,,,0,44,44,48,1,5,1,,,,,,,,,,,,,,,,,,,,,,,,,,,,,,,,,,,,,,,,,,,,,,,,,,,,,,,,,,,,,,,,,,,,,,,,,,,
,,,,,,,,,,stimuli/images/PICTURE_108.png,POLICY,5c6d0da2d5221b000101da81,18/03/1951,2020-07-09_21h30.03.320,proactive,2020.1.2,MacIntel,60,5f073de81c76c3308c0e4fb3,5f077e2e14d49e1697b08f11,1,,,,,,calendar,,,,,,0,45,45,22,1,3,1,,,,,,,,,,,,,,,,,,,,,,,,,,,,,,,,,,,,,,,,,,,,,,,,,,,,,,,,,,,,,,,,,,,,,,,,,,,
,,,,,,,,,,stimuli/images/PICTURE_68.png,ROOF,5c6d0da2d5221b000101da81,18/03/1951,2020-07-09_21h30.03.320,proactive,2020.1.2,MacIntel,60,5f073de81c76c3308c0e4fb3,5f077e2e14d49e1697b08f11,1,,,,,,candle,,,,,,0,46,46,38,1,4,1,,,,,,,,,,,,,,,,,,,,,,,,,,,,,,,,,,,,,,,,,,,,,,,,,,,,,,,,,,,,,,,,,,,,,,,,,,,
,,,,,,,,,,stimuli/images/PICTURE_677.png,APPLE,5c6d0da2d5221b000101da81,18/03/1951,2020-07-09_21h30.03.320,proactive,2020.1.2,MacIntel,60,5f073de81c76c3308c0e4fb3,5f077e2e14d49e1697b08f11,1,,,,,,map,,,,,,0,47,47,43,1,5,1,,,,,,,,,,,,,,,,,,,,,,,,,,,,,,,,,,,,,,,,,,,,,,,,,,,,,,,,,,,,,,,,,,,,,,,,,,,
,,,,,,,,,,stimuli/images/PICTURE_685.png,PENNY,5c6d0da2d5221b000101da81,18/03/1951,2020-07-09_21h30.03.320,proactive,2020.1.2,MacIntel,60,5f073de81c76c3308c0e4fb3,5f077e2e14d49e1697b08f11,1,,,,,,goose,,,,,,0,48,48,4,1,1,1,,,,,,,,,,,,,,,,,,,,,,,,,,,,,,,,,,,,,,,,,,,,,,,,,,,,,,,,,,,,,,,,,,,,,,,,,,,
,,,,,,,,,,stimuli/images/PICTURE_95.png,BOYS,5c6d0da2d5221b000101da81,18/03/1951,2020-07-09_21h30.03.320,proactive,2020.1.2,MacIntel,60,5f073de81c76c3308c0e4fb3,5f077e2e14d49e1697b08f11,1,,,,,,suitcase,,,,,,0,49,49,1,1,1,1,,,,,,,,,,,,,,,,,,,,,,,,,,,,,,,,,,,,,,,,,,,,,,,,,,,,,,,,,,,,,,,,,,,,,,,,,,,
,,,,,,,,,,stimuli/images/PICTURE_308.png,FAMILY,5c6d0da2d5221b000101da81,18/03/1951,2020-07-09_21h30.03.320,proactive,2020.1.2,MacIntel,60,5f073de81c76c3308c0e4fb3,5f077e2e14d49e1697b08f11,1,,,,,,dice,,,,,,0,50,50,36,1,4,1,,,,,,,,,,,,,,,,,,,,,,,,,,,,,,,,,,,,,,,,,,,,,,,,,,,,,,,,,,,,,,,,,,,,,,,,,,,
,,,,,,,,,,stimuli/images/PICTURE_32.png,PILLS,5c6d0da2d5221b000101da81,18/03/1951,2020-07-09_21h30.03.320,proactive,2020.1.2,MacIntel,60,5f073de81c76c3308c0e4fb3,5f077e2e14d49e1697b08f11,1,,,,,,crown,,,,,,0,51,51,18,1,2,1,,,,,,,,,,,,,,,,,,,,,,,,,,,,,,,,,,,,,,,,,,,,,,,,,,,,,,,,,,,,,,,,,,,,,,,,,,,
,,,,,,,,,,stimuli/images/PICTURE_68.png,MILE,5c6d0da2d5221b000101da81,18/03/1951,2020-07-09_21h30.03.320,proactive,2020.1.2,MacIntel,60,5f073de81c76c3308c0e4fb3,5f077e2e14d49e1697b08f11,1,,,,,,candle,,,,,,0,52,52,51,1,6,1,,,,,,,,,,,,,,,,,,,,,,,,,,,,,,,,,,,,,,,,,,,,,,,,,,,,,,,,,,,,,,,,,,,,,,,,,,,
,,,,,,,,,,stimuli/images/PICTURE_504.png,ARTIST,5c6d0da2d5221b000101da81,18/03/1951,2020-07-09_21h30.03.320,proactive,2020.1.2,MacIntel,60,5f073de81c76c3308c0e4fb3,5f077e2e14d49e1697b08f11,1,,,,,,wheel,,,,,,0,53,53,49,1,5,1,,,,,,,,,,,,,,,,,,,,,,,,,,,,,,,,,,,,,,,,,,,,,,,,,,,,,,,,,,,,,,,,,,,,,,,,,,,
,,,,,,,,,,stimuli/images/PICTURE_208.png,SYSTEM,5c6d0da2d5221b000101da81,18/03/1951,2020-07-09_21h30.03.320,proactive,2020.1.2,MacIntel,60,5f073de81c76c3308c0e4fb3,5f077e2e14d49e1697b08f11,1,,,,,,microphone,,,,,,0,54,54,32,1,4,1,,,,,,,,,,,,,,,,,,,,,,,,,,,,,,,,,,,,,,,,,,,,,,,,,,,,,,,,,,,,,,,,,,,,,,,,,,,
,,,,,,,,,,stimuli/images/PICTURE_177.png,WRITER,5c6d0da2d5221b000101da81,18/03/1951,2020-07-09_21h30.03.320,proactive,2020.1.2,MacIntel,60,5f073de81c76c3308c0e4fb3,5f077e2e14d49e1697b08f11,1,,,,,,mushroom,,,,,,0,55,55,41,1,5,1,,,,,,,,,,,,,,,,,,,,,,,,,,,,,,,,,,,,,,,,,,,,,,,,,,,,,,,,,,,,,,,,,,,,,,,,,,,
,,,,,,,,,,stimuli/images/PICTURE_339.png,CLIENT,5c6d0da2d5221b000101da81,18/03/1951,2020-07-09_21h30.03.320,proactive,2020.1.2,MacIntel,60,5f073de81c76c3308c0e4fb3,5f077e2e14d49e1697b08f11,1,,,,,,backpack,,,,,,0,56,56,11,1,2,1,,,,,,,,,,,,,,,,,,,,,,,,,,,,,,,,,,,,,,,,,,,,,,,,,,,,,,,,,,,,,,,,,,,,,,,,,,,
,,,,,,,,,,stimuli/images/PICTURE_750.png,HOTEL,5c6d0da2d5221b000101da81,18/03/1951,2020-07-09_21h30.03.320,proactive,2020.1.2,MacIntel,60,5f073de81c76c3308c0e4fb3,5f077e2e14d49e1697b08f11,1,,,,,,kettle,,,,,,0,57,57,27,1,3,1,,,,,,,,,,,,,,,,,,,,,,,,,,,,,,,,,,,,,,,,,,,,,,,,,,,,,,,,,,,,,,,,,,,,,,,,,,,
,,,,,,,,,,stimuli/images/PICTURE_233.png,LOTS,5c6d0da2d5221b000101da81,18/03/1951,2020-07-09_21h30.03.320,proactive,2020.1.2,MacIntel,60,5f073de81c76c3308c0e4fb3,5f077e2e14d49e1697b08f11,1,,,,,,salt,,,,,,0,58,58,42,1,5,1,,,,,,,,,,,,,,,,,,,,,,,,,,,,,,,,,,,,,,,,,,,,,,,,,,,,,,,,,,,,,,,,,,,,,,,,,,,
,,?,0,0,,,,,,stimuli/images/PICTURE_296.png,LIFE,5c6d0da2d5221b000101da81,18/03/1951,2020-07-09_21h30.03.320,proactive,2020.1.2,MacIntel,60,5f073de81c76c3308c0e4fb3,5f077e2e14d49e1697b08f11,1,,,,,,bolt,,,,,,,,,,,6,1,0,0,0,57,1,,,,,,,,,,,,,,,,,,,,,,,,,,,,,,,,,,,,,,,,,,,,,,,,,,,,,,,,,,,,,,,,,,,,,,
,,?,0.001,0,,,,,,stimuli/images/PICTURE_2.png,FLIGHT,5c6d0da2d5221b000101da81,18/03/1951,2020-07-09_21h30.03.320,proactive,2020.1.2,MacIntel,60,5f073de81c76c3308c0e4fb3,5f077e2e14d49e1697b08f11,1,,,,,,tyre,,,,,,,,,,,2,1,0,1,1,15,1,,,,,,,,,,,,,,,,,,,,,,,,,,,,,,,,,,,,,,,,,,,,,,,,,,,,,,,,,,,,,,,,,,,,,,
,,?,0.001,0,,,,,,stimuli/images/PICTURE_177.png,WRITER,5c6d0da2d5221b000101da81,18/03/1951,2020-07-09_21h30.03.320,proactive,2020.1.2,MacIntel,60,5f073de81c76c3308c0e4fb3,5f077e2e14d49e1697b08f11,1,,,,,,mushroom,,,,,,,,,,,5,1,0,2,2,41,1,,,,,,,,,,,,,,,,,,,,,,,,,,,,,,,,,,,,,,,,,,,,,,,,,,,,,,,,,,,,,,,,,,,,,,
,,?,0,0,,,,,,stimuli/images/PICTURE_655.png,TOILET,5c6d0da2d5221b000101da81,18/03/1951,2020-07-09_21h30.03.320,proactive,2020.1.2,MacIntel,60,5f073de81c76c3308c0e4fb3,5f077e2e14d49e1697b08f11,1,,,,,,megaphone,,,,,,,,,,,2,1,0,3,3,12,1,,,,,,,,,,,,,,,,,,,,,,,,,,,,,,,,,,,,,,,,,,,,,,,,,,,,,,,,,,,,,,,,,,,,,,
,,?,0,0,,,,,,stimuli/images/PICTURE_32.png,KIND,5c6d0da2d5221b000101da81,18/03/1951,2020-07-09_21h30.03.320,proactive,2020.1.2,MacIntel,60,5f073de81c76c3308c0e4fb3,5f077e2e14d49e1697b08f11,1,,,,,,crown,,,,,,,,,,,4,1,0,4,4,35,1,,,,,,,,,,,,,,,,,,,,,,,,,,,,,,,,,,,,,,,,,,,,,,,,,,,,,,,,,,,,,,,,,,,,,,
,,?,0.001,0,,,,,,stimuli/images/PICTURE_95.png,HONEY,5c6d0da2d5221b000101da81,18/03/1951,2020-07-09_21h30.03.320,proactive,2020.1.2,MacIntel,60,5f073de81c76c3308c0e4fb3,5f077e2e14d49e1697b08f11,1,,,,,,suitcase,,,,,,,,,,,5,1,0,5,5,44,1,,,,,,,,,,,,,,,,,,,,,,,,,,,,,,,,,,,,,,,,,,,,,,,,,,,,,,,,,,,,,,,,,,,,,,
,,?,0.001,0,,,,,,stimuli/images/PICTURE_308.png,FAMILY,5c6d0da2d5221b000101da81,18/03/1951,2020-07-09_21h30.03.320,proactive,2020.1.2,MacIntel,60,5f073de81c76c3308c0e4fb3,5f077e2e14d49e1697b08f11,1,,,,,,dice,,,,,,,,,,,4,1,0,6,6,36,1,,,,,,,,,,,,,,,,,,,,,,,,,,,,,,,,,,,,,,,,,,,,,,,,,,,,,,,,,,,,,,,,,,,,,,
,,?,0,0,,,,,,stimuli/images/PICTURE_32.png,PILLS,5c6d0da2d5221b000101da81,18/03/1951,2020-07-09_21h30.03.320,proactive,2020.1.2,MacIntel,60,5f073de81c76c3308c0e4fb3,5f077e2e14d49e1697b08f11,1,,,,,,crown,,,,,,,,,,,2,1,0,7,7,18,1,,,,,,,,,,,,,,,,,,,,,,,,,,,,,,,,,,,,,,,,,,,,,,,,,,,,,,,,,,,,,,,,,,,,,,
,,?,0,0,,,,,,stimuli/images/PICTURE_677.png,APPLE,5c6d0da2d5221b000101da81,18/03/1951,2020-07-09_21h30.03.320,proactive,2020.1.2,MacIntel,60,5f073de81c76c3308c0e4fb3,5f077e2e14d49e1697b08f11,1,,,,,,map,,,,,,,,,,,5,1,0,8,8,43,1,,,,,,,,,,,,,,,,,,,,,,,,,,,,,,,,,,,,,,,,,,,,,,,,,,,,,,,,,,,,,,,,,,,,,,
,,?,0,0,,,,,,stimuli/images/PICTURE_340.png,VALLEY,5c6d0da2d5221b000101da81,18/03/1951,2020-07-09_21h30.03.320,proactive,2020.1.2,MacIntel,60,5f073de81c76c3308c0e4fb3,5f077e2e14d49e1697b08f11,1,,,,,,mirror,,,,,,,,,,,6,1,0,9,9,54,1,,,,,,,,,,,,,,,,,,,,,,,,,,,,,,,,,,,,,,,,,,,,,,,,,,,,,,,,,,,,,,,,,,,,,,
,,?,0,0,,,,,,stimuli/images/PICTURE_405.png,YEAR,5c6d0da2d5221b000101da81,18/03/1951,2020-07-09_21h30.03.320,proactive,2020.1.2,MacIntel,60,5f073de81c76c3308c0e4fb3,5f077e2e14d49e1697b08f11,1,,,,,,anchor,,,,,,,,,,,4,1,0,10,10,34,1,,,,,,,,,,,,,,,,,,,,,,,,,,,,,,,,,,,,,,,,,,,,,,,,,,,,,,,,,,,,,,,,,,,,,,
,,?,0,0,,,,,,stimuli/images/PICTURE_68.png,ROOF,5c6d0da2d5221b000101da81,18/03/1951,2020-07-09_21h30.03.320,proactive,2020.1.2,MacIntel,60,5f073de81c76c3308c0e4fb3,5f077e2e14d49e1697b08f11,1,,,,,,candle,,,,,,,,,,,4,1,0,11,11,38,1,,,,,,,,,,,,,,,,,,,,,,,,,,,,,,,,,,,,,,,,,,,,,,,,,,,,,,,,,,,,,,,,,,,,,,
,,?,0,0,,,,,,stimuli/images/PICTURE_403.png,WRITER,5c6d0da2d5221b000101da81,18/03/1951,2020-07-09_21h30.03.320,proactive,2020.1.2,MacIntel,60,5f073de81c76c3308c0e4fb3,5f077e2e14d49e1697b08f11,1,,,,,,cathedral,,,,,,,,,,,4,1,0,12,12,31,1,,,,,,,,,,,,,,,,,,,,,,,,,,,,,,,,,,,,,,,,,,,,,,,,,,,,,,,,,,,,,,,,,,,,,,
,,?,0,0,,,,,,stimuli/images/PICTURE_42.png,BOYS,5c6d0da2d5221b000101da81,18/03/1951,2020-07-09_21h30.03.320,proactive,2020.1.2,MacIntel,60,5f073de81c76c3308c0e4fb3,5f077e2e14d49e1697b08f11,1,,,,,,pear,,,,,,,,,,,6,1,0,13,13,55,1,,,,,,,,,,,,,,,,,,,,,,,,,,,,,,,,,,,,,,,,,,,,,,,,,,,,,,,,,,,,,,,,,,,,,,
,,?,0,0,,,,,,stimuli/images/PICTURE_667.png,RIVER,5c6d0da2d5221b000101da81,18/03/1951,2020-07-09_21h30.03.320,proactive,2020.1.2,MacIntel,60,5f073de81c76c3308c0e4fb3,5f077e2e14d49e1697b08f11,1,,,,,,daisy,,,,,,,,,,,2,1,0,14,14,10,1,,,,,,,,,,,,,,,,,,,,,,,,,,,,,,,,,,,,,,,,,,,,,,,,,,,,,,,,,,,,,,,,,,,,,,
,,?,0,0,,,,,,stimuli/images/PICTURE_208.png,SYSTEM,5c6d0da2d5221b000101da81,18/03/1951,2020-07-09_21h30.03.320,proactive,2020.1.2,MacIntel,60,5f073de81c76c3308c0e4fb3,5f077e2e14d49e1697b08f11,1,,,,,,microphone,,,,,,,,,,,4,1,0,15,15,32,1,,,,,,,,,,,,,,,,,,,,,,,,,,,,,,,,,,,,,,,,,,,,,,,,,,,,,,,,,,,,,,,,,,,,,,
,,?,0,0,,,,,,stimuli/images/PICTURE_467.png,POLICY,5c6d0da2d5221b000101da81,18/03/1951,2020-07-09_21h30.03.320,proactive,2020.1.2,MacIntel,60,5f073de81c76c3308c0e4fb3,5f077e2e14d49e1697b08f11,1,,,,,,peg,,,,,,,,,,,6,1,0,16,16,53,1,,,,,,,,,,,,,,,,,,,,,,,,,,,,,,,,,,,,,,,,,,,,,,,,,,,,,,,,,,,,,,,,,,,,,,
,,?,0,0,,,,,,stimuli/images/PICTURE_233.png,LOTS,5c6d0da2d5221b000101da81,18/03/1951,2020-07-09_21h30.03.320,proactive,2020.1.2,MacIntel,60,5f073de81c76c3308c0e4fb3,5f077e2e14d49e1697b08f11,1,,,,,,salt,,,,,,,,,,,5,1,0,17,17,42,1,,,,,,,,,,,,,,,,,,,,,,,,,,,,,,,,,,,,,,,,,,,,,,,,,,,,,,,,,,,,,,,,,,,,,,
,,?,0,0,,,,,,stimuli/images/PICTURE_108.png,FLIGHT,5c6d0da2d5221b000101da81,18/03/1951,2020-07-09_21h30.03.320,proactive,2020.1.2,MacIntel,60,5f073de81c76c3308c0e4fb3,5f077e2e14d49e1697b08f11,1,,,,,,calendar,,,,,,,,,,,6,1,0,18,18,59,1,,,,,,,,,,,,,,,,,,,,,,,,,,,,,,,,,,,,,,,,,,,,,,,,,,,,,,,,,,,,,,,,,,,,,,
,,LOTS,3.032,1,,,,,,stimuli/images/PICTURE_296.png,LOTS,5c6d0da2d5221b000101da81,18/03/1951,2020-07-09_21h30.03.320,proactive,2020.1.2,MacIntel,60,5f073de81c76c3308c0e4fb3,5f077e2e14d49e1697b08f11,1,,,,,,bolt,,,,,,,,,,,1,1,0,19,19,9,1,,,,,,,,,,,,,,,,,,,,,,,,,,,,,,,,,,,,,,,,,,,,,,,,,,,,,,,,,,,,,,,,,,,,,,
,,FRIEND,3.77,1,,,,,,stimuli/images/PICTURE_33.png,FRIEND,5c6d0da2d5221b000101da81,18/03/1951,2020-07-09_21h30.03.320,proactive,2020.1.2,MacIntel,60,5f073de81c76c3308c0e4fb3,5f077e2e14d49e1697b08f11,1,,,,,,frame,,,,,,,,,,,1,1,0,20,20,8,1,,,,,,,,,,,,,,,,,,,,,,,,,,,,,,,,,,,,,,,,,,,,,,,,,,,,,,,,,,,,,,,,,,,,,,
,,?,0.001,0,,,,,,stimuli/images/PICTURE_504.png,COPS,5c6d0da2d5221b000101da81,18/03/1951,2020-07-09_21h30.03.320,proactive,2020.1.2,MacIntel,60,5f073de81c76c3308c0e4fb3,5f077e2e14d49e1697b08f11,1,,,,,,wheel,,,,,,,,,,,6,1,0,21,21,52,1,,,,,,,,,,,,,,,,,,,,,,,,,,,,,,,,,,,,,,,,,,,,,,,,,,,,,,,,,,,,,,,,,,,,,,
,,?,0.001,0,,,,,,stimuli/images/PICTURE_403.png,RIVER,5c6d0da2d5221b000101da81,18/03/1951,2020-07-09_21h30.03.320,proactive,2020.1.2,MacIntel,60,5f073de81c76c3308c0e4fb3,5f077e2e14d49e1697b08f11,1,,,,,,cathedral,,,,,,,,,,,5,1,0,22,22,40,1,,,,,,,,,,,,,,,,,,,,,,,,,,,,,,,,,,,,,,,,,,,,,,,,,,,,,,,,,,,,,,,,,,,,,,
,,?,0.001,0,,,,,,stimuli/images/PICTURE_383.png,WRITER,5c6d0da2d5221b000101da81,18/03/1951,2020-07-09_21h30.03.320,proactive,2020.1.2,MacIntel,60,5f073de81c76c3308c0e4fb3,5f077e2e14d49e1697b08f11,1,,,,,,coin,,,,,,,,,,,3,1,0,23,23,28,1,,,,,,,,,,,,,,,,,,,,,,,,,,,,,,,,,,,,,,,,,,,,,,,,,,,,,,,,,,,,,,,,,,,,,,
,,?,0.001,0,,,,,,stimuli/images/PICTURE_469.png,AGENT,5c6d0da2d5221b000101da81,18/03/1951,2020-07-09_21h30.03.320,proactive,2020.1.2,MacIntel,60,5f073de81c76c3308c0e4fb3,5f077e2e14d49e1697b08f11,1,,,,,,stool,,,,,,,,,,,2,1,0,24,24,16,1,,,,,,,,,,,,,,,,,,,,,,,,,,,,,,,,,,,,,,,,,,,,,,,,,,,,,,,,,,,,,,,,,,,,,,
,,?,0,0,,,,,,stimuli/images/PICTURE_504.png,YEAR,5c6d0da2d5221b000101da81,18/03/1951,2020-07-09_21h30.03.320,proactive,2020.1.2,MacIntel,60,5f073de81c76c3308c0e4fb3,5f077e2e14d49e1697b08f11,1,,,,,,wheel,,,,,,,,,,,2,1,0,25,25,13,1,,,,,,,,,,,,,,,,,,,,,,,,,,,,,,,,,,,,,,,,,,,,,,,,,,,,,,,,,,,,,,,,,,,,,,
,,?,0,0,,,,,,stimuli/images/PICTURE_564.png,BATH,5c6d0da2d5221b000101da81,18/03/1951,2020-07-09_21h30.03.320,proactive,2020.1.2,MacIntel,60,5f073de81c76c3308c0e4fb3,5f077e2e14d49e1697b08f11,1,,,,,,spoon,,,,,,,,,,,3,1,0,26,26,26,1,,,,,,,,,,,,,,,,,,,,,,,,,,,,,,,,,,,,,,,,,,,,,,,,,,,,,,,,,,,,,,,,,,,,,,
,,?,0,0,,,,,,stimuli/images/PICTURE_504.png,ARTIST,5c6d0da2d5221b000101da81,18/03/1951,2020-07-09_21h30.03.320,proactive,2020.1.2,MacIntel,60,5f073de81c76c3308c0e4fb3,5f077e2e14d49e1697b08f11,1,,,,,,wheel,,,,,,,,,,,5,1,0,27,27,49,1,,,,,,,,,,,,,,,,,,,,,,,,,,,,,,,,,,,,,,,,,,,,,,,,,,,,,,,,,,,,,,,,,,,,,,
,,?,0,0,,,,,,stimuli/images/PICTURE_405.png,PLENTY,5c6d0da2d5221b000101da81,18/03/1951,2020-07-09_21h30.03.320,proactive,2020.1.2,MacIntel,60,5f073de81c76c3308c0e4fb3,5f077e2e14d49e1697b08f11,1,,,,,,anchor,,,,,,,,,,,3,1,0,28,28,23,1,,,,,,,,,,,,,,,,,,,,,,,,,,,,,,,,,,,,,,,,,,,,,,,,,,,,,,,,,,,,,,,,,,,,,,
,,?,0,0,,,,,,stimuli/images/PICTURE_340.png,LETTER,5c6d0da2d5221b000101da81,18/03/1951,2020-07-09_21h30.03.320,proactive,2020.1.2,MacIntel,60,5f073de81c76c3308c0e4fb3,5f077e2e14d49e1697b08f11,1,,,,,,mirror,,,,,,,,,,,3,1,0,29,29,24,1,,,,,,,,,,,,,,,,,,,,,,,,,,,,,,,,,,,,,,,,,,,,,,,,,,,,,,,,,,,,,,,,,,,,,,
,,?,0,0,,,,,,stimuli/images/PICTURE_285.png,LIFE,5c6d0da2d5221b000101da81,18/03/1951,2020-07-09_21h30.03.320,proactive,2020.1.2,MacIntel,60,5f073de81c76c3308c0e4fb3,5f077e2e14d49e1697b08f11,1,,,,,,carrot,,,,,,,,,,,4,1,0,30,30,33,1,,,,,,,,,,,,,,,,,,,,,,,,,,,,,,,,,,,,,,,,,,,,,,,,,,,,,,,,,,,,,,,,,,,,,,
,,?,0,0,,,,,,stimuli/images/PICTURE_744.png,WEAPON,5c6d0da2d5221b000101da81,18/03/1951,2020-07-09_21h30.03.320,proactive,2020.1.2,MacIntel,60,5f073de81c76c3308c0e4fb3,5f077e2e14d49e1697b08f11,1,,,,,,ring,,,,,,,,,,,6,1,0,31,31,50,1,,,,,,,,,,,,,,,,,,,,,,,,,,,,,,,,,,,,,,,,,,,,,,,,,,,,,,,,,,,,,,,,,,,,,,
,,?,0.001,0,,,,,,stimuli/images/PICTURE_339.png,CLIENT,5c6d0da2d5221b000101da81,18/03/1951,2020-07-09_21h30.03.320,proactive,2020.1.2,MacIntel,60,5f073de81c76c3308c0e4fb3,5f077e2e14d49e1697b08f11,1,,,,,,backpack,,,,,,,,,,,2,1,0,32,32,11,1,,,,,,,,,,,,,,,,,,,,,,,,,,,,,,,,,,,,,,,,,,,,,,,,,,,,,,,,,,,,,,,,,,,,,,
,,BOYS,2.474,1,,,,,,stimuli/images/PICTURE_95.png,BOYS,5c6d0da2d5221b000101da81,18/03/1951,2020-07-09_21h30.03.320,proactive,2020.1.2,MacIntel,60,5f073de81c76c3308c0e4fb3,5f077e2e14d49e1697b08f11,1,,,,,,suitcase,,,,,,,,,,,1,1,0,33,33,1,1,,,,,,,,,,,,,,,,,,,,,,,,,,,,,,,,,,,,,,,,,,,,,,,,,,,,,,,,,,,,,,,,,,,,,,
,,?,0.001,0,,,,,,stimuli/images/PICTURE_449.png,DUDE,5c6d0da2d5221b000101da81,18/03/1951,2020-07-09_21h30.03.320,proactive,2020.1.2,MacIntel,60,5f073de81c76c3308c0e4fb3,5f077e2e14d49e1697b08f11,1,,,,,,bench,,,,,,,,,,,2,1,0,34,34,17,1,,,,,,,,,,,,,,,,,,,,,,,,,,,,,,,,,,,,,,,,,,,,,,,,,,,,,,,,,,,,,,,,,,,,,,
,,SERIES,3.418,1,,,,,,stimuli/images/PICTURE_327.png,SERIES,5c6d0da2d5221b000101da81,18/03/1951,2020-07-09_21h30.03.320,proactive,2020.1.2,MacIntel,60,5f073de81c76c3308c0e4fb3,5f077e2e14d49e1697b08f11,1,,,,,,helmet,,,,,,,,,,,1,1,0,35,35,3,1,,,,,,,,,,,,,,,,,,,,,,,,,,,,,,,,,,,,,,,,,,,,,,,,,,,,,,,,,,,,,,,,,,,,,,
,,?,0.001,0,,,,,,stimuli/images/PICTURE_383.png,SERIES,5c6d0da2d5221b000101da81,18/03/1951,2020-07-09_21h30.03.320,proactive,2020.1.2,MacIntel,60,5f073de81c76c3308c0e4fb3,5f077e2e14d49e1697b08f11,1,,,,,,coin,,,,,,,,,,,5,1,0,36,36,46,1,,,,,,,,,,,,,,,,,,,,,,,,,,,,,,,,,,,,,,,,,,,,,,,,,,,,,,,,,,,,,,,,,,,,,,
,,WOMEN,2.785,1,,,,,,stimuli/images/PICTURE_147.png,WOMEN,5c6d0da2d5221b000101da81,18/03/1951,2020-07-09_21h30.03.320,proactive,2020.1.2,MacIntel,60,5f073de81c76c3308c0e4fb3,5f077e2e14d49e1697b08f11,1,,,,,,hanger,,,,,,,,,,,1,1,0,37,37,7,1,,,,,,,,,,,,,,,,,,,,,,,,,,,,,,,,,,,,,,,,,,,,,,,,,,,,,,,,,,,,,,,,,,,,,,
,,?,0.001,0,,,,,,stimuli/images/PICTURE_750.png,HOTEL,5c6d0da2d5221b000101da81,18/03/1951,2020-07-09_21h30.03.320,proactive,2020.1.2,MacIntel,60,5f073de81c76c3308c0e4fb3,5f077e2e14d49e1697b08f11,1,,,,,,kettle,,,,,,,,,,,3,1,0,38,38,27,1,,,,,,,,,,,,,,,,,,,,,,,,,,,,,,,,,,,,,,,,,,,,,,,,,,,,,,,,,,,,,,,,,,,,,,
,,?,0.001,0,,,,,,stimuli/images/PICTURE_487.png,GIRL,5c6d0da2d5221b000101da81,18/03/1951,2020-07-09_21h30.03.320,proactive,2020.1.2,MacIntel,60,5f073de81c76c3308c0e4fb3,5f077e2e14d49e1697b08f11,1,,,,,,basket,,,,,,,,,,,5,1,0,39,39,45,1,,,,,,,,,,,,,,,,,,,,,,,,,,,,,,,,,,,,,,,,,,,,,,,,,,,,,,,,,,,,,,,,,,,,,,
,,?,0.001,0,,,,,,stimuli/images/PICTURE_85.png,TOILET,5c6d0da2d5221b000101da81,18/03/1951,2020-07-09_21h30.03.320,proactive,2020.1.2,MacIntel,60,5f073de81c76c3308c0e4fb3,5f077e2e14d49e1697b08f11,1,,,,,,diamond,,,,,,,,,,,5,1,0,40,40,48,1,,,,,,,,,,,,,,,,,,,,,,,,,,,,,,,,,,,,,,,,,,,,,,,,,,,,,,,,,,,,,,,,,,,,,,
,,?,0.001,0,,,,,,stimuli/images/PICTURE_708.png,RECORD,5c6d0da2d5221b000101da81,18/03/1951,2020-07-09_21h30.03.320,proactive,2020.1.2,MacIntel,60,5f073de81c76c3308c0e4fb3,5f077e2e14d49e1697b08f11,1,,,,,,monkey,,,,,,,,,,,6,1,0,41,41,58,1,,,,,,,,,,,,,,,,,,,,,,,,,,,,,,,,,,,,,,,,,,,,,,,,,,,,,,,,,,,,,,,,,,,,,,
,,RIVER,2.815,1,,,,,,stimuli/images/PICTURE_491.png,RIVER,5c6d0da2d5221b000101da81,18/03/1951,2020-07-09_21h30.03.320,proactive,2020.1.2,MacIntel,60,5f073de81c76c3308c0e4fb3,5f077e2e14d49e1697b08f11,1,,,,,,rug,,,,,,,,,,,1,1,0,42,42,6,1,,,,,,,,,,,,,,,,,,,,,,,,,,,,,,,,,,,,,,,,,,,,,,,,,,,,,,,,,,,,,,,,,,,,,,
,,?,0,0,,,,,,stimuli/images/PICTURE_147.png,YEAR,5c6d0da2d5221b000101da81,18/03/1951,2020-07-09_21h30.03.320,proactive,2020.1.2,MacIntel,60,5f073de81c76c3308c0e4fb3,5f077e2e14d49e1697b08f11,1,,,,,,hanger,,,,,,,,,,,3,1,0,43,43,21,1,,,,,,,,,,,,,,,,,,,,,,,,,,,,,,,,,,,,,,,,,,,,,,,,,,,,,,,,,,,,,,,,,,,,,,
,,?,0,0,,,,,,stimuli/images/PICTURE_675.png,SALE,5c6d0da2d5221b000101da81,18/03/1951,2020-07-09_21h30.03.320,proactive,2020.1.2,MacIntel,60,5f073de81c76c3308c0e4fb3,5f077e2e14d49e1697b08f11,1,,,,,,windmill,,,,,,,,,,,5,1,0,44,44,47,1,,,,,,,,,,,,,,,,,,,,,,,,,,,,,,,,,,,,,,,,,,,,,,,,,,,,,,,,,,,,,,,,,,,,,,
,,?,0,0,,,,,,stimuli/images/PICTURE_68.png,MILE,5c6d0da2d5221b000101da81,18/03/1951,2020-07-09_21h30.03.320,proactive,2020.1.2,MacIntel,60,5f073de81c76c3308c0e4fb3,5f077e2e14d49e1697b08f11,1,,,,,,candle,,,,,,,,,,,6,1,0,45,45,51,1,,,,,,,,,,,,,,,,,,,,,,,,,,,,,,,,,,,,,,,,,,,,,,,,,,,,,,,,,,,,,,,,,,,,,,
,,?,0,0,,,,,,stimuli/images/PICTURE_57.png,MOMENT,5c6d0da2d5221b000101da81,18/03/1951,2020-07-09_21h30.03.320,proactive,2020.1.2,MacIntel,60,5f073de81c76c3308c0e4fb3,5f077e2e14d49e1697b08f11,1,,,,,,stamp,,,,,,,,,,,4,1,0,46,46,37,1,,,,,,,,,,,,,,,,,,,,,,,,,,,,,,,,,,,,,,,,,,,,,,,,,,,,,,,,,,,,,,,,,,,,,,
,,?,0,0,,,,,,stimuli/images/PICTURE_327.png,CASINO,5c6d0da2d5221b000101da81,18/03/1951,2020-07-09_21h30.03.320,proactive,2020.1.2,MacIntel,60,5f073de81c76c3308c0e4fb3,5f077e2e14d49e1697b08f11,1,,,,,,helmet,,,,,,,,,,,3,1,0,47,47,20,1,,,,,,,,,,,,,,,,,,,,,,,,,,,,,,,,,,,,,,,,,,,,,,,,,,,,,,,,,,,,,,,,,,,,,,
,,NIGHT,2.364,1,,,,,,stimuli/images/PICTURE_203.png,NIGHT,5c6d0da2d5221b000101da81,18/03/1951,2020-07-09_21h30.03.320,proactive,2020.1.2,MacIntel,60,5f073de81c76c3308c0e4fb3,5f077e2e14d49e1697b08f11,1,,,,,,cap,,,,,,,,,,,1,1,0,48,48,2,1,,,,,,,,,,,,,,,,,,,,,,,,,,,,,,,,,,,,,,,,,,,,,,,,,,,,,,,,,,,,,,,,,,,,,,
,,?,0.001,0,,,,,,stimuli/images/PICTURE_491.png,GLASS,5c6d0da2d5221b000101da81,18/03/1951,2020-07-09_21h30.03.320,proactive,2020.1.2,MacIntel,60,5f073de81c76c3308c0e4fb3,5f077e2e14d49e1697b08f11,1,,,,,,rug,,,,,,,,,,,2,1,0,49,49,14,1,,,,,,,,,,,,,,,,,,,,,,,,,,,,,,,,,,,,,,,,,,,,,,,,,,,,,,,,,,,,,,,,,,,,,,
,,PENNY,2.933,1,,,,,,stimuli/images/PICTURE_685.png,PENNY,5c6d0da2d5221b000101da81,18/03/1951,2020-07-09_21h30.03.320,proactive,2020.1.2,MacIntel,60,5f073de81c76c3308c0e4fb3,5f077e2e14d49e1697b08f11,1,,,,,,goose,,,,,,,,,,,1,1,0,50,50,4,1,,,,,,,,,,,,,,,,,,,,,,,,,,,,,,,,,,,,,,,,,,,,,,,,,,,,,,,,,,,,,,,,,,,,,,
,,?,0.001,0,,,,,,stimuli/images/PICTURE_403.png,TOILET,5c6d0da2d5221b000101da81,18/03/1951,2020-07-09_21h30.03.320,proactive,2020.1.2,MacIntel,60,5f073de81c76c3308c0e4fb3,5f077e2e14d49e1697b08f11,1,,,,,,cathedral,,,,,,,,,,,3,1,0,51,51,25,1,,,,,,,,,,,,,,,,,,,,,,,,,,,,,,,,,,,,,,,,,,,,,,,,,,,,,,,,,,,,,,,,,,,,,,
,,?,0,0,,,,,,stimuli/images/PICTURE_297.png,RIVER,5c6d0da2d5221b000101da81,18/03/1951,2020-07-09_21h30.03.320,proactive,2020.1.2,MacIntel,60,5f073de81c76c3308c0e4fb3,5f077e2e14d49e1697b08f11,1,,,,,,aeroplane,,,,,,,,,,,4,1,0,52,52,39,1,,,,,,,,,,,,,,,,,,,,,,,,,,,,,,,,,,,,,,,,,,,,,,,,,,,,,,,,,,,,,,,,,,,,,,
,,?,0,0,,,,,,stimuli/images/PICTURE_203.png,GODS,5c6d0da2d5221b000101da81,18/03/1951,2020-07-09_21h30.03.320,proactive,2020.1.2,MacIntel,60,5f073de81c76c3308c0e4fb3,5f077e2e14d49e1697b08f11,1,,,,,,cap,,,,,,,,,,,4,1,0,53,53,30,1,,,,,,,,,,,,,,,,,,,,,,,,,,,,,,,,,,,,,,,,,,,,,,,,,,,,,,,,,,,,,,,,,,,,,,
,,?,0,0,,,,,,stimuli/images/PICTURE_108.png,POLICY,5c6d0da2d5221b000101da81,18/03/1951,2020-07-09_21h30.03.320,proactive,2020.1.2,MacIntel,60,5f073de81c76c3308c0e4fb3,5f077e2e14d49e1697b08f11,1,,,,,,calendar,,,,,,,,,,,3,1,0,54,54,22,1,,,,,,,,,,,,,,,,,,,,,,,,,,,,,,,,,,,,,,,,,,,,,,,,,,,,,,,,,,,,,,,,,,,,,,
,,?,15.012,0,,,,,,stimuli/images/PICTURE_85.png,NATION,5c6d0da2d5221b000101da81,18/03/1951,2020-07-09_21h30.03.320,proactive,2020.1.2,MacIntel,60,5f073de81c76c3308c0e4fb3,5f077e2e14d49e1697b08f11,1,,,,,,diamond,,,,,,,,,,,1,1,0,55,55,5,1,,,,,,,,,,,,,,,,,,,,,,,,,,,,,,,,,,,,,,,,,,,,,,,,,,,,,,,,,,,,,,,,,,,,,,
,,?,0.001,0,,,,,,stimuli/images/PICTURE_654.png,MONTH,5c6d0da2d5221b000101da81,18/03/1951,2020-07-09_21h30.03.320,proactive,2020.1.2,MacIntel,60,5f073de81c76c3308c0e4fb3,5f077e2e14d49e1697b08f11,1,,,,,,pencil,,,,,,,,,,,3,1,0,56,56,29,1,,,,,,,,,,,,,,,,,,,,,,,,,,,,,,,,,,,,,,,,,,,,,,,,,,,,,,,,,,,,,,,,,,,,,,
,,?,0,0,,,,,,stimuli/images/PICTURE_95.png,MILLER,5c6d0da2d5221b000101da81,18/03/1951,2020-07-09_21h30.03.320,proactive,2020.1.2,MacIntel,60,5f073de81c76c3308c0e4fb3,5f077e2e14d49e1697b08f11,1,,,,,,suitcase,,,,,,,,,,,6,1,0,57,57,56,1,,,,,,,,,,,,,,,,,,,,,,,,,,,,,,,,,,,,,,,,,,,,,,,,,,,,,,,,,,,,,,,,,,,,,,
,,?,0,0,,,,,,stimuli/images/PICTURE_380.png,HONEY,5c6d0da2d5221b000101da81,18/03/1951,2020-07-09_21h30.03.320,proactive,2020.1.2,MacIntel,60,5f073de81c76c3308c0e4fb3,5f077e2e14d49e1697b08f11,1,,,,,,gorilla,,,,,,,,,,,2,1,0,58,58,19,1,,,,,,,,,,,,,,,,,,,,,,,,,,,,,,,,,,,,,,,,,,,,,,,,,,,,,,,,,,,,,,,,,,,,,,
,,?,15.012,0,,,,,,stimuli/images/PICTURE_380.png,CANDY,5c6d0da2d5221b000101da81,18/03/1951,2020-07-09_21h30.03.320,proactive,2020.1.2,MacIntel,60,5f073de81c76c3308c0e4fb3,5f077e2e14d49e1697b08f11,1,,,,,,gorilla,,,,,,,,,,,1,1,0,59,59,0,1,,,,,,,,,,,,,,,,,,,,,,,,,,,,,,,,,,,,,,,,,,,,,,,,,,,,,,,,,,,,,,,,,,,,,,
,,,,,,,,,,,,5c6d0da2d5221b000101da81,18/03/1951,2020-07-09_21h30.03.320,proactive,2020.1.2,MacIntel,60,5f073de81c76c3308c0e4fb3,5f077e2e14d49e1697b08f11,1,,,,,,,,,,,,,,,,,,,,,,,,0,1,1,1,1,stimuli/learn-block2.csv,,,,,,,,,,,,,,,,,,,,,,,,,,,,,,,,,,,,,,,,,,,,,,,,,,,,,,,,,,,,,,,,
,,,,,,,,,,stimuli/images/PICTURE_708.png,CLIENT,5c6d0da2d5221b000101da81,18/03/1951,2020-07-09_21h30.03.320,proactive,2020.1.2,MacIntel,60,5f073de81c76c3308c0e4fb3,5f077e2e14d49e1697b08f11,1,,,,,,monkey,,,,,,0,0,0,5,1,1,0,,,,,,,,,,,,,,,,,,,,,,,,,,,,,,,,,,,,,,,,,,,,,,,,,,,,,,,,,,,,,,,,,,,,,,,,,,,
,,,,,,,,,,stimuli/images/PICTURE_688.png,WOMEN,5c6d0da2d5221b000101da81,18/03/1951,2020-07-09_21h30.03.320,proactive,2020.1.2,MacIntel,60,5f073de81c76c3308c0e4fb3,5f077e2e14d49e1697b08f11,1,,,,,,runner,,,,,,0,1,1,14,1,2,0,,,,,,,,,,,,,,,,,,,,,,,,,,,,,,,,,,,,,,,,,,,,,,,,,,,,,,,,,,,,,,,,,,,,,,,,,,,
,,,,,,,,,,stimuli/images/PICTURE_123.png,ADVICE,5c6d0da2d5221b000101da81,18/03/1951,2020-07-09_21h30.03.320,proactive,2020.1.2,MacIntel,60,5f073de81c76c3308c0e4fb3,5f077e2e14d49e1697b08f11,1,,,,,,dart,,,,,,0,2,2,50,1,6,0,,,,,,,,,,,,,,,,,,,,,,,,,,,,,,,,,,,,,,,,,,,,,,,,,,,,,,,,,,,,,,,,,,,,,,,,,,,
,,,,,,,,,,stimuli/images/PICTURE_123.png,ADVICE,5c6d0da2d5221b000101da81,18/03/1951,2020-07-09_21h30.03.320,proactive,2020.1.2,MacIntel,60,5f073de81c76c3308c0e4fb3,5f077e2e14d49e1697b08f11,1,,,,,,dart,,,,,,0,3,3,40,1,5,0,,,,,,,,,,,,,,,,,,,,,,,,,,,,,,,,,,,,,,,,,,,,,,,,,,,,,,,,,,,,,,,,,,,,,,,,,,,
,,,,,,,,,,stimuli/images/PICTURE_380.png,PHOTO,5c6d0da2d5221b000101da81,18/03/1951,2020-07-09_21h30.03.320,proactive,2020.1.2,MacIntel,60,5f073de81c76c3308c0e4fb3,5f077e2e14d49e1697b08f11,1,,,,,,gorilla,,,,,,0,4,4,52,1,6,0,,,,,,,,,,,,,,,,,,,,,,,,,,,,,,,,,,,,,,,,,,,,,,,,,,,,,,,,,,,,,,,,,,,,,,,,,,,
,,,,,,,,,,stimuli/images/PICTURE_491.png,WRITER,5c6d0da2d5221b000101da81,18/03/1951,2020-07-09_21h30.03.320,proactive,2020.1.2,MacIntel,60,5f073de81c76c3308c0e4fb3,5f077e2e14d49e1697b08f11,1,,,,,,rug,,,,,,0,5,5,57,1,6,0,,,,,,,,,,,,,,,,,,,,,,,,,,,,,,,,,,,,,,,,,,,,,,,,,,,,,,,,,,,,,,,,,,,,,,,,,,,
,,,,,,,,,,stimuli/images/PICTURE_203.png,ARTIST,5c6d0da2d5221b000101da81,18/03/1951,2020-07-09_21h30.03.320,proactive,2020.1.2,MacIntel,60,5f073de81c76c3308c0e4fb3,5f077e2e14d49e1697b08f11,1,,,,,,cap,,,,,,0,6,6,26,1,3,0,,,,,,,,,,,,,,,,,,,,,,,,,,,,,,,,,,,,,,,,,,,,,,,,,,,,,,,,,,,,,,,,,,,,,,,,,,,
,,,,,,,,,,stimuli/images/PICTURE_380.png,DEATH,5c6d0da2d5221b000101da81,18/03/1951,2020-07-09_21h30.03.320,proactive,2020.1.2,MacIntel,60,5f073de81c76c3308c0e4fb3,5f077e2e14d49e1697b08f11,1,,,,,,gorilla,,,,,,0,7,7,49,1,5,0,,,,,,,,,,,,,,,,,,,,,,,,,,,,,,,,,,,,,,,,,,,,,,,,,,,,,,,,,,,,,,,,,,,,,,,,,,,
,,,,,,,,,,stimuli/images/PICTURE_314.png,GODS,5c6d0da2d5221b000101da81,18/03/1951,2020-07-09_21h30.03.320,proactive,2020.1.2,MacIntel,60,5f073de81c76c3308c0e4fb3,5f077e2e14d49e1697b08f11,1,,,,,,perfume,,,,,,0,8,8,11,1,2,0,,,,,,,,,,,,,,,,,,,,,,,,,,,,,,,,,,,,,,,,,,,,,,,,,,,,,,,,,,,,,,,,,,,,,,,,,,,
,,,,,,,,,,stimuli/images/PICTURE_654.png,VALLEY,5c6d0da2d5221b000101da81,18/03/1951,2020-07-09_21h30.03.320,proactive,2020.1.2,MacIntel,60,5f073de81c76c3308c0e4fb3,5f077e2e14d49e1697b08f11,1,,,,,,pencil,,,,,,0,9,9,1,1,1,0,,,,,,,,,,,,,,,,,,,,,,,,,,,,,,,,,,,,,,,,,,,,,,,,,,,,,,,,,,,,,,,,,,,,,,,,,,,
,,,,,,,,,,stimuli/images/PICTURE_314.png,SAKE,5c6d0da2d5221b000101da81,18/03/1951,2020-07-09_21h30.03.320,proactive,2020.1.2,MacIntel,60,5f073de81c76c3308c0e4fb3,5f077e2e14d49e1697b08f11,1,,,,,,perfume,,,,,,0,10,10,7,1,1,0,,,,,,,,,,,,,,,,,,,,,,,,,,,,,,,,,,,,,,,,,,,,,,,,,,,,,,,,,,,,,,,,,,,,,,,,,,,
,,,,,,,,,,stimuli/images/PICTURE_677.png,MILE,5c6d0da2d5221b000101da81,18/03/1951,2020-07-09_21h30.03.320,proactive,2020.1.2,MacIntel,60,5f073de81c76c3308c0e4fb3,5f077e2e14d49e1697b08f11,1,,,,,,map,,,,,,0,11,11,30,1,4,0,,,,,,,,,,,,,,,,,,,,,,,,,,,,,,,,,,,,,,,,,,,,,,,,,,,,,,,,,,,,,,,,,,,,,,,,,,,
,,,,,,,,,,stimuli/images/PICTURE_68.png,MILE,5c6d0da2d5221b000101da81,18/03/1951,2020-07-09_21h30.03.320,proactive,2020.1.2,MacIntel,60,5f073de81c76c3308c0e4fb3,5f077e2e14d49e1697b08f11,1,,,,,,candle,,,,,,0,12,12,44,1,5,0,,,,,,,,,,,,,,,,,,,,,,,,,,,,,,,,,,,,,,,,,,,,,,,,,,,,,,,,,,,,,,,,,,,,,,,,,,,
,,,,,,,,,,stimuli/images/PICTURE_151.png,GIRL,5c6d0da2d5221b000101da81,18/03/1951,2020-07-09_21h30.03.320,proactive,2020.1.2,MacIntel,60,5f073de81c76c3308c0e4fb3,5f077e2e14d49e1697b08f11,1,,,,,,tray,,,,,,0,13,13,19,1,2,0,,,,,,,,,,,,,,,,,,,,,,,,,,,,,,,,,,,,,,,,,,,,,,,,,,,,,,,,,,,,,,,,,,,,,,,,,,,
,,,,,,,,,,stimuli/images/PICTURE_470.png,CASINO,5c6d0da2d5221b000101da81,18/03/1951,2020-07-09_21h30.03.320,proactive,2020.1.2,MacIntel,60,5f073de81c76c3308c0e4fb3,5f077e2e14d49e1697b08f11,1,,,,,,motorbike,,,,,,0,14,14,36,1,4,0,,,,,,,,,,,,,,,,,,,,,,,,,,,,,,,,,,,,,,,,,,,,,,,,,,,,,,,,,,,,,,,,,,,,,,,,,,,
,,,,,,,,,,stimuli/images/PICTURE_688.png,CASINO,5c6d0da2d5221b000101da81,18/03/1951,2020-07-09_21h30.03.320,proactive,2020.1.2,MacIntel,60,5f073de81c76c3308c0e4fb3,5f077e2e14d49e1697b08f11,1,,,,,,runner,,,,,,0,15,15,2,1,1,0,,,,,,,,,,,,,,,,,,,,,,,,,,,,,,,,,,,,,,,,,,,,,,,,,,,,,,,,,,,,,,,,,,,,,,,,,,,
,,,,,,,,,,stimuli/images/PICTURE_285.png,ADVICE,5c6d0da2d5221b000101da81,18/03/1951,2020-07-09_21h30.03.320,proactive,2020.1.2,MacIntel,60,5f073de81c76c3308c0e4fb3,5f077e2e14d49e1697b08f11,1,,,,,,carrot,,,,,,0,16,16,12,1,2,0,,,,,,,,,,,,,,,,,,,,,,,,,,,,,,,,,,,,,,,,,,,,,,,,,,,,,,,,,,,,,,,,,,,,,,,,,,,
,,,,,,,,,,stimuli/images/PICTURE_667.png,BATH,5c6d0da2d5221b000101da81,18/03/1951,2020-07-09_21h30.03.320,proactive,2020.1.2,MacIntel,60,5f073de81c76c3308c0e4fb3,5f077e2e14d49e1697b08f11,1,,,,,,daisy,,,,,,0,17,17,4,1,1,0,,,,,,,,,,,,,,,,,,,,,,,,,,,,,,,,,,,,,,,,,,,,,,,,,,,,,,,,,,,,,,,,,,,,,,,,,,,
,,,,,,,,,,stimuli/images/PICTURE_467.png,DEMON,5c6d0da2d5221b000101da81,18/03/1951,2020-07-09_21h30.03.320,proactive,2020.1.2,MacIntel,60,5f073de81c76c3308c0e4fb3,5f077e2e14d49e1697b08f11,1,,,,,,peg,,,,,,0,18,18,23,1,3,0,,,,,,,,,,,,,,,,,,,,,,,,,,,,,,,,,,,,,,,,,,,,,,,,,,,,,,,,,,,,,,,,,,,,,,,,,,,
,,,,,,,,,,stimuli/images/PICTURE_744.png,SYSTEM,5c6d0da2d5221b000101da81,18/03/1951,2020-07-09_21h30.03.320,proactive,2020.1.2,MacIntel,60,5f073de81c76c3308c0e4fb3,5f077e2e14d49e1697b08f11,1,,,,,,ring,,,,,,0,19,19,43,1,5,0,,,,,,,,,,,,,,,,,,,,,,,,,,,,,,,,,,,,,,,,,,,,,,,,,,,,,,,,,,,,,,,,,,,,,,,,,,,
,,,,,,,,,,stimuli/images/PICTURE_453.png,PLENTY,5c6d0da2d5221b000101da81,18/03/1951,2020-07-09_21h30.03.320,proactive,2020.1.2,MacIntel,60,5f073de81c76c3308c0e4fb3,5f077e2e14d49e1697b08f11,1,,,,,,scissors,,,,,,0,20,20,56,1,6,0,,,,,,,,,,,,,,,,,,,,,,,,,,,,,,,,,,,,,,,,,,,,,,,,,,,,,,,,,,,,,,,,,,,,,,,,,,,
,,,,,,,,,,stimuli/images/PICTURE_255.png,AREA,5c6d0da2d5221b000101da81,18/03/1951,2020-07-09_21h30.03.320,proactive,2020.1.2,MacIntel,60,5f073de81c76c3308c0e4fb3,5f077e2e14d49e1697b08f11,1,,,,,,shovel,,,,,,0,21,21,22,1,3,0,,,,,,,,,,,,,,,,,,,,,,,,,,,,,,,,,,,,,,,,,,,,,,,,,,,,,,,,,,,,,,,,,,,,,,,,,,,
,,,,,,,,,,stimuli/images/PICTURE_85.png,THING,5c6d0da2d5221b000101da81,18/03/1951,2020-07-09_21h30.03.320,proactive,2020.1.2,MacIntel,60,5f073de81c76c3308c0e4fb3,5f077e2e14d49e1697b08f11,1,,,,,,diamond,,,,,,0,22,22,15,1,2,0,,,,,,,,,,,,,,,,,,,,,,,,,,,,,,,,,,,,,,,,,,,,,,,,,,,,,,,,,,,,,,,,,,,,,,,,,,,
,,,,,,,,,,stimuli/images/PICTURE_147.png,MOMENT,5c6d0da2d5221b000101da81,18/03/1951,2020-07-09_21h30.03.320,proactive,2020.1.2,MacIntel,60,5f073de81c76c3308c0e4fb3,5f077e2e14d49e1697b08f11,1,,,,,,hanger,,,,,,0,23,23,51,1,6,0,,,,,,,,,,,,,,,,,,,,,,,,,,,,,,,,,,,,,,,,,,,,,,,,,,,,,,,,,,,,,,,,,,,,,,,,,,,
,,,,,,,,,,stimuli/images/PICTURE_708.png,YARD,5c6d0da2d5221b000101da81,18/03/1951,2020-07-09_21h30.03.320,proactive,2020.1.2,MacIntel,60,5f073de81c76c3308c0e4fb3,5f077e2e14d49e1697b08f11,1,,,,,,monkey,,,,,,0,24,24,29,1,3,0,,,,,,,,,,,,,,,,,,,,,,,,,,,,,,,,,,,,,,,,,,,,,,,,,,,,,,,,,,,,,,,,,,,,,,,,,,,
,,,,,,,,,,stimuli/images/PICTURE_356.png,DANGER,5c6d0da2d5221b000101da81,18/03/1951,2020-07-09_21h30.03.320,proactive,2020.1.2,MacIntel,60,5f073de81c76c3308c0e4fb3,5f077e2e14d49e1697b08f11,1,,,,,,pawn,,,,,,0,25,25,55,1,6,0,,,,,,,,,,,,,,,,,,,,,,,,,,,,,,,,,,,,,,,,,,,,,,,,,,,,,,,,,,,,,,,,,,,,,,,,,,,
,,,,,,,,,,stimuli/images/PICTURE_95.png,STYLE,5c6d0da2d5221b000101da81,18/03/1951,2020-07-09_21h30.03.320,proactive,2020.1.2,MacIntel,60,5f073de81c76c3308c0e4fb3,5f077e2e14d49e1697b08f11,1,,,,,,suitcase,,,,,,0,26,26,25,1,3,0,,,,,,,,,,,,,,,,,,,,,,,,,,,,,,,,,,,,,,,,,,,,,,,,,,,,,,,,,,,,,,,,,,,,,,,,,,,
,,,,,,,,,,stimuli/images/PICTURE_491.png,ROOF,5c6d0da2d5221b000101da81,18/03/1951,2020-07-09_21h30.03.320,proactive,2020.1.2,MacIntel,60,5f073de81c76c3308c0e4fb3,5f077e2e14d49e1697b08f11,1,,,,,,rug,,,,,,0,27,27,24,1,3,0,,,,,,,,,,,,,,,,,,,,,,,,,,,,,,,,,,,,,,,,,,,,,,,,,,,,,,,,,,,,,,,,,,,,,,,,,,,
,,,,,,,,,,stimuli/images/PICTURE_233.png,WOMEN,5c6d0da2d5221b000101da81,18/03/1951,2020-07-09_21h30.03.320,proactive,2020.1.2,MacIntel,60,5f073de81c76c3308c0e4fb3,5f077e2e14d49e1697b08f11,1,,,,,,salt,,,,,,0,28,28,38,1,4,0,,,,,,,,,,,,,,,,,,,,,,,,,,,,,,,,,,,,,,,,,,,,,,,,,,,,,,,,,,,,,,,,,,,,,,,,,,,
,,,,,,,,,,stimuli/images/PICTURE_675.png,WEAPON,5c6d0da2d5221b000101da81,18/03/1951,2020-07-09_21h30.03.320,proactive,2020.1.2,MacIntel,60,5f073de81c76c3308c0e4fb3,5f077e2e14d49e1697b08f11,1,,,,,,windmill,,,,,,0,29,29,32,1,4,0,,,,,,,,,,,,,,,,,,,,,,,,,,,,,,,,,,,,,,,,,,,,,,,,,,,,,,,,,,,,,,,,,,,,,,,,,,,
,,,,,,,,,,stimuli/images/PICTURE_504.png,BODY,5c6d0da2d5221b000101da81,18/03/1951,2020-07-09_21h30.03.320,proactive,2020.1.2,MacIntel,60,5f073de81c76c3308c0e4fb3,5f077e2e14d49e1697b08f11,1,,,,,,wheel,,,,,,0,30,30,8,1,1,0,,,,,,,,,,,,,,,,,,,,,,,,,,,,,,,,,,,,,,,,,,,,,,,,,,,,,,,,,,,,,,,,,,,,,,,,,,,
,,,,,,,,,,stimuli/images/PICTURE_208.png,LOTS,5c6d0da2d5221b000101da81,18/03/1951,2020-07-09_21h30.03.320,proactive,2020.1.2,MacIntel,60,5f073de81c76c3308c0e4fb3,5f077e2e14d49e1697b08f11,1,,,,,,microphone,,,,,,0,31,31,10,1,2,0,,,,,,,,,,,,,,,,,,,,,,,,,,,,,,,,,,,,,,,,,,,,,,,,,,,,,,,,,,,,,,,,,,,,,,,,,,,
,,,,,,,,,,stimuli/images/PICTURE_160.png,LEADER,5c6d0da2d5221b000101da81,18/03/1951,2020-07-09_21h30.03.320,proactive,2020.1.2,MacIntel,60,5f073de81c76c3308c0e4fb3,5f077e2e14d49e1697b08f11,1,,,,,,wheelbarrow,,,,,,0,32,32,3,1,1,0,,,,,,,,,,,,,,,,,,,,,,,,,,,,,,,,,,,,,,,,,,,,,,,,,,,,,,,,,,,,,,,,,,,,,,,,,,,
,,,,,,,,,,stimuli/images/PICTURE_311.png,BEAUTY,5c6d0da2d5221b000101da81,18/03/1951,2020-07-09_21h30.03.320,proactive,2020.1.2,MacIntel,60,5f073de81c76c3308c0e4fb3,5f077e2e14d49e1697b08f11,1,,,,,,razor,,,,,,0,33,33,13,1,2,0,,,,,,,,,,,,,,,,,,,,,,,,,,,,,,,,,,,,,,,,,,,,,,,,,,,,,,,,,,,,,,,,,,,,,,,,,,,
,,,,,,,,,,stimuli/images/PICTURE_488.png,STYLE,5c6d0da2d5221b000101da81,18/03/1951,2020-07-09_21h30.03.320,proactive,2020.1.2,MacIntel,60,5f073de81c76c3308c0e4fb3,5f077e2e14d49e1697b08f11,1,,,,,,sun,,,,,,0,34,34,33,1,4,0,,,,,,,,,,,,,,,,,,,,,,,,,,,,,,,,,,,,,,,,,,,,,,,,,,,,,,,,,,,,,,,,,,,,,,,,,,,
,,,,,,,,,,stimuli/images/PICTURE_215.png,PLENTY,5c6d0da2d5221b000101da81,18/03/1951,2020-07-09_21h30.03.320,proactive,2020.1.2,MacIntel,60,5f073de81c76c3308c0e4fb3,5f077e2e14d49e1697b08f11,1,,,,,,boot,,,,,,0,35,35,37,1,4,0,,,,,,,,,,,,,,,,,,,,,,,,,,,,,,,,,,,,,,,,,,,,,,,,,,,,,,,,,,,,,,,,,,,,,,,,,,,
,,,,,,,,,,stimuli/images/PICTURE_708.png,PENNY,5c6d0da2d5221b000101da81,18/03/1951,2020-07-09_21h30.03.320,proactive,2020.1.2,MacIntel,60,5f073de81c76c3308c0e4fb3,5f077e2e14d49e1697b08f11,1,,,,,,monkey,,,,,,0,36,36,31,1,4,0,,,,,,,,,,,,,,,,,,,,,,,,,,,,,,,,,,,,,,,,,,,,,,,,,,,,,,,,,,,,,,,,,,,,,,,,,,,
,,,,,,,,,,stimuli/images/PICTURE_348.png,SPEECH,5c6d0da2d5221b000101da81,18/03/1951,2020-07-09_21h30.03.320,proactive,2020.1.2,MacIntel,60,5f073de81c76c3308c0e4fb3,5f077e2e14d49e1697b08f11,1,,,,,,pepper,,,,,,0,37,37,20,1,3,0,,,,,,,,,,,,,,,,,,,,,,,,,,,,,,,,,,,,,,,,,,,,,,,,,,,,,,,,,,,,,,,,,,,,,,,,,,,
,,,,,,,,,,stimuli/images/PICTURE_327.png,BEAUTY,5c6d0da2d5221b000101da81,18/03/1951,2020-07-09_21h30.03.320,proactive,2020.1.2,MacIntel,60,5f073de81c76c3308c0e4fb3,5f077e2e14d49e1697b08f11,1,,,,,,helmet,,,,,,0,38,38,48,1,5,0,,,,,,,,,,,,,,,,,,,,,,,,,,,,,,,,,,,,,,,,,,,,,,,,,,,,,,,,,,,,,,,,,,,,,,,,,,,
,,,,,,,,,,stimuli/images/PICTURE_744.png,SAKE,5c6d0da2d5221b000101da81,18/03/1951,2020-07-09_21h30.03.320,proactive,2020.1.2,MacIntel,60,5f073de81c76c3308c0e4fb3,5f077e2e14d49e1697b08f11,1,,,,,,ring,,,,,,0,39,39,17,1,2,0,,,,,,,,,,,,,,,,,,,,,,,,,,,,,,,,,,,,,,,,,,,,,,,,,,,,,,,,,,,,,,,,,,,,,,,,,,,
,,,,,,,,,,stimuli/images/PICTURE_487.png,FLIGHT,5c6d0da2d5221b000101da81,18/03/1951,2020-07-09_21h30.03.320,proactive,2020.1.2,MacIntel,60,5f073de81c76c3308c0e4fb3,5f077e2e14d49e1697b08f11,1,,,,,,basket,,,,,,0,40,40,9,1,1,0,,,,,,,,,,,,,,,,,,,,,,,,,,,,,,,,,,,,,,,,,,,,,,,,,,,,,,,,,,,,,,,,,,,,,,,,,,,
,,,,,,,,,,stimuli/images/PICTURE_469.png,LETTER,5c6d0da2d5221b000101da81,18/03/1951,2020-07-09_21h30.03.320,proactive,2020.1.2,MacIntel,60,5f073de81c76c3308c0e4fb3,5f077e2e14d49e1697b08f11,1,,,,,,stool,,,,,,0,41,41,42,1,5,0,,,,,,,,,,,,,,,,,,,,,,,,,,,,,,,,,,,,,,,,,,,,,,,,,,,,,,,,,,,,,,,,,,,,,,,,,,,
,,,,,,,,,,stimuli/images/PICTURE_160.png,FEET,5c6d0da2d5221b000101da81,18/03/1951,2020-07-09_21h30.03.320,proactive,2020.1.2,MacIntel,60,5f073de81c76c3308c0e4fb3,5f077e2e14d49e1697b08f11,1,,,,,,wheelbarrow,,,,,,0,42,42,58,1,6,0,,,,,,,,,,,,,,,,,,,,,,,,,,,,,,,,,,,,,,,,,,,,,,,,,,,,,,,,,,,,,,,,,,,,,,,,,,,
,,,,,,,,,,stimuli/images/PICTURE_339.png,PLENTY,5c6d0da2d5221b000101da81,18/03/1951,2020-07-09_21h30.03.320,proactive,2020.1.2,MacIntel,60,5f073de81c76c3308c0e4fb3,5f077e2e14d49e1697b08f11,1,,,,,,backpack,,,,,,0,43,43,0,1,1,0,,,,,,,,,,,,,,,,,,,,,,,,,,,,,,,,,,,,,,,,,,,,,,,,,,,,,,,,,,,,,,,,,,,,,,,,,,,
,,,,,,,,,,stimuli/images/PICTURE_233.png,IDEAS,5c6d0da2d5221b000101da81,18/03/1951,2020-07-09_21h30.03.320,proactive,2020.1.2,MacIntel,60,5f073de81c76c3308c0e4fb3,5f077e2e14d49e1697b08f11,1,,,,,,salt,,,,,,0,44,44,28,1,3,0,,,,,,,,,,,,,,,,,,,,,,,,,,,,,,,,,,,,,,,,,,,,,,,,,,,,,,,,,,,,,,,,,,,,,,,,,,,
,,,,,,,,,,stimuli/images/PICTURE_308.png,KIND,5c6d0da2d5221b000101da81,18/03/1951,2020-07-09_21h30.03.320,proactive,2020.1.2,MacIntel,60,5f073de81c76c3308c0e4fb3,5f077e2e14d49e1697b08f11,1,,,,,,dice,,,,,,0,45,45,54,1,6,0,,,,,,,,,,,,,,,,,,,,,,,,,,,,,,,,,,,,,,,,,,,,,,,,,,,,,,,,,,,,,,,,,,,,,,,,,,,
,,,,,,,,,,stimuli/images/PICTURE_177.png,CARS,5c6d0da2d5221b000101da81,18/03/1951,2020-07-09_21h30.03.320,proactive,2020.1.2,MacIntel,60,5f073de81c76c3308c0e4fb3,5f077e2e14d49e1697b08f11,1,,,,,,mushroom,,,,,,0,46,46,35,1,4,0,,,,,,,,,,,,,,,,,,,,,,,,,,,,,,,,,,,,,,,,,,,,,,,,,,,,,,,,,,,,,,,,,,,,,,,,,,,
,,,,,,,,,,stimuli/images/PICTURE_311.png,FRIEND,5c6d0da2d5221b000101da81,18/03/1951,2020-07-09_21h30.03.320,proactive,2020.1.2,MacIntel,60,5f073de81c76c3308c0e4fb3,5f077e2e14d49e1697b08f11,1,,,,,,razor,,,,,,0,47,47,34,1,4,0,,,,,,,,,,,,,,,,,,,,,,,,,,,,,,,,,,,,,,,,,,,,,,,,,,,,,,,,,,,,,,,,,,,,,,,,,,,
,,,,,,,,,,stimuli/images/PICTURE_509.png,PHOTO,5c6d0da2d5221b000101da81,18/03/1951,2020-07-09_21h30.03.320,proactive,2020.1.2,MacIntel,60,5f073de81c76c3308c0e4fb3,5f077e2e14d49e1697b08f11,1,,,,,,telephone,,,,,,0,48,48,21,1,3,0,,,,,,,,,,,,,,,,,,,,,,,,,,,,,,,,,,,,,,,,,,,,,,,,,,,,,,,,,,,,,,,,,,,,,,,,,,,
,,,,,,,,,,stimuli/images/PICTURE_308.png,ESTATE,5c6d0da2d5221b000101da81,18/03/1951,2020-07-09_21h30.03.320,proactive,2020.1.2,MacIntel,60,5f073de81c76c3308c0e4fb3,5f077e2e14d49e1697b08f11,1,,,,,,dice,,,,,,0,49,49,46,1,5,0,,,,,,,,,,,,,,,,,,,,,,,,,,,,,,,,,,,,,,,,,,,,,,,,,,,,,,,,,,,,,,,,,,,,,,,,,,,
,,,,,,,,,,stimuli/images/PICTURE_32.png,JUNGLE,5c6d0da2d5221b000101da81,18/03/1951,2020-07-09_21h30.03.320,proactive,2020.1.2,MacIntel,60,5f073de81c76c3308c0e4fb3,5f077e2e14d49e1697b08f11,1,,,,,,crown,,,,,,0,50,50,45,1,5,0,,,,,,,,,,,,,,,,,,,,,,,,,,,,,,,,,,,,,,,,,,,,,,,,,,,,,,,,,,,,,,,,,,,,,,,,,,,
,,,,,,,,,,stimuli/images/PICTURE_302.png,FAMILY,5c6d0da2d5221b000101da81,18/03/1951,2020-07-09_21h30.03.320,proactive,2020.1.2,MacIntel,60,5f073de81c76c3308c0e4fb3,5f077e2e14d49e1697b08f11,1,,,,,,taxi,,,,,,0,51,51,18,1,2,0,,,,,,,,,,,,,,,,,,,,,,,,,,,,,,,,,,,,,,,,,,,,,,,,,,,,,,,,,,,,,,,,,,,,,,,,,,,
,,,,,,,,,,stimuli/images/PICTURE_208.png,THING,5c6d0da2d5221b000101da81,18/03/1951,2020-07-09_21h30.03.320,proactive,2020.1.2,MacIntel,60,5f073de81c76c3308c0e4fb3,5f077e2e14d49e1697b08f11,1,,,,,,microphone,,,,,,0,52,52,47,1,5,0,,,,,,,,,,,,,,,,,,,,,,,,,,,,,,,,,,,,,,,,,,,,,,,,,,,,,,,,,,,,,,,,,,,,,,,,,,,
,,,,,,,,,,stimuli/images/PICTURE_449.png,THING,5c6d0da2d5221b000101da81,18/03/1951,2020-07-09_21h30.03.320,proactive,2020.1.2,MacIntel,60,5f073de81c76c3308c0e4fb3,5f077e2e14d49e1697b08f11,1,,,,,,bench,,,,,,0,53,53,59,1,6,0,,,,,,,,,,,,,,,,,,,,,,,,,,,,,,,,,,,,,,,,,,,,,,,,,,,,,,,,,,,,,,,,,,,,,,,,,,,
,,,,,,,,,,stimuli/images/PICTURE_692.png,MONTH,5c6d0da2d5221b000101da81,18/03/1951,2020-07-09_21h30.03.320,proactive,2020.1.2,MacIntel,60,5f073de81c76c3308c0e4fb3,5f077e2e14d49e1697b08f11,1,,,,,,cherry,,,,,,0,54,54,16,1,2,0,,,,,,,,,,,,,,,,,,,,,,,,,,,,,,,,,,,,,,,,,,,,,,,,,,,,,,,,,,,,,,,,,,,,,,,,,,,
,,,,,,,,,,stimuli/images/PICTURE_453.png,DUDE,5c6d0da2d5221b000101da81,18/03/1951,2020-07-09_21h30.03.320,proactive,2020.1.2,MacIntel,60,5f073de81c76c3308c0e4fb3,5f077e2e14d49e1697b08f11,1,,,,,,scissors,,,,,,0,55,55,27,1,3,0,,,,,,,,,,,,,,,,,,,,,,,,,,,,,,,,,,,,,,,,,,,,,,,,,,,,,,,,,,,,,,,,,,,,,,,,,,,
,,,,,,,,,,stimuli/images/PICTURE_248.png,DOZEN,5c6d0da2d5221b000101da81,18/03/1951,2020-07-09_21h30.03.320,proactive,2020.1.2,MacIntel,60,5f073de81c76c3308c0e4fb3,5f077e2e14d49e1697b08f11,1,,,,,,cart,,,,,,0,56,56,39,1,4,0,,,,,,,,,,,,,,,,,,,,,,,,,,,,,,,,,,,,,,,,,,,,,,,,,,,,,,,,,,,,,,,,,,,,,,,,,,,
,,,,,,,,,,stimuli/images/PICTURE_208.png,MONTH,5c6d0da2d5221b000101da81,18/03/1951,2020-07-09_21h30.03.320,proactive,2020.1.2,MacIntel,60,5f073de81c76c3308c0e4fb3,5f077e2e14d49e1697b08f11,1,,,,,,microphone,,,,,,0,57,57,53,1,6,0,,,,,,,,,,,,,,,,,,,,,,,,,,,,,,,,,,,,,,,,,,,,,,,,,,,,,,,,,,,,,,,,,,,,,,,,,,,
,,,,,,,,,,stimuli/images/PICTURE_469.png,ARTIST,5c6d0da2d5221b000101da81,18/03/1951,2020-07-09_21h30.03.320,proactive,2020.1.2,MacIntel,60,5f073de81c76c3308c0e4fb3,5f077e2e14d49e1697b08f11,1,,,,,,stool,,,,,,0,58,58,6,1,1,0,,,,,,,,,,,,,,,,,,,,,,,,,,,,,,,,,,,,,,,,,,,,,,,,,,,,,,,,,,,,,,,,,,,,,,,,,,,
,,?,0.001,0,,,,,,stimuli/images/PICTURE_453.png,DUDE,5c6d0da2d5221b000101da81,18/03/1951,2020-07-09_21h30.03.320,proactive,2020.1.2,MacIntel,60,5f073de81c76c3308c0e4fb3,5f077e2e14d49e1697b08f11,1,,,,,,scissors,,,,,,,,,,,3,0,0,0,0,27,1,,,,,,,,,,,,,,,,,,,,,,,,,,,,,,,,,,,,,,,,,,,,,,,,,,,,,,,,,,,,,,,,,,,,,,
,,ARTIST,2.381,1,,,,,,stimuli/images/PICTURE_469.png,ARTIST,5c6d0da2d5221b000101da81,18/03/1951,2020-07-09_21h30.03.320,proactive,2020.1.2,MacIntel,60,5f073de81c76c3308c0e4fb3,5f077e2e14d49e1697b08f11,1,,,,,,stool,,,,,,,,,,,1,0,0,1,1,6,1,,,,,,,,,,,,,,,,,,,,,,,,,,,,,,,,,,,,,,,,,,,,,,,,,,,,,,,,,,,,,,,,,,,,,,
,,BATH,4.972,1,,,,,,stimuli/images/PICTURE_667.png,BATH,5c6d0da2d5221b000101da81,18/03/1951,2020-07-09_21h30.03.320,proactive,2020.1.2,MacIntel,60,5f073de81c76c3308c0e4fb3,5f077e2e14d49e1697b08f11,1,,,,,,daisy,,,,,,,,,,,1,0,0,2,2,4,1,,,,,,,,,,,,,,,,,,,,,,,,,,,,,,,,,,,,,,,,,,,,,,,,,,,,,,,,,,,,,,,,,,,,,,
,,?,0.001,0,,,,,,stimuli/images/PICTURE_327.png,BEAUTY,5c6d0da2d5221b000101da81,18/03/1951,2020-07-09_21h30.03.320,proactive,2020.1.2,MacIntel,60,5f073de81c76c3308c0e4fb3,5f077e2e14d49e1697b08f11,1,,,,,,helmet,,,,,,,,,,,5,0,0,3,3,48,1,,,,,,,,,,,,,,,,,,,,,,,,,,,,,,,,,,,,,,,,,,,,,,,,,,,,,,,,,,,,,,,,,,,,,,
,,FLIGHT,2.951,1,,,,,,stimuli/images/PICTURE_487.png,FLIGHT,5c6d0da2d5221b000101da81,18/03/1951,2020-07-09_21h30.03.320,proactive,2020.1.2,MacIntel,60,5f073de81c76c3308c0e4fb3,5f077e2e14d49e1697b08f11,1,,,,,,basket,,,,,,,,,,,1,0,0,4,4,9,1,,,,,,,,,,,,,,,,,,,,,,,,,,,,,,,,,,,,,,,,,,,,,,,,,,,,,,,,,,,,,,,,,,,,,,
,,BODY,5.421,1,,,,,,stimuli/images/PICTURE_504.png,BODY,5c6d0da2d5221b000101da81,18/03/1951,2020-07-09_21h30.03.320,proactive,2020.1.2,MacIntel,60,5f073de81c76c3308c0e4fb3,5f077e2e14d49e1697b08f11,1,,,,,,wheel,,,,,,,,,,,1,0,0,5,5,8,1,,,,,,,,,,,,,,,,,,,,,,,,,,,,,,,,,,,,,,,,,,,,,,,,,,,,,,,,,,,,,,,,,,,,,,
,,?,0,0,,,,,,stimuli/images/PICTURE_208.png,LOTS,5c6d0da2d5221b000101da81,18/03/1951,2020-07-09_21h30.03.320,proactive,2020.1.2,MacIntel,60,5f073de81c76c3308c0e4fb3,5f077e2e14d49e1697b08f11,1,,,,,,microphone,,,,,,,,,,,2,0,0,6,6,10,1,,,,,,,,,,,,,,,,,,,,,,,,,,,,,,,,,,,,,,,,,,,,,,,,,,,,,,,,,,,,,,,,,,,,,,
,,?,0,0,,,,,,stimuli/images/PICTURE_311.png,FRIEND,5c6d0da2d5221b000101da81,18/03/1951,2020-07-09_21h30.03.320,proactive,2020.1.2,MacIntel,60,5f073de81c76c3308c0e4fb3,5f077e2e14d49e1697b08f11,1,,,,,,razor,,,,,,,,,,,4,0,0,7,7,34,1,,,,,,,,,,,,,,,,,,,,,,,,,,,,,,,,,,,,,,,,,,,,,,,,,,,,,,,,,,,,,,,,,,,,,,
,,?,0,0,,,,,,stimuli/images/PICTURE_123.png,ADVICE,5c6d0da2d5221b000101da81,18/03/1951,2020-07-09_21h30.03.320,proactive,2020.1.2,MacIntel,60,5f073de81c76c3308c0e4fb3,5f077e2e14d49e1697b08f11,1,,,,,,dart,,,,,,,,,,,6,0,0,8,8,50,1,,,,,,,,,,,,,,,,,,,,,,,,,,,,,,,,,,,,,,,,,,,,,,,,,,,,,,,,,,,,,,,,,,,,,,
,,?,0,0,,,,,,stimuli/images/PICTURE_688.png,WOMEN,5c6d0da2d5221b000101da81,18/03/1951,2020-07-09_21h30.03.320,proactive,2020.1.2,MacIntel,60,5f073de81c76c3308c0e4fb3,5f077e2e14d49e1697b08f11,1,,,,,,runner,,,,,,,,,,,2,0,0,9,9,14,1,,,,,,,,,,,,,,,,,,,,,,,,,,,,,,,,,,,,,,,,,,,,,,,,,,,,,,,,,,,,,,,,,,,,,,
,,?,0,0,,,,,,stimuli/images/PICTURE_311.png,BEAUTY,5c6d0da2d5221b000101da81,18/03/1951,2020-07-09_21h30.03.320,proactive,2020.1.2,MacIntel,60,5f073de81c76c3308c0e4fb3,5f077e2e14d49e1697b08f11,1,,,,,,razor,,,,,,,,,,,2,0,0,10,10,13,1,,,,,,,,,,,,,,,,,,,,,,,,,,,,,,,,,,,,,,,,,,,,,,,,,,,,,,,,,,,,,,,,,,,,,,
,,?,0,0,,,,,,stimuli/images/PICTURE_708.png,YARD,5c6d0da2d5221b000101da81,18/03/1951,2020-07-09_21h30.03.320,proactive,2020.1.2,MacIntel,60,5f073de81c76c3308c0e4fb3,5f077e2e14d49e1697b08f11,1,,,,,,monkey,,,,,,,,,,,3,0,0,11,11,29,1,,,,,,,,,,,,,,,,,,,,,,,,,,,,,,,,,,,,,,,,,,,,,,,,,,,,,,,,,,,,,,,,,,,,,,
,,?,0.001,0,,,,,,stimuli/images/PICTURE_233.png,WOMEN,5c6d0da2d5221b000101da81,18/03/1951,2020-07-09_21h30.03.320,proactive,2020.1.2,MacIntel,60,5f073de81c76c3308c0e4fb3,5f077e2e14d49e1697b08f11,1,,,,,,salt,,,,,,,,,,,4,0,0,12,12,38,1,,,,,,,,,,,,,,,,,,,,,,,,,,,,,,,,,,,,,,,,,,,,,,,,,,,,,,,,,,,,,,,,,,,,,,
,,?,0.001,0,,,,,,stimuli/images/PICTURE_85.png,THING,5c6d0da2d5221b000101da81,18/03/1951,2020-07-09_21h30.03.320,proactive,2020.1.2,MacIntel,60,5f073de81c76c3308c0e4fb3,5f077e2e14d49e1697b08f11,1,,,,,,diamond,,,,,,,,,,,2,0,0,13,13,15,1,,,,,,,,,,,,,,,,,,,,,,,,,,,,,,,,,,,,,,,,,,,,,,,,,,,,,,,,,,,,,,,,,,,,,,
,,?,15.01,0,,,,,,stimuli/images/PICTURE_688.png,CASINO,5c6d0da2d5221b000101da81,18/03/1951,2020-07-09_21h30.03.320,proactive,2020.1.2,MacIntel,60,5f073de81c76c3308c0e4fb3,5f077e2e14d49e1697b08f11,1,,,,,,runner,,,,,,,,,,,1,0,0,14,14,2,1,,,,,,,,,,,,,,,,,,,,,,,,,,,,,,,,,,,,,,,,,,,,,,,,,,,,,,,,,,,,,,,,,,,,,,
,,?,0.001,0,,,,,,stimuli/images/PICTURE_151.png,GIRL,5c6d0da2d5221b000101da81,18/03/1951,2020-07-09_21h30.03.320,proactive,2020.1.2,MacIntel,60,5f073de81c76c3308c0e4fb3,5f077e2e14d49e1697b08f11,1,,,,,,tray,,,,,,,,,,,2,0,0,15,15,19,1,,,,,,,,,,,,,,,,,,,,,,,,,,,,,,,,,,,,,,,,,,,,,,,,,,,,,,,,,,,,,,,,,,,,,,
