consent_key.keys,consent_key.rt,recalled,recalled_rt,recall_acc,example_recall.thisRepN,example_recall.thisTrialN,example_recall.thisN,example_recall.thisIndex,example_recall.ran,file,word,participant,please enter your date of birth (dd/mm/yyyy),date,expName,psychopyVersion,OS,frameRate,STUDY_ID,SESSION_ID,list,prac_learn_study_loop.thisRepN,prac_learn_study_loop.thisTrialN,prac_learn_study_loop.thisN,prac_learn_study_loop.thisIndex,prac_learn_study_loop.ran,image,prac_learn_test_loop.thisRepN,prac_learn_test_loop.thisTrialN,prac_learn_test_loop.thisN,prac_learn_test_loop.thisIndex,prac_learn_test_loop.ran,learn_study_loop.thisRepN,learn_study_loop.thisTrialN,learn_study_loop.thisN,learn_study_loop.thisIndex,learn_study_loop.ran,list_no,block_no,learn_test_loop.thisRepN,learn_test_loop.thisTrialN,learn_test_loop.thisN,learn_test_loop.thisIndex,learn_test_loop.ran,learn_blocks.thisRepN,learn_blocks.thisTrialN,learn_blocks.thisN,learn_blocks.thisIndex,learn_blocks.ran,block_csv,key_resp_13.keys,key_resp_13.rt,learn_blocks_loop.thisRepN,learn_blocks_loop.thisTrialN,learn_blocks_loop.thisN,learn_blocks_loop.thisIndex,learn_blocks_loop.ran,final_learn_test.thisRepN,final_learn_test.thisTrialN,final_learn_test.thisN,final_learn_test.thisIndex,final_learn_test.ran,prac_wm_test_loop.thisRepN,prac_wm_test_loop.thisTrialN,prac_wm_test_loop.thisN,prac_wm_test_loop.thisIndex,prac_wm_test_loop.ran,wm_recalled1,wm_recall_rt1,wm_probed1,wm_recall_acc1,wm_recalled2,wm_recall_rt2,wm_probed2,wm_recall_acc2,wm_recalled3,wm_recall_rt3,wm_probed3,wm_recall_acc3,wm_recalled4,wm_recall_rt4,wm_probed4,wm_recall_acc4,prac_wm_trial_loop.thisRepN,prac_wm_trial_loop.thisTrialN,prac_wm_trial_loop.thisN,prac_wm_trial_loop.thisIndex,prac_wm_trial_loop.ran,word1,image1,file1,item_type1,word2,image2,file2,item_type2,word4,image4,file4,item_type4,word3,image3,file3,item_type3,wm_test_loop.thisRepN,wm_test_loop.thisTrialN,wm_test_loop.thisN,wm_test_loop.thisIndex,wm_test_loop.ran,wm_trial_loop.thisRepN,wm_trial_loop.thisTrialN,wm_trial_loop.thisN,wm_trial_loop.thisIndex,wm_trial_loop.ran
y,15.24854,?,14.660655,0,0,0,0,0,1,stimuli/images/PICTURE_747.png,TOUGH,5c6fc42118508b0001e1e711,15/07/1948,2020-07-09_21h11.22.109,proactive,2020.1.2,Win32,60,5f073de81c76c3308c0e4fb3,5f077900057bf638ddb650ee,2,,,,,,,,,,,,,,,,,,,,,,,,,,,,,,,,,,,,,,,,,,,,,,,,,,,,,,,,,,,,,,,,,,,,,,,,,,,,,,,,,,,,,,,,,,,,,
,,,,,,,,,,stimuli/images/PICTURE_658.png,DEVIL,5c6fc42118508b0001e1e711,15/07/1948,2020-07-09_21h11.22.109,proactive,2020.1.2,Win32,60,5f073de81c76c3308c0e4fb3,5f077900057bf638ddb650ee,2,0,0,0,3,1,crow,,,,,,,,,,,,,,,,,,,,,,,,,,,,,,,,,,,,,,,,,,,,,,,,,,,,,,,,,,,,,,,,,,,,,,,,,,,,,,,,,,,,,,,
,,,,,,,,,,stimuli/images/PICTURE_269.png,GENIUS,5c6fc42118508b0001e1e711,15/07/1948,2020-07-09_21h11.22.109,proactive,2020.1.2,Win32,60,5f073de81c76c3308c0e4fb3,5f077900057bf638ddb650ee,2,0,1,1,0,1,chameleon,,,,,,,,,,,,,,,,,,,,,,,,,,,,,,,,,,,,,,,,,,,,,,,,,,,,,,,,,,,,,,,,,,,,,,,,,,,,,,,,,,,,,,,
,,,,,,,,,,stimuli/images/PICTURE_727.png,CELL,5c6fc42118508b0001e1e711,15/07/1948,2020-07-09_21h11.22.109,proactive,2020.1.2,Win32,60,5f073de81c76c3308c0e4fb3,5f077900057bf638ddb650ee,2,0,2,2,1,1,hose,,,,,,,,,,,,,,,,,,,,,,,,,,,,,,,,,,,,,,,,,,,,,,,,,,,,,,,,,,,,,,,,,,,,,,,,,,,,,,,,,,,,,,,
,,,,,,,,,,stimuli/images/PICTURE_697.png,KILLER,5c6fc42118508b0001e1e711,15/07/1948,2020-07-09_21h11.22.109,proactive,2020.1.2,Win32,60,5f073de81c76c3308c0e4fb3,5f077900057bf638ddb650ee,2,0,3,3,4,1,peach,,,,,,,,,,,,,,,,,,,,,,,,,,,,,,,,,,,,,,,,,,,,,,,,,,,,,,,,,,,,,,,,,,,,,,,,,,,,,,,,,,,,,,,
,,?,15.005605,0,,,,,,stimuli/images/PICTURE_269.png,GENIUS,5c6fc42118508b0001e1e711,15/07/1948,2020-07-09_21h11.22.109,proactive,2020.1.2,Win32,60,5f073de81c76c3308c0e4fb3,5f077900057bf638ddb650ee,2,,,,,,chameleon,0,0,0,0,1,,,,,,,,,,,,,,,,,,,,,,,,,,,,,,,,,,,,,,,,,,,,,,,,,,,,,,,,,,,,,,,,,,,,,,,,,,,,,,,,,,
,,CLL,15.00746,0,,,,,,stimuli/images/PICTURE_727.png,CELL,5c6fc42118508b0001e1e711,15/07/1948,2020-07-09_21h11.22.109,proactive,2020.1.2,Win32,60,5f073de81c76c3308c0e4fb3,5f077900057bf638ddb650ee,2,,,,,,hose,0,1,1,1,1,,,,,,,,,,,,,,,,,,,,,,,,,,,,,,,,,,,,,,,,,,,,,,,,,,,,,,,,,,,,,,,,,,,,,,,,,,,,,,,,,,
,,KILLER,15.008475,1,,,,,,stimuli/images/PICTURE_697.png,KILLER,5c6fc42118508b0001e1e711,15/07/1948,2020-07-09_21h11.22.109,proactive,2020.1.2,Win32,60,5f073de81c76c3308c0e4fb3,5f077900057bf638ddb650ee,2,,,,,,peach,0,2,2,4,1,,,,,,,,,,,,,,,,,,,,,,,,,,,,,,,,,,,,,,,,,,,,,,,,,,,,,,,,,,,,,,,,,,,,,,,,,,,,,,,,,,
,,DEVIL,15.00911,1,,,,,,stimuli/images/PICTURE_658.png,DEVIL,5c6fc42118508b0001e1e711,15/07/1948,2020-07-09_21h11.22.109,proactive,2020.1.2,Win32,60,5f073de81c76c3308c0e4fb3,5f077900057bf638ddb650ee,2,,,,,,crow,0,3,3,3,1,,,,,,,,,,,,,,,,,,,,,,,,,,,,,,,,,,,,,,,,,,,,,,,,,,,,,,,,,,,,,,,,,,,,,,,,,,,,,,,,,,
,,LOSS,15.00974,1,,,,,,stimuli/images/PICTURE_378.png,LOSS,5c6fc42118508b0001e1e711,15/07/1948,2020-07-09_21h11.22.109,proactive,2020.1.2,Win32,60,5f073de81c76c3308c0e4fb3,5f077900057bf638ddb650ee,2,,,,,,lobster,0,4,4,2,1,,,,,,,,,,,,,,,,,,,,,,,,,,,,,,,,,,,,,,,,,,,,,,,,,,,,,,,,,,,,,,,,,,,,,,,,,,,,,,,,,,
,,,,,,,,,,stimuli/images/PICTURE_285.png,ADVICE,5c6fc42118508b0001e1e711,15/07/1948,2020-07-09_21h11.22.109,proactive,2020.1.2,Win32,60,5f073de81c76c3308c0e4fb3,5f077900057bf638ddb650ee,2,,,,,,carrot,,,,,,0,0,0,12,1,2,0,,,,,,,,,,,,,,,,,,,,,,,,,,,,,,,,,,,,,,,,,,,,,,,,,,,,,,,,,,,,,,,,,,,,,,,,,,,
,,,,,,,,,,stimuli/images/PICTURE_469.png,LETTER,5c6fc42118508b0001e1e711,15/07/1948,2020-07-09_21h11.22.109,proactive,2020.1.2,Win32,60,5f073de81c76c3308c0e4fb3,5f077900057bf638ddb650ee,2,,,,,,stool,,,,,,0,1,1,42,1,5,0,,,,,,,,,,,,,,,,,,,,,,,,,,,,,,,,,,,,,,,,,,,,,,,,,,,,,,,,,,,,,,,,,,,,,,,,,,,
,,,,,,,,,,stimuli/images/PICTURE_308.png,KIND,5c6fc42118508b0001e1e711,15/07/1948,2020-07-09_21h11.22.109,proactive,2020.1.2,Win32,60,5f073de81c76c3308c0e4fb3,5f077900057bf638ddb650ee,2,,,,,,dice,,,,,,0,2,2,54,1,6,0,,,,,,,,,,,,,,,,,,,,,,,,,,,,,,,,,,,,,,,,,,,,,,,,,,,,,,,,,,,,,,,,,,,,,,,,,,,
,,,,,,,,,,stimuli/images/PICTURE_453.png,PLENTY,5c6fc42118508b0001e1e711,15/07/1948,2020-07-09_21h11.22.109,proactive,2020.1.2,Win32,60,5f073de81c76c3308c0e4fb3,5f077900057bf638ddb650ee,2,,,,,,scissors,,,,,,0,3,3,56,1,6,0,,,,,,,,,,,,,,,,,,,,,,,,,,,,,,,,,,,,,,,,,,,,,,,,,,,,,,,,,,,,,,,,,,,,,,,,,,,
,,,,,,,,,,stimuli/images/PICTURE_203.png,ARTIST,5c6fc42118508b0001e1e711,15/07/1948,2020-07-09_21h11.22.109,proactive,2020.1.2,Win32,60,5f073de81c76c3308c0e4fb3,5f077900057bf638ddb650ee,2,,,,,,cap,,,,,,0,4,4,26,1,3,0,,,,,,,,,,,,,,,,,,,,,,,,,,,,,,,,,,,,,,,,,,,,,,,,,,,,,,,,,,,,,,,,,,,,,,,,,,,
,,,,,,,,,,stimuli/images/PICTURE_32.png,JUNGLE,5c6fc42118508b0001e1e711,15/07/1948,2020-07-09_21h11.22.109,proactive,2020.1.2,Win32,60,5f073de81c76c3308c0e4fb3,5f077900057bf638ddb650ee,2,,,,,,crown,,,,,,0,5,5,45,1,5,0,,,,,,,,,,,,,,,,,,,,,,,,,,,,,,,,,,,,,,,,,,,,,,,,,,,,,,,,,,,,,,,,,,,,,,,,,,,
,,,,,,,,,,stimuli/images/PICTURE_123.png,ADVICE,5c6fc42118508b0001e1e711,15/07/1948,2020-07-09_21h11.22.109,proactive,2020.1.2,Win32,60,5f073de81c76c3308c0e4fb3,5f077900057bf638ddb650ee,2,,,,,,dart,,,,,,0,6,6,40,1,5,0,,,,,,,,,,,,,,,,,,,,,,,,,,,,,,,,,,,,,,,,,,,,,,,,,,,,,,,,,,,,,,,,,,,,,,,,,,,
,,,,,,,,,,stimuli/images/PICTURE_467.png,DEMON,5c6fc42118508b0001e1e711,15/07/1948,2020-07-09_21h11.22.109,proactive,2020.1.2,Win32,60,5f073de81c76c3308c0e4fb3,5f077900057bf638ddb650ee,2,,,,,,peg,,,,,,0,7,7,23,1,3,0,,,,,,,,,,,,,,,,,,,,,,,,,,,,,,,,,,,,,,,,,,,,,,,,,,,,,,,,,,,,,,,,,,,,,,,,,,,
,,,,,,,,,,stimuli/images/PICTURE_314.png,GODS,5c6fc42118508b0001e1e711,15/07/1948,2020-07-09_21h11.22.109,proactive,2020.1.2,Win32,60,5f073de81c76c3308c0e4fb3,5f077900057bf638ddb650ee,2,,,,,,perfume,,,,,,0,8,8,11,1,2,0,,,,,,,,,,,,,,,,,,,,,,,,,,,,,,,,,,,,,,,,,,,,,,,,,,,,,,,,,,,,,,,,,,,,,,,,,,,
,,,,,,,,,,stimuli/images/PICTURE_339.png,PLENTY,5c6fc42118508b0001e1e711,15/07/1948,2020-07-09_21h11.22.109,proactive,2020.1.2,Win32,60,5f073de81c76c3308c0e4fb3,5f077900057bf638ddb650ee,2,,,,,,backpack,,,,,,0,9,9,0,1,1,0,,,,,,,,,,,,,,,,,,,,,,,,,,,,,,,,,,,,,,,,,,,,,,,,,,,,,,,,,,,,,,,,,,,,,,,,,,,
,,,,,,,,,,stimuli/images/PICTURE_469.png,ARTIST,5c6fc42118508b0001e1e711,15/07/1948,2020-07-09_21h11.22.109,proactive,2020.1.2,Win32,60,5f073de81c76c3308c0e4fb3,5f077900057bf638ddb650ee,2,,,,,,stool,,,,,,0,10,10,6,1,1,0,,,,,,,,,,,,,,,,,,,,,,,,,,,,,,,,,,,,,,,,,,,,,,,,,,,,,,,,,,,,,,,,,,,,,,,,,,,
,,,,,,,,,,stimuli/images/PICTURE_248.png,DOZEN,5c6fc42118508b0001e1e711,15/07/1948,2020-07-09_21h11.22.109,proactive,2020.1.2,Win32,60,5f073de81c76c3308c0e4fb3,5f077900057bf638ddb650ee,2,,,,,,cart,,,,,,0,11,11,39,1,4,0,,,,,,,,,,,,,,,,,,,,,,,,,,,,,,,,,,,,,,,,,,,,,,,,,,,,,,,,,,,,,,,,,,,,,,,,,,,
,,,,,,,,,,stimuli/images/PICTURE_68.png,MILE,5c6fc42118508b0001e1e711,15/07/1948,2020-07-09_21h11.22.109,proactive,2020.1.2,Win32,60,5f073de81c76c3308c0e4fb3,5f077900057bf638ddb650ee,2,,,,,,candle,,,,,,0,12,12,44,1,5,0,,,,,,,,,,,,,,,,,,,,,,,,,,,,,,,,,,,,,,,,,,,,,,,,,,,,,,,,,,,,,,,,,,,,,,,,,,,
,,,,,,,,,,stimuli/images/PICTURE_208.png,MONTH,5c6fc42118508b0001e1e711,15/07/1948,2020-07-09_21h11.22.109,proactive,2020.1.2,Win32,60,5f073de81c76c3308c0e4fb3,5f077900057bf638ddb650ee,2,,,,,,microphone,,,,,,0,13,13,53,1,6,0,,,,,,,,,,,,,,,,,,,,,,,,,,,,,,,,,,,,,,,,,,,,,,,,,,,,,,,,,,,,,,,,,,,,,,,,,,,
,,,,,,,,,,stimuli/images/PICTURE_160.png,LEADER,5c6fc42118508b0001e1e711,15/07/1948,2020-07-09_21h11.22.109,proactive,2020.1.2,Win32,60,5f073de81c76c3308c0e4fb3,5f077900057bf638ddb650ee,2,,,,,,wheelbarrow,,,,,,0,14,14,3,1,1,0,,,,,,,,,,,,,,,,,,,,,,,,,,,,,,,,,,,,,,,,,,,,,,,,,,,,,,,,,,,,,,,,,,,,,,,,,,,
,,,,,,,,,,stimuli/images/PICTURE_123.png,ADVICE,5c6fc42118508b0001e1e711,15/07/1948,2020-07-09_21h11.22.109,proactive,2020.1.2,Win32,60,5f073de81c76c3308c0e4fb3,5f077900057bf638ddb650ee,2,,,,,,dart,,,,,,0,15,15,50,1,6,0,,,,,,,,,,,,,,,,,,,,,,,,,,,,,,,,,,,,,,,,,,,,,,,,,,,,,,,,,,,,,,,,,,,,,,,,,,,
,,,,,,,,,,stimuli/images/PICTURE_744.png,SAKE,5c6fc42118508b0001e1e711,15/07/1948,2020-07-09_21h11.22.109,proactive,2020.1.2,Win32,60,5f073de81c76c3308c0e4fb3,5f077900057bf638ddb650ee,2,,,,,,ring,,,,,,0,16,16,17,1,2,0,,,,,,,,,,,,,,,,,,,,,,,,,,,,,,,,,,,,,,,,,,,,,,,,,,,,,,,,,,,,,,,,,,,,,,,,,,,
,,,,,,,,,,stimuli/images/PICTURE_504.png,BODY,5c6fc42118508b0001e1e711,15/07/1948,2020-07-09_21h11.22.109,proactive,2020.1.2,Win32,60,5f073de81c76c3308c0e4fb3,5f077900057bf638ddb650ee,2,,,,,,wheel,,,,,,0,17,17,8,1,1,0,,,,,,,,,,,,,,,,,,,,,,,,,,,,,,,,,,,,,,,,,,,,,,,,,,,,,,,,,,,,,,,,,,,,,,,,,,,
,,,,,,,,,,stimuli/images/PICTURE_233.png,IDEAS,5c6fc42118508b0001e1e711,15/07/1948,2020-07-09_21h11.22.109,proactive,2020.1.2,Win32,60,5f073de81c76c3308c0e4fb3,5f077900057bf638ddb650ee,2,,,,,,salt,,,,,,0,18,18,28,1,3,0,,,,,,,,,,,,,,,,,,,,,,,,,,,,,,,,,,,,,,,,,,,,,,,,,,,,,,,,,,,,,,,,,,,,,,,,,,,
,,,,,,,,,,stimuli/images/PICTURE_453.png,DUDE,5c6fc42118508b0001e1e711,15/07/1948,2020-07-09_21h11.22.109,proactive,2020.1.2,Win32,60,5f073de81c76c3308c0e4fb3,5f077900057bf638ddb650ee,2,,,,,,scissors,,,,,,0,19,19,27,1,3,0,,,,,,,,,,,,,,,,,,,,,,,,,,,,,,,,,,,,,,,,,,,,,,,,,,,,,,,,,,,,,,,,,,,,,,,,,,,
,,,,,,,,,,stimuli/images/PICTURE_208.png,THING,5c6fc42118508b0001e1e711,15/07/1948,2020-07-09_21h11.22.109,proactive,2020.1.2,Win32,60,5f073de81c76c3308c0e4fb3,5f077900057bf638ddb650ee,2,,,,,,microphone,,,,,,0,20,20,47,1,5,0,,,,,,,,,,,,,,,,,,,,,,,,,,,,,,,,,,,,,,,,,,,,,,,,,,,,,,,,,,,,,,,,,,,,,,,,,,,
,,,,,,,,,,stimuli/images/PICTURE_708.png,CLIENT,5c6fc42118508b0001e1e711,15/07/1948,2020-07-09_21h11.22.109,proactive,2020.1.2,Win32,60,5f073de81c76c3308c0e4fb3,5f077900057bf638ddb650ee,2,,,,,,monkey,,,,,,0,21,21,5,1,1,0,,,,,,,,,,,,,,,,,,,,,,,,,,,,,,,,,,,,,,,,,,,,,,,,,,,,,,,,,,,,,,,,,,,,,,,,,,,
,,,,,,,,,,stimuli/images/PICTURE_177.png,CARS,5c6fc42118508b0001e1e711,15/07/1948,2020-07-09_21h11.22.109,proactive,2020.1.2,Win32,60,5f073de81c76c3308c0e4fb3,5f077900057bf638ddb650ee,2,,,,,,mushroom,,,,,,0,22,22,35,1,4,0,,,,,,,,,,,,,,,,,,,,,,,,,,,,,,,,,,,,,,,,,,,,,,,,,,,,,,,,,,,,,,,,,,,,,,,,,,,
,,,,,,,,,,stimuli/images/PICTURE_509.png,PHOTO,5c6fc42118508b0001e1e711,15/07/1948,2020-07-09_21h11.22.109,proactive,2020.1.2,Win32,60,5f073de81c76c3308c0e4fb3,5f077900057bf638ddb650ee,2,,,,,,telephone,,,,,,0,23,23,21,1,3,0,,,,,,,,,,,,,,,,,,,,,,,,,,,,,,,,,,,,,,,,,,,,,,,,,,,,,,,,,,,,,,,,,,,,,,,,,,,
,,,,,,,,,,stimuli/images/PICTURE_491.png,WRITER,5c6fc42118508b0001e1e711,15/07/1948,2020-07-09_21h11.22.109,proactive,2020.1.2,Win32,60,5f073de81c76c3308c0e4fb3,5f077900057bf638ddb650ee,2,,,,,,rug,,,,,,0,24,24,57,1,6,0,,,,,,,,,,,,,,,,,,,,,,,,,,,,,,,,,,,,,,,,,,,,,,,,,,,,,,,,,,,,,,,,,,,,,,,,,,,
,,,,,,,,,,stimuli/images/PICTURE_491.png,ROOF,5c6fc42118508b0001e1e711,15/07/1948,2020-07-09_21h11.22.109,proactive,2020.1.2,Win32,60,5f073de81c76c3308c0e4fb3,5f077900057bf638ddb650ee,2,,,,,,rug,,,,,,0,25,25,24,1,3,0,,,,,,,,,,,,,,,,,,,,,,,,,,,,,,,,,,,,,,,,,,,,,,,,,,,,,,,,,,,,,,,,,,,,,,,,,,,
,,,,,,,,,,stimuli/images/PICTURE_314.png,SAKE,5c6fc42118508b0001e1e711,15/07/1948,2020-07-09_21h11.22.109,proactive,2020.1.2,Win32,60,5f073de81c76c3308c0e4fb3,5f077900057bf638ddb650ee,2,,,,,,perfume,,,,,,0,26,26,7,1,1,0,,,,,,,,,,,,,,,,,,,,,,,,,,,,,,,,,,,,,,,,,,,,,,,,,,,,,,,,,,,,,,,,,,,,,,,,,,,
,,,,,,,,,,stimuli/images/PICTURE_208.png,LOTS,5c6fc42118508b0001e1e711,15/07/1948,2020-07-09_21h11.22.109,proactive,2020.1.2,Win32,60,5f073de81c76c3308c0e4fb3,5f077900057bf638ddb650ee,2,,,,,,microphone,,,,,,0,27,27,10,1,2,0,,,,,,,,,,,,,,,,,,,,,,,,,,,,,,,,,,,,,,,,,,,,,,,,,,,,,,,,,,,,,,,,,,,,,,,,,,,
,,,,,,,,,,stimuli/images/PICTURE_147.png,MOMENT,5c6fc42118508b0001e1e711,15/07/1948,2020-07-09_21h11.22.109,proactive,2020.1.2,Win32,60,5f073de81c76c3308c0e4fb3,5f077900057bf638ddb650ee,2,,,,,,hanger,,,,,,0,28,28,51,1,6,0,,,,,,,,,,,,,,,,,,,,,,,,,,,,,,,,,,,,,,,,,,,,,,,,,,,,,,,,,,,,,,,,,,,,,,,,,,,
,,,,,,,,,,stimuli/images/PICTURE_95.png,STYLE,5c6fc42118508b0001e1e711,15/07/1948,2020-07-09_21h11.22.109,proactive,2020.1.2,Win32,60,5f073de81c76c3308c0e4fb3,5f077900057bf638ddb650ee,2,,,,,,suitcase,,,,,,0,29,29,25,1,3,0,,,,,,,,,,,,,,,,,,,,,,,,,,,,,,,,,,,,,,,,,,,,,,,,,,,,,,,,,,,,,,,,,,,,,,,,,,,
,,,,,,,,,,stimuli/images/PICTURE_688.png,WOMEN,5c6fc42118508b0001e1e711,15/07/1948,2020-07-09_21h11.22.109,proactive,2020.1.2,Win32,60,5f073de81c76c3308c0e4fb3,5f077900057bf638ddb650ee,2,,,,,,runner,,,,,,0,30,30,14,1,2,0,,,,,,,,,,,,,,,,,,,,,,,,,,,,,,,,,,,,,,,,,,,,,,,,,,,,,,,,,,,,,,,,,,,,,,,,,,,
,,,,,,,,,,stimuli/images/PICTURE_449.png,THING,5c6fc42118508b0001e1e711,15/07/1948,2020-07-09_21h11.22.109,proactive,2020.1.2,Win32,60,5f073de81c76c3308c0e4fb3,5f077900057bf638ddb650ee,2,,,,,,bench,,,,,,0,31,31,59,1,6,0,,,,,,,,,,,,,,,,,,,,,,,,,,,,,,,,,,,,,,,,,,,,,,,,,,,,,,,,,,,,,,,,,,,,,,,,,,,
,,,,,,,,,,stimuli/images/PICTURE_380.png,PHOTO,5c6fc42118508b0001e1e711,15/07/1948,2020-07-09_21h11.22.109,proactive,2020.1.2,Win32,60,5f073de81c76c3308c0e4fb3,5f077900057bf638ddb650ee,2,,,,,,gorilla,,,,,,0,32,32,52,1,6,0,,,,,,,,,,,,,,,,,,,,,,,,,,,,,,,,,,,,,,,,,,,,,,,,,,,,,,,,,,,,,,,,,,,,,,,,,,,
,,,,,,,,,,stimuli/images/PICTURE_487.png,FLIGHT,5c6fc42118508b0001e1e711,15/07/1948,2020-07-09_21h11.22.109,proactive,2020.1.2,Win32,60,5f073de81c76c3308c0e4fb3,5f077900057bf638ddb650ee,2,,,,,,basket,,,,,,0,33,33,9,1,1,0,,,,,,,,,,,,,,,,,,,,,,,,,,,,,,,,,,,,,,,,,,,,,,,,,,,,,,,,,,,,,,,,,,,,,,,,,,,
,,,,,,,,,,stimuli/images/PICTURE_327.png,BEAUTY,5c6fc42118508b0001e1e711,15/07/1948,2020-07-09_21h11.22.109,proactive,2020.1.2,Win32,60,5f073de81c76c3308c0e4fb3,5f077900057bf638ddb650ee,2,,,,,,helmet,,,,,,0,34,34,48,1,5,0,,,,,,,,,,,,,,,,,,,,,,,,,,,,,,,,,,,,,,,,,,,,,,,,,,,,,,,,,,,,,,,,,,,,,,,,,,,
,,,,,,,,,,stimuli/images/PICTURE_151.png,GIRL,5c6fc42118508b0001e1e711,15/07/1948,2020-07-09_21h11.22.109,proactive,2020.1.2,Win32,60,5f073de81c76c3308c0e4fb3,5f077900057bf638ddb650ee,2,,,,,,tray,,,,,,0,35,35,19,1,2,0,,,,,,,,,,,,,,,,,,,,,,,,,,,,,,,,,,,,,,,,,,,,,,,,,,,,,,,,,,,,,,,,,,,,,,,,,,,
,,,,,,,,,,stimuli/images/PICTURE_308.png,ESTATE,5c6fc42118508b0001e1e711,15/07/1948,2020-07-09_21h11.22.109,proactive,2020.1.2,Win32,60,5f073de81c76c3308c0e4fb3,5f077900057bf638ddb650ee,2,,,,,,dice,,,,,,0,36,36,46,1,5,0,,,,,,,,,,,,,,,,,,,,,,,,,,,,,,,,,,,,,,,,,,,,,,,,,,,,,,,,,,,,,,,,,,,,,,,,,,,
,,,,,,,,,,stimuli/images/PICTURE_302.png,FAMILY,5c6fc42118508b0001e1e711,15/07/1948,2020-07-09_21h11.22.109,proactive,2020.1.2,Win32,60,5f073de81c76c3308c0e4fb3,5f077900057bf638ddb650ee,2,,,,,,taxi,,,,,,0,37,37,18,1,2,0,,,,,,,,,,,,,,,,,,,,,,,,,,,,,,,,,,,,,,,,,,,,,,,,,,,,,,,,,,,,,,,,,,,,,,,,,,,
,,,,,,,,,,stimuli/images/PICTURE_380.png,DEATH,5c6fc42118508b0001e1e711,15/07/1948,2020-07-09_21h11.22.109,proactive,2020.1.2,Win32,60,5f073de81c76c3308c0e4fb3,5f077900057bf638ddb650ee,2,,,,,,gorilla,,,,,,0,38,38,49,1,5,0,,,,,,,,,,,,,,,,,,,,,,,,,,,,,,,,,,,,,,,,,,,,,,,,,,,,,,,,,,,,,,,,,,,,,,,,,,,
,,,,,,,,,,stimuli/images/PICTURE_255.png,AREA,5c6fc42118508b0001e1e711,15/07/1948,2020-07-09_21h11.22.109,proactive,2020.1.2,Win32,60,5f073de81c76c3308c0e4fb3,5f077900057bf638ddb650ee,2,,,,,,shovel,,,,,,0,39,39,22,1,3,0,,,,,,,,,,,,,,,,,,,,,,,,,,,,,,,,,,,,,,,,,,,,,,,,,,,,,,,,,,,,,,,,,,,,,,,,,,,
,,,,,,,,,,stimuli/images/PICTURE_311.png,FRIEND,5c6fc42118508b0001e1e711,15/07/1948,2020-07-09_21h11.22.109,proactive,2020.1.2,Win32,60,5f073de81c76c3308c0e4fb3,5f077900057bf638ddb650ee,2,,,,,,razor,,,,,,0,40,40,34,1,4,0,,,,,,,,,,,,,,,,,,,,,,,,,,,,,,,,,,,,,,,,,,,,,,,,,,,,,,,,,,,,,,,,,,,,,,,,,,,
,,,,,,,,,,stimuli/images/PICTURE_215.png,PLENTY,5c6fc42118508b0001e1e711,15/07/1948,2020-07-09_21h11.22.109,proactive,2020.1.2,Win32,60,5f073de81c76c3308c0e4fb3,5f077900057bf638ddb650ee,2,,,,,,boot,,,,,,0,41,41,37,1,4,0,,,,,,,,,,,,,,,,,,,,,,,,,,,,,,,,,,,,,,,,,,,,,,,,,,,,,,,,,,,,,,,,,,,,,,,,,,,
,,,,,,,,,,stimuli/images/PICTURE_744.png,SYSTEM,5c6fc42118508b0001e1e711,15/07/1948,2020-07-09_21h11.22.109,proactive,2020.1.2,Win32,60,5f073de81c76c3308c0e4fb3,5f077900057bf638ddb650ee,2,,,,,,ring,,,,,,0,42,42,43,1,5,0,,,,,,,,,,,,,,,,,,,,,,,,,,,,,,,,,,,,,,,,,,,,,,,,,,,,,,,,,,,,,,,,,,,,,,,,,,,
,,,,,,,,,,stimuli/images/PICTURE_708.png,PENNY,5c6fc42118508b0001e1e711,15/07/1948,2020-07-09_21h11.22.109,proactive,2020.1.2,Win32,60,5f073de81c76c3308c0e4fb3,5f077900057bf638ddb650ee,2,,,,,,monkey,,,,,,0,43,43,31,1,4,0,,,,,,,,,,,,,,,,,,,,,,,,,,,,,,,,,,,,,,,,,,,,,,,,,,,,,,,,,,,,,,,,,,,,,,,,,,,
,,,,,,,,,,stimuli/images/PICTURE_675.png,WEAPON,5c6fc42118508b0001e1e711,15/07/1948,2020-07-09_21h11.22.109,proactive,2020.1.2,Win32,60,5f073de81c76c3308c0e4fb3,5f077900057bf638ddb650ee,2,,,,,,windmill,,,,,,0,44,44,32,1,4,0,,,,,,,,,,,,,,,,,,,,,,,,,,,,,,,,,,,,,,,,,,,,,,,,,,,,,,,,,,,,,,,,,,,,,,,,,,,
,,,,,,,,,,stimuli/images/PICTURE_470.png,CASINO,5c6fc42118508b0001e1e711,15/07/1948,2020-07-09_21h11.22.109,proactive,2020.1.2,Win32,60,5f073de81c76c3308c0e4fb3,5f077900057bf638ddb650ee,2,,,,,,motorbike,,,,,,0,45,45,36,1,4,0,,,,,,,,,,,,,,,,,,,,,,,,,,,,,,,,,,,,,,,,,,,,,,,,,,,,,,,,,,,,,,,,,,,,,,,,,,,
,,,,,,,,,,stimuli/images/PICTURE_488.png,STYLE,5c6fc42118508b0001e1e711,15/07/1948,2020-07-09_21h11.22.109,proactive,2020.1.2,Win32,60,5f073de81c76c3308c0e4fb3,5f077900057bf638ddb650ee,2,,,,,,sun,,,,,,0,46,46,33,1,4,0,,,,,,,,,,,,,,,,,,,,,,,,,,,,,,,,,,,,,,,,,,,,,,,,,,,,,,,,,,,,,,,,,,,,,,,,,,,
,,,,,,,,,,stimuli/images/PICTURE_667.png,PLENTY,5c6fc42118508b0001e1e711,15/07/1948,2020-07-09_21h11.22.109,proactive,2020.1.2,Win32,60,5f073de81c76c3308c0e4fb3,5f077900057bf638ddb650ee,2,,,,,,daisy,,,,,,0,47,47,41,1,5,0,,,,,,,,,,,,,,,,,,,,,,,,,,,,,,,,,,,,,,,,,,,,,,,,,,,,,,,,,,,,,,,,,,,,,,,,,,,
,,,,,,,,,,stimuli/images/PICTURE_348.png,SPEECH,5c6fc42118508b0001e1e711,15/07/1948,2020-07-09_21h11.22.109,proactive,2020.1.2,Win32,60,5f073de81c76c3308c0e4fb3,5f077900057bf638ddb650ee,2,,,,,,pepper,,,,,,0,48,48,20,1,3,0,,,,,,,,,,,,,,,,,,,,,,,,,,,,,,,,,,,,,,,,,,,,,,,,,,,,,,,,,,,,,,,,,,,,,,,,,,,
,,,,,,,,,,stimuli/images/PICTURE_692.png,MONTH,5c6fc42118508b0001e1e711,15/07/1948,2020-07-09_21h11.22.109,proactive,2020.1.2,Win32,60,5f073de81c76c3308c0e4fb3,5f077900057bf638ddb650ee,2,,,,,,cherry,,,,,,0,49,49,16,1,2,0,,,,,,,,,,,,,,,,,,,,,,,,,,,,,,,,,,,,,,,,,,,,,,,,,,,,,,,,,,,,,,,,,,,,,,,,,,,
,,,,,,,,,,stimuli/images/PICTURE_85.png,THING,5c6fc42118508b0001e1e711,15/07/1948,2020-07-09_21h11.22.109,proactive,2020.1.2,Win32,60,5f073de81c76c3308c0e4fb3,5f077900057bf638ddb650ee,2,,,,,,diamond,,,,,,0,50,50,15,1,2,0,,,,,,,,,,,,,,,,,,,,,,,,,,,,,,,,,,,,,,,,,,,,,,,,,,,,,,,,,,,,,,,,,,,,,,,,,,,
,,,,,,,,,,stimuli/images/PICTURE_356.png,DANGER,5c6fc42118508b0001e1e711,15/07/1948,2020-07-09_21h11.22.109,proactive,2020.1.2,Win32,60,5f073de81c76c3308c0e4fb3,5f077900057bf638ddb650ee,2,,,,,,pawn,,,,,,0,51,51,55,1,6,0,,,,,,,,,,,,,,,,,,,,,,,,,,,,,,,,,,,,,,,,,,,,,,,,,,,,,,,,,,,,,,,,,,,,,,,,,,,
,,,,,,,,,,stimuli/images/PICTURE_708.png,YARD,5c6fc42118508b0001e1e711,15/07/1948,2020-07-09_21h11.22.109,proactive,2020.1.2,Win32,60,5f073de81c76c3308c0e4fb3,5f077900057bf638ddb650ee,2,,,,,,monkey,,,,,,0,52,52,29,1,3,0,,,,,,,,,,,,,,,,,,,,,,,,,,,,,,,,,,,,,,,,,,,,,,,,,,,,,,,,,,,,,,,,,,,,,,,,,,,
,,,,,,,,,,stimuli/images/PICTURE_160.png,FEET,5c6fc42118508b0001e1e711,15/07/1948,2020-07-09_21h11.22.109,proactive,2020.1.2,Win32,60,5f073de81c76c3308c0e4fb3,5f077900057bf638ddb650ee,2,,,,,,wheelbarrow,,,,,,0,53,53,58,1,6,0,,,,,,,,,,,,,,,,,,,,,,,,,,,,,,,,,,,,,,,,,,,,,,,,,,,,,,,,,,,,,,,,,,,,,,,,,,,
,,,,,,,,,,stimuli/images/PICTURE_677.png,MILE,5c6fc42118508b0001e1e711,15/07/1948,2020-07-09_21h11.22.109,proactive,2020.1.2,Win32,60,5f073de81c76c3308c0e4fb3,5f077900057bf638ddb650ee,2,,,,,,map,,,,,,0,54,54,30,1,4,0,,,,,,,,,,,,,,,,,,,,,,,,,,,,,,,,,,,,,,,,,,,,,,,,,,,,,,,,,,,,,,,,,,,,,,,,,,,
,,,,,,,,,,stimuli/images/PICTURE_688.png,CASINO,5c6fc42118508b0001e1e711,15/07/1948,2020-07-09_21h11.22.109,proactive,2020.1.2,Win32,60,5f073de81c76c3308c0e4fb3,5f077900057bf638ddb650ee,2,,,,,,runner,,,,,,0,55,55,2,1,1,0,,,,,,,,,,,,,,,,,,,,,,,,,,,,,,,,,,,,,,,,,,,,,,,,,,,,,,,,,,,,,,,,,,,,,,,,,,,
,,,,,,,,,,stimuli/images/PICTURE_233.png,WOMEN,5c6fc42118508b0001e1e711,15/07/1948,2020-07-09_21h11.22.109,proactive,2020.1.2,Win32,60,5f073de81c76c3308c0e4fb3,5f077900057bf638ddb650ee,2,,,,,,salt,,,,,,0,56,56,38,1,4,0,,,,,,,,,,,,,,,,,,,,,,,,,,,,,,,,,,,,,,,,,,,,,,,,,,,,,,,,,,,,,,,,,,,,,,,,,,,
,,,,,,,,,,stimuli/images/PICTURE_654.png,VALLEY,5c6fc42118508b0001e1e711,15/07/1948,2020-07-09_21h11.22.109,proactive,2020.1.2,Win32,60,5f073de81c76c3308c0e4fb3,5f077900057bf638ddb650ee,2,,,,,,pencil,,,,,,0,57,57,1,1,1,0,,,,,,,,,,,,,,,,,,,,,,,,,,,,,,,,,,,,,,,,,,,,,,,,,,,,,,,,,,,,,,,,,,,,,,,,,,,
,,,,,,,,,,stimuli/images/PICTURE_667.png,BATH,5c6fc42118508b0001e1e711,15/07/1948,2020-07-09_21h11.22.109,proactive,2020.1.2,Win32,60,5f073de81c76c3308c0e4fb3,5f077900057bf638ddb650ee,2,,,,,,daisy,,,,,,0,58,58,4,1,1,0,,,,,,,,,,,,,,,,,,,,,,,,,,,,,,,,,,,,,,,,,,,,,,,,,,,,,,,,,,,,,,,,,,,,,,,,,,,
,,?,0.000765,0,,,,,,stimuli/images/PICTURE_504.png,BODY,5c6fc42118508b0001e1e711,15/07/1948,2020-07-09_21h11.22.109,proactive,2020.1.2,Win32,60,5f073de81c76c3308c0e4fb3,5f077900057bf638ddb650ee,2,,,,,,wheel,,,,,,,,,,,1,0,0,0,0,8,1,,,,,,,,,,,,,,,,,,,,,,,,,,,,,,,,,,,,,,,,,,,,,,,,,,,,,,,,,,,,,,,,,,,,,,
,,?,0.000495,0,,,,,,stimuli/images/PICTURE_708.png,PENNY,5c6fc42118508b0001e1e711,15/07/1948,2020-07-09_21h11.22.109,proactive,2020.1.2,Win32,60,5f073de81c76c3308c0e4fb3,5f077900057bf638ddb650ee,2,,,,,,monkey,,,,,,,,,,,4,0,0,1,1,31,1,,,,,,,,,,,,,,,,,,,,,,,,,,,,,,,,,,,,,,,,,,,,,,,,,,,,,,,,,,,,,,,,,,,,,,
,,?,0.000485,0,,,,,,stimuli/images/PICTURE_453.png,DUDE,5c6fc42118508b0001e1e711,15/07/1948,2020-07-09_21h11.22.109,proactive,2020.1.2,Win32,60,5f073de81c76c3308c0e4fb3,5f077900057bf638ddb650ee,2,,,,,,scissors,,,,,,,,,,,3,0,0,2,2,27,1,,,,,,,,,,,,,,,,,,,,,,,,,,,,,,,,,,,,,,,,,,,,,,,,,,,,,,,,,,,,,,,,,,,,,,
,,?,0.000475,0,,,,,,stimuli/images/PICTURE_348.png,SPEECH,5c6fc42118508b0001e1e711,15/07/1948,2020-07-09_21h11.22.109,proactive,2020.1.2,Win32,60,5f073de81c76c3308c0e4fb3,5f077900057bf638ddb650ee,2,,,,,,pepper,,,,,,,,,,,3,0,0,3,3,20,1,,,,,,,,,,,,,,,,,,,,,,,,,,,,,,,,,,,,,,,,,,,,,,,,,,,,,,,,,,,,,,,,,,,,,,
,,?,0.00046,0,,,,,,stimuli/images/PICTURE_453.png,PLENTY,5c6fc42118508b0001e1e711,15/07/1948,2020-07-09_21h11.22.109,proactive,2020.1.2,Win32,60,5f073de81c76c3308c0e4fb3,5f077900057bf638ddb650ee,2,,,,,,scissors,,,,,,,,,,,6,0,0,4,4,56,1,,,,,,,,,,,,,,,,,,,,,,,,,,,,,,,,,,,,,,,,,,,,,,,,,,,,,,,,,,,,,,,,,,,,,,
,,?,0.00047,0,,,,,,stimuli/images/PICTURE_208.png,THING,5c6fc42118508b0001e1e711,15/07/1948,2020-07-09_21h11.22.109,proactive,2020.1.2,Win32,60,5f073de81c76c3308c0e4fb3,5f077900057bf638ddb650ee,2,,,,,,microphone,,,,,,,,,,,5,0,0,5,5,47,1,,,,,,,,,,,,,,,,,,,,,,,,,,,,,,,,,,,,,,,,,,,,,,,,,,,,,,,,,,,,,,,,,,,,,,
,,?,0.00047,0,,,,,,stimuli/images/PICTURE_744.png,SYSTEM,5c6fc42118508b0001e1e711,15/07/1948,2020-07-09_21h11.22.109,proactive,2020.1.2,Win32,60,5f073de81c76c3308c0e4fb3,5f077900057bf638ddb650ee,2,,,,,,ring,,,,,,,,,,,5,0,0,6,6,43,1,,,,,,,,,,,,,,,,,,,,,,,,,,,,,,,,,,,,,,,,,,,,,,,,,,,,,,,,,,,,,,,,,,,,,,
,,?,0.00051,0,,,,,,stimuli/images/PICTURE_327.png,BEAUTY,5c6fc42118508b0001e1e711,15/07/1948,2020-07-09_21h11.22.109,proactive,2020.1.2,Win32,60,5f073de81c76c3308c0e4fb3,5f077900057bf638ddb650ee,2,,,,,,helmet,,,,,,,,,,,5,0,0,7,7,48,1,,,,,,,,,,,,,,,,,,,,,,,,,,,,,,,,,,,,,,,,,,,,,,,,,,,,,,,,,,,,,,,,,,,,,,
,,?,0.000505,0,,,,,,stimuli/images/PICTURE_688.png,CASINO,5c6fc42118508b0001e1e711,15/07/1948,2020-07-09_21h11.22.109,proactive,2020.1.2,Win32,60,5f073de81c76c3308c0e4fb3,5f077900057bf638ddb650ee,2,,,,,,runner,,,,,,,,,,,1,0,0,8,8,2,1,,,,,,,,,,,,,,,,,,,,,,,,,,,,,,,,,,,,,,,,,,,,,,,,,,,,,,,,,,,,,,,,,,,,,,
,,?,0.000545,0,,,,,,stimuli/images/PICTURE_215.png,PLENTY,5c6fc42118508b0001e1e711,15/07/1948,2020-07-09_21h11.22.109,proactive,2020.1.2,Win32,60,5f073de81c76c3308c0e4fb3,5f077900057bf638ddb650ee,2,,,,,,boot,,,,,,,,,,,4,0,0,9,9,37,1,,,,,,,,,,,,,,,,,,,,,,,,,,,,,,,,,,,,,,,,,,,,,,,,,,,,,,,,,,,,,,,,,,,,,,
,,BEAUTY,15.005535,1,,,,,,stimuli/images/PICTURE_311.png,BEAUTY,5c6fc42118508b0001e1e711,15/07/1948,2020-07-09_21h11.22.109,proactive,2020.1.2,Win32,60,5f073de81c76c3308c0e4fb3,5f077900057bf638ddb650ee,2,,,,,,razor,,,,,,,,,,,2,0,0,10,10,13,1,,,,,,,,,,,,,,,,,,,,,,,,,,,,,,,,,,,,,,,,,,,,,,,,,,,,,,,,,,,,,,,,,,,,,,
,,?,0.00081,0,,,,,,stimuli/images/PICTURE_487.png,FLIGHT,5c6fc42118508b0001e1e711,15/07/1948,2020-07-09_21h11.22.109,proactive,2020.1.2,Win32,60,5f073de81c76c3308c0e4fb3,5f077900057bf638ddb650ee,2,,,,,,basket,,,,,,,,,,,1,0,0,11,11,9,1,,,,,,,,,,,,,,,,,,,,,,,,,,,,,,,,,,,,,,,,,,,,,,,,,,,,,,,,,,,,,,,,,,,,,,
,,?,0.000465,0,,,,,,stimuli/images/PICTURE_380.png,DEATH,5c6fc42118508b0001e1e711,15/07/1948,2020-07-09_21h11.22.109,proactive,2020.1.2,Win32,60,5f073de81c76c3308c0e4fb3,5f077900057bf638ddb650ee,2,,,,,,gorilla,,,,,,,,,,,5,0,0,12,12,49,1,,,,,,,,,,,,,,,,,,,,,,,,,,,,,,,,,,,,,,,,,,,,,,,,,,,,,,,,,,,,,,,,,,,,,,
,,WOMEN,15.00701,1,,,,,,stimuli/images/PICTURE_688.png,WOMEN,5c6fc42118508b0001e1e711,15/07/1948,2020-07-09_21h11.22.109,proactive,2020.1.2,Win32,60,5f073de81c76c3308c0e4fb3,5f077900057bf638ddb650ee,2,,,,,,runner,,,,,,,,,,,2,0,0,13,13,14,1,,,,,,,,,,,,,,,,,,,,,,,,,,,,,,,,,,,,,,,,,,,,,,,,,,,,,,,,,,,,,,,,,,,,,,
,,?,0.0008,0,,,,,,stimuli/images/PICTURE_708.png,CLIENT,5c6fc42118508b0001e1e711,15/07/1948,2020-07-09_21h11.22.109,proactive,2020.1.2,Win32,60,5f073de81c76c3308c0e4fb3,5f077900057bf638ddb650ee,2,,,,,,monkey,,,,,,,,,,,1,0,0,14,14,5,1,,,,,,,,,,,,,,,,,,,,,,,,,,,,,,,,,,,,,,,,,,,,,,,,,,,,,,,,,,,,,,,,,,,,,,
,,?,0.000615,0,,,,,,stimuli/images/PICTURE_491.png,ROOF,5c6fc42118508b0001e1e711,15/07/1948,2020-07-09_21h11.22.109,proactive,2020.1.2,Win32,60,5f073de81c76c3308c0e4fb3,5f077900057bf638ddb650ee,2,,,,,,rug,,,,,,,,,,,3,0,0,15,15,24,1,,,,,,,,,,,,,,,,,,,,,,,,,,,,,,,,,,,,,,,,,,,,,,,,,,,,,,,,,,,,,,,,,,,,,,
,,?,0.00047,0,,,,,,stimuli/images/PICTURE_32.png,JUNGLE,5c6fc42118508b0001e1e711,15/07/1948,2020-07-09_21h11.22.109,proactive,2020.1.2,Win32,60,5f073de81c76c3308c0e4fb3,5f077900057bf638ddb650ee,2,,,,,,crown,,,,,,,,,,,5,0,0,16,16,45,1,,,,,,,,,,,,,,,,,,,,,,,,,,,,,,,,,,,,,,,,,,,,,,,,,,,,,,,,,,,,,,,,,,,,,,
,,?,0.000455,0,,,,,,stimuli/images/PICTURE_314.png,SAKE,5c6fc42118508b0001e1e711,15/07/1948,2020-07-09_21h11.22.109,proactive,2020.1.2,Win32,60,5f073de81c76c3308c0e4fb3,5f077900057bf638ddb650ee,2,,,,,,perfume,,,,,,,,,,,1,0,0,17,17,7,1,,,,,,,,,,,,,,,,,,,,,,,,,,,,,,,,,,,,,,,,,,,,,,,,,,,,,,,,,,,,,,,,,,,,,,
,,?,0.00054,0,,,,,,stimuli/images/PICTURE_469.png,LETTER,5c6fc42118508b0001e1e711,15/07/1948,2020-07-09_21h11.22.109,proactive,2020.1.2,Win32,60,5f073de81c76c3308c0e4fb3,5f077900057bf638ddb650ee,2,,,,,,stool,,,,,,,,,,,5,0,0,18,18,42,1,,,,,,,,,,,,,,,,,,,,,,,,,,,,,,,,,,,,,,,,,,,,,,,,,,,,,,,,,,,,,,,,,,,,,,
,,?,0.00046,0,,,,,,stimuli/images/PICTURE_380.png,PHOTO,5c6fc42118508b0001e1e711,15/07/1948,2020-07-09_21h11.22.109,proactive,2020.1.2,Win32,60,5f073de81c76c3308c0e4fb3,5f077900057bf638ddb650ee,2,,,,,,gorilla,,,,,,,,,,,6,0,0,19,19,52,1,,,,,,,,,,,,,,,,,,,,,,,,,,,,,,,,,,,,,,,,,,,,,,,,,,,,,,,,,,,,,,,,,,,,,,
,,?,0.00051,0,,,,,,stimuli/images/PICTURE_509.png,PHOTO,5c6fc42118508b0001e1e711,15/07/1948,2020-07-09_21h11.22.109,proactive,2020.1.2,Win32,60,5f073de81c76c3308c0e4fb3,5f077900057bf638ddb650ee,2,,,,,,telephone,,,,,,,,,,,3,0,0,20,20,21,1,,,,,,,,,,,,,,,,,,,,,,,,,,,,,,,,,,,,,,,,,,,,,,,,,,,,,,,,,,,,,,,,,,,,,,
,,SAVE,15.000915,0,,,,,,stimuli/images/PICTURE_744.png,SAKE,5c6fc42118508b0001e1e711,15/07/1948,2020-07-09_21h11.22.109,proactive,2020.1.2,Win32,60,5f073de81c76c3308c0e4fb3,5f077900057bf638ddb650ee,2,,,,,,ring,,,,,,,,,,,2,0,0,21,21,17,1,,,,,,,,,,,,,,,,,,,,,,,,,,,,,,,,,,,,,,,,,,,,,,,,,,,,,,,,,,,,,,,,,,,,,,
,,?,0.00073,0,,,,,,stimuli/images/PICTURE_467.png,DEMON,5c6fc42118508b0001e1e711,15/07/1948,2020-07-09_21h11.22.109,proactive,2020.1.2,Win32,60,5f073de81c76c3308c0e4fb3,5f077900057bf638ddb650ee,2,,,,,,peg,,,,,,,,,,,3,0,0,22,22,23,1,,,,,,,,,,,,,,,,,,,,,,,,,,,,,,,,,,,,,,,,,,,,,,,,,,,,,,,,,,,,,,,,,,,,,,
,,?,0.00046,0,,,,,,stimuli/images/PICTURE_160.png,LEADER,5c6fc42118508b0001e1e711,15/07/1948,2020-07-09_21h11.22.109,proactive,2020.1.2,Win32,60,5f073de81c76c3308c0e4fb3,5f077900057bf638ddb650ee,2,,,,,,wheelbarrow,,,,,,,,,,,1,0,0,23,23,3,1,,,,,,,,,,,,,,,,,,,,,,,,,,,,,,,,,,,,,,,,,,,,,,,,,,,,,,,,,,,,,,,,,,,,,,
,,?,0.00046,0,,,,,,stimuli/images/PICTURE_488.png,STYLE,5c6fc42118508b0001e1e711,15/07/1948,2020-07-09_21h11.22.109,proactive,2020.1.2,Win32,60,5f073de81c76c3308c0e4fb3,5f077900057bf638ddb650ee,2,,,,,,sun,,,,,,,,,,,4,0,0,24,24,33,1,,,,,,,,,,,,,,,,,,,,,,,,,,,,,,,,,,,,,,,,,,,,,,,,,,,,,,,,,,,,,,,,,,,,,,
,,FAMILY,15.006045,1,,,,,,stimuli/images/PICTURE_302.png,FAMILY,5c6fc42118508b0001e1e711,15/07/1948,2020-07-09_21h11.22.109,proactive,2020.1.2,Win32,60,5f073de81c76c3308c0e4fb3,5f077900057bf638ddb650ee,2,,,,,,taxi,,,,,,,,,,,2,0,0,25,25,18,1,,,,,,,,,,,,,,,,,,,,,,,,,,,,,,,,,,,,,,,,,,,,,,,,,,,,,,,,,,,,,,,,,,,,,,
,,?,0.00099,0,,,,,,stimuli/images/PICTURE_667.png,PLENTY,5c6fc42118508b0001e1e711,15/07/1948,2020-07-09_21h11.22.109,proactive,2020.1.2,Win32,60,5f073de81c76c3308c0e4fb3,5f077900057bf638ddb650ee,2,,,,,,daisy,,,,,,,,,,,5,0,0,26,26,41,1,,,,,,,,,,,,,,,,,,,,,,,,,,,,,,,,,,,,,,,,,,,,,,,,,,,,,,,,,,,,,,,,,,,,,,
,,ADVICE,15.008225,1,,,,,,stimuli/images/PICTURE_285.png,ADVICE,5c6fc42118508b0001e1e711,15/07/1948,2020-07-09_21h11.22.109,proactive,2020.1.2,Win32,60,5f073de81c76c3308c0e4fb3,5f077900057bf638ddb650ee,2,,,,,,carrot,,,,,,,,,,,2,0,0,27,27,12,1,,,,,,,,,,,,,,,,,,,,,,,,,,,,,,,,,,,,,,,,,,,,,,,,,,,,,,,,,,,,,,,,,,,,,,
,,?,0.000735,0,,,,,,stimuli/images/PICTURE_667.png,BATH,5c6fc42118508b0001e1e711,15/07/1948,2020-07-09_21h11.22.109,proactive,2020.1.2,Win32,60,5f073de81c76c3308c0e4fb3,5f077900057bf638ddb650ee,2,,,,,,daisy,,,,,,,,,,,1,0,0,28,28,4,1,,,,,,,,,,,,,,,,,,,,,,,,,,,,,,,,,,,,,,,,,,,,,,,,,,,,,,,,,,,,,,,,,,,,,,
,,?,0.000455,0,,,,,,stimuli/images/PICTURE_233.png,WOMEN,5c6fc42118508b0001e1e711,15/07/1948,2020-07-09_21h11.22.109,proactive,2020.1.2,Win32,60,5f073de81c76c3308c0e4fb3,5f077900057bf638ddb650ee,2,,,,,,salt,,,,,,,,,,,4,0,0,29,29,38,1,,,,,,,,,,,,,,,,,,,,,,,,,,,,,,,,,,,,,,,,,,,,,,,,,,,,,,,,,,,,,,,,,,,,,,
,,?,0.00046,0,,,,,,stimuli/images/PICTURE_469.png,ARTIST,5c6fc42118508b0001e1e711,15/07/1948,2020-07-09_21h11.22.109,proactive,2020.1.2,Win32,60,5f073de81c76c3308c0e4fb3,5f077900057bf638ddb650ee,2,,,,,,stool,,,,,,,,,,,1,0,0,30,30,6,1,,,,,,,,,,,,,,,,,,,,,,,,,,,,,,,,,,,,,,,,,,,,,,,,,,,,,,,,,,,,,,,,,,,,,,
,,?,0.000445,0,,,,,,stimuli/images/PICTURE_233.png,IDEAS,5c6fc42118508b0001e1e711,15/07/1948,2020-07-09_21h11.22.109,proactive,2020.1.2,Win32,60,5f073de81c76c3308c0e4fb3,5f077900057bf638ddb650ee,2,,,,,,salt,,,,,,,,,,,3,0,0,31,31,28,1,,,,,,,,,,,,,,,,,,,,,,,,,,,,,,,,,,,,,,,,,,,,,,,,,,,,,,,,,,,,,,,,,,,,,,
,,?,0.000455,0,,,,,,stimuli/images/PICTURE_308.png,ESTATE,5c6fc42118508b0001e1e711,15/07/1948,2020-07-09_21h11.22.109,proactive,2020.1.2,Win32,60,5f073de81c76c3308c0e4fb3,5f077900057bf638ddb650ee,2,,,,,,dice,,,,,,,,,,,5,0,0,32,32,46,1,,,,,,,,,,,,,,,,,,,,,,,,,,,,,,,,,,,,,,,,,,,,,,,,,,,,,,,,,,,,,,,,,,,,,,
,,?,0.00044,0,,,,,,stimuli/images/PICTURE_677.png,MILE,5c6fc42118508b0001e1e711,15/07/1948,2020-07-09_21h11.22.109,proactive,2020.1.2,Win32,60,5f073de81c76c3308c0e4fb3,5f077900057bf638ddb650ee,2,,,,,,map,,,,,,,,,,,4,0,0,33,33,30,1,,,,,,,,,,,,,,,,,,,,,,,,,,,,,,,,,,,,,,,,,,,,,,,,,,,,,,,,,,,,,,,,,,,,,,
,,?,0.000435,0,,,,,,stimuli/images/PICTURE_356.png,DANGER,5c6fc42118508b0001e1e711,15/07/1948,2020-07-09_21h11.22.109,proactive,2020.1.2,Win32,60,5f073de81c76c3308c0e4fb3,5f077900057bf638ddb650ee,2,,,,,,pawn,,,,,,,,,,,6,0,0,34,34,55,1,,,,,,,,,,,,,,,,,,,,,,,,,,,,,,,,,,,,,,,,,,,,,,,,,,,,,,,,,,,,,,,,,,,,,,
,,?,0.000435,0,,,,,,stimuli/images/PICTURE_255.png,AREA,5c6fc42118508b0001e1e711,15/07/1948,2020-07-09_21h11.22.109,proactive,2020.1.2,Win32,60,5f073de81c76c3308c0e4fb3,5f077900057bf638ddb650ee,2,,,,,,shovel,,,,,,,,,,,3,0,0,35,35,22,1,,,,,,,,,,,,,,,,,,,,,,,,,,,,,,,,,,,,,,,,,,,,,,,,,,,,,,,,,,,,,,,,,,,,,,
,,?,0.000435,0,,,,,,stimuli/images/PICTURE_339.png,PLENTY,5c6fc42118508b0001e1e711,15/07/1948,2020-07-09_21h11.22.109,proactive,2020.1.2,Win32,60,5f073de81c76c3308c0e4fb3,5f077900057bf638ddb650ee,2,,,,,,backpack,,,,,,,,,,,1,0,0,36,36,0,1,,,,,,,,,,,,,,,,,,,,,,,,,,,,,,,,,,,,,,,,,,,,,,,,,,,,,,,,,,,,,,,,,,,,,,
,,?,0.00046,0,,,,,,stimuli/images/PICTURE_95.png,STYLE,5c6fc42118508b0001e1e711,15/07/1948,2020-07-09_21h11.22.109,proactive,2020.1.2,Win32,60,5f073de81c76c3308c0e4fb3,5f077900057bf638ddb650ee,2,,,,,,suitcase,,,,,,,,,,,3,0,0,37,37,25,1,,,,,,,,,,,,,,,,,,,,,,,,,,,,,,,,,,,,,,,,,,,,,,,,,,,,,,,,,,,,,,,,,,,,,,
,,?,0.000435,0,,,,,,stimuli/images/PICTURE_308.png,KIND,5c6fc42118508b0001e1e711,15/07/1948,2020-07-09_21h11.22.109,proactive,2020.1.2,Win32,60,5f073de81c76c3308c0e4fb3,5f077900057bf638ddb650ee,2,,,,,,dice,,,,,,,,,,,6,0,0,38,38,54,1,,,,,,,,,,,,,,,,,,,,,,,,,,,,,,,,,,,,,,,,,,,,,,,,,,,,,,,,,,,,,,,,,,,,,,
,,GIRL,15.013425,1,,,,,,stimuli/images/PICTURE_151.png,GIRL,5c6fc42118508b0001e1e711,15/07/1948,2020-07-09_21h11.22.109,proactive,2020.1.2,Win32,60,5f073de81c76c3308c0e4fb3,5f077900057bf638ddb650ee,2,,,,,,tray,,,,,,,,,,,2,0,0,39,39,19,1,,,,,,,,,,,,,,,,,,,,,,,,,,,,,,,,,,,,,,,,,,,,,,,,,,,,,,,,,,,,,,,,,,,,,,
,,MONTH,15.00915,1,,,,,,stimuli/images/PICTURE_692.png,MONTH,5c6fc42118508b0001e1e711,15/07/1948,2020-07-09_21h11.22.109,proactive,2020.1.2,Win32,60,5f073de81c76c3308c0e4fb3,5f077900057bf638ddb650ee,2,,,,,,cherry,,,,,,,,,,,2,0,0,40,40,16,1,,,,,,,,,,,,,,,,,,,,,,,,,,,,,,,,,,,,,,,,,,,,,,,,,,,,,,,,,,,,,,,,,,,,,,
,,?,0.00081,0,,,,,,stimuli/images/PICTURE_208.png,MONTH,5c6fc42118508b0001e1e711,15/07/1948,2020-07-09_21h11.22.109,proactive,2020.1.2,Win32,60,5f073de81c76c3308c0e4fb3,5f077900057bf638ddb650ee,2,,,,,,microphone,,,,,,,,,,,6,0,0,41,41,53,1,,,,,,,,,,,,,,,,,,,,,,,,,,,,,,,,,,,,,,,,,,,,,,,,,,,,,,,,,,,,,,,,,,,,,,
,,?,0.000455,0,,,,,,stimuli/images/PICTURE_147.png,MOMENT,5c6fc42118508b0001e1e711,15/07/1948,2020-07-09_21h11.22.109,proactive,2020.1.2,Win32,60,5f073de81c76c3308c0e4fb3,5f077900057bf638ddb650ee,2,,,,,,hanger,,,,,,,,,,,6,0,0,42,42,51,1,,,,,,,,,,,,,,,,,,,,,,,,,,,,,,,,,,,,,,,,,,,,,,,,,,,,,,,,,,,,,,,,,,,,,,
,,?,0.000455,0,,,,,,stimuli/images/PICTURE_491.png,WRITER,5c6fc42118508b0001e1e711,15/07/1948,2020-07-09_21h11.22.109,proactive,2020.1.2,Win32,60,5f073de81c76c3308c0e4fb3,5f077900057bf638ddb650ee,2,,,,,,rug,,,,,,,,,,,6,0,0,43,43,57,1,,,,,,,,,,,,,,,,,,,,,,,,,,,,,,,,,,,,,,,,,,,,,,,,,,,,,,,,,,,,,,,,,,,,,,
,,?,0.000455,0,,,,,,stimuli/images/PICTURE_311.png,FRIEND,5c6fc42118508b0001e1e711,15/07/1948,2020-07-09_21h11.22.109,proactive,2020.1.2,Win32,60,5f073de81c76c3308c0e4fb3,5f077900057bf638ddb650ee,2,,,,,,razor,,,,,,,,,,,4,0,0,44,44,34,1,,,,,,,,,,,,,,,,,,,,,,,,,,,,,,,,,,,,,,,,,,,,,,,,,,,,,,,,,,,,,,,,,,,,,,
,,?,0.0005,0,,,,,,stimuli/images/PICTURE_654.png,VALLEY,5c6fc42118508b0001e1e711,15/07/1948,2020-07-09_21h11.22.109,proactive,2020.1.2,Win32,60,5f073de81c76c3308c0e4fb3,5f077900057bf638ddb650ee,2,,,,,,pencil,,,,,,,,,,,1,0,0,45,45,1,1,,,,,,,,,,,,,,,,,,,,,,,,,,,,,,,,,,,,,,,,,,,,,,,,,,,,,,,,,,,,,,,,,,,,,,
,,?,15.003295,0,,,,,,stimuli/images/PICTURE_314.png,GODS,5c6fc42118508b0001e1e711,15/07/1948,2020-07-09_21h11.22.109,proactive,2020.1.2,Win32,60,5f073de81c76c3308c0e4fb3,5f077900057bf638ddb650ee,2,,,,,,perfume,,,,,,,,,,,2,0,0,46,46,11,1,,,,,,,,,,,,,,,,,,,,,,,,,,,,,,,,,,,,,,,,,,,,,,,,,,,,,,,,,,,,,,,,,,,,,,
,,?,0.00072,0,,,,,,stimuli/images/PICTURE_123.png,ADVICE,5c6fc42118508b0001e1e711,15/07/1948,2020-07-09_21h11.22.109,proactive,2020.1.2,Win32,60,5f073de81c76c3308c0e4fb3,5f077900057bf638ddb650ee,2,,,,,,dart,,,,,,,,,,,5,0,0,47,47,40,1,,,,,,,,,,,,,,,,,,,,,,,,,,,,,,,,,,,,,,,,,,,,,,,,,,,,,,,,,,,,,,,,,,,,,,
,,?,0.000455,0,,,,,,stimuli/images/PICTURE_449.png,THING,5c6fc42118508b0001e1e711,15/07/1948,2020-07-09_21h11.22.109,proactive,2020.1.2,Win32,60,5f073de81c76c3308c0e4fb3,5f077900057bf638ddb650ee,2,,,,,,bench,,,,,,,,,,,6,0,0,48,48,59,1,,,,,,,,,,,,,,,,,,,,,,,,,,,,,,,,,,,,,,,,,,,,,,,,,,,,,,,,,,,,,,,,,,,,,,
,,THING,15.00632,1,,,,,,stimuli/images/PICTURE_85.png,THING,5c6fc42118508b0001e1e711,15/07/1948,2020-07-09_21h11.22.109,proactive,2020.1.2,Win32,60,5f073de81c76c3308c0e4fb3,5f077900057bf638ddb650ee,2,,,,,,diamond,,,,,,,,,,,2,0,0,49,49,15,1,,,,,,,,,,,,,,,,,,,,,,,,,,,,,,,,,,,,,,,,,,,,,,,,,,,,,,,,,,,,,,,,,,,,,,
,,?,0.000695,0,,,,,,stimuli/images/PICTURE_177.png,CARS,5c6fc42118508b0001e1e711,15/07/1948,2020-07-09_21h11.22.109,proactive,2020.1.2,Win32,60,5f073de81c76c3308c0e4fb3,5f077900057bf638ddb650ee,2,,,,,,mushroom,,,,,,,,,,,4,0,0,50,50,35,1,,,,,,,,,,,,,,,,,,,,,,,,,,,,,,,,,,,,,,,,,,,,,,,,,,,,,,,,,,,,,,,,,,,,,,
,,?,0.00047,0,,,,,,stimuli/images/PICTURE_160.png,FEET,5c6fc42118508b0001e1e711,15/07/1948,2020-07-09_21h11.22.109,proactive,2020.1.2,Win32,60,5f073de81c76c3308c0e4fb3,5f077900057bf638ddb650ee,2,,,,,,wheelbarrow,,,,,,,,,,,6,0,0,51,51,58,1,,,,,,,,,,,,,,,,,,,,,,,,,,,,,,,,,,,,,,,,,,,,,,,,,,,,,,,,,,,,,,,,,,,,,,
,,?,15.006605,0,,,,,,stimuli/images/PICTURE_208.png,LOTS,5c6fc42118508b0001e1e711,15/07/1948,2020-07-09_21h11.22.109,proactive,2020.1.2,Win32,60,5f073de81c76c3308c0e4fb3,5f077900057bf638ddb650ee,2,,,,,,microphone,,,,,,,,,,,2,0,0,52,52,10,1,,,,,,,,,,,,,,,,,,,,,,,,,,,,,,,,,,,,,,,,,,,,,,,,,,,,,,,,,,,,,,,,,,,,,,
,,?,0.000715,0,,,,,,stimuli/images/PICTURE_675.png,WEAPON,5c6fc42118508b0001e1e711,15/07/1948,2020-07-09_21h11.22.109,proactive,2020.1.2,Win32,60,5f073de81c76c3308c0e4fb3,5f077900057bf638ddb650ee,2,,,,,,windmill,,,,,,,,,,,4,0,0,53,53,32,1,,,,,,,,,,,,,,,,,,,,,,,,,,,,,,,,,,,,,,,,,,,,,,,,,,,,,,,,,,,,,,,,,,,,,,
,,?,0.00045,0,,,,,,stimuli/images/PICTURE_123.png,ADVICE,5c6fc42118508b0001e1e711,15/07/1948,2020-07-09_21h11.22.109,proactive,2020.1.2,Win32,60,5f073de81c76c3308c0e4fb3,5f077900057bf638ddb650ee,2,,,,,,dart,,,,,,,,,,,6,0,0,54,54,50,1,,,,,,,,,,,,,,,,,,,,,,,,,,,,,,,,,,,,,,,,,,,,,,,,,,,,,,,,,,,,,,,,,,,,,,
,,?,0.00045,0,,,,,,stimuli/images/PICTURE_203.png,ARTIST,5c6fc42118508b0001e1e711,15/07/1948,2020-07-09_21h11.22.109,proactive,2020.1.2,Win32,60,5f073de81c76c3308c0e4fb3,5f077900057bf638ddb650ee,2,,,,,,cap,,,,,,,,,,,3,0,0,55,55,26,1,,,,,,,,,,,,,,,,,,,,,,,,,,,,,,,,,,,,,,,,,,,,,,,,,,,,,,,,,,,,,,,,,,,,,,
,,?,0.000445,0,,,,,,stimuli/images/PICTURE_470.png,CASINO,5c6fc42118508b0001e1e711,15/07/1948,2020-07-09_21h11.22.109,proactive,2020.1.2,Win32,60,5f073de81c76c3308c0e4fb3,5f077900057bf638ddb650ee,2,,,,,,motorbike,,,,,,,,,,,4,0,0,56,56,36,1,,,,,,,,,,,,,,,,,,,,,,,,,,,,,,,,,,,,,,,,,,,,,,,,,,,,,,,,,,,,,,,,,,,,,,
,,?,0.00044,0,,,,,,stimuli/images/PICTURE_708.png,YARD,5c6fc42118508b0001e1e711,15/07/1948,2020-07-09_21h11.22.109,proactive,2020.1.2,Win32,60,5f073de81c76c3308c0e4fb3,5f077900057bf638ddb650ee,2,,,,,,monkey,,,,,,,,,,,3,0,0,57,57,29,1,,,,,,,,,,,,,,,,,,,,,,,,,,,,,,,,,,,,,,,,,,,,,,,,,,,,,,,,,,,,,,,,,,,,,,
,,?,0.00044,0,,,,,,stimuli/images/PICTURE_68.png,MILE,5c6fc42118508b0001e1e711,15/07/1948,2020-07-09_21h11.22.109,proactive,2020.1.2,Win32,60,5f073de81c76c3308c0e4fb3,5f077900057bf638ddb650ee,2,,,,,,candle,,,,,,,,,,,5,0,0,58,58,44,1,,,,,,,,,,,,,,,,,,,,,,,,,,,,,,,,,,,,,,,,,,,,,,,,,,,,,,,,,,,,,,,,,,,,,,
,,?,0.00044,0,,,,,,stimuli/images/PICTURE_248.png,DOZEN,5c6fc42118508b0001e1e711,15/07/1948,2020-07-09_21h11.22.109,proactive,2020.1.2,Win32,60,5f073de81c76c3308c0e4fb3,5f077900057bf638ddb650ee,2,,,,,,cart,,,,,,,,,,,4,0,0,59,59,39,1,,,,,,,,,,,,,,,,,,,,,,,,,,,,,,,,,,,,,,,,,,,,,,,,,,,,,,,,,,,,,,,,,,,,,,
,,,,,,,,,,,,5c6fc42118508b0001e1e711,15/07/1948,2020-07-09_21h11.22.109,proactive,2020.1.2,Win32,60,5f073de81c76c3308c0e4fb3,5f077900057bf638ddb650ee,2,,,,,,,,,,,,,,,,,,,,,,,,0,0,0,0,1,stimuli/learn-block1.csv,,,,,,,,,,,,,,,,,,,,,,,,,,,,,,,,,,,,,,,,,,,,,,,,,,,,,,,,,,,,,,,,
,,,,,,,,,,stimuli/images/PICTURE_383.png,SERIES,5c6fc42118508b0001e1e711,15/07/1948,2020-07-09_21h11.22.109,proactive,2020.1.2,Win32,60,5f073de81c76c3308c0e4fb3,5f077900057bf638ddb650ee,2,,,,,,coin,,,,,,0,0,0,46,1,5,1,,,,,,,,,,,,,,,,,,,,,,,,,,,,,,,,,,,,,,,,,,,,,,,,,,,,,,,,,,,,,,,,,,,,,,,,,,,
,,,,,,,,,,stimuli/images/PICTURE_68.png,MILE,5c6fc42118508b0001e1e711,15/07/1948,2020-07-09_21h11.22.109,proactive,2020.1.2,Win32,60,5f073de81c76c3308c0e4fb3,5f077900057bf638ddb650ee,2,,,,,,candle,,,,,,0,1,1,51,1,6,1,,,,,,,,,,,,,,,,,,,,,,,,,,,,,,,,,,,,,,,,,,,,,,,,,,,,,,,,,,,,,,,,,,,,,,,,,,,
,,,,,,,,,,stimuli/images/PICTURE_685.png,PENNY,5c6fc42118508b0001e1e711,15/07/1948,2020-07-09_21h11.22.109,proactive,2020.1.2,Win32,60,5f073de81c76c3308c0e4fb3,5f077900057bf638ddb650ee,2,,,,,,goose,,,,,,0,2,2,4,1,1,1,,,,,,,,,,,,,,,,,,,,,,,,,,,,,,,,,,,,,,,,,,,,,,,,,,,,,,,,,,,,,,,,,,,,,,,,,,,
,,,,,,,,,,stimuli/images/PICTURE_380.png,CANDY,5c6fc42118508b0001e1e711,15/07/1948,2020-07-09_21h11.22.109,proactive,2020.1.2,Win32,60,5f073de81c76c3308c0e4fb3,5f077900057bf638ddb650ee,2,,,,,,gorilla,,,,,,0,3,3,0,1,1,1,,,,,,,,,,,,,,,,,,,,,,,,,,,,,,,,,,,,,,,,,,,,,,,,,,,,,,,,,,,,,,,,,,,,,,,,,,,
,,,,,,,,,,stimuli/images/PICTURE_340.png,VALLEY,5c6fc42118508b0001e1e711,15/07/1948,2020-07-09_21h11.22.109,proactive,2020.1.2,Win32,60,5f073de81c76c3308c0e4fb3,5f077900057bf638ddb650ee,2,,,,,,mirror,,,,,,0,4,4,54,1,6,1,,,,,,,,,,,,,,,,,,,,,,,,,,,,,,,,,,,,,,,,,,,,,,,,,,,,,,,,,,,,,,,,,,,,,,,,,,,
,,,,,,,,,,stimuli/images/PICTURE_380.png,HONEY,5c6fc42118508b0001e1e711,15/07/1948,2020-07-09_21h11.22.109,proactive,2020.1.2,Win32,60,5f073de81c76c3308c0e4fb3,5f077900057bf638ddb650ee,2,,,,,,gorilla,,,,,,0,5,5,19,1,2,1,,,,,,,,,,,,,,,,,,,,,,,,,,,,,,,,,,,,,,,,,,,,,,,,,,,,,,,,,,,,,,,,,,,,,,,,,,,
,,,,,,,,,,stimuli/images/PICTURE_108.png,FLIGHT,5c6fc42118508b0001e1e711,15/07/1948,2020-07-09_21h11.22.109,proactive,2020.1.2,Win32,60,5f073de81c76c3308c0e4fb3,5f077900057bf638ddb650ee,2,,,,,,calendar,,,,,,0,6,6,59,1,6,1,,,,,,,,,,,,,,,,,,,,,,,,,,,,,,,,,,,,,,,,,,,,,,,,,,,,,,,,,,,,,,,,,,,,,,,,,,,
,,,,,,,,,,stimuli/images/PICTURE_297.png,RIVER,5c6fc42118508b0001e1e711,15/07/1948,2020-07-09_21h11.22.109,proactive,2020.1.2,Win32,60,5f073de81c76c3308c0e4fb3,5f077900057bf638ddb650ee,2,,,,,,aeroplane,,,,,,0,7,7,39,1,4,1,,,,,,,,,,,,,,,,,,,,,,,,,,,,,,,,,,,,,,,,,,,,,,,,,,,,,,,,,,,,,,,,,,,,,,,,,,,
,,,,,,,,,,stimuli/images/PICTURE_233.png,LOTS,5c6fc42118508b0001e1e711,15/07/1948,2020-07-09_21h11.22.109,proactive,2020.1.2,Win32,60,5f073de81c76c3308c0e4fb3,5f077900057bf638ddb650ee,2,,,,,,salt,,,,,,0,8,8,42,1,5,1,,,,,,,,,,,,,,,,,,,,,,,,,,,,,,,,,,,,,,,,,,,,,,,,,,,,,,,,,,,,,,,,,,,,,,,,,,,
,,,,,,,,,,stimuli/images/PICTURE_95.png,MILLER,5c6fc42118508b0001e1e711,15/07/1948,2020-07-09_21h11.22.109,proactive,2020.1.2,Win32,60,5f073de81c76c3308c0e4fb3,5f077900057bf638ddb650ee,2,,,,,,suitcase,,,,,,0,9,9,56,1,6,1,,,,,,,,,,,,,,,,,,,,,,,,,,,,,,,,,,,,,,,,,,,,,,,,,,,,,,,,,,,,,,,,,,,,,,,,,,,
,,,,,,,,,,stimuli/images/PICTURE_296.png,LOTS,5c6fc42118508b0001e1e711,15/07/1948,2020-07-09_21h11.22.109,proactive,2020.1.2,Win32,60,5f073de81c76c3308c0e4fb3,5f077900057bf638ddb650ee,2,,,,,,bolt,,,,,,0,10,10,9,1,1,1,,,,,,,,,,,,,,,,,,,,,,,,,,,,,,,,,,,,,,,,,,,,,,,,,,,,,,,,,,,,,,,,,,,,,,,,,,,
,,,,,,,,,,stimuli/images/PICTURE_449.png,DUDE,5c6fc42118508b0001e1e711,15/07/1948,2020-07-09_21h11.22.109,proactive,2020.1.2,Win32,60,5f073de81c76c3308c0e4fb3,5f077900057bf638ddb650ee,2,,,,,,bench,,,,,,0,11,11,17,1,2,1,,,,,,,,,,,,,,,,,,,,,,,,,,,,,,,,,,,,,,,,,,,,,,,,,,,,,,,,,,,,,,,,,,,,,,,,,,,
,,,,,,,,,,stimuli/images/PICTURE_177.png,WRITER,5c6fc42118508b0001e1e711,15/07/1948,2020-07-09_21h11.22.109,proactive,2020.1.2,Win32,60,5f073de81c76c3308c0e4fb3,5f077900057bf638ddb650ee,2,,,,,,mushroom,,,,,,0,12,12,41,1,5,1,,,,,,,,,,,,,,,,,,,,,,,,,,,,,,,,,,,,,,,,,,,,,,,,,,,,,,,,,,,,,,,,,,,,,,,,,,,
,,,,,,,,,,stimuli/images/PICTURE_708.png,RECORD,5c6fc42118508b0001e1e711,15/07/1948,2020-07-09_21h11.22.109,proactive,2020.1.2,Win32,60,5f073de81c76c3308c0e4fb3,5f077900057bf638ddb650ee,2,,,,,,monkey,,,,,,0,13,13,58,1,6,1,,,,,,,,,,,,,,,,,,,,,,,,,,,,,,,,,,,,,,,,,,,,,,,,,,,,,,,,,,,,,,,,,,,,,,,,,,,
,,,,,,,,,,stimuli/images/PICTURE_95.png,HONEY,5c6fc42118508b0001e1e711,15/07/1948,2020-07-09_21h11.22.109,proactive,2020.1.2,Win32,60,5f073de81c76c3308c0e4fb3,5f077900057bf638ddb650ee,2,,,,,,suitcase,,,,,,0,14,14,44,1,5,1,,,,,,,,,,,,,,,,,,,,,,,,,,,,,,,,,,,,,,,,,,,,,,,,,,,,,,,,,,,,,,,,,,,,,,,,,,,
,,,,,,,,,,stimuli/images/PICTURE_504.png,COPS,5c6fc42118508b0001e1e711,15/07/1948,2020-07-09_21h11.22.109,proactive,2020.1.2,Win32,60,5f073de81c76c3308c0e4fb3,5f077900057bf638ddb650ee,2,,,,,,wheel,,,,,,0,15,15,52,1,6,1,,,,,,,,,,,,,,,,,,,,,,,,,,,,,,,,,,,,,,,,,,,,,,,,,,,,,,,,,,,,,,,,,,,,,,,,,,,
,,,,,,,,,,stimuli/images/PICTURE_403.png,TOILET,5c6fc42118508b0001e1e711,15/07/1948,2020-07-09_21h11.22.109,proactive,2020.1.2,Win32,60,5f073de81c76c3308c0e4fb3,5f077900057bf638ddb650ee,2,,,,,,cathedral,,,,,,0,16,16,25,1,3,1,,,,,,,,,,,,,,,,,,,,,,,,,,,,,,,,,,,,,,,,,,,,,,,,,,,,,,,,,,,,,,,,,,,,,,,,,,,
,,,,,,,,,,stimuli/images/PICTURE_403.png,WRITER,5c6fc42118508b0001e1e711,15/07/1948,2020-07-09_21h11.22.109,proactive,2020.1.2,Win32,60,5f073de81c76c3308c0e4fb3,5f077900057bf638ddb650ee,2,,,,,,cathedral,,,,,,0,17,17,31,1,4,1,,,,,,,,,,,,,,,,,,,,,,,,,,,,,,,,,,,,,,,,,,,,,,,,,,,,,,,,,,,,,,,,,,,,,,,,,,,
,,,,,,,,,,stimuli/images/PICTURE_667.png,RIVER,5c6fc42118508b0001e1e711,15/07/1948,2020-07-09_21h11.22.109,proactive,2020.1.2,Win32,60,5f073de81c76c3308c0e4fb3,5f077900057bf638ddb650ee,2,,,,,,daisy,,,,,,0,18,18,10,1,2,1,,,,,,,,,,,,,,,,,,,,,,,,,,,,,,,,,,,,,,,,,,,,,,,,,,,,,,,,,,,,,,,,,,,,,,,,,,,
,,,,,,,,,,stimuli/images/PICTURE_208.png,SYSTEM,5c6fc42118508b0001e1e711,15/07/1948,2020-07-09_21h11.22.109,proactive,2020.1.2,Win32,60,5f073de81c76c3308c0e4fb3,5f077900057bf638ddb650ee,2,,,,,,microphone,,,,,,0,19,19,32,1,4,1,,,,,,,,,,,,,,,,,,,,,,,,,,,,,,,,,,,,,,,,,,,,,,,,,,,,,,,,,,,,,,,,,,,,,,,,,,,
,,,,,,,,,,stimuli/images/PICTURE_564.png,BATH,5c6fc42118508b0001e1e711,15/07/1948,2020-07-09_21h11.22.109,proactive,2020.1.2,Win32,60,5f073de81c76c3308c0e4fb3,5f077900057bf638ddb650ee,2,,,,,,spoon,,,,,,0,20,20,26,1,3,1,,,,,,,,,,,,,,,,,,,,,,,,,,,,,,,,,,,,,,,,,,,,,,,,,,,,,,,,,,,,,,,,,,,,,,,,,,,
,,,,,,,,,,stimuli/images/PICTURE_487.png,GIRL,5c6fc42118508b0001e1e711,15/07/1948,2020-07-09_21h11.22.109,proactive,2020.1.2,Win32,60,5f073de81c76c3308c0e4fb3,5f077900057bf638ddb650ee,2,,,,,,basket,,,,,,0,21,21,45,1,5,1,,,,,,,,,,,,,,,,,,,,,,,,,,,,,,,,,,,,,,,,,,,,,,,,,,,,,,,,,,,,,,,,,,,,,,,,,,,
,,,,,,,,,,stimuli/images/PICTURE_108.png,POLICY,5c6fc42118508b0001e1e711,15/07/1948,2020-07-09_21h11.22.109,proactive,2020.1.2,Win32,60,5f073de81c76c3308c0e4fb3,5f077900057bf638ddb650ee,2,,,,,,calendar,,,,,,0,22,22,22,1,3,1,,,,,,,,,,,,,,,,,,,,,,,,,,,,,,,,,,,,,,,,,,,,,,,,,,,,,,,,,,,,,,,,,,,,,,,,,,,
,,,,,,,,,,stimuli/images/PICTURE_147.png,WOMEN,5c6fc42118508b0001e1e711,15/07/1948,2020-07-09_21h11.22.109,proactive,2020.1.2,Win32,60,5f073de81c76c3308c0e4fb3,5f077900057bf638ddb650ee,2,,,,,,hanger,,,,,,0,23,23,7,1,1,1,,,,,,,,,,,,,,,,,,,,,,,,,,,,,,,,,,,,,,,,,,,,,,,,,,,,,,,,,,,,,,,,,,,,,,,,,,,
,,,,,,,,,,stimuli/images/PICTURE_95.png,BOYS,5c6fc42118508b0001e1e711,15/07/1948,2020-07-09_21h11.22.109,proactive,2020.1.2,Win32,60,5f073de81c76c3308c0e4fb3,5f077900057bf638ddb650ee,2,,,,,,suitcase,,,,,,0,24,24,1,1,1,1,,,,,,,,,,,,,,,,,,,,,,,,,,,,,,,,,,,,,,,,,,,,,,,,,,,,,,,,,,,,,,,,,,,,,,,,,,,
,,,,,,,,,,stimuli/images/PICTURE_383.png,WRITER,5c6fc42118508b0001e1e711,15/07/1948,2020-07-09_21h11.22.109,proactive,2020.1.2,Win32,60,5f073de81c76c3308c0e4fb3,5f077900057bf638ddb650ee,2,,,,,,coin,,,,,,0,25,25,28,1,3,1,,,,,,,,,,,,,,,,,,,,,,,,,,,,,,,,,,,,,,,,,,,,,,,,,,,,,,,,,,,,,,,,,,,,,,,,,,,
,,,,,,,,,,stimuli/images/PICTURE_327.png,SERIES,5c6fc42118508b0001e1e711,15/07/1948,2020-07-09_21h11.22.109,proactive,2020.1.2,Win32,60,5f073de81c76c3308c0e4fb3,5f077900057bf638ddb650ee,2,,,,,,helmet,,,,,,0,26,26,3,1,1,1,,,,,,,,,,,,,,,,,,,,,,,,,,,,,,,,,,,,,,,,,,,,,,,,,,,,,,,,,,,,,,,,,,,,,,,,,,,
,,,,,,,,,,stimuli/images/PICTURE_203.png,GODS,5c6fc42118508b0001e1e711,15/07/1948,2020-07-09_21h11.22.109,proactive,2020.1.2,Win32,60,5f073de81c76c3308c0e4fb3,5f077900057bf638ddb650ee,2,,,,,,cap,,,,,,0,27,27,30,1,4,1,,,,,,,,,,,,,,,,,,,,,,,,,,,,,,,,,,,,,,,,,,,,,,,,,,,,,,,,,,,,,,,,,,,,,,,,,,,
,,,,,,,,,,stimuli/images/PICTURE_85.png,NATION,5c6fc42118508b0001e1e711,15/07/1948,2020-07-09_21h11.22.109,proactive,2020.1.2,Win32,60,5f073de81c76c3308c0e4fb3,5f077900057bf638ddb650ee,2,,,,,,diamond,,,,,,0,28,28,5,1,1,1,,,,,,,,,,,,,,,,,,,,,,,,,,,,,,,,,,,,,,,,,,,,,,,,,,,,,,,,,,,,,,,,,,,,,,,,,,,
,,,,,,,,,,stimuli/images/PICTURE_33.png,FRIEND,5c6fc42118508b0001e1e711,15/07/1948,2020-07-09_21h11.22.109,proactive,2020.1.2,Win32,60,5f073de81c76c3308c0e4fb3,5f077900057bf638ddb650ee,2,,,,,,frame,,,,,,0,29,29,8,1,1,1,,,,,,,,,,,,,,,,,,,,,,,,,,,,,,,,,,,,,,,,,,,,,,,,,,,,,,,,,,,,,,,,,,,,,,,,,,,
,,,,,,,,,,stimuli/images/PICTURE_32.png,PILLS,5c6fc42118508b0001e1e711,15/07/1948,2020-07-09_21h11.22.109,proactive,2020.1.2,Win32,60,5f073de81c76c3308c0e4fb3,5f077900057bf638ddb650ee,2,,,,,,crown,,,,,,0,30,30,18,1,2,1,,,,,,,,,,,,,,,,,,,,,,,,,,,,,,,,,,,,,,,,,,,,,,,,,,,,,,,,,,,,,,,,,,,,,,,,,,,
,,,,,,,,,,stimuli/images/PICTURE_339.png,CLIENT,5c6fc42118508b0001e1e711,15/07/1948,2020-07-09_21h11.22.109,proactive,2020.1.2,Win32,60,5f073de81c76c3308c0e4fb3,5f077900057bf638ddb650ee,2,,,,,,backpack,,,,,,0,31,31,11,1,2,1,,,,,,,,,,,,,,,,,,,,,,,,,,,,,,,,,,,,,,,,,,,,,,,,,,,,,,,,,,,,,,,,,,,,,,,,,,,
,,,,,,,,,,stimuli/images/PICTURE_654.png,MONTH,5c6fc42118508b0001e1e711,15/07/1948,2020-07-09_21h11.22.109,proactive,2020.1.2,Win32,60,5f073de81c76c3308c0e4fb3,5f077900057bf638ddb650ee,2,,,,,,pencil,,,,,,0,32,32,29,1,3,1,,,,,,,,,,,,,,,,,,,,,,,,,,,,,,,,,,,,,,,,,,,,,,,,,,,,,,,,,,,,,,,,,,,,,,,,,,,
,,,,,,,,,,stimuli/images/PICTURE_491.png,GLASS,5c6fc42118508b0001e1e711,15/07/1948,2020-07-09_21h11.22.109,proactive,2020.1.2,Win32,60,5f073de81c76c3308c0e4fb3,5f077900057bf638ddb650ee,2,,,,,,rug,,,,,,0,33,33,14,1,2,1,,,,,,,,,,,,,,,,,,,,,,,,,,,,,,,,,,,,,,,,,,,,,,,,,,,,,,,,,,,,,,,,,,,,,,,,,,,
,,,,,,,,,,stimuli/images/PICTURE_85.png,TOILET,5c6fc42118508b0001e1e711,15/07/1948,2020-07-09_21h11.22.109,proactive,2020.1.2,Win32,60,5f073de81c76c3308c0e4fb3,5f077900057bf638ddb650ee,2,,,,,,diamond,,,,,,0,34,34,48,1,5,1,,,,,,,,,,,,,,,,,,,,,,,,,,,,,,,,,,,,,,,,,,,,,,,,,,,,,,,,,,,,,,,,,,,,,,,,,,,
,,,,,,,,,,stimuli/images/PICTURE_504.png,ARTIST,5c6fc42118508b0001e1e711,15/07/1948,2020-07-09_21h11.22.109,proactive,2020.1.2,Win32,60,5f073de81c76c3308c0e4fb3,5f077900057bf638ddb650ee,2,,,,,,wheel,,,,,,0,35,35,49,1,5,1,,,,,,,,,,,,,,,,,,,,,,,,,,,,,,,,,,,,,,,,,,,,,,,,,,,,,,,,,,,,,,,,,,,,,,,,,,,
,,,,,,,,,,stimuli/images/PICTURE_405.png,PLENTY,5c6fc42118508b0001e1e711,15/07/1948,2020-07-09_21h11.22.109,proactive,2020.1.2,Win32,60,5f073de81c76c3308c0e4fb3,5f077900057bf638ddb650ee,2,,,,,,anchor,,,,,,0,36,36,23,1,3,1,,,,,,,,,,,,,,,,,,,,,,,,,,,,,,,,,,,,,,,,,,,,,,,,,,,,,,,,,,,,,,,,,,,,,,,,,,,
,,,,,,,,,,stimuli/images/PICTURE_308.png,FAMILY,5c6fc42118508b0001e1e711,15/07/1948,2020-07-09_21h11.22.109,proactive,2020.1.2,Win32,60,5f073de81c76c3308c0e4fb3,5f077900057bf638ddb650ee,2,,,,,,dice,,,,,,0,37,37,36,1,4,1,,,,,,,,,,,,,,,,,,,,,,,,,,,,,,,,,,,,,,,,,,,,,,,,,,,,,,,,,,,,,,,,,,,,,,,,,,,
,,,,,,,,,,stimuli/images/PICTURE_491.png,RIVER,5c6fc42118508b0001e1e711,15/07/1948,2020-07-09_21h11.22.109,proactive,2020.1.2,Win32,60,5f073de81c76c3308c0e4fb3,5f077900057bf638ddb650ee,2,,,,,,rug,,,,,,0,38,38,6,1,1,1,,,,,,,,,,,,,,,,,,,,,,,,,,,,,,,,,,,,,,,,,,,,,,,,,,,,,,,,,,,,,,,,,,,,,,,,,,,
,,,,,,,,,,stimuli/images/PICTURE_655.png,TOILET,5c6fc42118508b0001e1e711,15/07/1948,2020-07-09_21h11.22.109,proactive,2020.1.2,Win32,60,5f073de81c76c3308c0e4fb3,5f077900057bf638ddb650ee,2,,,,,,megaphone,,,,,,0,39,39,12,1,2,1,,,,,,,,,,,,,,,,,,,,,,,,,,,,,,,,,,,,,,,,,,,,,,,,,,,,,,,,,,,,,,,,,,,,,,,,,,,
,,,,,,,,,,stimuli/images/PICTURE_32.png,KIND,5c6fc42118508b0001e1e711,15/07/1948,2020-07-09_21h11.22.109,proactive,2020.1.2,Win32,60,5f073de81c76c3308c0e4fb3,5f077900057bf638ddb650ee,2,,,,,,crown,,,,,,0,40,40,35,1,4,1,,,,,,,,,,,,,,,,,,,,,,,,,,,,,,,,,,,,,,,,,,,,,,,,,,,,,,,,,,,,,,,,,,,,,,,,,,,
,,,,,,,,,,stimuli/images/PICTURE_750.png,HOTEL,5c6fc42118508b0001e1e711,15/07/1948,2020-07-09_21h11.22.109,proactive,2020.1.2,Win32,60,5f073de81c76c3308c0e4fb3,5f077900057bf638ddb650ee,2,,,,,,kettle,,,,,,0,41,41,27,1,3,1,,,,,,,,,,,,,,,,,,,,,,,,,,,,,,,,,,,,,,,,,,,,,,,,,,,,,,,,,,,,,,,,,,,,,,,,,,,
,,,,,,,,,,stimuli/images/PICTURE_57.png,MOMENT,5c6fc42118508b0001e1e711,15/07/1948,2020-07-09_21h11.22.109,proactive,2020.1.2,Win32,60,5f073de81c76c3308c0e4fb3,5f077900057bf638ddb650ee,2,,,,,,stamp,,,,,,0,42,42,37,1,4,1,,,,,,,,,,,,,,,,,,,,,,,,,,,,,,,,,,,,,,,,,,,,,,,,,,,,,,,,,,,,,,,,,,,,,,,,,,,
,,,,,,,,,,stimuli/images/PICTURE_68.png,ROOF,5c6fc42118508b0001e1e711,15/07/1948,2020-07-09_21h11.22.109,proactive,2020.1.2,Win32,60,5f073de81c76c3308c0e4fb3,5f077900057bf638ddb650ee,2,,,,,,candle,,,,,,0,43,43,38,1,4,1,,,,,,,,,,,,,,,,,,,,,,,,,,,,,,,,,,,,,,,,,,,,,,,,,,,,,,,,,,,,,,,,,,,,,,,,,,,
,,,,,,,,,,stimuli/images/PICTURE_285.png,LIFE,5c6fc42118508b0001e1e711,15/07/1948,2020-07-09_21h11.22.109,proactive,2020.1.2,Win32,60,5f073de81c76c3308c0e4fb3,5f077900057bf638ddb650ee,2,,,,,,carrot,,,,,,0,44,44,33,1,4,1,,,,,,,,,,,,,,,,,,,,,,,,,,,,,,,,,,,,,,,,,,,,,,,,,,,,,,,,,,,,,,,,,,,,,,,,,,,
,,,,,,,,,,stimuli/images/PICTURE_467.png,POLICY,5c6fc42118508b0001e1e711,15/07/1948,2020-07-09_21h11.22.109,proactive,2020.1.2,Win32,60,5f073de81c76c3308c0e4fb3,5f077900057bf638ddb650ee,2,,,,,,peg,,,,,,0,45,45,53,1,6,1,,,,,,,,,,,,,,,,,,,,,,,,,,,,,,,,,,,,,,,,,,,,,,,,,,,,,,,,,,,,,,,,,,,,,,,,,,,
,,,,,,,,,,stimuli/images/PICTURE_504.png,YEAR,5c6fc42118508b0001e1e711,15/07/1948,2020-07-09_21h11.22.109,proactive,2020.1.2,Win32,60,5f073de81c76c3308c0e4fb3,5f077900057bf638ddb650ee,2,,,,,,wheel,,,,,,0,46,46,13,1,2,1,,,,,,,,,,,,,,,,,,,,,,,,,,,,,,,,,,,,,,,,,,,,,,,,,,,,,,,,,,,,,,,,,,,,,,,,,,,
,,,,,,,,,,stimuli/images/PICTURE_203.png,NIGHT,5c6fc42118508b0001e1e711,15/07/1948,2020-07-09_21h11.22.109,proactive,2020.1.2,Win32,60,5f073de81c76c3308c0e4fb3,5f077900057bf638ddb650ee,2,,,,,,cap,,,,,,0,47,47,2,1,1,1,,,,,,,,,,,,,,,,,,,,,,,,,,,,,,,,,,,,,,,,,,,,,,,,,,,,,,,,,,,,,,,,,,,,,,,,,,,
,,,,,,,,,,stimuli/images/PICTURE_744.png,WEAPON,5c6fc42118508b0001e1e711,15/07/1948,2020-07-09_21h11.22.109,proactive,2020.1.2,Win32,60,5f073de81c76c3308c0e4fb3,5f077900057bf638ddb650ee,2,,,,,,ring,,,,,,0,48,48,50,1,6,1,,,,,,,,,,,,,,,,,,,,,,,,,,,,,,,,,,,,,,,,,,,,,,,,,,,,,,,,,,,,,,,,,,,,,,,,,,,
,,,,,,,,,,stimuli/images/PICTURE_469.png,AGENT,5c6fc42118508b0001e1e711,15/07/1948,2020-07-09_21h11.22.109,proactive,2020.1.2,Win32,60,5f073de81c76c3308c0e4fb3,5f077900057bf638ddb650ee,2,,,,,,stool,,,,,,0,49,49,16,1,2,1,,,,,,,,,,,,,,,,,,,,,,,,,,,,,,,,,,,,,,,,,,,,,,,,,,,,,,,,,,,,,,,,,,,,,,,,,,,
,,,,,,,,,,stimuli/images/PICTURE_405.png,YEAR,5c6fc42118508b0001e1e711,15/07/1948,2020-07-09_21h11.22.109,proactive,2020.1.2,Win32,60,5f073de81c76c3308c0e4fb3,5f077900057bf638ddb650ee,2,,,,,,anchor,,,,,,0,50,50,34,1,4,1,,,,,,,,,,,,,,,,,,,,,,,,,,,,,,,,,,,,,,,,,,,,,,,,,,,,,,,,,,,,,,,,,,,,,,,,,,,
,,,,,,,,,,stimuli/images/PICTURE_340.png,LETTER,5c6fc42118508b0001e1e711,15/07/1948,2020-07-09_21h11.22.109,proactive,2020.1.2,Win32,60,5f073de81c76c3308c0e4fb3,5f077900057bf638ddb650ee,2,,,,,,mirror,,,,,,0,51,51,24,1,3,1,,,,,,,,,,,,,,,,,,,,,,,,,,,,,,,,,,,,,,,,,,,,,,,,,,,,,,,,,,,,,,,,,,,,,,,,,,,
,,,,,,,,,,stimuli/images/PICTURE_42.png,BOYS,5c6fc42118508b0001e1e711,15/07/1948,2020-07-09_21h11.22.109,proactive,2020.1.2,Win32,60,5f073de81c76c3308c0e4fb3,5f077900057bf638ddb650ee,2,,,,,,pear,,,,,,0,52,52,55,1,6,1,,,,,,,,,,,,,,,,,,,,,,,,,,,,,,,,,,,,,,,,,,,,,,,,,,,,,,,,,,,,,,,,,,,,,,,,,,,
,,,,,,,,,,stimuli/images/PICTURE_2.png,FLIGHT,5c6fc42118508b0001e1e711,15/07/1948,2020-07-09_21h11.22.109,proactive,2020.1.2,Win32,60,5f073de81c76c3308c0e4fb3,5f077900057bf638ddb650ee,2,,,,,,tyre,,,,,,0,53,53,15,1,2,1,,,,,,,,,,,,,,,,,,,,,,,,,,,,,,,,,,,,,,,,,,,,,,,,,,,,,,,,,,,,,,,,,,,,,,,,,,,
,,,,,,,,,,stimuli/images/PICTURE_296.png,LIFE,5c6fc42118508b0001e1e711,15/07/1948,2020-07-09_21h11.22.109,proactive,2020.1.2,Win32,60,5f073de81c76c3308c0e4fb3,5f077900057bf638ddb650ee,2,,,,,,bolt,,,,,,0,54,54,57,1,6,1,,,,,,,,,,,,,,,,,,,,,,,,,,,,,,,,,,,,,,,,,,,,,,,,,,,,,,,,,,,,,,,,,,,,,,,,,,,
,,,,,,,,,,stimuli/images/PICTURE_327.png,CASINO,5c6fc42118508b0001e1e711,15/07/1948,2020-07-09_21h11.22.109,proactive,2020.1.2,Win32,60,5f073de81c76c3308c0e4fb3,5f077900057bf638ddb650ee,2,,,,,,helmet,,,,,,0,55,55,20,1,3,1,,,,,,,,,,,,,,,,,,,,,,,,,,,,,,,,,,,,,,,,,,,,,,,,,,,,,,,,,,,,,,,,,,,,,,,,,,,
,,,,,,,,,,stimuli/images/PICTURE_675.png,SALE,5c6fc42118508b0001e1e711,15/07/1948,2020-07-09_21h11.22.109,proactive,2020.1.2,Win32,60,5f073de81c76c3308c0e4fb3,5f077900057bf638ddb650ee,2,,,,,,windmill,,,,,,0,56,56,47,1,5,1,,,,,,,,,,,,,,,,,,,,,,,,,,,,,,,,,,,,,,,,,,,,,,,,,,,,,,,,,,,,,,,,,,,,,,,,,,,
,,,,,,,,,,stimuli/images/PICTURE_403.png,RIVER,5c6fc42118508b0001e1e711,15/07/1948,2020-07-09_21h11.22.109,proactive,2020.1.2,Win32,60,5f073de81c76c3308c0e4fb3,5f077900057bf638ddb650ee,2,,,,,,cathedral,,,,,,0,57,57,40,1,5,1,,,,,,,,,,,,,,,,,,,,,,,,,,,,,,,,,,,,,,,,,,,,,,,,,,,,,,,,,,,,,,,,,,,,,,,,,,,
,,,,,,,,,,stimuli/images/PICTURE_677.png,APPLE,5c6fc42118508b0001e1e711,15/07/1948,2020-07-09_21h11.22.109,proactive,2020.1.2,Win32,60,5f073de81c76c3308c0e4fb3,5f077900057bf638ddb650ee,2,,,,,,map,,,,,,0,58,58,43,1,5,1,,,,,,,,,,,,,,,,,,,,,,,,,,,,,,,,,,,,,,,,,,,,,,,,,,,,,,,,,,,,,,,,,,,,,,,,,,,
,,?,0.00095,0,,,,,,stimuli/images/PICTURE_108.png,POLICY,5c6fc42118508b0001e1e711,15/07/1948,2020-07-09_21h11.22.109,proactive,2020.1.2,Win32,60,5f073de81c76c3308c0e4fb3,5f077900057bf638ddb650ee,2,,,,,,calendar,,,,,,,,,,,3,1,0,0,0,22,1,,,,,,,,,,,,,,,,,,,,,,,,,,,,,,,,,,,,,,,,,,,,,,,,,,,,,,,,,,,,,,,,,,,,,,
,,?,0.000465,0,,,,,,stimuli/images/PICTURE_677.png,APPLE,5c6fc42118508b0001e1e711,15/07/1948,2020-07-09_21h11.22.109,proactive,2020.1.2,Win32,60,5f073de81c76c3308c0e4fb3,5f077900057bf638ddb650ee,2,,,,,,map,,,,,,,,,,,5,1,0,1,1,43,1,,,,,,,,,,,,,,,,,,,,,,,,,,,,,,,,,,,,,,,,,,,,,,,,,,,,,,,,,,,,,,,,,,,,,,
,,?,0.000475,0,,,,,,stimuli/images/PICTURE_177.png,WRITER,5c6fc42118508b0001e1e711,15/07/1948,2020-07-09_21h11.22.109,proactive,2020.1.2,Win32,60,5f073de81c76c3308c0e4fb3,5f077900057bf638ddb650ee,2,,,,,,mushroom,,,,,,,,,,,5,1,0,2,2,41,1,,,,,,,,,,,,,,,,,,,,,,,,,,,,,,,,,,,,,,,,,,,,,,,,,,,,,,,,,,,,,,,,,,,,,,
,,?,0.000455,0,,,,,,stimuli/images/PICTURE_340.png,LETTER,5c6fc42118508b0001e1e711,15/07/1948,2020-07-09_21h11.22.109,proactive,2020.1.2,Win32,60,5f073de81c76c3308c0e4fb3,5f077900057bf638ddb650ee,2,,,,,,mirror,,,,,,,,,,,3,1,0,3,3,24,1,,,,,,,,,,,,,,,,,,,,,,,,,,,,,,,,,,,,,,,,,,,,,,,,,,,,,,,,,,,,,,,,,,,,,,
,,?,0.00046,0,,,,,,stimuli/images/PICTURE_491.png,RIVER,5c6fc42118508b0001e1e711,15/07/1948,2020-07-09_21h11.22.109,proactive,2020.1.2,Win32,60,5f073de81c76c3308c0e4fb3,5f077900057bf638ddb650ee,2,,,,,,rug,,,,,,,,,,,1,1,0,4,4,6,1,,,,,,,,,,,,,,,,,,,,,,,,,,,,,,,,,,,,,,,,,,,,,,,,,,,,,,,,,,,,,,,,,,,,,,
,,?,0.000485,0,,,,,,stimuli/images/PICTURE_285.png,LIFE,5c6fc42118508b0001e1e711,15/07/1948,2020-07-09_21h11.22.109,proactive,2020.1.2,Win32,60,5f073de81c76c3308c0e4fb3,5f077900057bf638ddb650ee,2,,,,,,carrot,,,,,,,,,,,4,1,0,5,5,33,1,,,,,,,,,,,,,,,,,,,,,,,,,,,,,,,,,,,,,,,,,,,,,,,,,,,,,,,,,,,,,,,,,,,,,,
,,?,0.00045,0,,,,,,stimuli/images/PICTURE_95.png,MILLER,5c6fc42118508b0001e1e711,15/07/1948,2020-07-09_21h11.22.109,proactive,2020.1.2,Win32,60,5f073de81c76c3308c0e4fb3,5f077900057bf638ddb650ee,2,,,,,,suitcase,,,,,,,,,,,6,1,0,6,6,56,1,,,,,,,,,,,,,,,,,,,,,,,,,,,,,,,,,,,,,,,,,,,,,,,,,,,,,,,,,,,,,,,,,,,,,,
,,?,0.00053,0,,,,,,stimuli/images/PICTURE_675.png,SALE,5c6fc42118508b0001e1e711,15/07/1948,2020-07-09_21h11.22.109,proactive,2020.1.2,Win32,60,5f073de81c76c3308c0e4fb3,5f077900057bf638ddb650ee,2,,,,,,windmill,,,,,,,,,,,5,1,0,7,7,47,1,,,,,,,,,,,,,,,,,,,,,,,,,,,,,,,,,,,,,,,,,,,,,,,,,,,,,,,,,,,,,,,,,,,,,,
,,?,0.00046,0,,,,,,stimuli/images/PICTURE_708.png,RECORD,5c6fc42118508b0001e1e711,15/07/1948,2020-07-09_21h11.22.109,proactive,2020.1.2,Win32,60,5f073de81c76c3308c0e4fb3,5f077900057bf638ddb650ee,2,,,,,,monkey,,,,,,,,,,,6,1,0,8,8,58,1,,,,,,,,,,,,,,,,,,,,,,,,,,,,,,,,,,,,,,,,,,,,,,,,,,,,,,,,,,,,,,,,,,,,,,
,,?,0.000445,0,,,,,,stimuli/images/PICTURE_403.png,WRITER,5c6fc42118508b0001e1e711,15/07/1948,2020-07-09_21h11.22.109,proactive,2020.1.2,Win32,60,5f073de81c76c3308c0e4fb3,5f077900057bf638ddb650ee,2,,,,,,cathedral,,,,,,,,,,,4,1,0,9,9,31,1,,,,,,,,,,,,,,,,,,,,,,,,,,,,,,,,,,,,,,,,,,,,,,,,,,,,,,,,,,,,,,,,,,,,,,
,,?,0.000455,0,,,,,,stimuli/images/PICTURE_564.png,BATH,5c6fc42118508b0001e1e711,15/07/1948,2020-07-09_21h11.22.109,proactive,2020.1.2,Win32,60,5f073de81c76c3308c0e4fb3,5f077900057bf638ddb650ee,2,,,,,,spoon,,,,,,,,,,,3,1,0,10,10,26,1,,,,,,,,,,,,,,,,,,,,,,,,,,,,,,,,,,,,,,,,,,,,,,,,,,,,,,,,,,,,,,,,,,,,,,
,,?,0.00045,0,,,,,,stimuli/images/PICTURE_85.png,NATION,5c6fc42118508b0001e1e711,15/07/1948,2020-07-09_21h11.22.109,proactive,2020.1.2,Win32,60,5f073de81c76c3308c0e4fb3,5f077900057bf638ddb650ee,2,,,,,,diamond,,,,,,,,,,,1,1,0,11,11,5,1,,,,,,,,,,,,,,,,,,,,,,,,,,,,,,,,,,,,,,,,,,,,,,,,,,,,,,,,,,,,,,,,,,,,,,
,,?,0.000445,0,,,,,,stimuli/images/PICTURE_403.png,TOILET,5c6fc42118508b0001e1e711,15/07/1948,2020-07-09_21h11.22.109,proactive,2020.1.2,Win32,60,5f073de81c76c3308c0e4fb3,5f077900057bf638ddb650ee,2,,,,,,cathedral,,,,,,,,,,,3,1,0,12,12,25,1,,,,,,,,,,,,,,,,,,,,,,,,,,,,,,,,,,,,,,,,,,,,,,,,,,,,,,,,,,,,,,,,,,,,,,
,,?,0.000445,0,,,,,,stimuli/images/PICTURE_233.png,LOTS,5c6fc42118508b0001e1e711,15/07/1948,2020-07-09_21h11.22.109,proactive,2020.1.2,Win32,60,5f073de81c76c3308c0e4fb3,5f077900057bf638ddb650ee,2,,,,,,salt,,,,,,,,,,,5,1,0,13,13,42,1,,,,,,,,,,,,,,,,,,,,,,,,,,,,,,,,,,,,,,,,,,,,,,,,,,,,,,,,,,,,,,,,,,,,,,
,,?,0.00044,0,,,,,,stimuli/images/PICTURE_383.png,WRITER,5c6fc42118508b0001e1e711,15/07/1948,2020-07-09_21h11.22.109,proactive,2020.1.2,Win32,60,5f073de81c76c3308c0e4fb3,5f077900057bf638ddb650ee,2,,,,,,coin,,,,,,,,,,,3,1,0,14,14,28,1,,,,,,,,,,,,,,,,,,,,,,,,,,,,,,,,,,,,,,,,,,,,,,,,,,,,,,,,,,,,,,,,,,,,,,
,,?,0.000445,0,,,,,,stimuli/images/PICTURE_340.png,VALLEY,5c6fc42118508b0001e1e711,15/07/1948,2020-07-09_21h11.22.109,proactive,2020.1.2,Win32,60,5f073de81c76c3308c0e4fb3,5f077900057bf638ddb650ee,2,,,,,,mirror,,,,,,,,,,,6,1,0,15,15,54,1,,,,,,,,,,,,,,,,,,,,,,,,,,,,,,,,,,,,,,,,,,,,,,,,,,,,,,,,,,,,,,,,,,,,,,
,,?,0.00045,0,,,,,,stimuli/images/PICTURE_33.png,FRIEND,5c6fc42118508b0001e1e711,15/07/1948,2020-07-09_21h11.22.109,proactive,2020.1.2,Win32,60,5f073de81c76c3308c0e4fb3,5f077900057bf638ddb650ee,2,,,,,,frame,,,,,,,,,,,1,1,0,16,16,8,1,,,,,,,,,,,,,,,,,,,,,,,,,,,,,,,,,,,,,,,,,,,,,,,,,,,,,,,,,,,,,,,,,,,,,,
,,?,0.000445,0,,,,,,stimuli/images/PICTURE_327.png,CASINO,5c6fc42118508b0001e1e711,15/07/1948,2020-07-09_21h11.22.109,proactive,2020.1.2,Win32,60,5f073de81c76c3308c0e4fb3,5f077900057bf638ddb650ee,2,,,,,,helmet,,,,,,,,,,,3,1,0,17,17,20,1,,,,,,,,,,,,,,,,,,,,,,,,,,,,,,,,,,,,,,,,,,,,,,,,,,,,,,,,,,,,,,,,,,,,,,
,,?,0.000505,0,,,,,,stimuli/images/PICTURE_296.png,LOTS,5c6fc42118508b0001e1e711,15/07/1948,2020-07-09_21h11.22.109,proactive,2020.1.2,Win32,60,5f073de81c76c3308c0e4fb3,5f077900057bf638ddb650ee,2,,,,,,bolt,,,,,,,,,,,1,1,0,18,18,9,1,,,,,,,,,,,,,,,,,,,,,,,,,,,,,,,,,,,,,,,,,,,,,,,,,,,,,,,,,,,,,,,,,,,,,,
,,CLIENT,15.01231,1,,,,,,stimuli/images/PICTURE_339.png,CLIENT,5c6fc42118508b0001e1e711,15/07/1948,2020-07-09_21h11.22.109,proactive,2020.1.2,Win32,60,5f073de81c76c3308c0e4fb3,5f077900057bf638ddb650ee,2,,,,,,backpack,,,,,,,,,,,2,1,0,19,19,11,1,,,,,,,,,,,,,,,,,,,,,,,,,,,,,,,,,,,,,,,,,,,,,,,,,,,,,,,,,,,,,,,,,,,,,,
,,?,0.000745,0,,,,,,stimuli/images/PICTURE_95.png,BOYS,5c6fc42118508b0001e1e711,15/07/1948,2020-07-09_21h11.22.109,proactive,2020.1.2,Win32,60,5f073de81c76c3308c0e4fb3,5f077900057bf638ddb650ee,2,,,,,,suitcase,,,,,,,,,,,1,1,0,20,20,1,1,,,,,,,,,,,,,,,,,,,,,,,,,,,,,,,,,,,,,,,,,,,,,,,,,,,,,,,,,,,,,,,,,,,,,,
,,?,0.00046,0,,,,,,stimuli/images/PICTURE_57.png,MOMENT,5c6fc42118508b0001e1e711,15/07/1948,2020-07-09_21h11.22.109,proactive,2020.1.2,Win32,60,5f073de81c76c3308c0e4fb3,5f077900057bf638ddb650ee,2,,,,,,stamp,,,,,,,,,,,4,1,0,21,21,37,1,,,,,,,,,,,,,,,,,,,,,,,,,,,,,,,,,,,,,,,,,,,,,,,,,,,,,,,,,,,,,,,,,,,,,,
,,TOILET,15.005805,1,,,,,,stimuli/images/PICTURE_655.png,TOILET,5c6fc42118508b0001e1e711,15/07/1948,2020-07-09_21h11.22.109,proactive,2020.1.2,Win32,60,5f073de81c76c3308c0e4fb3,5f077900057bf638ddb650ee,2,,,,,,megaphone,,,,,,,,,,,2,1,0,22,22,12,1,,,,,,,,,,,,,,,,,,,,,,,,,,,,,,,,,,,,,,,,,,,,,,,,,,,,,,,,,,,,,,,,,,,,,,
,,?,0.00076,0,,,,,,stimuli/images/PICTURE_750.png,HOTEL,5c6fc42118508b0001e1e711,15/07/1948,2020-07-09_21h11.22.109,proactive,2020.1.2,Win32,60,5f073de81c76c3308c0e4fb3,5f077900057bf638ddb650ee,2,,,,,,kettle,,,,,,,,,,,3,1,0,23,23,27,1,,,,,,,,,,,,,,,,,,,,,,,,,,,,,,,,,,,,,,,,,,,,,,,,,,,,,,,,,,,,,,,,,,,,,,
,,?,0.00046,0,,,,,,stimuli/images/PICTURE_203.png,NIGHT,5c6fc42118508b0001e1e711,15/07/1948,2020-07-09_21h11.22.109,proactive,2020.1.2,Win32,60,5f073de81c76c3308c0e4fb3,5f077900057bf638ddb650ee,2,,,,,,cap,,,,,,,,,,,1,1,0,24,24,2,1,,,,,,,,,,,,,,,,,,,,,,,,,,,,,,,,,,,,,,,,,,,,,,,,,,,,,,,,,,,,,,,,,,,,,,
,,?,0.00046,0,,,,,,stimuli/images/PICTURE_467.png,POLICY,5c6fc42118508b0001e1e711,15/07/1948,2020-07-09_21h11.22.109,proactive,2020.1.2,Win32,60,5f073de81c76c3308c0e4fb3,5f077900057bf638ddb650ee,2,,,,,,peg,,,,,,,,,,,6,1,0,25,25,53,1,,,,,,,,,,,,,,,,,,,,,,,,,,,,,,,,,,,,,,,,,,,,,,,,,,,,,,,,,,,,,,,,,,,,,,
,,?,0.000445,0,,,,,,stimuli/images/PICTURE_208.png,SYSTEM,5c6fc42118508b0001e1e711,15/07/1948,2020-07-09_21h11.22.109,proactive,2020.1.2,Win32,60,5f073de81c76c3308c0e4fb3,5f077900057bf638ddb650ee,2,,,,,,microphone,,,,,,,,,,,4,1,0,26,26,32,1,,,,,,,,,,,,,,,,,,,,,,,,,,,,,,,,,,,,,,,,,,,,,,,,,,,,,,,,,,,,,,,,,,,,,,
,,?,0.000455,0,,,,,,stimuli/images/PICTURE_32.png,KIND,5c6fc42118508b0001e1e711,15/07/1948,2020-07-09_21h11.22.109,proactive,2020.1.2,Win32,60,5f073de81c76c3308c0e4fb3,5f077900057bf638ddb650ee,2,,,,,,crown,,,,,,,,,,,4,1,0,27,27,35,1,,,,,,,,,,,,,,,,,,,,,,,,,,,,,,,,,,,,,,,,,,,,,,,,,,,,,,,,,,,,,,,,,,,,,,
,,PILLS,15.003615,1,,,,,,stimuli/images/PICTURE_32.png,PILLS,5c6fc42118508b0001e1e711,15/07/1948,2020-07-09_21h11.22.109,proactive,2020.1.2,Win32,60,5f073de81c76c3308c0e4fb3,5f077900057bf638ddb650ee,2,,,,,,crown,,,,,,,,,,,2,1,0,28,28,18,1,,,,,,,,,,,,,,,,,,,,,,,,,,,,,,,,,,,,,,,,,,,,,,,,,,,,,,,,,,,,,,,,,,,,,,
,,?,0.00077,0,,,,,,stimuli/images/PICTURE_685.png,PENNY,5c6fc42118508b0001e1e711,15/07/1948,2020-07-09_21h11.22.109,proactive,2020.1.2,Win32,60,5f073de81c76c3308c0e4fb3,5f077900057bf638ddb650ee,2,,,,,,goose,,,,,,,,,,,1,1,0,29,29,4,1,,,,,,,,,,,,,,,,,,,,,,,,,,,,,,,,,,,,,,,,,,,,,,,,,,,,,,,,,,,,,,,,,,,,,,
,,?,0.000445,0,,,,,,stimuli/images/PICTURE_203.png,GODS,5c6fc42118508b0001e1e711,15/07/1948,2020-07-09_21h11.22.109,proactive,2020.1.2,Win32,60,5f073de81c76c3308c0e4fb3,5f077900057bf638ddb650ee,2,,,,,,cap,,,,,,,,,,,4,1,0,30,30,30,1,,,,,,,,,,,,,,,,,,,,,,,,,,,,,,,,,,,,,,,,,,,,,,,,,,,,,,,,,,,,,,,,,,,,,,
,,HONEY,15.006035,1,,,,,,stimuli/images/PICTURE_380.png,HONEY,5c6fc42118508b0001e1e711,15/07/1948,2020-07-09_21h11.22.109,proactive,2020.1.2,Win32,60,5f073de81c76c3308c0e4fb3,5f077900057bf638ddb650ee,2,,,,,,gorilla,,,,,,,,,,,2,1,0,31,31,19,1,,,,,,,,,,,,,,,,,,,,,,,,,,,,,,,,,,,,,,,,,,,,,,,,,,,,,,,,,,,,,,,,,,,,,,
,,?,0.000845,0,,,,,,stimuli/images/PICTURE_380.png,CANDY,5c6fc42118508b0001e1e711,15/07/1948,2020-07-09_21h11.22.109,proactive,2020.1.2,Win32,60,5f073de81c76c3308c0e4fb3,5f077900057bf638ddb650ee,2,,,,,,gorilla,,,,,,,,,,,1,1,0,32,32,0,1,,,,,,,,,,,,,,,,,,,,,,,,,,,,,,,,,,,,,,,,,,,,,,,,,,,,,,,,,,,,,,,,,,,,,,
,,?,0.00051,0,,,,,,stimuli/images/PICTURE_744.png,WEAPON,5c6fc42118508b0001e1e711,15/07/1948,2020-07-09_21h11.22.109,proactive,2020.1.2,Win32,60,5f073de81c76c3308c0e4fb3,5f077900057bf638ddb650ee,2,,,,,,ring,,,,,,,,,,,6,1,0,33,33,50,1,,,,,,,,,,,,,,,,,,,,,,,,,,,,,,,,,,,,,,,,,,,,,,,,,,,,,,,,,,,,,,,,,,,,,,
,,?,0.00046,0,,,,,,stimuli/images/PICTURE_654.png,MONTH,5c6fc42118508b0001e1e711,15/07/1948,2020-07-09_21h11.22.109,proactive,2020.1.2,Win32,60,5f073de81c76c3308c0e4fb3,5f077900057bf638ddb650ee,2,,,,,,pencil,,,,,,,,,,,3,1,0,34,34,29,1,,,,,,,,,,,,,,,,,,,,,,,,,,,,,,,,,,,,,,,,,,,,,,,,,,,,,,,,,,,,,,,,,,,,,,
,,?,0.00044,0,,,,,,stimuli/images/PICTURE_95.png,HONEY,5c6fc42118508b0001e1e711,15/07/1948,2020-07-09_21h11.22.109,proactive,2020.1.2,Win32,60,5f073de81c76c3308c0e4fb3,5f077900057bf638ddb650ee,2,,,,,,suitcase,,,,,,,,,,,5,1,0,35,35,44,1,,,,,,,,,,,,,,,,,,,,,,,,,,,,,,,,,,,,,,,,,,,,,,,,,,,,,,,,,,,,,,,,,,,,,,
,,GLASS,15.00464,1,,,,,,stimuli/images/PICTURE_491.png,GLASS,5c6fc42118508b0001e1e711,15/07/1948,2020-07-09_21h11.22.109,proactive,2020.1.2,Win32,60,5f073de81c76c3308c0e4fb3,5f077900057bf638ddb650ee,2,,,,,,rug,,,,,,,,,,,2,1,0,36,36,14,1,,,,,,,,,,,,,,,,,,,,,,,,,,,,,,,,,,,,,,,,,,,,,,,,,,,,,,,,,,,,,,,,,,,,,,
,,?,0.00081,0,,,,,,stimuli/images/PICTURE_487.png,GIRL,5c6fc42118508b0001e1e711,15/07/1948,2020-07-09_21h11.22.109,proactive,2020.1.2,Win32,60,5f073de81c76c3308c0e4fb3,5f077900057bf638ddb650ee,2,,,,,,basket,,,,,,,,,,,5,1,0,37,37,45,1,,,,,,,,,,,,,,,,,,,,,,,,,,,,,,,,,,,,,,,,,,,,,,,,,,,,,,,,,,,,,,,,,,,,,,
,,?,15.007495,0,,,,,,stimuli/images/PICTURE_469.png,AGENT,5c6fc42118508b0001e1e711,15/07/1948,2020-07-09_21h11.22.109,proactive,2020.1.2,Win32,60,5f073de81c76c3308c0e4fb3,5f077900057bf638ddb650ee,2,,,,,,stool,,,,,,,,,,,2,1,0,38,38,16,1,,,,,,,,,,,,,,,,,,,,,,,,,,,,,,,,,,,,,,,,,,,,,,,,,,,,,,,,,,,,,,,,,,,,,,
,,FLIGHT,15.00934,1,,,,,,stimuli/images/PICTURE_2.png,FLIGHT,5c6fc42118508b0001e1e711,15/07/1948,2020-07-09_21h11.22.109,proactive,2020.1.2,Win32,60,5f073de81c76c3308c0e4fb3,5f077900057bf638ddb650ee,2,,,,,,tyre,,,,,,,,,,,2,1,0,39,39,15,1,,,,,,,,,,,,,,,,,,,,,,,,,,,,,,,,,,,,,,,,,,,,,,,,,,,,,,,,,,,,,,,,,,,,,,
,,?,15.008585,0,,,,,,stimuli/images/PICTURE_449.png,DUDE,5c6fc42118508b0001e1e711,15/07/1948,2020-07-09_21h11.22.109,proactive,2020.1.2,Win32,60,5f073de81c76c3308c0e4fb3,5f077900057bf638ddb650ee,2,,,,,,bench,,,,,,,,,,,2,1,0,40,40,17,1,,,,,,,,,,,,,,,,,,,,,,,,,,,,,,,,,,,,,,,,,,,,,,,,,,,,,,,,,,,,,,,,,,,,,,
,,?,0.000695,0,,,,,,stimuli/images/PICTURE_504.png,COPS,5c6fc42118508b0001e1e711,15/07/1948,2020-07-09_21h11.22.109,proactive,2020.1.2,Win32,60,5f073de81c76c3308c0e4fb3,5f077900057bf638ddb650ee,2,,,,,,wheel,,,,,,,,,,,6,1,0,41,41,52,1,,,,,,,,,,,,,,,,,,,,,,,,,,,,,,,,,,,,,,,,,,,,,,,,,,,,,,,,,,,,,,,,,,,,,,
,,?,0.00046,0,,,,,,stimuli/images/PICTURE_403.png,RIVER,5c6fc42118508b0001e1e711,15/07/1948,2020-07-09_21h11.22.109,proactive,2020.1.2,Win32,60,5f073de81c76c3308c0e4fb3,5f077900057bf638ddb650ee,2,,,,,,cathedral,,,,,,,,,,,5,1,0,42,42,40,1,,,,,,,,,,,,,,,,,,,,,,,,,,,,,,,,,,,,,,,,,,,,,,,,,,,,,,,,,,,,,,,,,,,,,,
,,?,0.000455,0,,,,,,stimuli/images/PICTURE_405.png,YEAR,5c6fc42118508b0001e1e711,15/07/1948,2020-07-09_21h11.22.109,proactive,2020.1.2,Win32,60,5f073de81c76c3308c0e4fb3,5f077900057bf638ddb650ee,2,,,,,,anchor,,,,,,,,,,,4,1,0,43,43,34,1,,,,,,,,,,,,,,,,,,,,,,,,,,,,,,,,,,,,,,,,,,,,,,,,,,,,,,,,,,,,,,,,,,,,,,
,,YEAR,15.00541,1,,,,,,stimuli/images/PICTURE_504.png,YEAR,5c6fc42118508b0001e1e711,15/07/1948,2020-07-09_21h11.22.109,proactive,2020.1.2,Win32,60,5f073de81c76c3308c0e4fb3,5f077900057bf638ddb650ee,2,,,,,,wheel,,,,,,,,,,,2,1,0,44,44,13,1,,,,,,,,,,,,,,,,,,,,,,,,,,,,,,,,,,,,,,,,,,,,,,,,,,,,,,,,,,,,,,,,,,,,,,
,,?,0.000745,0,,,,,,stimuli/images/PICTURE_42.png,BOYS,5c6fc42118508b0001e1e711,15/07/1948,2020-07-09_21h11.22.109,proactive,2020.1.2,Win32,60,5f073de81c76c3308c0e4fb3,5f077900057bf638ddb650ee,2,,,,,,pear,,,,,,,,,,,6,1,0,45,45,55,1,,,,,,,,,,,,,,,,,,,,,,,,,,,,,,,,,,,,,,,,,,,,,,,,,,,,,,,,,,,,,,,,,,,,,,
,,?,0.00046,0,,,,,,stimuli/images/PICTURE_308.png,FAMILY,5c6fc42118508b0001e1e711,15/07/1948,2020-07-09_21h11.22.109,proactive,2020.1.2,Win32,60,5f073de81c76c3308c0e4fb3,5f077900057bf638ddb650ee,2,,,,,,dice,,,,,,,,,,,4,1,0,46,46,36,1,,,,,,,,,,,,,,,,,,,,,,,,,,,,,,,,,,,,,,,,,,,,,,,,,,,,,,,,,,,,,,,,,,,,,,
,,?,0.000465,0,,,,,,stimuli/images/PICTURE_405.png,PLENTY,5c6fc42118508b0001e1e711,15/07/1948,2020-07-09_21h11.22.109,proactive,2020.1.2,Win32,60,5f073de81c76c3308c0e4fb3,5f077900057bf638ddb650ee,2,,,,,,anchor,,,,,,,,,,,3,1,0,47,47,23,1,,,,,,,,,,,,,,,,,,,,,,,,,,,,,,,,,,,,,,,,,,,,,,,,,,,,,,,,,,,,,,,,,,,,,,
,,?,0.000445,0,,,,,,stimuli/images/PICTURE_68.png,MILE,5c6fc42118508b0001e1e711,15/07/1948,2020-07-09_21h11.22.109,proactive,2020.1.2,Win32,60,5f073de81c76c3308c0e4fb3,5f077900057bf638ddb650ee,2,,,,,,candle,,,,,,,,,,,6,1,0,48,48,51,1,,,,,,,,,,,,,,,,,,,,,,,,,,,,,,,,,,,,,,,,,,,,,,,,,,,,,,,,,,,,,,,,,,,,,,
,,?,0.00046,0,,,,,,stimuli/images/PICTURE_327.png,SERIES,5c6fc42118508b0001e1e711,15/07/1948,2020-07-09_21h11.22.109,proactive,2020.1.2,Win32,60,5f073de81c76c3308c0e4fb3,5f077900057bf638ddb650ee,2,,,,,,helmet,,,,,,,,,,,1,1,0,49,49,3,1,,,,,,,,,,,,,,,,,,,,,,,,,,,,,,,,,,,,,,,,,,,,,,,,,,,,,,,,,,,,,,,,,,,,,,
,,RIVER,15.00303,1,,,,,,stimuli/images/PICTURE_667.png,RIVER,5c6fc42118508b0001e1e711,15/07/1948,2020-07-09_21h11.22.109,proactive,2020.1.2,Win32,60,5f073de81c76c3308c0e4fb3,5f077900057bf638ddb650ee,2,,,,,,daisy,,,,,,,,,,,2,1,0,50,50,10,1,,,,,,,,,,,,,,,,,,,,,,,,,,,,,,,,,,,,,,,,,,,,,,,,,,,,,,,,,,,,,,,,,,,,,,
,,?,0.000775,0,,,,,,stimuli/images/PICTURE_68.png,ROOF,5c6fc42118508b0001e1e711,15/07/1948,2020-07-09_21h11.22.109,proactive,2020.1.2,Win32,60,5f073de81c76c3308c0e4fb3,5f077900057bf638ddb650ee,2,,,,,,candle,,,,,,,,,,,4,1,0,51,51,38,1,,,,,,,,,,,,,,,,,,,,,,,,,,,,,,,,,,,,,,,,,,,,,,,,,,,,,,,,,,,,,,,,,,,,,,
,,?,0.000445,0,,,,,,stimuli/images/PICTURE_108.png,FLIGHT,5c6fc42118508b0001e1e711,15/07/1948,2020-07-09_21h11.22.109,proactive,2020.1.2,Win32,60,5f073de81c76c3308c0e4fb3,5f077900057bf638ddb650ee,2,,,,,,calendar,,,,,,,,,,,6,1,0,52,52,59,1,,,,,,,,,,,,,,,,,,,,,,,,,,,,,,,,,,,,,,,,,,,,,,,,,,,,,,,,,,,,,,,,,,,,,,
,,?,0.00054,0,,,,,,stimuli/images/PICTURE_147.png,WOMEN,5c6fc42118508b0001e1e711,15/07/1948,2020-07-09_21h11.22.109,proactive,2020.1.2,Win32,60,5f073de81c76c3308c0e4fb3,5f077900057bf638ddb650ee,2,,,,,,hanger,,,,,,,,,,,1,1,0,53,53,7,1,,,,,,,,,,,,,,,,,,,,,,,,,,,,,,,,,,,,,,,,,,,,,,,,,,,,,,,,,,,,,,,,,,,,,,
,,?,0.000435,0,,,,,,stimuli/images/PICTURE_147.png,YEAR,5c6fc42118508b0001e1e711,15/07/1948,2020-07-09_21h11.22.109,proactive,2020.1.2,Win32,60,5f073de81c76c3308c0e4fb3,5f077900057bf638ddb650ee,2,,,,,,hanger,,,,,,,,,,,3,1,0,54,54,21,1,,,,,,,,,,,,,,,,,,,,,,,,,,,,,,,,,,,,,,,,,,,,,,,,,,,,,,,,,,,,,,,,,,,,,,
,,?,0.00044,0,,,,,,stimuli/images/PICTURE_504.png,ARTIST,5c6fc42118508b0001e1e711,15/07/1948,2020-07-09_21h11.22.109,proactive,2020.1.2,Win32,60,5f073de81c76c3308c0e4fb3,5f077900057bf638ddb650ee,2,,,,,,wheel,,,,,,,,,,,5,1,0,55,55,49,1,,,,,,,,,,,,,,,,,,,,,,,,,,,,,,,,,,,,,,,,,,,,,,,,,,,,,,,,,,,,,,,,,,,,,,
,,?,0.000455,0,,,,,,stimuli/images/PICTURE_296.png,LIFE,5c6fc42118508b0001e1e711,15/07/1948,2020-07-09_21h11.22.109,proactive,2020.1.2,Win32,60,5f073de81c76c3308c0e4fb3,5f077900057bf638ddb650ee,2,,,,,,bolt,,,,,,,,,,,6,1,0,56,56,57,1,,,,,,,,,,,,,,,,,,,,,,,,,,,,,,,,,,,,,,,,,,,,,,,,,,,,,,,,,,,,,,,,,,,,,,
,,?,0.00044,0,,,,,,stimuli/images/PICTURE_383.png,SERIES,5c6fc42118508b0001e1e711,15/07/1948,2020-07-09_21h11.22.109,proactive,2020.1.2,Win32,60,5f073de81c76c3308c0e4fb3,5f077900057bf638ddb650ee,2,,,,,,coin,,,,,,,,,,,5,1,0,57,57,46,1,,,,,,,,,,,,,,,,,,,,,,,,,,,,,,,,,,,,,,,,,,,,,,,,,,,,,,,,,,,,,,,,,,,,,,
,,?,0.00044,0,,,,,,stimuli/images/PICTURE_85.png,TOILET,5c6fc42118508b0001e1e711,15/07/1948,2020-07-09_21h11.22.109,proactive,2020.1.2,Win32,60,5f073de81c76c3308c0e4fb3,5f077900057bf638ddb650ee,2,,,,,,diamond,,,,,,,,,,,5,1,0,58,58,48,1,,,,,,,,,,,,,,,,,,,,,,,,,,,,,,,,,,,,,,,,,,,,,,,,,,,,,,,,,,,,,,,,,,,,,,
,,?,0.000445,0,,,,,,stimuli/images/PICTURE_297.png,RIVER,5c6fc42118508b0001e1e711,15/07/1948,2020-07-09_21h11.22.109,proactive,2020.1.2,Win32,60,5f073de81c76c3308c0e4fb3,5f077900057bf638ddb650ee,2,,,,,,aeroplane,,,,,,,,,,,4,1,0,59,59,39,1,,,,,,,,,,,,,,,,,,,,,,,,,,,,,,,,,,,,,,,,,,,,,,,,,,,,,,,,,,,,,,,,,,,,,,
,,,,,,,,,,,,5c6fc42118508b0001e1e711,15/07/1948,2020-07-09_21h11.22.109,proactive,2020.1.2,Win32,60,5f073de81c76c3308c0e4fb3,5f077900057bf638ddb650ee,2,,,,,,,,,,,,,,,,,,,,,,,,0,1,1,1,1,stimuli/learn-block2.csv,,,,,,,,,,,,,,,,,,,,,,,,,,,,,,,,,,,,,,,,,,,,,,,,,,,,,,,,,,,,,,,,
,,,,,,,,,,stimuli/images/PICTURE_654.png,COPS,5c6fc42118508b0001e1e711,15/07/1948,2020-07-09_21h11.22.109,proactive,2020.1.2,Win32,60,5f073de81c76c3308c0e4fb3,5f077900057bf638ddb650ee,2,,,,,,pencil,,,,,,0,0,0,10,1,2,2,,,,,,,,,,,,,,,,,,,,,,,,,,,,,,,,,,,,,,,,,,,,,,,,,,,,,,,,,,,,,,,,,,,,,,,,,,,
,,,,,,,,,,stimuli/images/PICTURE_654.png,YEAR,5c6fc42118508b0001e1e711,15/07/1948,2020-07-09_21h11.22.109,proactive,2020.1.2,Win32,60,5f073de81c76c3308c0e4fb3,5f077900057bf638ddb650ee,2,,,,,,pencil,,,,,,0,1,1,41,1,5,2,,,,,,,,,,,,,,,,,,,,,,,,,,,,,,,,,,,,,,,,,,,,,,,,,,,,,,,,,,,,,,,,,,,,,,,,,,,
,,,,,,,,,,stimuli/images/PICTURE_57.png,CANDY,5c6fc42118508b0001e1e711,15/07/1948,2020-07-09_21h11.22.109,proactive,2020.1.2,Win32,60,5f073de81c76c3308c0e4fb3,5f077900057bf638ddb650ee,2,,,,,,stamp,,,,,,0,2,2,52,1,6,2,,,,,,,,,,,,,,,,,,,,,,,,,,,,,,,,,,,,,,,,,,,,,,,,,,,,,,,,,,,,,,,,,,,,,,,,,,,
,,,,,,,,,,stimuli/images/PICTURE_677.png,FAMILY,5c6fc42118508b0001e1e711,15/07/1948,2020-07-09_21h11.22.109,proactive,2020.1.2,Win32,60,5f073de81c76c3308c0e4fb3,5f077900057bf638ddb650ee,2,,,,,,map,,,,,,0,3,3,53,1,6,2,,,,,,,,,,,,,,,,,,,,,,,,,,,,,,,,,,,,,,,,,,,,,,,,,,,,,,,,,,,,,,,,,,,,,,,,,,,
,,,,,,,,,,stimuli/images/PICTURE_32.png,LETTER,5c6fc42118508b0001e1e711,15/07/1948,2020-07-09_21h11.22.109,proactive,2020.1.2,Win32,60,5f073de81c76c3308c0e4fb3,5f077900057bf638ddb650ee,2,,,,,,crown,,,,,,0,4,4,56,1,6,2,,,,,,,,,,,,,,,,,,,,,,,,,,,,,,,,,,,,,,,,,,,,,,,,,,,,,,,,,,,,,,,,,,,,,,,,,,,
,,,,,,,,,,stimuli/images/PICTURE_2.png,AREA,5c6fc42118508b0001e1e711,15/07/1948,2020-07-09_21h11.22.109,proactive,2020.1.2,Win32,60,5f073de81c76c3308c0e4fb3,5f077900057bf638ddb650ee,2,,,,,,tyre,,,,,,0,5,5,32,1,4,2,,,,,,,,,,,,,,,,,,,,,,,,,,,,,,,,,,,,,,,,,,,,,,,,,,,,,,,,,,,,,,,,,,,,,,,,,,,
,,,,,,,,,,stimuli/images/PICTURE_509.png,BATH,5c6fc42118508b0001e1e711,15/07/1948,2020-07-09_21h11.22.109,proactive,2020.1.2,Win32,60,5f073de81c76c3308c0e4fb3,5f077900057bf638ddb650ee,2,,,,,,telephone,,,,,,0,6,6,15,1,2,2,,,,,,,,,,,,,,,,,,,,,,,,,,,,,,,,,,,,,,,,,,,,,,,,,,,,,,,,,,,,,,,,,,,,,,,,,,,
,,,,,,,,,,stimuli/images/PICTURE_296.png,CLOCK,5c6fc42118508b0001e1e711,15/07/1948,2020-07-09_21h11.22.109,proactive,2020.1.2,Win32,60,5f073de81c76c3308c0e4fb3,5f077900057bf638ddb650ee,2,,,,,,bolt,,,,,,0,7,7,18,1,2,2,,,,,,,,,,,,,,,,,,,,,,,,,,,,,,,,,,,,,,,,,,,,,,,,,,,,,,,,,,,,,,,,,,,,,,,,,,,
,,,,,,,,,,stimuli/images/PICTURE_487.png,POLICY,5c6fc42118508b0001e1e711,15/07/1948,2020-07-09_21h11.22.109,proactive,2020.1.2,Win32,60,5f073de81c76c3308c0e4fb3,5f077900057bf638ddb650ee,2,,,,,,basket,,,,,,0,8,8,34,1,4,2,,,,,,,,,,,,,,,,,,,,,,,,,,,,,,,,,,,,,,,,,,,,,,,,,,,,,,,,,,,,,,,,,,,,,,,,,,,
,,,,,,,,,,stimuli/images/PICTURE_208.png,SPIRIT,5c6fc42118508b0001e1e711,15/07/1948,2020-07-09_21h11.22.109,proactive,2020.1.2,Win32,60,5f073de81c76c3308c0e4fb3,5f077900057bf638ddb650ee,2,,,,,,microphone,,,,,,0,9,9,28,1,3,2,,,,,,,,,,,,,,,,,,,,,,,,,,,,,,,,,,,,,,,,,,,,,,,,,,,,,,,,,,,,,,,,,,,,,,,,,,,
,,,,,,,,,,stimuli/images/PICTURE_327.png,LEADER,5c6fc42118508b0001e1e711,15/07/1948,2020-07-09_21h11.22.109,proactive,2020.1.2,Win32,60,5f073de81c76c3308c0e4fb3,5f077900057bf638ddb650ee,2,,,,,,helmet,,,,,,0,10,10,17,1,2,2,,,,,,,,,,,,,,,,,,,,,,,,,,,,,,,,,,,,,,,,,,,,,,,,,,,,,,,,,,,,,,,,,,,,,,,,,,,
,,,,,,,,,,stimuli/images/PICTURE_470.png,MOMENT,5c6fc42118508b0001e1e711,15/07/1948,2020-07-09_21h11.22.109,proactive,2020.1.2,Win32,60,5f073de81c76c3308c0e4fb3,5f077900057bf638ddb650ee,2,,,,,,motorbike,,,,,,0,11,11,40,1,5,2,,,,,,,,,,,,,,,,,,,,,,,,,,,,,,,,,,,,,,,,,,,,,,,,,,,,,,,,,,,,,,,,,,,,,,,,,,,
,,,,,,,,,,stimuli/images/PICTURE_487.png,ROOF,5c6fc42118508b0001e1e711,15/07/1948,2020-07-09_21h11.22.109,proactive,2020.1.2,Win32,60,5f073de81c76c3308c0e4fb3,5f077900057bf638ddb650ee,2,,,,,,basket,,,,,,0,12,12,50,1,6,2,,,,,,,,,,,,,,,,,,,,,,,,,,,,,,,,,,,,,,,,,,,,,,,,,,,,,,,,,,,,,,,,,,,,,,,,,,,
,,,,,,,,,,stimuli/images/PICTURE_141.png,CLIENT,5c6fc42118508b0001e1e711,15/07/1948,2020-07-09_21h11.22.109,proactive,2020.1.2,Win32,60,5f073de81c76c3308c0e4fb3,5f077900057bf638ddb650ee,2,,,,,,sunflower,,,,,,0,13,13,30,1,4,2,,,,,,,,,,,,,,,,,,,,,,,,,,,,,,,,,,,,,,,,,,,,,,,,,,,,,,,,,,,,,,,,,,,,,,,,,,,
,,,,,,,,,,stimuli/images/PICTURE_18.png,RIVER,5c6fc42118508b0001e1e711,15/07/1948,2020-07-09_21h11.22.109,proactive,2020.1.2,Win32,60,5f073de81c76c3308c0e4fb3,5f077900057bf638ddb650ee,2,,,,,,planet,,,,,,0,14,14,22,1,3,2,,,,,,,,,,,,,,,,,,,,,,,,,,,,,,,,,,,,,,,,,,,,,,,,,,,,,,,,,,,,,,,,,,,,,,,,,,,
,,,,,,,,,,stimuli/images/PICTURE_215.png,FOOD,5c6fc42118508b0001e1e711,15/07/1948,2020-07-09_21h11.22.109,proactive,2020.1.2,Win32,60,5f073de81c76c3308c0e4fb3,5f077900057bf638ddb650ee,2,,,,,,boot,,,,,,0,15,15,5,1,1,2,,,,,,,,,,,,,,,,,,,,,,,,,,,,,,,,,,,,,,,,,,,,,,,,,,,,,,,,,,,,,,,,,,,,,,,,,,,
,,,,,,,,,,stimuli/images/PICTURE_491.png,SERIES,5c6fc42118508b0001e1e711,15/07/1948,2020-07-09_21h11.22.109,proactive,2020.1.2,Win32,60,5f073de81c76c3308c0e4fb3,5f077900057bf638ddb650ee,2,,,,,,rug,,,,,,0,16,16,39,1,4,2,,,,,,,,,,,,,,,,,,,,,,,,,,,,,,,,,,,,,,,,,,,,,,,,,,,,,,,,,,,,,,,,,,,,,,,,,,,
,,,,,,,,,,stimuli/images/PICTURE_509.png,APPLE,5c6fc42118508b0001e1e711,15/07/1948,2020-07-09_21h11.22.109,proactive,2020.1.2,Win32,60,5f073de81c76c3308c0e4fb3,5f077900057bf638ddb650ee,2,,,,,,telephone,,,,,,0,17,17,38,1,4,2,,,,,,,,,,,,,,,,,,,,,,,,,,,,,,,,,,,,,,,,,,,,,,,,,,,,,,,,,,,,,,,,,,,,,,,,,,,
,,,,,,,,,,stimuli/images/PICTURE_405.png,JUNGLE,5c6fc42118508b0001e1e711,15/07/1948,2020-07-09_21h11.22.109,proactive,2020.1.2,Win32,60,5f073de81c76c3308c0e4fb3,5f077900057bf638ddb650ee,2,,,,,,anchor,,,,,,0,18,18,58,1,6,2,,,,,,,,,,,,,,,,,,,,,,,,,,,,,,,,,,,,,,,,,,,,,,,,,,,,,,,,,,,,,,,,,,,,,,,,,,,
,,,,,,,,,,stimuli/images/PICTURE_667.png,GLASS,5c6fc42118508b0001e1e711,15/07/1948,2020-07-09_21h11.22.109,proactive,2020.1.2,Win32,60,5f073de81c76c3308c0e4fb3,5f077900057bf638ddb650ee,2,,,,,,daisy,,,,,,0,19,19,27,1,3,2,,,,,,,,,,,,,,,,,,,,,,,,,,,,,,,,,,,,,,,,,,,,,,,,,,,,,,,,,,,,,,,,,,,,,,,,,,,
,,,,,,,,,,stimuli/images/PICTURE_348.png,DUDE,5c6fc42118508b0001e1e711,15/07/1948,2020-07-09_21h11.22.109,proactive,2020.1.2,Win32,60,5f073de81c76c3308c0e4fb3,5f077900057bf638ddb650ee,2,,,,,,pepper,,,,,,0,20,20,59,1,6,2,,,,,,,,,,,,,,,,,,,,,,,,,,,,,,,,,,,,,,,,,,,,,,,,,,,,,,,,,,,,,,,,,,,,,,,,,,,
,,,,,,,,,,stimuli/images/PICTURE_403.png,FAMILY,5c6fc42118508b0001e1e711,15/07/1948,2020-07-09_21h11.22.109,proactive,2020.1.2,Win32,60,5f073de81c76c3308c0e4fb3,5f077900057bf638ddb650ee,2,,,,,,cathedral,,,,,,0,21,21,9,1,1,2,,,,,,,,,,,,,,,,,,,,,,,,,,,,,,,,,,,,,,,,,,,,,,,,,,,,,,,,,,,,,,,,,,,,,,,,,,,
,,,,,,,,,,stimuli/images/PICTURE_692.png,DUDE,5c6fc42118508b0001e1e711,15/07/1948,2020-07-09_21h11.22.109,proactive,2020.1.2,Win32,60,5f073de81c76c3308c0e4fb3,5f077900057bf638ddb650ee,2,,,,,,cherry,,,,,,0,22,22,47,1,5,2,,,,,,,,,,,,,,,,,,,,,,,,,,,,,,,,,,,,,,,,,,,,,,,,,,,,,,,,,,,,,,,,,,,,,,,,,,,
,,,,,,,,,,stimuli/images/PICTURE_750.png,POLICY,5c6fc42118508b0001e1e711,15/07/1948,2020-07-09_21h11.22.109,proactive,2020.1.2,Win32,60,5f073de81c76c3308c0e4fb3,5f077900057bf638ddb650ee,2,,,,,,kettle,,,,,,0,23,23,44,1,5,2,,,,,,,,,,,,,,,,,,,,,,,,,,,,,,,,,,,,,,,,,,,,,,,,,,,,,,,,,,,,,,,,,,,,,,,,,,,
,,,,,,,,,,stimuli/images/PICTURE_677.png,PHOTO,5c6fc42118508b0001e1e711,15/07/1948,2020-07-09_21h11.22.109,proactive,2020.1.2,Win32,60,5f073de81c76c3308c0e4fb3,5f077900057bf638ddb650ee,2,,,,,,map,,,,,,0,24,24,14,1,2,2,,,,,,,,,,,,,,,,,,,,,,,,,,,,,,,,,,,,,,,,,,,,,,,,,,,,,,,,,,,,,,,,,,,,,,,,,,,
,,,,,,,,,,stimuli/images/PICTURE_509.png,MILLER,5c6fc42118508b0001e1e711,15/07/1948,2020-07-09_21h11.22.109,proactive,2020.1.2,Win32,60,5f073de81c76c3308c0e4fb3,5f077900057bf638ddb650ee,2,,,,,,telephone,,,,,,0,25,25,49,1,5,2,,,,,,,,,,,,,,,,,,,,,,,,,,,,,,,,,,,,,,,,,,,,,,,,,,,,,,,,,,,,,,,,,,,,,,,,,,,
,,,,,,,,,,stimuli/images/PICTURE_688.png,CLOCK,5c6fc42118508b0001e1e711,15/07/1948,2020-07-09_21h11.22.109,proactive,2020.1.2,Win32,60,5f073de81c76c3308c0e4fb3,5f077900057bf638ddb650ee,2,,,,,,runner,,,,,,0,26,26,42,1,5,2,,,,,,,,,,,,,,,,,,,,,,,,,,,,,,,,,,,,,,,,,,,,,,,,,,,,,,,,,,,,,,,,,,,,,,,,,,,
,,,,,,,,,,stimuli/images/PICTURE_2.png,JUNGLE,5c6fc42118508b0001e1e711,15/07/1948,2020-07-09_21h11.22.109,proactive,2020.1.2,Win32,60,5f073de81c76c3308c0e4fb3,5f077900057bf638ddb650ee,2,,,,,,tyre,,,,,,0,27,27,1,1,1,2,,,,,,,,,,,,,,,,,,,,,,,,,,,,,,,,,,,,,,,,,,,,,,,,,,,,,,,,,,,,,,,,,,,,,,,,,,,
,,,,,,,,,,stimuli/images/PICTURE_453.png,FAMILY,5c6fc42118508b0001e1e711,15/07/1948,2020-07-09_21h11.22.109,proactive,2020.1.2,Win32,60,5f073de81c76c3308c0e4fb3,5f077900057bf638ddb650ee,2,,,,,,scissors,,,,,,0,28,28,48,1,5,2,,,,,,,,,,,,,,,,,,,,,,,,,,,,,,,,,,,,,,,,,,,,,,,,,,,,,,,,,,,,,,,,,,,,,,,,,,,
,,,,,,,,,,stimuli/images/PICTURE_348.png,TOILET,5c6fc42118508b0001e1e711,15/07/1948,2020-07-09_21h11.22.109,proactive,2020.1.2,Win32,60,5f073de81c76c3308c0e4fb3,5f077900057bf638ddb650ee,2,,,,,,pepper,,,,,,0,29,29,4,1,1,2,,,,,,,,,,,,,,,,,,,,,,,,,,,,,,,,,,,,,,,,,,,,,,,,,,,,,,,,,,,,,,,,,,,,,,,,,,,
,,,,,,,,,,stimuli/images/PICTURE_405.png,JUNGLE,5c6fc42118508b0001e1e711,15/07/1948,2020-07-09_21h11.22.109,proactive,2020.1.2,Win32,60,5f073de81c76c3308c0e4fb3,5f077900057bf638ddb650ee,2,,,,,,anchor,,,,,,0,30,30,13,1,2,2,,,,,,,,,,,,,,,,,,,,,,,,,,,,,,,,,,,,,,,,,,,,,,,,,,,,,,,,,,,,,,,,,,,,,,,,,,,
,,,,,,,,,,stimuli/images/PICTURE_509.png,SHOTS,5c6fc42118508b0001e1e711,15/07/1948,2020-07-09_21h11.22.109,proactive,2020.1.2,Win32,60,5f073de81c76c3308c0e4fb3,5f077900057bf638ddb650ee,2,,,,,,telephone,,,,,,0,31,31,7,1,1,2,,,,,,,,,,,,,,,,,,,,,,,,,,,,,,,,,,,,,,,,,,,,,,,,,,,,,,,,,,,,,,,,,,,,,,,,,,,
,,,,,,,,,,stimuli/images/PICTURE_255.png,PENNY,5c6fc42118508b0001e1e711,15/07/1948,2020-07-09_21h11.22.109,proactive,2020.1.2,Win32,60,5f073de81c76c3308c0e4fb3,5f077900057bf638ddb650ee,2,,,,,,shovel,,,,,,0,32,32,19,1,2,2,,,,,,,,,,,,,,,,,,,,,,,,,,,,,,,,,,,,,,,,,,,,,,,,,,,,,,,,,,,,,,,,,,,,,,,,,,,
,,,,,,,,,,stimuli/images/PICTURE_57.png,NATION,5c6fc42118508b0001e1e711,15/07/1948,2020-07-09_21h11.22.109,proactive,2020.1.2,Win32,60,5f073de81c76c3308c0e4fb3,5f077900057bf638ddb650ee,2,,,,,,stamp,,,,,,0,33,33,21,1,3,2,,,,,,,,,,,,,,,,,,,,,,,,,,,,,,,,,,,,,,,,,,,,,,,,,,,,,,,,,,,,,,,,,,,,,,,,,,,
,,,,,,,,,,stimuli/images/PICTURE_297.png,BODY,5c6fc42118508b0001e1e711,15/07/1948,2020-07-09_21h11.22.109,proactive,2020.1.2,Win32,60,5f073de81c76c3308c0e4fb3,5f077900057bf638ddb650ee,2,,,,,,aeroplane,,,,,,0,34,34,51,1,6,2,,,,,,,,,,,,,,,,,,,,,,,,,,,,,,,,,,,,,,,,,,,,,,,,,,,,,,,,,,,,,,,,,,,,,,,,,,,
,,,,,,,,,,stimuli/images/PICTURE_405.png,HOUSE,5c6fc42118508b0001e1e711,15/07/1948,2020-07-09_21h11.22.109,proactive,2020.1.2,Win32,60,5f073de81c76c3308c0e4fb3,5f077900057bf638ddb650ee,2,,,,,,anchor,,,,,,0,35,35,2,1,1,2,,,,,,,,,,,,,,,,,,,,,,,,,,,,,,,,,,,,,,,,,,,,,,,,,,,,,,,,,,,,,,,,,,,,,,,,,,,
,,,,,,,,,,stimuli/images/PICTURE_123.png,SALE,5c6fc42118508b0001e1e711,15/07/1948,2020-07-09_21h11.22.109,proactive,2020.1.2,Win32,60,5f073de81c76c3308c0e4fb3,5f077900057bf638ddb650ee,2,,,,,,dart,,,,,,0,36,36,8,1,1,2,,,,,,,,,,,,,,,,,,,,,,,,,,,,,,,,,,,,,,,,,,,,,,,,,,,,,,,,,,,,,,,,,,,,,,,,,,,
,,,,,,,,,,stimuli/images/PICTURE_285.png,WRITER,5c6fc42118508b0001e1e711,15/07/1948,2020-07-09_21h11.22.109,proactive,2020.1.2,Win32,60,5f073de81c76c3308c0e4fb3,5f077900057bf638ddb650ee,2,,,,,,carrot,,,,,,0,37,37,6,1,1,2,,,,,,,,,,,,,,,,,,,,,,,,,,,,,,,,,,,,,,,,,,,,,,,,,,,,,,,,,,,,,,,,,,,,,,,,,,,
,,,,,,,,,,stimuli/images/PICTURE_311.png,FLESH,5c6fc42118508b0001e1e711,15/07/1948,2020-07-09_21h11.22.109,proactive,2020.1.2,Win32,60,5f073de81c76c3308c0e4fb3,5f077900057bf638ddb650ee,2,,,,,,razor,,,,,,0,38,38,3,1,1,2,,,,,,,,,,,,,,,,,,,,,,,,,,,,,,,,,,,,,,,,,,,,,,,,,,,,,,,,,,,,,,,,,,,,,,,,,,,
,,,,,,,,,,stimuli/images/PICTURE_655.png,SALE,5c6fc42118508b0001e1e711,15/07/1948,2020-07-09_21h11.22.109,proactive,2020.1.2,Win32,60,5f073de81c76c3308c0e4fb3,5f077900057bf638ddb650ee,2,,,,,,megaphone,,,,,,0,39,39,57,1,6,2,,,,,,,,,,,,,,,,,,,,,,,,,,,,,,,,,,,,,,,,,,,,,,,,,,,,,,,,,,,,,,,,,,,,,,,,,,,
,,,,,,,,,,stimuli/images/PICTURE_33.png,COPS,5c6fc42118508b0001e1e711,15/07/1948,2020-07-09_21h11.22.109,proactive,2020.1.2,Win32,60,5f073de81c76c3308c0e4fb3,5f077900057bf638ddb650ee,2,,,,,,frame,,,,,,0,40,40,29,1,3,2,,,,,,,,,,,,,,,,,,,,,,,,,,,,,,,,,,,,,,,,,,,,,,,,,,,,,,,,,,,,,,,,,,,,,,,,,,,
,,,,,,,,,,stimuli/images/PICTURE_311.png,TOILET,5c6fc42118508b0001e1e711,15/07/1948,2020-07-09_21h11.22.109,proactive,2020.1.2,Win32,60,5f073de81c76c3308c0e4fb3,5f077900057bf638ddb650ee,2,,,,,,razor,,,,,,0,41,41,54,1,6,2,,,,,,,,,,,,,,,,,,,,,,,,,,,,,,,,,,,,,,,,,,,,,,,,,,,,,,,,,,,,,,,,,,,,,,,,,,,
,,,,,,,,,,stimuli/images/PICTURE_95.png,NIGHT,5c6fc42118508b0001e1e711,15/07/1948,2020-07-09_21h11.22.109,proactive,2020.1.2,Win32,60,5f073de81c76c3308c0e4fb3,5f077900057bf638ddb650ee,2,,,,,,suitcase,,,,,,0,42,42,37,1,4,2,,,,,,,,,,,,,,,,,,,,,,,,,,,,,,,,,,,,,,,,,,,,,,,,,,,,,,,,,,,,,,,,,,,,,,,,,,,
,,,,,,,,,,stimuli/images/PICTURE_215.png,LEADER,5c6fc42118508b0001e1e711,15/07/1948,2020-07-09_21h11.22.109,proactive,2020.1.2,Win32,60,5f073de81c76c3308c0e4fb3,5f077900057bf638ddb650ee,2,,,,,,boot,,,,,,0,43,43,43,1,5,2,,,,,,,,,,,,,,,,,,,,,,,,,,,,,,,,,,,,,,,,,,,,,,,,,,,,,,,,,,,,,,,,,,,,,,,,,,,
,,,,,,,,,,stimuli/images/PICTURE_57.png,CASINO,5c6fc42118508b0001e1e711,15/07/1948,2020-07-09_21h11.22.109,proactive,2020.1.2,Win32,60,5f073de81c76c3308c0e4fb3,5f077900057bf638ddb650ee,2,,,,,,stamp,,,,,,0,44,44,12,1,2,2,,,,,,,,,,,,,,,,,,,,,,,,,,,,,,,,,,,,,,,,,,,,,,,,,,,,,,,,,,,,,,,,,,,,,,,,,,,
,,,,,,,,,,stimuli/images/PICTURE_147.png,LEADER,5c6fc42118508b0001e1e711,15/07/1948,2020-07-09_21h11.22.109,proactive,2020.1.2,Win32,60,5f073de81c76c3308c0e4fb3,5f077900057bf638ddb650ee,2,,,,,,hanger,,,,,,0,45,45,33,1,4,2,,,,,,,,,,,,,,,,,,,,,,,,,,,,,,,,,,,,,,,,,,,,,,,,,,,,,,,,,,,,,,,,,,,,,,,,,,,
,,,,,,,,,,stimuli/images/PICTURE_708.png,VALLEY,5c6fc42118508b0001e1e711,15/07/1948,2020-07-09_21h11.22.109,proactive,2020.1.2,Win32,60,5f073de81c76c3308c0e4fb3,5f077900057bf638ddb650ee,2,,,,,,monkey,,,,,,0,46,46,45,1,5,2,,,,,,,,,,,,,,,,,,,,,,,,,,,,,,,,,,,,,,,,,,,,,,,,,,,,,,,,,,,,,,,,,,,,,,,,,,,
,,,,,,,,,,stimuli/images/PICTURE_452.png,COPS,5c6fc42118508b0001e1e711,15/07/1948,2020-07-09_21h11.22.109,proactive,2020.1.2,Win32,60,5f073de81c76c3308c0e4fb3,5f077900057bf638ddb650ee,2,,,,,,watch,,,,,,0,47,47,0,1,1,2,,,,,,,,,,,,,,,,,,,,,,,,,,,,,,,,,,,,,,,,,,,,,,,,,,,,,,,,,,,,,,,,,,,,,,,,,,,
,,,,,,,,,,stimuli/images/PICTURE_285.png,PRINCE,5c6fc42118508b0001e1e711,15/07/1948,2020-07-09_21h11.22.109,proactive,2020.1.2,Win32,60,5f073de81c76c3308c0e4fb3,5f077900057bf638ddb650ee,2,,,,,,carrot,,,,,,0,48,48,20,1,3,2,,,,,,,,,,,,,,,,,,,,,,,,,,,,,,,,,,,,,,,,,,,,,,,,,,,,,,,,,,,,,,,,,,,,,,,,,,,
,,,,,,,,,,stimuli/images/PICTURE_160.png,HOTEL,5c6fc42118508b0001e1e711,15/07/1948,2020-07-09_21h11.22.109,proactive,2020.1.2,Win32,60,5f073de81c76c3308c0e4fb3,5f077900057bf638ddb650ee,2,,,,,,wheelbarrow,,,,,,0,49,49,16,1,2,2,,,,,,,,,,,,,,,,,,,,,,,,,,,,,,,,,,,,,,,,,,,,,,,,,,,,,,,,,,,,,,,,,,,,,,,,,,,
,,,,,,,,,,stimuli/images/PICTURE_504.png,HOUSE,5c6fc42118508b0001e1e711,15/07/1948,2020-07-09_21h11.22.109,proactive,2020.1.2,Win32,60,5f073de81c76c3308c0e4fb3,5f077900057bf638ddb650ee,2,,,,,,wheel,,,,,,0,50,50,36,1,4,2,,,,,,,,,,,,,,,,,,,,,,,,,,,,,,,,,,,,,,,,,,,,,,,,,,,,,,,,,,,,,,,,,,,,,,,,,,,
,,,,,,,,,,stimuli/images/PICTURE_564.png,PLENTY,5c6fc42118508b0001e1e711,15/07/1948,2020-07-09_21h11.22.109,proactive,2020.1.2,Win32,60,5f073de81c76c3308c0e4fb3,5f077900057bf638ddb650ee,2,,,,,,spoon,,,,,,0,51,51,11,1,2,2,,,,,,,,,,,,,,,,,,,,,,,,,,,,,,,,,,,,,,,,,,,,,,,,,,,,,,,,,,,,,,,,,,,,,,,,,,,
,,,,,,,,,,stimuli/images/PICTURE_177.png,HOUSE,5c6fc42118508b0001e1e711,15/07/1948,2020-07-09_21h11.22.109,proactive,2020.1.2,Win32,60,5f073de81c76c3308c0e4fb3,5f077900057bf638ddb650ee,2,,,,,,mushroom,,,,,,0,52,52,25,1,3,2,,,,,,,,,,,,,,,,,,,,,,,,,,,,,,,,,,,,,,,,,,,,,,,,,,,,,,,,,,,,,,,,,,,,,,,,,,,
,,,,,,,,,,stimuli/images/PICTURE_215.png,BOYS,5c6fc42118508b0001e1e711,15/07/1948,2020-07-09_21h11.22.109,proactive,2020.1.2,Win32,60,5f073de81c76c3308c0e4fb3,5f077900057bf638ddb650ee,2,,,,,,boot,,,,,,0,53,53,24,1,3,2,,,,,,,,,,,,,,,,,,,,,,,,,,,,,,,,,,,,,,,,,,,,,,,,,,,,,,,,,,,,,,,,,,,,,,,,,,,
,,,,,,,,,,stimuli/images/PICTURE_314.png,SPEECH,5c6fc42118508b0001e1e711,15/07/1948,2020-07-09_21h11.22.109,proactive,2020.1.2,Win32,60,5f073de81c76c3308c0e4fb3,5f077900057bf638ddb650ee,2,,,,,,perfume,,,,,,0,54,54,35,1,4,2,,,,,,,,,,,,,,,,,,,,,,,,,,,,,,,,,,,,,,,,,,,,,,,,,,,,,,,,,,,,,,,,,,,,,,,,,,,
,,,,,,,,,,stimuli/images/PICTURE_470.png,BEAUTY,5c6fc42118508b0001e1e711,15/07/1948,2020-07-09_21h11.22.109,proactive,2020.1.2,Win32,60,5f073de81c76c3308c0e4fb3,5f077900057bf638ddb650ee,2,,,,,,motorbike,,,,,,0,55,55,26,1,3,2,,,,,,,,,,,,,,,,,,,,,,,,,,,,,,,,,,,,,,,,,,,,,,,,,,,,,,,,,,,,,,,,,,,,,,,,,,,
,,,,,,,,,,stimuli/images/PICTURE_68.png,KIND,5c6fc42118508b0001e1e711,15/07/1948,2020-07-09_21h11.22.109,proactive,2020.1.2,Win32,60,5f073de81c76c3308c0e4fb3,5f077900057bf638ddb650ee,2,,,,,,candle,,,,,,0,56,56,23,1,3,2,,,,,,,,,,,,,,,,,,,,,,,,,,,,,,,,,,,,,,,,,,,,,,,,,,,,,,,,,,,,,,,,,,,,,,,,,,,
,,,,,,,,,,stimuli/images/PICTURE_2.png,YARD,5c6fc42118508b0001e1e711,15/07/1948,2020-07-09_21h11.22.109,proactive,2020.1.2,Win32,60,5f073de81c76c3308c0e4fb3,5f077900057bf638ddb650ee,2,,,,,,tyre,,,,,,0,57,57,55,1,6,2,,,,,,,,,,,,,,,,,,,,,,,,,,,,,,,,,,,,,,,,,,,,,,,,,,,,,,,,,,,,,,,,,,,,,,,,,,,
,,,,,,,,,,stimuli/images/PICTURE_356.png,CANDY,5c6fc42118508b0001e1e711,15/07/1948,2020-07-09_21h11.22.109,proactive,2020.1.2,Win32,60,5f073de81c76c3308c0e4fb3,5f077900057bf638ddb650ee,2,,,,,,pawn,,,,,,0,58,58,46,1,5,2,,,,,,,,,,,,,,,,,,,,,,,,,,,,,,,,,,,,,,,,,,,,,,,,,,,,,,,,,,,,,,,,,,,,,,,,,,,
,,?,0.0007,0,,,,,,stimuli/images/PICTURE_215.png,FOOD,5c6fc42118508b0001e1e711,15/07/1948,2020-07-09_21h11.22.109,proactive,2020.1.2,Win32,60,5f073de81c76c3308c0e4fb3,5f077900057bf638ddb650ee,2,,,,,,boot,,,,,,,,,,,1,2,0,0,0,5,1,,,,,,,,,,,,,,,,,,,,,,,,,,,,,,,,,,,,,,,,,,,,,,,,,,,,,,,,,,,,,,,,,,,,,,
,,?,0.000505,0,,,,,,stimuli/images/PICTURE_208.png,SPIRIT,5c6fc42118508b0001e1e711,15/07/1948,2020-07-09_21h11.22.109,proactive,2020.1.2,Win32,60,5f073de81c76c3308c0e4fb3,5f077900057bf638ddb650ee,2,,,,,,microphone,,,,,,,,,,,3,2,0,1,1,28,1,,,,,,,,,,,,,,,,,,,,,,,,,,,,,,,,,,,,,,,,,,,,,,,,,,,,,,,,,,,,,,,,,,,,,,
,,?,15.016775,0,,,,,,stimuli/images/PICTURE_296.png,CLOCK,5c6fc42118508b0001e1e711,15/07/1948,2020-07-09_21h11.22.109,proactive,2020.1.2,Win32,60,5f073de81c76c3308c0e4fb3,5f077900057bf638ddb650ee,2,,,,,,bolt,,,,,,,,,,,2,2,0,2,2,18,1,,,,,,,,,,,,,,,,,,,,,,,,,,,,,,,,,,,,,,,,,,,,,,,,,,,,,,,,,,,,,,,,,,,,,,
,,JUNGLE,15.009325,1,,,,,,stimuli/images/PICTURE_405.png,JUNGLE,5c6fc42118508b0001e1e711,15/07/1948,2020-07-09_21h11.22.109,proactive,2020.1.2,Win32,60,5f073de81c76c3308c0e4fb3,5f077900057bf638ddb650ee,2,,,,,,anchor,,,,,,,,,,,2,2,0,3,3,13,1,,,,,,,,,,,,,,,,,,,,,,,,,,,,,,,,,,,,,,,,,,,,,,,,,,,,,,,,,,,,,,,,,,,,,,
,,HOTEL,15.008755,1,,,,,,stimuli/images/PICTURE_160.png,HOTEL,5c6fc42118508b0001e1e711,15/07/1948,2020-07-09_21h11.22.109,proactive,2020.1.2,Win32,60,5f073de81c76c3308c0e4fb3,5f077900057bf638ddb650ee,2,,,,,,wheelbarrow,,,,,,,,,,,2,2,0,4,4,16,1,,,,,,,,,,,,,,,,,,,,,,,,,,,,,,,,,,,,,,,,,,,,,,,,,,,,,,,,,,,,,,,,,,,,,,
,,?,0.00083,0,,,,,,stimuli/images/PICTURE_487.png,ROOF,5c6fc42118508b0001e1e711,15/07/1948,2020-07-09_21h11.22.109,proactive,2020.1.2,Win32,60,5f073de81c76c3308c0e4fb3,5f077900057bf638ddb650ee,2,,,,,,basket,,,,,,,,,,,6,2,0,5,5,50,1,,,,,,,,,,,,,,,,,,,,,,,,,,,,,,,,,,,,,,,,,,,,,,,,,,,,,,,,,,,,,,,,,,,,,,
,,?,0.00048,0,,,,,,stimuli/images/PICTURE_314.png,SPEECH,5c6fc42118508b0001e1e711,15/07/1948,2020-07-09_21h11.22.109,proactive,2020.1.2,Win32,60,5f073de81c76c3308c0e4fb3,5f077900057bf638ddb650ee,2,,,,,,perfume,,,,,,,,,,,4,2,0,6,6,35,1,,,,,,,,,,,,,,,,,,,,,,,,,,,,,,,,,,,,,,,,,,,,,,,,,,,,,,,,,,,,,,,,,,,,,,
,,?,0.000615,0,,,,,,stimuli/images/PICTURE_2.png,AREA,5c6fc42118508b0001e1e711,15/07/1948,2020-07-09_21h11.22.109,proactive,2020.1.2,Win32,60,5f073de81c76c3308c0e4fb3,5f077900057bf638ddb650ee,2,,,,,,tyre,,,,,,,,,,,4,2,0,7,7,32,1,,,,,,,,,,,,,,,,,,,,,,,,,,,,,,,,,,,,,,,,,,,,,,,,,,,,,,,,,,,,,,,,,,,,,,
,,LEADER,15.004475,1,,,,,,stimuli/images/PICTURE_327.png,LEADER,5c6fc42118508b0001e1e711,15/07/1948,2020-07-09_21h11.22.109,proactive,2020.1.2,Win32,60,5f073de81c76c3308c0e4fb3,5f077900057bf638ddb650ee,2,,,,,,helmet,,,,,,,,,,,2,2,0,8,8,17,1,,,,,,,,,,,,,,,,,,,,,,,,,,,,,,,,,,,,,,,,,,,,,,,,,,,,,,,,,,,,,,,,,,,,,,
,,?,0.00101,0,,,,,,stimuli/images/PICTURE_93.png,GIRL,5c6fc42118508b0001e1e711,15/07/1948,2020-07-09_21h11.22.109,proactive,2020.1.2,Win32,60,5f073de81c76c3308c0e4fb3,5f077900057bf638ddb650ee,2,,,,,,skateboard,,,,,,,,,,,4,2,0,9,9,31,1,,,,,,,,,,,,,,,,,,,,,,,,,,,,,,,,,,,,,,,,,,,,,,,,,,,,,,,,,,,,,,,,,,,,,,
,,?,0.00052,0,,,,,,stimuli/images/PICTURE_2.png,JUNGLE,5c6fc42118508b0001e1e711,15/07/1948,2020-07-09_21h11.22.109,proactive,2020.1.2,Win32,60,5f073de81c76c3308c0e4fb3,5f077900057bf638ddb650ee,2,,,,,,tyre,,,,,,,,,,,1,2,0,10,10,1,1,,,,,,,,,,,,,,,,,,,,,,,,,,,,,,,,,,,,,,,,,,,,,,,,,,,,,,,,,,,,,,,,,,,,,,
,,?,0.00047,0,,,,,,stimuli/images/PICTURE_18.png,RIVER,5c6fc42118508b0001e1e711,15/07/1948,2020-07-09_21h11.22.109,proactive,2020.1.2,Win32,60,5f073de81c76c3308c0e4fb3,5f077900057bf638ddb650ee,2,,,,,,planet,,,,,,,,,,,3,2,0,11,11,22,1,,,,,,,,,,,,,,,,,,,,,,,,,,,,,,,,,,,,,,,,,,,,,,,,,,,,,,,,,,,,,,,,,,,,,,
,,?,0.000465,0,,,,,,stimuli/images/PICTURE_667.png,GLASS,5c6fc42118508b0001e1e711,15/07/1948,2020-07-09_21h11.22.109,proactive,2020.1.2,Win32,60,5f073de81c76c3308c0e4fb3,5f077900057bf638ddb650ee,2,,,,,,daisy,,,,,,,,,,,3,2,0,12,12,27,1,,,,,,,,,,,,,,,,,,,,,,,,,,,,,,,,,,,,,,,,,,,,,,,,,,,,,,,,,,,,,,,,,,,,,,
,,?,0.000525,0,,,,,,stimuli/images/PICTURE_285.png,WRITER,5c6fc42118508b0001e1e711,15/07/1948,2020-07-09_21h11.22.109,proactive,2020.1.2,Win32,60,5f073de81c76c3308c0e4fb3,5f077900057bf638ddb650ee,2,,,,,,carrot,,,,,,,,,,,1,2,0,13,13,6,1,,,,,,,,,,,,,,,,,,,,,,,,,,,,,,,,,,,,,,,,,,,,,,,,,,,,,,,,,,,,,,,,,,,,,,
,,?,0.00046,0,,,,,,stimuli/images/PICTURE_215.png,LEADER,5c6fc42118508b0001e1e711,15/07/1948,2020-07-09_21h11.22.109,proactive,2020.1.2,Win32,60,5f073de81c76c3308c0e4fb3,5f077900057bf638ddb650ee,2,,,,,,boot,,,,,,,,,,,5,2,0,14,14,43,1,,,,,,,,,,,,,,,,,,,,,,,,,,,,,,,,,,,,,,,,,,,,,,,,,,,,,,,,,,,,,,,,,,,,,,
,,?,0.00047,0,,,,,,stimuli/images/PICTURE_509.png,APPLE,5c6fc42118508b0001e1e711,15/07/1948,2020-07-09_21h11.22.109,proactive,2020.1.2,Win32,60,5f073de81c76c3308c0e4fb3,5f077900057bf638ddb650ee,2,,,,,,telephone,,,,,,,,,,,4,2,0,15,15,38,1,,,,,,,,,,,,,,,,,,,,,,,,,,,,,,,,,,,,,,,,,,,,,,,,,,,,,,,,,,,,,,,,,,,,,,
,,COPS,15.00097,1,,,,,,stimuli/images/PICTURE_654.png,COPS,5c6fc42118508b0001e1e711,15/07/1948,2020-07-09_21h11.22.109,proactive,2020.1.2,Win32,60,5f073de81c76c3308c0e4fb3,5f077900057bf638ddb650ee,2,,,,,,pencil,,,,,,,,,,,2,2,0,16,16,10,1,,,,,,,,,,,,,,,,,,,,,,,,,,,,,,,,,,,,,,,,,,,,,,,,,,,,,,,,,,,,,,,,,,,,,,
