consent_key.keys,consent_key.rt,recalled,recalled_rt,recall_acc,example_recall.thisRepN,example_recall.thisTrialN,example_recall.thisN,example_recall.thisIndex,example_recall.ran,file,word,participant,date,expName,psychopyVersion,OS,frameRate,STUDY_ID,SESSION_ID,list,prac_learn_study_loop.thisRepN,prac_learn_study_loop.thisTrialN,prac_learn_study_loop.thisN,prac_learn_study_loop.thisIndex,prac_learn_study_loop.ran,image,prac_learn_test_loop.thisRepN,prac_learn_test_loop.thisTrialN,prac_learn_test_loop.thisN,prac_learn_test_loop.thisIndex,prac_learn_test_loop.ran,learn_study_loop.thisRepN,learn_study_loop.thisTrialN,learn_study_loop.thisN,learn_study_loop.thisIndex,learn_study_loop.ran,list_no,block_no,learn_test_loop.thisRepN,learn_test_loop.thisTrialN,learn_test_loop.thisN,learn_test_loop.thisIndex,learn_test_loop.ran,learn_blocks.thisRepN,learn_blocks.thisTrialN,learn_blocks.thisN,learn_blocks.thisIndex,learn_blocks.ran,block_csv,key_resp_13.keys,key_resp_13.rt,learn_blocks_loop.thisRepN,learn_blocks_loop.thisTrialN,learn_blocks_loop.thisN,learn_blocks_loop.thisIndex,learn_blocks_loop.ran,final_learn_test.thisRepN,final_learn_test.thisTrialN,final_learn_test.thisN,final_learn_test.thisIndex,final_learn_test.ran,prac_wm_test_loop.thisRepN,prac_wm_test_loop.thisTrialN,prac_wm_test_loop.thisN,prac_wm_test_loop.thisIndex,prac_wm_test_loop.ran,wm_recalled1,wm_recall_rt1,wm_probed1,wm_recall_acc1,wm_recalled2,wm_recall_rt2,wm_probed2,wm_recall_acc2,wm_recalled3,wm_recall_rt3,wm_probed3,wm_recall_acc3,wm_recalled4,wm_recall_rt4,wm_probed4,wm_recall_acc4,prac_wm_trial_loop.thisRepN,prac_wm_trial_loop.thisTrialN,prac_wm_trial_loop.thisN,prac_wm_trial_loop.thisIndex,prac_wm_trial_loop.ran,word1,image1,file1,item_type1,word2,image2,file2,item_type2,word4,image4,file4,item_type4,word3,image3,file3,item_type3,wm_test_loop.thisRepN,wm_test_loop.thisTrialN,wm_test_loop.thisN,wm_test_loop.thisIndex,wm_test_loop.ran,wm_trial_loop.thisRepN,wm_trial_loop.thisTrialN,wm_trial_loop.thisN,wm_trial_loop.thisIndex,wm_trial_loop.ran
y,49.268,?,10.024,0,0,0,0,0,1,stimuli/images/PICTURE_747.png,TOUGH,5c872cded9fe700001024123,2020-06-30_14h47.36.058,proactive,2020.1.2,Win32,60,5efb791ed4cb570da489e737,5efb871b53898c102d13215d,1,,,,,,,,,,,,,,,,,,,,,,,,,,,,,,,,,,,,,,,,,,,,,,,,,,,,,,,,,,,,,,,,,,,,,,,,,,,,,,,,,,,,,,,,,,,,,
,,,,,,,,,,stimuli/images/PICTURE_378.png,LOSS,5c872cded9fe700001024123,2020-06-30_14h47.36.058,proactive,2020.1.2,Win32,60,5efb791ed4cb570da489e737,5efb871b53898c102d13215d,1,0,0,0,2,1,lobster,,,,,,,,,,,,,,,,,,,,,,,,,,,,,,,,,,,,,,,,,,,,,,,,,,,,,,,,,,,,,,,,,,,,,,,,,,,,,,,,,,,,,,,
,,,,,,,,,,stimuli/images/PICTURE_658.png,DEVIL,5c872cded9fe700001024123,2020-06-30_14h47.36.058,proactive,2020.1.2,Win32,60,5efb791ed4cb570da489e737,5efb871b53898c102d13215d,1,0,1,1,3,1,crow,,,,,,,,,,,,,,,,,,,,,,,,,,,,,,,,,,,,,,,,,,,,,,,,,,,,,,,,,,,,,,,,,,,,,,,,,,,,,,,,,,,,,,,
,,,,,,,,,,stimuli/images/PICTURE_727.png,CELL,5c872cded9fe700001024123,2020-06-30_14h47.36.058,proactive,2020.1.2,Win32,60,5efb791ed4cb570da489e737,5efb871b53898c102d13215d,1,0,2,2,1,1,hose,,,,,,,,,,,,,,,,,,,,,,,,,,,,,,,,,,,,,,,,,,,,,,,,,,,,,,,,,,,,,,,,,,,,,,,,,,,,,,,,,,,,,,,
,,,,,,,,,,stimuli/images/PICTURE_269.png,GENIUS,5c872cded9fe700001024123,2020-06-30_14h47.36.058,proactive,2020.1.2,Win32,60,5efb791ed4cb570da489e737,5efb871b53898c102d13215d,1,0,3,3,0,1,chameleon,,,,,,,,,,,,,,,,,,,,,,,,,,,,,,,,,,,,,,,,,,,,,,,,,,,,,,,,,,,,,,,,,,,,,,,,,,,,,,,,,,,,,,,
,,KILLE,10.026,0,,,,,,stimuli/images/PICTURE_697.png,KILLER,5c872cded9fe700001024123,2020-06-30_14h47.36.058,proactive,2020.1.2,Win32,60,5efb791ed4cb570da489e737,5efb871b53898c102d13215d,1,,,,,,peach,0,0,0,4,1,,,,,,,,,,,,,,,,,,,,,,,,,,,,,,,,,,,,,,,,,,,,,,,,,,,,,,,,,,,,,,,,,,,,,,,,,,,,,,,,,,
,,DEVIL,10.009,1,,,,,,stimuli/images/PICTURE_658.png,DEVIL,5c872cded9fe700001024123,2020-06-30_14h47.36.058,proactive,2020.1.2,Win32,60,5efb791ed4cb570da489e737,5efb871b53898c102d13215d,1,,,,,,crow,0,1,1,3,1,,,,,,,,,,,,,,,,,,,,,,,,,,,,,,,,,,,,,,,,,,,,,,,,,,,,,,,,,,,,,,,,,,,,,,,,,,,,,,,,,,
,,LOSS,10.019,1,,,,,,stimuli/images/PICTURE_378.png,LOSS,5c872cded9fe700001024123,2020-06-30_14h47.36.058,proactive,2020.1.2,Win32,60,5efb791ed4cb570da489e737,5efb871b53898c102d13215d,1,,,,,,lobster,0,2,2,2,1,,,,,,,,,,,,,,,,,,,,,,,,,,,,,,,,,,,,,,,,,,,,,,,,,,,,,,,,,,,,,,,,,,,,,,,,,,,,,,,,,,
,,?,10.015,0,,,,,,stimuli/images/PICTURE_727.png,CELL,5c872cded9fe700001024123,2020-06-30_14h47.36.058,proactive,2020.1.2,Win32,60,5efb791ed4cb570da489e737,5efb871b53898c102d13215d,1,,,,,,hose,0,3,3,1,1,,,,,,,,,,,,,,,,,,,,,,,,,,,,,,,,,,,,,,,,,,,,,,,,,,,,,,,,,,,,,,,,,,,,,,,,,,,,,,,,,,
,,GENIUS,10.014,1,,,,,,stimuli/images/PICTURE_269.png,GENIUS,5c872cded9fe700001024123,2020-06-30_14h47.36.058,proactive,2020.1.2,Win32,60,5efb791ed4cb570da489e737,5efb871b53898c102d13215d,1,,,,,,chameleon,0,4,4,0,1,,,,,,,,,,,,,,,,,,,,,,,,,,,,,,,,,,,,,,,,,,,,,,,,,,,,,,,,,,,,,,,,,,,,,,,,,,,,,,,,,,
,,,,,,,,,,stimuli/images/PICTURE_750.png,POLICY,5c872cded9fe700001024123,2020-06-30_14h47.36.058,proactive,2020.1.2,Win32,60,5efb791ed4cb570da489e737,5efb871b53898c102d13215d,1,,,,,,kettle,,,,,,0,0,0,44,1,5,2,,,,,,,,,,,,,,,,,,,,,,,,,,,,,,,,,,,,,,,,,,,,,,,,,,,,,,,,,,,,,,,,,,,,,,,,,,,
,,,,,,,,,,stimuli/images/PICTURE_147.png,LEADER,5c872cded9fe700001024123,2020-06-30_14h47.36.058,proactive,2020.1.2,Win32,60,5efb791ed4cb570da489e737,5efb871b53898c102d13215d,1,,,,,,hanger,,,,,,0,1,1,33,1,4,2,,,,,,,,,,,,,,,,,,,,,,,,,,,,,,,,,,,,,,,,,,,,,,,,,,,,,,,,,,,,,,,,,,,,,,,,,,,
,,,,,,,,,,stimuli/images/PICTURE_356.png,CANDY,5c872cded9fe700001024123,2020-06-30_14h47.36.058,proactive,2020.1.2,Win32,60,5efb791ed4cb570da489e737,5efb871b53898c102d13215d,1,,,,,,pawn,,,,,,0,2,2,46,1,5,2,,,,,,,,,,,,,,,,,,,,,,,,,,,,,,,,,,,,,,,,,,,,,,,,,,,,,,,,,,,,,,,,,,,,,,,,,,,
,,,,,,,,,,stimuli/images/PICTURE_93.png,GIRL,5c872cded9fe700001024123,2020-06-30_14h47.36.058,proactive,2020.1.2,Win32,60,5efb791ed4cb570da489e737,5efb871b53898c102d13215d,1,,,,,,skateboard,,,,,,0,3,3,31,1,4,2,,,,,,,,,,,,,,,,,,,,,,,,,,,,,,,,,,,,,,,,,,,,,,,,,,,,,,,,,,,,,,,,,,,,,,,,,,,
,,,,,,,,,,stimuli/images/PICTURE_655.png,SALE,5c872cded9fe700001024123,2020-06-30_14h47.36.058,proactive,2020.1.2,Win32,60,5efb791ed4cb570da489e737,5efb871b53898c102d13215d,1,,,,,,megaphone,,,,,,0,4,4,57,1,6,2,,,,,,,,,,,,,,,,,,,,,,,,,,,,,,,,,,,,,,,,,,,,,,,,,,,,,,,,,,,,,,,,,,,,,,,,,,,
,,,,,,,,,,stimuli/images/PICTURE_348.png,TOILET,5c872cded9fe700001024123,2020-06-30_14h47.36.058,proactive,2020.1.2,Win32,60,5efb791ed4cb570da489e737,5efb871b53898c102d13215d,1,,,,,,pepper,,,,,,0,5,5,4,1,1,2,,,,,,,,,,,,,,,,,,,,,,,,,,,,,,,,,,,,,,,,,,,,,,,,,,,,,,,,,,,,,,,,,,,,,,,,,,,
,,,,,,,,,,stimuli/images/PICTURE_285.png,PRINCE,5c872cded9fe700001024123,2020-06-30_14h47.36.058,proactive,2020.1.2,Win32,60,5efb791ed4cb570da489e737,5efb871b53898c102d13215d,1,,,,,,carrot,,,,,,0,6,6,20,1,3,2,,,,,,,,,,,,,,,,,,,,,,,,,,,,,,,,,,,,,,,,,,,,,,,,,,,,,,,,,,,,,,,,,,,,,,,,,,,
,,,,,,,,,,stimuli/images/PICTURE_68.png,KIND,5c872cded9fe700001024123,2020-06-30_14h47.36.058,proactive,2020.1.2,Win32,60,5efb791ed4cb570da489e737,5efb871b53898c102d13215d,1,,,,,,candle,,,,,,0,7,7,23,1,3,2,,,,,,,,,,,,,,,,,,,,,,,,,,,,,,,,,,,,,,,,,,,,,,,,,,,,,,,,,,,,,,,,,,,,,,,,,,,
,,,,,,,,,,stimuli/images/PICTURE_654.png,COPS,5c872cded9fe700001024123,2020-06-30_14h47.36.058,proactive,2020.1.2,Win32,60,5efb791ed4cb570da489e737,5efb871b53898c102d13215d,1,,,,,,pencil,,,,,,0,8,8,10,1,2,2,,,,,,,,,,,,,,,,,,,,,,,,,,,,,,,,,,,,,,,,,,,,,,,,,,,,,,,,,,,,,,,,,,,,,,,,,,,
,,,,,,,,,,stimuli/images/PICTURE_95.png,NIGHT,5c872cded9fe700001024123,2020-06-30_14h47.36.058,proactive,2020.1.2,Win32,60,5efb791ed4cb570da489e737,5efb871b53898c102d13215d,1,,,,,,suitcase,,,,,,0,9,9,37,1,4,2,,,,,,,,,,,,,,,,,,,,,,,,,,,,,,,,,,,,,,,,,,,,,,,,,,,,,,,,,,,,,,,,,,,,,,,,,,,
,,,,,,,,,,stimuli/images/PICTURE_405.png,HOUSE,5c872cded9fe700001024123,2020-06-30_14h47.36.058,proactive,2020.1.2,Win32,60,5efb791ed4cb570da489e737,5efb871b53898c102d13215d,1,,,,,,anchor,,,,,,0,10,10,2,1,1,2,,,,,,,,,,,,,,,,,,,,,,,,,,,,,,,,,,,,,,,,,,,,,,,,,,,,,,,,,,,,,,,,,,,,,,,,,,,
,,,,,,,,,,stimuli/images/PICTURE_215.png,FOOD,5c872cded9fe700001024123,2020-06-30_14h47.36.058,proactive,2020.1.2,Win32,60,5efb791ed4cb570da489e737,5efb871b53898c102d13215d,1,,,,,,boot,,,,,,0,11,11,5,1,1,2,,,,,,,,,,,,,,,,,,,,,,,,,,,,,,,,,,,,,,,,,,,,,,,,,,,,,,,,,,,,,,,,,,,,,,,,,,,
,,,,,,,,,,stimuli/images/PICTURE_285.png,WRITER,5c872cded9fe700001024123,2020-06-30_14h47.36.058,proactive,2020.1.2,Win32,60,5efb791ed4cb570da489e737,5efb871b53898c102d13215d,1,,,,,,carrot,,,,,,0,12,12,6,1,1,2,,,,,,,,,,,,,,,,,,,,,,,,,,,,,,,,,,,,,,,,,,,,,,,,,,,,,,,,,,,,,,,,,,,,,,,,,,,
,,,,,,,,,,stimuli/images/PICTURE_18.png,RIVER,5c872cded9fe700001024123,2020-06-30_14h47.36.058,proactive,2020.1.2,Win32,60,5efb791ed4cb570da489e737,5efb871b53898c102d13215d,1,,,,,,planet,,,,,,0,13,13,22,1,3,2,,,,,,,,,,,,,,,,,,,,,,,,,,,,,,,,,,,,,,,,,,,,,,,,,,,,,,,,,,,,,,,,,,,,,,,,,,,
,,,,,,,,,,stimuli/images/PICTURE_504.png,HOUSE,5c872cded9fe700001024123,2020-06-30_14h47.36.058,proactive,2020.1.2,Win32,60,5efb791ed4cb570da489e737,5efb871b53898c102d13215d,1,,,,,,wheel,,,,,,0,14,14,36,1,4,2,,,,,,,,,,,,,,,,,,,,,,,,,,,,,,,,,,,,,,,,,,,,,,,,,,,,,,,,,,,,,,,,,,,,,,,,,,,
,,,,,,,,,,stimuli/images/PICTURE_208.png,SPIRIT,5c872cded9fe700001024123,2020-06-30_14h47.36.058,proactive,2020.1.2,Win32,60,5efb791ed4cb570da489e737,5efb871b53898c102d13215d,1,,,,,,microphone,,,,,,0,15,15,28,1,3,2,,,,,,,,,,,,,,,,,,,,,,,,,,,,,,,,,,,,,,,,,,,,,,,,,,,,,,,,,,,,,,,,,,,,,,,,,,,
,,,,,,,,,,stimuli/images/PICTURE_487.png,ROOF,5c872cded9fe700001024123,2020-06-30_14h47.36.058,proactive,2020.1.2,Win32,60,5efb791ed4cb570da489e737,5efb871b53898c102d13215d,1,,,,,,basket,,,,,,0,16,16,50,1,6,2,,,,,,,,,,,,,,,,,,,,,,,,,,,,,,,,,,,,,,,,,,,,,,,,,,,,,,,,,,,,,,,,,,,,,,,,,,,
,,,,,,,,,,stimuli/images/PICTURE_2.png,JUNGLE,5c872cded9fe700001024123,2020-06-30_14h47.36.058,proactive,2020.1.2,Win32,60,5efb791ed4cb570da489e737,5efb871b53898c102d13215d,1,,,,,,tyre,,,,,,0,17,17,1,1,1,2,,,,,,,,,,,,,,,,,,,,,,,,,,,,,,,,,,,,,,,,,,,,,,,,,,,,,,,,,,,,,,,,,,,,,,,,,,,
,,,,,,,,,,stimuli/images/PICTURE_667.png,GLASS,5c872cded9fe700001024123,2020-06-30_14h47.36.058,proactive,2020.1.2,Win32,60,5efb791ed4cb570da489e737,5efb871b53898c102d13215d,1,,,,,,daisy,,,,,,0,18,18,27,1,3,2,,,,,,,,,,,,,,,,,,,,,,,,,,,,,,,,,,,,,,,,,,,,,,,,,,,,,,,,,,,,,,,,,,,,,,,,,,,
,,,,,,,,,,stimuli/images/PICTURE_453.png,FAMILY,5c872cded9fe700001024123,2020-06-30_14h47.36.058,proactive,2020.1.2,Win32,60,5efb791ed4cb570da489e737,5efb871b53898c102d13215d,1,,,,,,scissors,,,,,,0,19,19,48,1,5,2,,,,,,,,,,,,,,,,,,,,,,,,,,,,,,,,,,,,,,,,,,,,,,,,,,,,,,,,,,,,,,,,,,,,,,,,,,,
,,,,,,,,,,stimuli/images/PICTURE_57.png,CASINO,5c872cded9fe700001024123,2020-06-30_14h47.36.058,proactive,2020.1.2,Win32,60,5efb791ed4cb570da489e737,5efb871b53898c102d13215d,1,,,,,,stamp,,,,,,0,20,20,12,1,2,2,,,,,,,,,,,,,,,,,,,,,,,,,,,,,,,,,,,,,,,,,,,,,,,,,,,,,,,,,,,,,,,,,,,,,,,,,,,
,,,,,,,,,,stimuli/images/PICTURE_314.png,SPEECH,5c872cded9fe700001024123,2020-06-30_14h47.36.058,proactive,2020.1.2,Win32,60,5efb791ed4cb570da489e737,5efb871b53898c102d13215d,1,,,,,,perfume,,,,,,0,21,21,35,1,4,2,,,,,,,,,,,,,,,,,,,,,,,,,,,,,,,,,,,,,,,,,,,,,,,,,,,,,,,,,,,,,,,,,,,,,,,,,,,
,,,,,,,,,,stimuli/images/PICTURE_348.png,DUDE,5c872cded9fe700001024123,2020-06-30_14h47.36.058,proactive,2020.1.2,Win32,60,5efb791ed4cb570da489e737,5efb871b53898c102d13215d,1,,,,,,pepper,,,,,,0,22,22,59,1,6,2,,,,,,,,,,,,,,,,,,,,,,,,,,,,,,,,,,,,,,,,,,,,,,,,,,,,,,,,,,,,,,,,,,,,,,,,,,,
,,,,,,,,,,stimuli/images/PICTURE_405.png,JUNGLE,5c872cded9fe700001024123,2020-06-30_14h47.36.058,proactive,2020.1.2,Win32,60,5efb791ed4cb570da489e737,5efb871b53898c102d13215d,1,,,,,,anchor,,,,,,0,23,23,58,1,6,2,,,,,,,,,,,,,,,,,,,,,,,,,,,,,,,,,,,,,,,,,,,,,,,,,,,,,,,,,,,,,,,,,,,,,,,,,,,
,,,,,,,,,,stimuli/images/PICTURE_177.png,HOUSE,5c872cded9fe700001024123,2020-06-30_14h47.36.058,proactive,2020.1.2,Win32,60,5efb791ed4cb570da489e737,5efb871b53898c102d13215d,1,,,,,,mushroom,,,,,,0,24,24,25,1,3,2,,,,,,,,,,,,,,,,,,,,,,,,,,,,,,,,,,,,,,,,,,,,,,,,,,,,,,,,,,,,,,,,,,,,,,,,,,,
,,,,,,,,,,stimuli/images/PICTURE_57.png,CANDY,5c872cded9fe700001024123,2020-06-30_14h47.36.058,proactive,2020.1.2,Win32,60,5efb791ed4cb570da489e737,5efb871b53898c102d13215d,1,,,,,,stamp,,,,,,0,25,25,52,1,6,2,,,,,,,,,,,,,,,,,,,,,,,,,,,,,,,,,,,,,,,,,,,,,,,,,,,,,,,,,,,,,,,,,,,,,,,,,,,
,,,,,,,,,,stimuli/images/PICTURE_255.png,PENNY,5c872cded9fe700001024123,2020-06-30_14h47.36.058,proactive,2020.1.2,Win32,60,5efb791ed4cb570da489e737,5efb871b53898c102d13215d,1,,,,,,shovel,,,,,,0,26,26,19,1,2,2,,,,,,,,,,,,,,,,,,,,,,,,,,,,,,,,,,,,,,,,,,,,,,,,,,,,,,,,,,,,,,,,,,,,,,,,,,,
,,,,,,,,,,stimuli/images/PICTURE_141.png,CLIENT,5c872cded9fe700001024123,2020-06-30_14h47.36.058,proactive,2020.1.2,Win32,60,5efb791ed4cb570da489e737,5efb871b53898c102d13215d,1,,,,,,sunflower,,,,,,0,27,27,30,1,4,2,,,,,,,,,,,,,,,,,,,,,,,,,,,,,,,,,,,,,,,,,,,,,,,,,,,,,,,,,,,,,,,,,,,,,,,,,,,
,,,,,,,,,,stimuli/images/PICTURE_677.png,PHOTO,5c872cded9fe700001024123,2020-06-30_14h47.36.058,proactive,2020.1.2,Win32,60,5efb791ed4cb570da489e737,5efb871b53898c102d13215d,1,,,,,,map,,,,,,0,28,28,14,1,2,2,,,,,,,,,,,,,,,,,,,,,,,,,,,,,,,,,,,,,,,,,,,,,,,,,,,,,,,,,,,,,,,,,,,,,,,,,,,
,,,,,,,,,,stimuli/images/PICTURE_509.png,SHOTS,5c872cded9fe700001024123,2020-06-30_14h47.36.058,proactive,2020.1.2,Win32,60,5efb791ed4cb570da489e737,5efb871b53898c102d13215d,1,,,,,,telephone,,,,,,0,29,29,7,1,1,2,,,,,,,,,,,,,,,,,,,,,,,,,,,,,,,,,,,,,,,,,,,,,,,,,,,,,,,,,,,,,,,,,,,,,,,,,,,
,,,,,,,,,,stimuli/images/PICTURE_677.png,FAMILY,5c872cded9fe700001024123,2020-06-30_14h47.36.058,proactive,2020.1.2,Win32,60,5efb791ed4cb570da489e737,5efb871b53898c102d13215d,1,,,,,,map,,,,,,0,30,30,53,1,6,2,,,,,,,,,,,,,,,,,,,,,,,,,,,,,,,,,,,,,,,,,,,,,,,,,,,,,,,,,,,,,,,,,,,,,,,,,,,
,,,,,,,,,,stimuli/images/PICTURE_311.png,TOILET,5c872cded9fe700001024123,2020-06-30_14h47.36.058,proactive,2020.1.2,Win32,60,5efb791ed4cb570da489e737,5efb871b53898c102d13215d,1,,,,,,razor,,,,,,0,31,31,54,1,6,2,,,,,,,,,,,,,,,,,,,,,,,,,,,,,,,,,,,,,,,,,,,,,,,,,,,,,,,,,,,,,,,,,,,,,,,,,,,
,,,,,,,,,,stimuli/images/PICTURE_215.png,LEADER,5c872cded9fe700001024123,2020-06-30_14h47.36.058,proactive,2020.1.2,Win32,60,5efb791ed4cb570da489e737,5efb871b53898c102d13215d,1,,,,,,boot,,,,,,0,32,32,43,1,5,2,,,,,,,,,,,,,,,,,,,,,,,,,,,,,,,,,,,,,,,,,,,,,,,,,,,,,,,,,,,,,,,,,,,,,,,,,,,
,,,,,,,,,,stimuli/images/PICTURE_2.png,AREA,5c872cded9fe700001024123,2020-06-30_14h47.36.058,proactive,2020.1.2,Win32,60,5efb791ed4cb570da489e737,5efb871b53898c102d13215d,1,,,,,,tyre,,,,,,0,33,33,32,1,4,2,,,,,,,,,,,,,,,,,,,,,,,,,,,,,,,,,,,,,,,,,,,,,,,,,,,,,,,,,,,,,,,,,,,,,,,,,,,
,,,,,,,,,,stimuli/images/PICTURE_692.png,DUDE,5c872cded9fe700001024123,2020-06-30_14h47.36.058,proactive,2020.1.2,Win32,60,5efb791ed4cb570da489e737,5efb871b53898c102d13215d,1,,,,,,cherry,,,,,,0,34,34,47,1,5,2,,,,,,,,,,,,,,,,,,,,,,,,,,,,,,,,,,,,,,,,,,,,,,,,,,,,,,,,,,,,,,,,,,,,,,,,,,,
,,,,,,,,,,stimuli/images/PICTURE_296.png,CLOCK,5c872cded9fe700001024123,2020-06-30_14h47.36.058,proactive,2020.1.2,Win32,60,5efb791ed4cb570da489e737,5efb871b53898c102d13215d,1,,,,,,bolt,,,,,,0,35,35,18,1,2,2,,,,,,,,,,,,,,,,,,,,,,,,,,,,,,,,,,,,,,,,,,,,,,,,,,,,,,,,,,,,,,,,,,,,,,,,,,,
,,,,,,,,,,stimuli/images/PICTURE_470.png,BEAUTY,5c872cded9fe700001024123,2020-06-30_14h47.36.058,proactive,2020.1.2,Win32,60,5efb791ed4cb570da489e737,5efb871b53898c102d13215d,1,,,,,,motorbike,,,,,,0,36,36,26,1,3,2,,,,,,,,,,,,,,,,,,,,,,,,,,,,,,,,,,,,,,,,,,,,,,,,,,,,,,,,,,,,,,,,,,,,,,,,,,,
,,,,,,,,,,stimuli/images/PICTURE_32.png,LETTER,5c872cded9fe700001024123,2020-06-30_14h47.36.058,proactive,2020.1.2,Win32,60,5efb791ed4cb570da489e737,5efb871b53898c102d13215d,1,,,,,,crown,,,,,,0,37,37,56,1,6,2,,,,,,,,,,,,,,,,,,,,,,,,,,,,,,,,,,,,,,,,,,,,,,,,,,,,,,,,,,,,,,,,,,,,,,,,,,,
,,,,,,,,,,stimuli/images/PICTURE_327.png,LEADER,5c872cded9fe700001024123,2020-06-30_14h47.36.058,proactive,2020.1.2,Win32,60,5efb791ed4cb570da489e737,5efb871b53898c102d13215d,1,,,,,,helmet,,,,,,0,38,38,17,1,2,2,,,,,,,,,,,,,,,,,,,,,,,,,,,,,,,,,,,,,,,,,,,,,,,,,,,,,,,,,,,,,,,,,,,,,,,,,,,
,,,,,,,,,,stimuli/images/PICTURE_33.png,COPS,5c872cded9fe700001024123,2020-06-30_14h47.36.058,proactive,2020.1.2,Win32,60,5efb791ed4cb570da489e737,5efb871b53898c102d13215d,1,,,,,,frame,,,,,,0,39,39,29,1,3,2,,,,,,,,,,,,,,,,,,,,,,,,,,,,,,,,,,,,,,,,,,,,,,,,,,,,,,,,,,,,,,,,,,,,,,,,,,,
,,,,,,,,,,stimuli/images/PICTURE_405.png,JUNGLE,5c872cded9fe700001024123,2020-06-30_14h47.36.058,proactive,2020.1.2,Win32,60,5efb791ed4cb570da489e737,5efb871b53898c102d13215d,1,,,,,,anchor,,,,,,0,40,40,13,1,2,2,,,,,,,,,,,,,,,,,,,,,,,,,,,,,,,,,,,,,,,,,,,,,,,,,,,,,,,,,,,,,,,,,,,,,,,,,,,
,,,,,,,,,,stimuli/images/PICTURE_123.png,SALE,5c872cded9fe700001024123,2020-06-30_14h47.36.058,proactive,2020.1.2,Win32,60,5efb791ed4cb570da489e737,5efb871b53898c102d13215d,1,,,,,,dart,,,,,,0,41,41,8,1,1,2,,,,,,,,,,,,,,,,,,,,,,,,,,,,,,,,,,,,,,,,,,,,,,,,,,,,,,,,,,,,,,,,,,,,,,,,,,,
,,,,,,,,,,stimuli/images/PICTURE_57.png,NATION,5c872cded9fe700001024123,2020-06-30_14h47.36.058,proactive,2020.1.2,Win32,60,5efb791ed4cb570da489e737,5efb871b53898c102d13215d,1,,,,,,stamp,,,,,,0,42,42,21,1,3,2,,,,,,,,,,,,,,,,,,,,,,,,,,,,,,,,,,,,,,,,,,,,,,,,,,,,,,,,,,,,,,,,,,,,,,,,,,,
,,,,,,,,,,stimuli/images/PICTURE_509.png,APPLE,5c872cded9fe700001024123,2020-06-30_14h47.36.058,proactive,2020.1.2,Win32,60,5efb791ed4cb570da489e737,5efb871b53898c102d13215d,1,,,,,,telephone,,,,,,0,43,43,38,1,4,2,,,,,,,,,,,,,,,,,,,,,,,,,,,,,,,,,,,,,,,,,,,,,,,,,,,,,,,,,,,,,,,,,,,,,,,,,,,
,,,,,,,,,,stimuli/images/PICTURE_2.png,YARD,5c872cded9fe700001024123,2020-06-30_14h47.36.058,proactive,2020.1.2,Win32,60,5efb791ed4cb570da489e737,5efb871b53898c102d13215d,1,,,,,,tyre,,,,,,0,44,44,55,1,6,2,,,,,,,,,,,,,,,,,,,,,,,,,,,,,,,,,,,,,,,,,,,,,,,,,,,,,,,,,,,,,,,,,,,,,,,,,,,
,,,,,,,,,,stimuli/images/PICTURE_452.png,COPS,5c872cded9fe700001024123,2020-06-30_14h47.36.058,proactive,2020.1.2,Win32,60,5efb791ed4cb570da489e737,5efb871b53898c102d13215d,1,,,,,,watch,,,,,,0,45,45,0,1,1,2,,,,,,,,,,,,,,,,,,,,,,,,,,,,,,,,,,,,,,,,,,,,,,,,,,,,,,,,,,,,,,,,,,,,,,,,,,,
,,,,,,,,,,stimuli/images/PICTURE_509.png,BATH,5c872cded9fe700001024123,2020-06-30_14h47.36.058,proactive,2020.1.2,Win32,60,5efb791ed4cb570da489e737,5efb871b53898c102d13215d,1,,,,,,telephone,,,,,,0,46,46,15,1,2,2,,,,,,,,,,,,,,,,,,,,,,,,,,,,,,,,,,,,,,,,,,,,,,,,,,,,,,,,,,,,,,,,,,,,,,,,,,,
,,,,,,,,,,stimuli/images/PICTURE_487.png,POLICY,5c872cded9fe700001024123,2020-06-30_14h47.36.058,proactive,2020.1.2,Win32,60,5efb791ed4cb570da489e737,5efb871b53898c102d13215d,1,,,,,,basket,,,,,,0,47,47,34,1,4,2,,,,,,,,,,,,,,,,,,,,,,,,,,,,,,,,,,,,,,,,,,,,,,,,,,,,,,,,,,,,,,,,,,,,,,,,,,,
,,,,,,,,,,stimuli/images/PICTURE_654.png,YEAR,5c872cded9fe700001024123,2020-06-30_14h47.36.058,proactive,2020.1.2,Win32,60,5efb791ed4cb570da489e737,5efb871b53898c102d13215d,1,,,,,,pencil,,,,,,0,48,48,41,1,5,2,,,,,,,,,,,,,,,,,,,,,,,,,,,,,,,,,,,,,,,,,,,,,,,,,,,,,,,,,,,,,,,,,,,,,,,,,,,
,,,,,,,,,,stimuli/images/PICTURE_491.png,SERIES,5c872cded9fe700001024123,2020-06-30_14h47.36.058,proactive,2020.1.2,Win32,60,5efb791ed4cb570da489e737,5efb871b53898c102d13215d,1,,,,,,rug,,,,,,0,49,49,39,1,4,2,,,,,,,,,,,,,,,,,,,,,,,,,,,,,,,,,,,,,,,,,,,,,,,,,,,,,,,,,,,,,,,,,,,,,,,,,,,
,,,,,,,,,,stimuli/images/PICTURE_708.png,VALLEY,5c872cded9fe700001024123,2020-06-30_14h47.36.058,proactive,2020.1.2,Win32,60,5efb791ed4cb570da489e737,5efb871b53898c102d13215d,1,,,,,,monkey,,,,,,0,50,50,45,1,5,2,,,,,,,,,,,,,,,,,,,,,,,,,,,,,,,,,,,,,,,,,,,,,,,,,,,,,,,,,,,,,,,,,,,,,,,,,,,
,,,,,,,,,,stimuli/images/PICTURE_470.png,MOMENT,5c872cded9fe700001024123,2020-06-30_14h47.36.058,proactive,2020.1.2,Win32,60,5efb791ed4cb570da489e737,5efb871b53898c102d13215d,1,,,,,,motorbike,,,,,,0,51,51,40,1,5,2,,,,,,,,,,,,,,,,,,,,,,,,,,,,,,,,,,,,,,,,,,,,,,,,,,,,,,,,,,,,,,,,,,,,,,,,,,,
,,,,,,,,,,stimuli/images/PICTURE_509.png,MILLER,5c872cded9fe700001024123,2020-06-30_14h47.36.058,proactive,2020.1.2,Win32,60,5efb791ed4cb570da489e737,5efb871b53898c102d13215d,1,,,,,,telephone,,,,,,0,52,52,49,1,5,2,,,,,,,,,,,,,,,,,,,,,,,,,,,,,,,,,,,,,,,,,,,,,,,,,,,,,,,,,,,,,,,,,,,,,,,,,,,
,,,,,,,,,,stimuli/images/PICTURE_311.png,FLESH,5c872cded9fe700001024123,2020-06-30_14h47.36.058,proactive,2020.1.2,Win32,60,5efb791ed4cb570da489e737,5efb871b53898c102d13215d,1,,,,,,razor,,,,,,0,53,53,3,1,1,2,,,,,,,,,,,,,,,,,,,,,,,,,,,,,,,,,,,,,,,,,,,,,,,,,,,,,,,,,,,,,,,,,,,,,,,,,,,
,,,,,,,,,,stimuli/images/PICTURE_297.png,BODY,5c872cded9fe700001024123,2020-06-30_14h47.36.058,proactive,2020.1.2,Win32,60,5efb791ed4cb570da489e737,5efb871b53898c102d13215d,1,,,,,,aeroplane,,,,,,0,54,54,51,1,6,2,,,,,,,,,,,,,,,,,,,,,,,,,,,,,,,,,,,,,,,,,,,,,,,,,,,,,,,,,,,,,,,,,,,,,,,,,,,
,,,,,,,,,,stimuli/images/PICTURE_160.png,HOTEL,5c872cded9fe700001024123,2020-06-30_14h47.36.058,proactive,2020.1.2,Win32,60,5efb791ed4cb570da489e737,5efb871b53898c102d13215d,1,,,,,,wheelbarrow,,,,,,0,55,55,16,1,2,2,,,,,,,,,,,,,,,,,,,,,,,,,,,,,,,,,,,,,,,,,,,,,,,,,,,,,,,,,,,,,,,,,,,,,,,,,,,
,,,,,,,,,,stimuli/images/PICTURE_403.png,FAMILY,5c872cded9fe700001024123,2020-06-30_14h47.36.058,proactive,2020.1.2,Win32,60,5efb791ed4cb570da489e737,5efb871b53898c102d13215d,1,,,,,,cathedral,,,,,,0,56,56,9,1,1,2,,,,,,,,,,,,,,,,,,,,,,,,,,,,,,,,,,,,,,,,,,,,,,,,,,,,,,,,,,,,,,,,,,,,,,,,,,,
,,,,,,,,,,stimuli/images/PICTURE_564.png,PLENTY,5c872cded9fe700001024123,2020-06-30_14h47.36.058,proactive,2020.1.2,Win32,60,5efb791ed4cb570da489e737,5efb871b53898c102d13215d,1,,,,,,spoon,,,,,,0,57,57,11,1,2,2,,,,,,,,,,,,,,,,,,,,,,,,,,,,,,,,,,,,,,,,,,,,,,,,,,,,,,,,,,,,,,,,,,,,,,,,,,,
,,,,,,,,,,stimuli/images/PICTURE_688.png,CLOCK,5c872cded9fe700001024123,2020-06-30_14h47.36.058,proactive,2020.1.2,Win32,60,5efb791ed4cb570da489e737,5efb871b53898c102d13215d,1,,,,,,runner,,,,,,0,58,58,42,1,5,2,,,,,,,,,,,,,,,,,,,,,,,,,,,,,,,,,,,,,,,,,,,,,,,,,,,,,,,,,,,,,,,,,,,,,,,,,,,
,,?,0.004,0,,,,,,stimuli/images/PICTURE_405.png,JUNGLE,5c872cded9fe700001024123,2020-06-30_14h47.36.058,proactive,2020.1.2,Win32,60,5efb791ed4cb570da489e737,5efb871b53898c102d13215d,1,,,,,,anchor,,,,,,,,,,,6,2,0,0,0,58,1,,,,,,,,,,,,,,,,,,,,,,,,,,,,,,,,,,,,,,,,,,,,,,,,,,,,,,,,,,,,,,,,,,,,,,
,,?,0.005,0,,,,,,stimuli/images/PICTURE_160.png,HOTEL,5c872cded9fe700001024123,2020-06-30_14h47.36.058,proactive,2020.1.2,Win32,60,5efb791ed4cb570da489e737,5efb871b53898c102d13215d,1,,,,,,wheelbarrow,,,,,,,,,,,2,2,0,1,1,16,1,,,,,,,,,,,,,,,,,,,,,,,,,,,,,,,,,,,,,,,,,,,,,,,,,,,,,,,,,,,,,,,,,,,,,,
,,?,0.004,0,,,,,,stimuli/images/PICTURE_487.png,POLICY,5c872cded9fe700001024123,2020-06-30_14h47.36.058,proactive,2020.1.2,Win32,60,5efb791ed4cb570da489e737,5efb871b53898c102d13215d,1,,,,,,basket,,,,,,,,,,,4,2,0,2,2,34,1,,,,,,,,,,,,,,,,,,,,,,,,,,,,,,,,,,,,,,,,,,,,,,,,,,,,,,,,,,,,,,,,,,,,,,
,,?,0.004,0,,,,,,stimuli/images/PICTURE_95.png,NIGHT,5c872cded9fe700001024123,2020-06-30_14h47.36.058,proactive,2020.1.2,Win32,60,5efb791ed4cb570da489e737,5efb871b53898c102d13215d,1,,,,,,suitcase,,,,,,,,,,,4,2,0,3,3,37,1,,,,,,,,,,,,,,,,,,,,,,,,,,,,,,,,,,,,,,,,,,,,,,,,,,,,,,,,,,,,,,,,,,,,,,
,,COPS,10.003,1,,,,,,stimuli/images/PICTURE_452.png,COPS,5c872cded9fe700001024123,2020-06-30_14h47.36.058,proactive,2020.1.2,Win32,60,5efb791ed4cb570da489e737,5efb871b53898c102d13215d,1,,,,,,watch,,,,,,,,,,,1,2,0,4,4,0,1,,,,,,,,,,,,,,,,,,,,,,,,,,,,,,,,,,,,,,,,,,,,,,,,,,,,,,,,,,,,,,,,,,,,,,
,,?,0.014,0,,,,,,stimuli/images/PICTURE_285.png,PRINCE,5c872cded9fe700001024123,2020-06-30_14h47.36.058,proactive,2020.1.2,Win32,60,5efb791ed4cb570da489e737,5efb871b53898c102d13215d,1,,,,,,carrot,,,,,,,,,,,3,2,0,5,5,20,1,,,,,,,,,,,,,,,,,,,,,,,,,,,,,,,,,,,,,,,,,,,,,,,,,,,,,,,,,,,,,,,,,,,,,,
,,?,0.006,0,,,,,,stimuli/images/PICTURE_314.png,SPEECH,5c872cded9fe700001024123,2020-06-30_14h47.36.058,proactive,2020.1.2,Win32,60,5efb791ed4cb570da489e737,5efb871b53898c102d13215d,1,,,,,,perfume,,,,,,,,,,,4,2,0,6,6,35,1,,,,,,,,,,,,,,,,,,,,,,,,,,,,,,,,,,,,,,,,,,,,,,,,,,,,,,,,,,,,,,,,,,,,,,
,,?,0.005,0,,,,,,stimuli/images/PICTURE_215.png,BOYS,5c872cded9fe700001024123,2020-06-30_14h47.36.058,proactive,2020.1.2,Win32,60,5efb791ed4cb570da489e737,5efb871b53898c102d13215d,1,,,,,,boot,,,,,,,,,,,3,2,0,7,7,24,1,,,,,,,,,,,,,,,,,,,,,,,,,,,,,,,,,,,,,,,,,,,,,,,,,,,,,,,,,,,,,,,,,,,,,,
,,?,0.003,0,,,,,,stimuli/images/PICTURE_93.png,GIRL,5c872cded9fe700001024123,2020-06-30_14h47.36.058,proactive,2020.1.2,Win32,60,5efb791ed4cb570da489e737,5efb871b53898c102d13215d,1,,,,,,skateboard,,,,,,,,,,,4,2,0,8,8,31,1,,,,,,,,,,,,,,,,,,,,,,,,,,,,,,,,,,,,,,,,,,,,,,,,,,,,,,,,,,,,,,,,,,,,,,
,,?,0.002,0,,,,,,stimuli/images/PICTURE_57.png,NATION,5c872cded9fe700001024123,2020-06-30_14h47.36.058,proactive,2020.1.2,Win32,60,5efb791ed4cb570da489e737,5efb871b53898c102d13215d,1,,,,,,stamp,,,,,,,,,,,3,2,0,9,9,21,1,,,,,,,,,,,,,,,,,,,,,,,,,,,,,,,,,,,,,,,,,,,,,,,,,,,,,,,,,,,,,,,,,,,,,,
,,SHOTS,10.007,0,,,,,,stimuli/images/PICTURE_123.png,SALE,5c872cded9fe700001024123,2020-06-30_14h47.36.058,proactive,2020.1.2,Win32,60,5efb791ed4cb570da489e737,5efb871b53898c102d13215d,1,,,,,,dart,,,,,,,,,,,1,2,0,10,10,8,1,,,,,,,,,,,,,,,,,,,,,,,,,,,,,,,,,,,,,,,,,,,,,,,,,,,,,,,,,,,,,,,,,,,,,,
,,?,0.004,0,,,,,,stimuli/images/PICTURE_667.png,GLASS,5c872cded9fe700001024123,2020-06-30_14h47.36.058,proactive,2020.1.2,Win32,60,5efb791ed4cb570da489e737,5efb871b53898c102d13215d,1,,,,,,daisy,,,,,,,,,,,3,2,0,11,11,27,1,,,,,,,,,,,,,,,,,,,,,,,,,,,,,,,,,,,,,,,,,,,,,,,,,,,,,,,,,,,,,,,,,,,,,,
,,?,0.003,0,,,,,,stimuli/images/PICTURE_57.png,CANDY,5c872cded9fe700001024123,2020-06-30_14h47.36.058,proactive,2020.1.2,Win32,60,5efb791ed4cb570da489e737,5efb871b53898c102d13215d,1,,,,,,stamp,,,,,,,,,,,6,2,0,12,12,52,1,,,,,,,,,,,,,,,,,,,,,,,,,,,,,,,,,,,,,,,,,,,,,,,,,,,,,,,,,,,,,,,,,,,,,,
,,?,0.004,0,,,,,,stimuli/images/PICTURE_677.png,FAMILY,5c872cded9fe700001024123,2020-06-30_14h47.36.058,proactive,2020.1.2,Win32,60,5efb791ed4cb570da489e737,5efb871b53898c102d13215d,1,,,,,,map,,,,,,,,,,,6,2,0,13,13,53,1,,,,,,,,,,,,,,,,,,,,,,,,,,,,,,,,,,,,,,,,,,,,,,,,,,,,,,,,,,,,,,,,,,,,,,
,,?,0.004,0,,,,,,stimuli/images/PICTURE_470.png,MOMENT,5c872cded9fe700001024123,2020-06-30_14h47.36.058,proactive,2020.1.2,Win32,60,5efb791ed4cb570da489e737,5efb871b53898c102d13215d,1,,,,,,motorbike,,,,,,,,,,,5,2,0,14,14,40,1,,,,,,,,,,,,,,,,,,,,,,,,,,,,,,,,,,,,,,,,,,,,,,,,,,,,,,,,,,,,,,,,,,,,,,
,,?,0.004,0,,,,,,stimuli/images/PICTURE_655.png,SALE,5c872cded9fe700001024123,2020-06-30_14h47.36.058,proactive,2020.1.2,Win32,60,5efb791ed4cb570da489e737,5efb871b53898c102d13215d,1,,,,,,megaphone,,,,,,,,,,,6,2,0,15,15,57,1,,,,,,,,,,,,,,,,,,,,,,,,,,,,,,,,,,,,,,,,,,,,,,,,,,,,,,,,,,,,,,,,,,,,,,
,,?,0.003,0,,,,,,stimuli/images/PICTURE_453.png,FAMILY,5c872cded9fe700001024123,2020-06-30_14h47.36.058,proactive,2020.1.2,Win32,60,5efb791ed4cb570da489e737,5efb871b53898c102d13215d,1,,,,,,scissors,,,,,,,,,,,5,2,0,16,16,48,1,,,,,,,,,,,,,,,,,,,,,,,,,,,,,,,,,,,,,,,,,,,,,,,,,,,,,,,,,,,,,,,,,,,,,,
,,?,0.003,0,,,,,,stimuli/images/PICTURE_2.png,AREA,5c872cded9fe700001024123,2020-06-30_14h47.36.058,proactive,2020.1.2,Win32,60,5efb791ed4cb570da489e737,5efb871b53898c102d13215d,1,,,,,,tyre,,,,,,,,,,,4,2,0,17,17,32,1,,,,,,,,,,,,,,,,,,,,,,,,,,,,,,,,,,,,,,,,,,,,,,,,,,,,,,,,,,,,,,,,,,,,,,
,,?,0.003,0,,,,,,stimuli/images/PICTURE_348.png,DUDE,5c872cded9fe700001024123,2020-06-30_14h47.36.058,proactive,2020.1.2,Win32,60,5efb791ed4cb570da489e737,5efb871b53898c102d13215d,1,,,,,,pepper,,,,,,,,,,,6,2,0,18,18,59,1,,,,,,,,,,,,,,,,,,,,,,,,,,,,,,,,,,,,,,,,,,,,,,,,,,,,,,,,,,,,,,,,,,,,,,
,,?,0.002,0,,,,,,stimuli/images/PICTURE_509.png,BATH,5c872cded9fe700001024123,2020-06-30_14h47.36.058,proactive,2020.1.2,Win32,60,5efb791ed4cb570da489e737,5efb871b53898c102d13215d,1,,,,,,telephone,,,,,,,,,,,2,2,0,19,19,15,1,,,,,,,,,,,,,,,,,,,,,,,,,,,,,,,,,,,,,,,,,,,,,,,,,,,,,,,,,,,,,,,,,,,,,,
,,?,0.004,0,,,,,,stimuli/images/PICTURE_491.png,SERIES,5c872cded9fe700001024123,2020-06-30_14h47.36.058,proactive,2020.1.2,Win32,60,5efb791ed4cb570da489e737,5efb871b53898c102d13215d,1,,,,,,rug,,,,,,,,,,,4,2,0,20,20,39,1,,,,,,,,,,,,,,,,,,,,,,,,,,,,,,,,,,,,,,,,,,,,,,,,,,,,,,,,,,,,,,,,,,,,,,
,,?,0.004,0,,,,,,stimuli/images/PICTURE_57.png,CASINO,5c872cded9fe700001024123,2020-06-30_14h47.36.058,proactive,2020.1.2,Win32,60,5efb791ed4cb570da489e737,5efb871b53898c102d13215d,1,,,,,,stamp,,,,,,,,,,,2,2,0,21,21,12,1,,,,,,,,,,,,,,,,,,,,,,,,,,,,,,,,,,,,,,,,,,,,,,,,,,,,,,,,,,,,,,,,,,,,,,
,,SHOTS,10.007,0,,,,,,stimuli/images/PICTURE_311.png,FLESH,5c872cded9fe700001024123,2020-06-30_14h47.36.058,proactive,2020.1.2,Win32,60,5efb791ed4cb570da489e737,5efb871b53898c102d13215d,1,,,,,,razor,,,,,,,,,,,1,2,0,22,22,3,1,,,,,,,,,,,,,,,,,,,,,,,,,,,,,,,,,,,,,,,,,,,,,,,,,,,,,,,,,,,,,,,,,,,,,,
,,?,0.005,0,,,,,,stimuli/images/PICTURE_311.png,TOILET,5c872cded9fe700001024123,2020-06-30_14h47.36.058,proactive,2020.1.2,Win32,60,5efb791ed4cb570da489e737,5efb871b53898c102d13215d,1,,,,,,razor,,,,,,,,,,,6,2,0,23,23,54,1,,,,,,,,,,,,,,,,,,,,,,,,,,,,,,,,,,,,,,,,,,,,,,,,,,,,,,,,,,,,,,,,,,,,,,
,,?,0.006,0,,,,,,stimuli/images/PICTURE_509.png,APPLE,5c872cded9fe700001024123,2020-06-30_14h47.36.058,proactive,2020.1.2,Win32,60,5efb791ed4cb570da489e737,5efb871b53898c102d13215d,1,,,,,,telephone,,,,,,,,,,,4,2,0,24,24,38,1,,,,,,,,,,,,,,,,,,,,,,,,,,,,,,,,,,,,,,,,,,,,,,,,,,,,,,,,,,,,,,,,,,,,,,
,,?,0.003,0,,,,,,stimuli/images/PICTURE_297.png,BODY,5c872cded9fe700001024123,2020-06-30_14h47.36.058,proactive,2020.1.2,Win32,60,5efb791ed4cb570da489e737,5efb871b53898c102d13215d,1,,,,,,aeroplane,,,,,,,,,,,6,2,0,25,25,51,1,,,,,,,,,,,,,,,,,,,,,,,,,,,,,,,,,,,,,,,,,,,,,,,,,,,,,,,,,,,,,,,,,,,,,,
,,SHOTS,10.009,0,,,,,,stimuli/images/PICTURE_215.png,FOOD,5c872cded9fe700001024123,2020-06-30_14h47.36.058,proactive,2020.1.2,Win32,60,5efb791ed4cb570da489e737,5efb871b53898c102d13215d,1,,,,,,boot,,,,,,,,,,,1,2,0,26,26,5,1,,,,,,,,,,,,,,,,,,,,,,,,,,,,,,,,,,,,,,,,,,,,,,,,,,,,,,,,,,,,,,,,,,,,,,
,,?,0.003,0,,,,,,stimuli/images/PICTURE_564.png,PLENTY,5c872cded9fe700001024123,2020-06-30_14h47.36.058,proactive,2020.1.2,Win32,60,5efb791ed4cb570da489e737,5efb871b53898c102d13215d,1,,,,,,spoon,,,,,,,,,,,2,2,0,27,27,11,1,,,,,,,,,,,,,,,,,,,,,,,,,,,,,,,,,,,,,,,,,,,,,,,,,,,,,,,,,,,,,,,,,,,,,,
,,?,0.007,0,,,,,,stimuli/images/PICTURE_147.png,LEADER,5c872cded9fe700001024123,2020-06-30_14h47.36.058,proactive,2020.1.2,Win32,60,5efb791ed4cb570da489e737,5efb871b53898c102d13215d,1,,,,,,hanger,,,,,,,,,,,4,2,0,28,28,33,1,,,,,,,,,,,,,,,,,,,,,,,,,,,,,,,,,,,,,,,,,,,,,,,,,,,,,,,,,,,,,,,,,,,,,,
,,?,0.004,0,,,,,,stimuli/images/PICTURE_356.png,CANDY,5c872cded9fe700001024123,2020-06-30_14h47.36.058,proactive,2020.1.2,Win32,60,5efb791ed4cb570da489e737,5efb871b53898c102d13215d,1,,,,,,pawn,,,,,,,,,,,5,2,0,29,29,46,1,,,,,,,,,,,,,,,,,,,,,,,,,,,,,,,,,,,,,,,,,,,,,,,,,,,,,,,,,,,,,,,,,,,,,,
,,HOUSE,10.01,1,,,,,,stimuli/images/PICTURE_405.png,HOUSE,5c872cded9fe700001024123,2020-06-30_14h47.36.058,proactive,2020.1.2,Win32,60,5efb791ed4cb570da489e737,5efb871b53898c102d13215d,1,,,,,,anchor,,,,,,,,,,,1,2,0,30,30,2,1,,,,,,,,,,,,,,,,,,,,,,,,,,,,,,,,,,,,,,,,,,,,,,,,,,,,,,,,,,,,,,,,,,,,,,
,,?,0.009,0,,,,,,stimuli/images/PICTURE_208.png,SPIRIT,5c872cded9fe700001024123,2020-06-30_14h47.36.058,proactive,2020.1.2,Win32,60,5efb791ed4cb570da489e737,5efb871b53898c102d13215d,1,,,,,,microphone,,,,,,,,,,,3,2,0,31,31,28,1,,,,,,,,,,,,,,,,,,,,,,,,,,,,,,,,,,,,,,,,,,,,,,,,,,,,,,,,,,,,,,,,,,,,,,
,,?,0.004,0,,,,,,stimuli/images/PICTURE_654.png,COPS,5c872cded9fe700001024123,2020-06-30_14h47.36.058,proactive,2020.1.2,Win32,60,5efb791ed4cb570da489e737,5efb871b53898c102d13215d,1,,,,,,pencil,,,,,,,,,,,2,2,0,32,32,10,1,,,,,,,,,,,,,,,,,,,,,,,,,,,,,,,,,,,,,,,,,,,,,,,,,,,,,,,,,,,,,,,,,,,,,,
,,?,0.005,0,,,,,,stimuli/images/PICTURE_470.png,BEAUTY,5c872cded9fe700001024123,2020-06-30_14h47.36.058,proactive,2020.1.2,Win32,60,5efb791ed4cb570da489e737,5efb871b53898c102d13215d,1,,,,,,motorbike,,,,,,,,,,,3,2,0,33,33,26,1,,,,,,,,,,,,,,,,,,,,,,,,,,,,,,,,,,,,,,,,,,,,,,,,,,,,,,,,,,,,,,,,,,,,,,
,,?,0.003,0,,,,,,stimuli/images/PICTURE_33.png,COPS,5c872cded9fe700001024123,2020-06-30_14h47.36.058,proactive,2020.1.2,Win32,60,5efb791ed4cb570da489e737,5efb871b53898c102d13215d,1,,,,,,frame,,,,,,,,,,,3,2,0,34,34,29,1,,,,,,,,,,,,,,,,,,,,,,,,,,,,,,,,,,,,,,,,,,,,,,,,,,,,,,,,,,,,,,,,,,,,,,
,,?,0.003,0,,,,,,stimuli/images/PICTURE_255.png,PENNY,5c872cded9fe700001024123,2020-06-30_14h47.36.058,proactive,2020.1.2,Win32,60,5efb791ed4cb570da489e737,5efb871b53898c102d13215d,1,,,,,,shovel,,,,,,,,,,,2,2,0,35,35,19,1,,,,,,,,,,,,,,,,,,,,,,,,,,,,,,,,,,,,,,,,,,,,,,,,,,,,,,,,,,,,,,,,,,,,,,
,,?,0.002,0,,,,,,stimuli/images/PICTURE_688.png,CLOCK,5c872cded9fe700001024123,2020-06-30_14h47.36.058,proactive,2020.1.2,Win32,60,5efb791ed4cb570da489e737,5efb871b53898c102d13215d,1,,,,,,runner,,,,,,,,,,,5,2,0,36,36,42,1,,,,,,,,,,,,,,,,,,,,,,,,,,,,,,,,,,,,,,,,,,,,,,,,,,,,,,,,,,,,,,,,,,,,,,
,,?,0.003,0,,,,,,stimuli/images/PICTURE_504.png,HOUSE,5c872cded9fe700001024123,2020-06-30_14h47.36.058,proactive,2020.1.2,Win32,60,5efb791ed4cb570da489e737,5efb871b53898c102d13215d,1,,,,,,wheel,,,,,,,,,,,4,2,0,37,37,36,1,,,,,,,,,,,,,,,,,,,,,,,,,,,,,,,,,,,,,,,,,,,,,,,,,,,,,,,,,,,,,,,,,,,,,,
,,?,0.002,0,,,,,,stimuli/images/PICTURE_68.png,KIND,5c872cded9fe700001024123,2020-06-30_14h47.36.058,proactive,2020.1.2,Win32,60,5efb791ed4cb570da489e737,5efb871b53898c102d13215d,1,,,,,,candle,,,,,,,,,,,3,2,0,38,38,23,1,,,,,,,,,,,,,,,,,,,,,,,,,,,,,,,,,,,,,,,,,,,,,,,,,,,,,,,,,,,,,,,,,,,,,,
,,?,0.002,0,,,,,,stimuli/images/PICTURE_405.png,JUNGLE,5c872cded9fe700001024123,2020-06-30_14h47.36.058,proactive,2020.1.2,Win32,60,5efb791ed4cb570da489e737,5efb871b53898c102d13215d,1,,,,,,anchor,,,,,,,,,,,2,2,0,39,39,13,1,,,,,,,,,,,,,,,,,,,,,,,,,,,,,,,,,,,,,,,,,,,,,,,,,,,,,,,,,,,,,,,,,,,,,,
,,FOOD,10.012,0,,,,,,stimuli/images/PICTURE_2.png,JUNGLE,5c872cded9fe700001024123,2020-06-30_14h47.36.058,proactive,2020.1.2,Win32,60,5efb791ed4cb570da489e737,5efb871b53898c102d13215d,1,,,,,,tyre,,,,,,,,,,,1,2,0,40,40,1,1,,,,,,,,,,,,,,,,,,,,,,,,,,,,,,,,,,,,,,,,,,,,,,,,,,,,,,,,,,,,,,,,,,,,,,
,,?,0.006,0,,,,,,stimuli/images/PICTURE_487.png,ROOF,5c872cded9fe700001024123,2020-06-30_14h47.36.058,proactive,2020.1.2,Win32,60,5efb791ed4cb570da489e737,5efb871b53898c102d13215d,1,,,,,,basket,,,,,,,,,,,6,2,0,41,41,50,1,,,,,,,,,,,,,,,,,,,,,,,,,,,,,,,,,,,,,,,,,,,,,,,,,,,,,,,,,,,,,,,,,,,,,,
,,?,0.005,0,,,,,,stimuli/images/PICTURE_708.png,VALLEY,5c872cded9fe700001024123,2020-06-30_14h47.36.058,proactive,2020.1.2,Win32,60,5efb791ed4cb570da489e737,5efb871b53898c102d13215d,1,,,,,,monkey,,,,,,,,,,,5,2,0,42,42,45,1,,,,,,,,,,,,,,,,,,,,,,,,,,,,,,,,,,,,,,,,,,,,,,,,,,,,,,,,,,,,,,,,,,,,,,
,,?,0.003,0,,,,,,stimuli/images/PICTURE_692.png,DUDE,5c872cded9fe700001024123,2020-06-30_14h47.36.058,proactive,2020.1.2,Win32,60,5efb791ed4cb570da489e737,5efb871b53898c102d13215d,1,,,,,,cherry,,,,,,,,,,,5,2,0,43,43,47,1,,,,,,,,,,,,,,,,,,,,,,,,,,,,,,,,,,,,,,,,,,,,,,,,,,,,,,,,,,,,,,,,,,,,,,
,,?,0.005,0,,,,,,stimuli/images/PICTURE_177.png,HOUSE,5c872cded9fe700001024123,2020-06-30_14h47.36.058,proactive,2020.1.2,Win32,60,5efb791ed4cb570da489e737,5efb871b53898c102d13215d,1,,,,,,mushroom,,,,,,,,,,,3,2,0,44,44,25,1,,,,,,,,,,,,,,,,,,,,,,,,,,,,,,,,,,,,,,,,,,,,,,,,,,,,,,,,,,,,,,,,,,,,,,
,,FOOD,10.016,0,,,,,,stimuli/images/PICTURE_348.png,TOILET,5c872cded9fe700001024123,2020-06-30_14h47.36.058,proactive,2020.1.2,Win32,60,5efb791ed4cb570da489e737,5efb871b53898c102d13215d,1,,,,,,pepper,,,,,,,,,,,1,2,0,45,45,4,1,,,,,,,,,,,,,,,,,,,,,,,,,,,,,,,,,,,,,,,,,,,,,,,,,,,,,,,,,,,,,,,,,,,,,,
,,?,0.005,0,,,,,,stimuli/images/PICTURE_509.png,MILLER,5c872cded9fe700001024123,2020-06-30_14h47.36.058,proactive,2020.1.2,Win32,60,5efb791ed4cb570da489e737,5efb871b53898c102d13215d,1,,,,,,telephone,,,,,,,,,,,5,2,0,46,46,49,1,,,,,,,,,,,,,,,,,,,,,,,,,,,,,,,,,,,,,,,,,,,,,,,,,,,,,,,,,,,,,,,,,,,,,,
,,FAMILY,10.012,1,,,,,,stimuli/images/PICTURE_403.png,FAMILY,5c872cded9fe700001024123,2020-06-30_14h47.36.058,proactive,2020.1.2,Win32,60,5efb791ed4cb570da489e737,5efb871b53898c102d13215d,1,,,,,,cathedral,,,,,,,,,,,1,2,0,47,47,9,1,,,,,,,,,,,,,,,,,,,,,,,,,,,,,,,,,,,,,,,,,,,,,,,,,,,,,,,,,,,,,,,,,,,,,,
,,?,0.003,0,,,,,,stimuli/images/PICTURE_327.png,LEADER,5c872cded9fe700001024123,2020-06-30_14h47.36.058,proactive,2020.1.2,Win32,60,5efb791ed4cb570da489e737,5efb871b53898c102d13215d,1,,,,,,helmet,,,,,,,,,,,2,2,0,48,48,17,1,,,,,,,,,,,,,,,,,,,,,,,,,,,,,,,,,,,,,,,,,,,,,,,,,,,,,,,,,,,,,,,,,,,,,,
,,?,0.003,0,,,,,,stimuli/images/PICTURE_32.png,LETTER,5c872cded9fe700001024123,2020-06-30_14h47.36.058,proactive,2020.1.2,Win32,60,5efb791ed4cb570da489e737,5efb871b53898c102d13215d,1,,,,,,crown,,,,,,,,,,,6,2,0,49,49,56,1,,,,,,,,,,,,,,,,,,,,,,,,,,,,,,,,,,,,,,,,,,,,,,,,,,,,,,,,,,,,,,,,,,,,,,
,,?,0.003,0,,,,,,stimuli/images/PICTURE_654.png,YEAR,5c872cded9fe700001024123,2020-06-30_14h47.36.058,proactive,2020.1.2,Win32,60,5efb791ed4cb570da489e737,5efb871b53898c102d13215d,1,,,,,,pencil,,,,,,,,,,,5,2,0,50,50,41,1,,,,,,,,,,,,,,,,,,,,,,,,,,,,,,,,,,,,,,,,,,,,,,,,,,,,,,,,,,,,,,,,,,,,,,
,,?,0.003,0,,,,,,stimuli/images/PICTURE_215.png,LEADER,5c872cded9fe700001024123,2020-06-30_14h47.36.058,proactive,2020.1.2,Win32,60,5efb791ed4cb570da489e737,5efb871b53898c102d13215d,1,,,,,,boot,,,,,,,,,,,5,2,0,51,51,43,1,,,,,,,,,,,,,,,,,,,,,,,,,,,,,,,,,,,,,,,,,,,,,,,,,,,,,,,,,,,,,,,,,,,,,,
,,?,0.005,0,,,,,,stimuli/images/PICTURE_750.png,POLICY,5c872cded9fe700001024123,2020-06-30_14h47.36.058,proactive,2020.1.2,Win32,60,5efb791ed4cb570da489e737,5efb871b53898c102d13215d,1,,,,,,kettle,,,,,,,,,,,5,2,0,52,52,44,1,,,,,,,,,,,,,,,,,,,,,,,,,,,,,,,,,,,,,,,,,,,,,,,,,,,,,,,,,,,,,,,,,,,,,,
,,?,0.003,0,,,,,,stimuli/images/PICTURE_677.png,PHOTO,5c872cded9fe700001024123,2020-06-30_14h47.36.058,proactive,2020.1.2,Win32,60,5efb791ed4cb570da489e737,5efb871b53898c102d13215d,1,,,,,,map,,,,,,,,,,,2,2,0,53,53,14,1,,,,,,,,,,,,,,,,,,,,,,,,,,,,,,,,,,,,,,,,,,,,,,,,,,,,,,,,,,,,,,,,,,,,,,
,,?,0.002,0,,,,,,stimuli/images/PICTURE_2.png,YARD,5c872cded9fe700001024123,2020-06-30_14h47.36.058,proactive,2020.1.2,Win32,60,5efb791ed4cb570da489e737,5efb871b53898c102d13215d,1,,,,,,tyre,,,,,,,,,,,6,2,0,54,54,55,1,,,,,,,,,,,,,,,,,,,,,,,,,,,,,,,,,,,,,,,,,,,,,,,,,,,,,,,,,,,,,,,,,,,,,,
,,?,0.001,0,,,,,,stimuli/images/PICTURE_296.png,CLOCK,5c872cded9fe700001024123,2020-06-30_14h47.36.058,proactive,2020.1.2,Win32,60,5efb791ed4cb570da489e737,5efb871b53898c102d13215d,1,,,,,,bolt,,,,,,,,,,,2,2,0,55,55,18,1,,,,,,,,,,,,,,,,,,,,,,,,,,,,,,,,,,,,,,,,,,,,,,,,,,,,,,,,,,,,,,,,,,,,,,
,,FLESH,10.081,0,,,,,,stimuli/images/PICTURE_285.png,WRITER,5c872cded9fe700001024123,2020-06-30_14h47.36.058,proactive,2020.1.2,Win32,60,5efb791ed4cb570da489e737,5efb871b53898c102d13215d,1,,,,,,carrot,,,,,,,,,,,1,2,0,56,56,6,1,,,,,,,,,,,,,,,,,,,,,,,,,,,,,,,,,,,,,,,,,,,,,,,,,,,,,,,,,,,,,,,,,,,,,,
,,COPS,10.003,0,,,,,,stimuli/images/PICTURE_509.png,SHOTS,5c872cded9fe700001024123,2020-06-30_14h47.36.058,proactive,2020.1.2,Win32,60,5efb791ed4cb570da489e737,5efb871b53898c102d13215d,1,,,,,,telephone,,,,,,,,,,,1,2,0,57,57,7,1,,,,,,,,,,,,,,,,,,,,,,,,,,,,,,,,,,,,,,,,,,,,,,,,,,,,,,,,,,,,,,,,,,,,,,
,,?,0.008,0,,,,,,stimuli/images/PICTURE_18.png,RIVER,5c872cded9fe700001024123,2020-06-30_14h47.36.058,proactive,2020.1.2,Win32,60,5efb791ed4cb570da489e737,5efb871b53898c102d13215d,1,,,,,,planet,,,,,,,,,,,3,2,0,58,58,22,1,,,,,,,,,,,,,,,,,,,,,,,,,,,,,,,,,,,,,,,,,,,,,,,,,,,,,,,,,,,,,,,,,,,,,,
,,?,0.004,0,,,,,,stimuli/images/PICTURE_141.png,CLIENT,5c872cded9fe700001024123,2020-06-30_14h47.36.058,proactive,2020.1.2,Win32,60,5efb791ed4cb570da489e737,5efb871b53898c102d13215d,1,,,,,,sunflower,,,,,,,,,,,4,2,0,59,59,30,1,,,,,,,,,,,,,,,,,,,,,,,,,,,,,,,,,,,,,,,,,,,,,,,,,,,,,,,,,,,,,,,,,,,,,,
,,,,,,,,,,,,5c872cded9fe700001024123,2020-06-30_14h47.36.058,proactive,2020.1.2,Win32,60,5efb791ed4cb570da489e737,5efb871b53898c102d13215d,1,,,,,,,,,,,,,,,,,,,,,,,,0,0,0,2,1,stimuli/learn-block3.csv,,,,,,,,,,,,,,,,,,,,,,,,,,,,,,,,,,,,,,,,,,,,,,,,,,,,,,,,,,,,,,,,
,,,,,,,,,,stimuli/images/PICTURE_85.png,TOILET,5c872cded9fe700001024123,2020-06-30_14h47.36.058,proactive,2020.1.2,Win32,60,5efb791ed4cb570da489e737,5efb871b53898c102d13215d,1,,,,,,diamond,,,,,,0,0,0,48,1,5,1,,,,,,,,,,,,,,,,,,,,,,,,,,,,,,,,,,,,,,,,,,,,,,,,,,,,,,,,,,,,,,,,,,,,,,,,,,,
,,,,,,,,,,stimuli/images/PICTURE_564.png,BATH,5c872cded9fe700001024123,2020-06-30_14h47.36.058,proactive,2020.1.2,Win32,60,5efb791ed4cb570da489e737,5efb871b53898c102d13215d,1,,,,,,spoon,,,,,,0,1,1,26,1,3,1,,,,,,,,,,,,,,,,,,,,,,,,,,,,,,,,,,,,,,,,,,,,,,,,,,,,,,,,,,,,,,,,,,,,,,,,,,,
,,,,,,,,,,stimuli/images/PICTURE_95.png,MILLER,5c872cded9fe700001024123,2020-06-30_14h47.36.058,proactive,2020.1.2,Win32,60,5efb791ed4cb570da489e737,5efb871b53898c102d13215d,1,,,,,,suitcase,,,,,,0,2,2,56,1,6,1,,,,,,,,,,,,,,,,,,,,,,,,,,,,,,,,,,,,,,,,,,,,,,,,,,,,,,,,,,,,,,,,,,,,,,,,,,,
,,,,,,,,,,stimuli/images/PICTURE_95.png,HONEY,5c872cded9fe700001024123,2020-06-30_14h47.36.058,proactive,2020.1.2,Win32,60,5efb791ed4cb570da489e737,5efb871b53898c102d13215d,1,,,,,,suitcase,,,,,,0,3,3,44,1,5,1,,,,,,,,,,,,,,,,,,,,,,,,,,,,,,,,,,,,,,,,,,,,,,,,,,,,,,,,,,,,,,,,,,,,,,,,,,,
,,,,,,,,,,stimuli/images/PICTURE_57.png,MOMENT,5c872cded9fe700001024123,2020-06-30_14h47.36.058,proactive,2020.1.2,Win32,60,5efb791ed4cb570da489e737,5efb871b53898c102d13215d,1,,,,,,stamp,,,,,,0,4,4,37,1,4,1,,,,,,,,,,,,,,,,,,,,,,,,,,,,,,,,,,,,,,,,,,,,,,,,,,,,,,,,,,,,,,,,,,,,,,,,,,,
,,,,,,,,,,stimuli/images/PICTURE_383.png,SERIES,5c872cded9fe700001024123,2020-06-30_14h47.36.058,proactive,2020.1.2,Win32,60,5efb791ed4cb570da489e737,5efb871b53898c102d13215d,1,,,,,,coin,,,,,,0,5,5,46,1,5,1,,,,,,,,,,,,,,,,,,,,,,,,,,,,,,,,,,,,,,,,,,,,,,,,,,,,,,,,,,,,,,,,,,,,,,,,,,,
,,,,,,,,,,stimuli/images/PICTURE_147.png,WOMEN,5c872cded9fe700001024123,2020-06-30_14h47.36.058,proactive,2020.1.2,Win32,60,5efb791ed4cb570da489e737,5efb871b53898c102d13215d,1,,,,,,hanger,,,,,,0,6,6,7,1,1,1,,,,,,,,,,,,,,,,,,,,,,,,,,,,,,,,,,,,,,,,,,,,,,,,,,,,,,,,,,,,,,,,,,,,,,,,,,,
,,,,,,,,,,stimuli/images/PICTURE_504.png,YEAR,5c872cded9fe700001024123,2020-06-30_14h47.36.058,proactive,2020.1.2,Win32,60,5efb791ed4cb570da489e737,5efb871b53898c102d13215d,1,,,,,,wheel,,,,,,0,7,7,13,1,2,1,,,,,,,,,,,,,,,,,,,,,,,,,,,,,,,,,,,,,,,,,,,,,,,,,,,,,,,,,,,,,,,,,,,,,,,,,,,
,,,,,,,,,,stimuli/images/PICTURE_677.png,APPLE,5c872cded9fe700001024123,2020-06-30_14h47.36.058,proactive,2020.1.2,Win32,60,5efb791ed4cb570da489e737,5efb871b53898c102d13215d,1,,,,,,map,,,,,,0,8,8,43,1,5,1,,,,,,,,,,,,,,,,,,,,,,,,,,,,,,,,,,,,,,,,,,,,,,,,,,,,,,,,,,,,,,,,,,,,,,,,,,,
,,,,,,,,,,stimuli/images/PICTURE_685.png,PENNY,5c872cded9fe700001024123,2020-06-30_14h47.36.058,proactive,2020.1.2,Win32,60,5efb791ed4cb570da489e737,5efb871b53898c102d13215d,1,,,,,,goose,,,,,,0,9,9,4,1,1,1,,,,,,,,,,,,,,,,,,,,,,,,,,,,,,,,,,,,,,,,,,,,,,,,,,,,,,,,,,,,,,,,,,,,,,,,,,,
,,,,,,,,,,stimuli/images/PICTURE_340.png,LETTER,5c872cded9fe700001024123,2020-06-30_14h47.36.058,proactive,2020.1.2,Win32,60,5efb791ed4cb570da489e737,5efb871b53898c102d13215d,1,,,,,,mirror,,,,,,0,10,10,24,1,3,1,,,,,,,,,,,,,,,,,,,,,,,,,,,,,,,,,,,,,,,,,,,,,,,,,,,,,,,,,,,,,,,,,,,,,,,,,,,
,,,,,,,,,,stimuli/images/PICTURE_667.png,RIVER,5c872cded9fe700001024123,2020-06-30_14h47.36.058,proactive,2020.1.2,Win32,60,5efb791ed4cb570da489e737,5efb871b53898c102d13215d,1,,,,,,daisy,,,,,,0,11,11,10,1,2,1,,,,,,,,,,,,,,,,,,,,,,,,,,,,,,,,,,,,,,,,,,,,,,,,,,,,,,,,,,,,,,,,,,,,,,,,,,,
,,,,,,,,,,stimuli/images/PICTURE_467.png,POLICY,5c872cded9fe700001024123,2020-06-30_14h47.36.058,proactive,2020.1.2,Win32,60,5efb791ed4cb570da489e737,5efb871b53898c102d13215d,1,,,,,,peg,,,,,,0,12,12,53,1,6,1,,,,,,,,,,,,,,,,,,,,,,,,,,,,,,,,,,,,,,,,,,,,,,,,,,,,,,,,,,,,,,,,,,,,,,,,,,,
,,,,,,,,,,stimuli/images/PICTURE_405.png,PLENTY,5c872cded9fe700001024123,2020-06-30_14h47.36.058,proactive,2020.1.2,Win32,60,5efb791ed4cb570da489e737,5efb871b53898c102d13215d,1,,,,,,anchor,,,,,,0,13,13,23,1,3,1,,,,,,,,,,,,,,,,,,,,,,,,,,,,,,,,,,,,,,,,,,,,,,,,,,,,,,,,,,,,,,,,,,,,,,,,,,,
,,,,,,,,,,stimuli/images/PICTURE_2.png,FLIGHT,5c872cded9fe700001024123,2020-06-30_14h47.36.058,proactive,2020.1.2,Win32,60,5efb791ed4cb570da489e737,5efb871b53898c102d13215d,1,,,,,,tyre,,,,,,0,14,14,15,1,2,1,,,,,,,,,,,,,,,,,,,,,,,,,,,,,,,,,,,,,,,,,,,,,,,,,,,,,,,,,,,,,,,,,,,,,,,,,,,
,,,,,,,,,,stimuli/images/PICTURE_233.png,LOTS,5c872cded9fe700001024123,2020-06-30_14h47.36.058,proactive,2020.1.2,Win32,60,5efb791ed4cb570da489e737,5efb871b53898c102d13215d,1,,,,,,salt,,,,,,0,15,15,42,1,5,1,,,,,,,,,,,,,,,,,,,,,,,,,,,,,,,,,,,,,,,,,,,,,,,,,,,,,,,,,,,,,,,,,,,,,,,,,,,
,,,,,,,,,,stimuli/images/PICTURE_108.png,POLICY,5c872cded9fe700001024123,2020-06-30_14h47.36.058,proactive,2020.1.2,Win32,60,5efb791ed4cb570da489e737,5efb871b53898c102d13215d,1,,,,,,calendar,,,,,,0,16,16,22,1,3,1,,,,,,,,,,,,,,,,,,,,,,,,,,,,,,,,,,,,,,,,,,,,,,,,,,,,,,,,,,,,,,,,,,,,,,,,,,,
,,,,,,,,,,stimuli/images/PICTURE_33.png,FRIEND,5c872cded9fe700001024123,2020-06-30_14h47.36.058,proactive,2020.1.2,Win32,60,5efb791ed4cb570da489e737,5efb871b53898c102d13215d,1,,,,,,frame,,,,,,0,17,17,8,1,1,1,,,,,,,,,,,,,,,,,,,,,,,,,,,,,,,,,,,,,,,,,,,,,,,,,,,,,,,,,,,,,,,,,,,,,,,,,,,
,,,,,,,,,,stimuli/images/PICTURE_504.png,ARTIST,5c872cded9fe700001024123,2020-06-30_14h47.36.058,proactive,2020.1.2,Win32,60,5efb791ed4cb570da489e737,5efb871b53898c102d13215d,1,,,,,,wheel,,,,,,0,18,18,49,1,5,1,,,,,,,,,,,,,,,,,,,,,,,,,,,,,,,,,,,,,,,,,,,,,,,,,,,,,,,,,,,,,,,,,,,,,,,,,,,
,,,,,,,,,,stimuli/images/PICTURE_744.png,WEAPON,5c872cded9fe700001024123,2020-06-30_14h47.36.058,proactive,2020.1.2,Win32,60,5efb791ed4cb570da489e737,5efb871b53898c102d13215d,1,,,,,,ring,,,,,,0,19,19,50,1,6,1,,,,,,,,,,,,,,,,,,,,,,,,,,,,,,,,,,,,,,,,,,,,,,,,,,,,,,,,,,,,,,,,,,,,,,,,,,,
,,,,,,,,,,stimuli/images/PICTURE_296.png,LOTS,5c872cded9fe700001024123,2020-06-30_14h47.36.058,proactive,2020.1.2,Win32,60,5efb791ed4cb570da489e737,5efb871b53898c102d13215d,1,,,,,,bolt,,,,,,0,20,20,9,1,1,1,,,,,,,,,,,,,,,,,,,,,,,,,,,,,,,,,,,,,,,,,,,,,,,,,,,,,,,,,,,,,,,,,,,,,,,,,,,
,,,,,,,,,,stimuli/images/PICTURE_85.png,NATION,5c872cded9fe700001024123,2020-06-30_14h47.36.058,proactive,2020.1.2,Win32,60,5efb791ed4cb570da489e737,5efb871b53898c102d13215d,1,,,,,,diamond,,,,,,0,21,21,5,1,1,1,,,,,,,,,,,,,,,,,,,,,,,,,,,,,,,,,,,,,,,,,,,,,,,,,,,,,,,,,,,,,,,,,,,,,,,,,,,
,,,,,,,,,,stimuli/images/PICTURE_203.png,GODS,5c872cded9fe700001024123,2020-06-30_14h47.36.058,proactive,2020.1.2,Win32,60,5efb791ed4cb570da489e737,5efb871b53898c102d13215d,1,,,,,,cap,,,,,,0,22,22,30,1,4,1,,,,,,,,,,,,,,,,,,,,,,,,,,,,,,,,,,,,,,,,,,,,,,,,,,,,,,,,,,,,,,,,,,,,,,,,,,,
,,,,,,,,,,stimuli/images/PICTURE_327.png,SERIES,5c872cded9fe700001024123,2020-06-30_14h47.36.058,proactive,2020.1.2,Win32,60,5efb791ed4cb570da489e737,5efb871b53898c102d13215d,1,,,,,,helmet,,,,,,0,23,23,3,1,1,1,,,,,,,,,,,,,,,,,,,,,,,,,,,,,,,,,,,,,,,,,,,,,,,,,,,,,,,,,,,,,,,,,,,,,,,,,,,
,,,,,,,,,,stimuli/images/PICTURE_380.png,HONEY,5c872cded9fe700001024123,2020-06-30_14h47.36.058,proactive,2020.1.2,Win32,60,5efb791ed4cb570da489e737,5efb871b53898c102d13215d,1,,,,,,gorilla,,,,,,0,24,24,19,1,2,1,,,,,,,,,,,,,,,,,,,,,,,,,,,,,,,,,,,,,,,,,,,,,,,,,,,,,,,,,,,,,,,,,,,,,,,,,,,
,,,,,,,,,,stimuli/images/PICTURE_655.png,TOILET,5c872cded9fe700001024123,2020-06-30_14h47.36.058,proactive,2020.1.2,Win32,60,5efb791ed4cb570da489e737,5efb871b53898c102d13215d,1,,,,,,megaphone,,,,,,0,25,25,12,1,2,1,,,,,,,,,,,,,,,,,,,,,,,,,,,,,,,,,,,,,,,,,,,,,,,,,,,,,,,,,,,,,,,,,,,,,,,,,,,
,,,,,,,,,,stimuli/images/PICTURE_340.png,VALLEY,5c872cded9fe700001024123,2020-06-30_14h47.36.058,proactive,2020.1.2,Win32,60,5efb791ed4cb570da489e737,5efb871b53898c102d13215d,1,,,,,,mirror,,,,,,0,26,26,54,1,6,1,,,,,,,,,,,,,,,,,,,,,,,,,,,,,,,,,,,,,,,,,,,,,,,,,,,,,,,,,,,,,,,,,,,,,,,,,,,
,,,,,,,,,,stimuli/images/PICTURE_297.png,RIVER,5c872cded9fe700001024123,2020-06-30_14h47.36.058,proactive,2020.1.2,Win32,60,5efb791ed4cb570da489e737,5efb871b53898c102d13215d,1,,,,,,aeroplane,,,,,,0,27,27,39,1,4,1,,,,,,,,,,,,,,,,,,,,,,,,,,,,,,,,,,,,,,,,,,,,,,,,,,,,,,,,,,,,,,,,,,,,,,,,,,,
,,,,,,,,,,stimuli/images/PICTURE_403.png,WRITER,5c872cded9fe700001024123,2020-06-30_14h47.36.058,proactive,2020.1.2,Win32,60,5efb791ed4cb570da489e737,5efb871b53898c102d13215d,1,,,,,,cathedral,,,,,,0,28,28,31,1,4,1,,,,,,,,,,,,,,,,,,,,,,,,,,,,,,,,,,,,,,,,,,,,,,,,,,,,,,,,,,,,,,,,,,,,,,,,,,,
,,,,,,,,,,stimuli/images/PICTURE_32.png,PILLS,5c872cded9fe700001024123,2020-06-30_14h47.36.058,proactive,2020.1.2,Win32,60,5efb791ed4cb570da489e737,5efb871b53898c102d13215d,1,,,,,,crown,,,,,,0,29,29,18,1,2,1,,,,,,,,,,,,,,,,,,,,,,,,,,,,,,,,,,,,,,,,,,,,,,,,,,,,,,,,,,,,,,,,,,,,,,,,,,,
,,,,,,,,,,stimuli/images/PICTURE_68.png,MILE,5c872cded9fe700001024123,2020-06-30_14h47.36.058,proactive,2020.1.2,Win32,60,5efb791ed4cb570da489e737,5efb871b53898c102d13215d,1,,,,,,candle,,,,,,0,30,30,51,1,6,1,,,,,,,,,,,,,,,,,,,,,,,,,,,,,,,,,,,,,,,,,,,,,,,,,,,,,,,,,,,,,,,,,,,,,,,,,,,
,,,,,,,,,,stimuli/images/PICTURE_449.png,DUDE,5c872cded9fe700001024123,2020-06-30_14h47.36.058,proactive,2020.1.2,Win32,60,5efb791ed4cb570da489e737,5efb871b53898c102d13215d,1,,,,,,bench,,,,,,0,31,31,17,1,2,1,,,,,,,,,,,,,,,,,,,,,,,,,,,,,,,,,,,,,,,,,,,,,,,,,,,,,,,,,,,,,,,,,,,,,,,,,,,
,,,,,,,,,,stimuli/images/PICTURE_68.png,ROOF,5c872cded9fe700001024123,2020-06-30_14h47.36.058,proactive,2020.1.2,Win32,60,5efb791ed4cb570da489e737,5efb871b53898c102d13215d,1,,,,,,candle,,,,,,0,32,32,38,1,4,1,,,,,,,,,,,,,,,,,,,,,,,,,,,,,,,,,,,,,,,,,,,,,,,,,,,,,,,,,,,,,,,,,,,,,,,,,,,
,,,,,,,,,,stimuli/images/PICTURE_750.png,HOTEL,5c872cded9fe700001024123,2020-06-30_14h47.36.058,proactive,2020.1.2,Win32,60,5efb791ed4cb570da489e737,5efb871b53898c102d13215d,1,,,,,,kettle,,,,,,0,33,33,27,1,3,1,,,,,,,,,,,,,,,,,,,,,,,,,,,,,,,,,,,,,,,,,,,,,,,,,,,,,,,,,,,,,,,,,,,,,,,,,,,
,,,,,,,,,,stimuli/images/PICTURE_491.png,GLASS,5c872cded9fe700001024123,2020-06-30_14h47.36.058,proactive,2020.1.2,Win32,60,5efb791ed4cb570da489e737,5efb871b53898c102d13215d,1,,,,,,rug,,,,,,0,34,34,14,1,2,1,,,,,,,,,,,,,,,,,,,,,,,,,,,,,,,,,,,,,,,,,,,,,,,,,,,,,,,,,,,,,,,,,,,,,,,,,,,
,,,,,,,,,,stimuli/images/PICTURE_108.png,FLIGHT,5c872cded9fe700001024123,2020-06-30_14h47.36.058,proactive,2020.1.2,Win32,60,5efb791ed4cb570da489e737,5efb871b53898c102d13215d,1,,,,,,calendar,,,,,,0,35,35,59,1,6,1,,,,,,,,,,,,,,,,,,,,,,,,,,,,,,,,,,,,,,,,,,,,,,,,,,,,,,,,,,,,,,,,,,,,,,,,,,,
,,,,,,,,,,stimuli/images/PICTURE_380.png,CANDY,5c872cded9fe700001024123,2020-06-30_14h47.36.058,proactive,2020.1.2,Win32,60,5efb791ed4cb570da489e737,5efb871b53898c102d13215d,1,,,,,,gorilla,,,,,,0,36,36,0,1,1,1,,,,,,,,,,,,,,,,,,,,,,,,,,,,,,,,,,,,,,,,,,,,,,,,,,,,,,,,,,,,,,,,,,,,,,,,,,,
,,,,,,,,,,stimuli/images/PICTURE_208.png,SYSTEM,5c872cded9fe700001024123,2020-06-30_14h47.36.058,proactive,2020.1.2,Win32,60,5efb791ed4cb570da489e737,5efb871b53898c102d13215d,1,,,,,,microphone,,,,,,0,37,37,32,1,4,1,,,,,,,,,,,,,,,,,,,,,,,,,,,,,,,,,,,,,,,,,,,,,,,,,,,,,,,,,,,,,,,,,,,,,,,,,,,
,,,,,,,,,,stimuli/images/PICTURE_403.png,TOILET,5c872cded9fe700001024123,2020-06-30_14h47.36.058,proactive,2020.1.2,Win32,60,5efb791ed4cb570da489e737,5efb871b53898c102d13215d,1,,,,,,cathedral,,,,,,0,38,38,25,1,3,1,,,,,,,,,,,,,,,,,,,,,,,,,,,,,,,,,,,,,,,,,,,,,,,,,,,,,,,,,,,,,,,,,,,,,,,,,,,
,,,,,,,,,,stimuli/images/PICTURE_42.png,BOYS,5c872cded9fe700001024123,2020-06-30_14h47.36.058,proactive,2020.1.2,Win32,60,5efb791ed4cb570da489e737,5efb871b53898c102d13215d,1,,,,,,pear,,,,,,0,39,39,55,1,6,1,,,,,,,,,,,,,,,,,,,,,,,,,,,,,,,,,,,,,,,,,,,,,,,,,,,,,,,,,,,,,,,,,,,,,,,,,,,
,,,,,,,,,,stimuli/images/PICTURE_203.png,NIGHT,5c872cded9fe700001024123,2020-06-30_14h47.36.058,proactive,2020.1.2,Win32,60,5efb791ed4cb570da489e737,5efb871b53898c102d13215d,1,,,,,,cap,,,,,,0,40,40,2,1,1,1,,,,,,,,,,,,,,,,,,,,,,,,,,,,,,,,,,,,,,,,,,,,,,,,,,,,,,,,,,,,,,,,,,,,,,,,,,,
,,,,,,,,,,stimuli/images/PICTURE_147.png,YEAR,5c872cded9fe700001024123,2020-06-30_14h47.36.058,proactive,2020.1.2,Win32,60,5efb791ed4cb570da489e737,5efb871b53898c102d13215d,1,,,,,,hanger,,,,,,0,41,41,21,1,3,1,,,,,,,,,,,,,,,,,,,,,,,,,,,,,,,,,,,,,,,,,,,,,,,,,,,,,,,,,,,,,,,,,,,,,,,,,,,
,,,,,,,,,,stimuli/images/PICTURE_487.png,GIRL,5c872cded9fe700001024123,2020-06-30_14h47.36.058,proactive,2020.1.2,Win32,60,5efb791ed4cb570da489e737,5efb871b53898c102d13215d,1,,,,,,basket,,,,,,0,42,42,45,1,5,1,,,,,,,,,,,,,,,,,,,,,,,,,,,,,,,,,,,,,,,,,,,,,,,,,,,,,,,,,,,,,,,,,,,,,,,,,,,
,,,,,,,,,,stimuli/images/PICTURE_403.png,RIVER,5c872cded9fe700001024123,2020-06-30_14h47.36.058,proactive,2020.1.2,Win32,60,5efb791ed4cb570da489e737,5efb871b53898c102d13215d,1,,,,,,cathedral,,,,,,0,43,43,40,1,5,1,,,,,,,,,,,,,,,,,,,,,,,,,,,,,,,,,,,,,,,,,,,,,,,,,,,,,,,,,,,,,,,,,,,,,,,,,,,
,,,,,,,,,,stimuli/images/PICTURE_654.png,MONTH,5c872cded9fe700001024123,2020-06-30_14h47.36.058,proactive,2020.1.2,Win32,60,5efb791ed4cb570da489e737,5efb871b53898c102d13215d,1,,,,,,pencil,,,,,,0,44,44,29,1,3,1,,,,,,,,,,,,,,,,,,,,,,,,,,,,,,,,,,,,,,,,,,,,,,,,,,,,,,,,,,,,,,,,,,,,,,,,,,,
,,,,,,,,,,stimuli/images/PICTURE_491.png,RIVER,5c872cded9fe700001024123,2020-06-30_14h47.36.058,proactive,2020.1.2,Win32,60,5efb791ed4cb570da489e737,5efb871b53898c102d13215d,1,,,,,,rug,,,,,,0,45,45,6,1,1,1,,,,,,,,,,,,,,,,,,,,,,,,,,,,,,,,,,,,,,,,,,,,,,,,,,,,,,,,,,,,,,,,,,,,,,,,,,,
,,,,,,,,,,stimuli/images/PICTURE_383.png,WRITER,5c872cded9fe700001024123,2020-06-30_14h47.36.058,proactive,2020.1.2,Win32,60,5efb791ed4cb570da489e737,5efb871b53898c102d13215d,1,,,,,,coin,,,,,,0,46,46,28,1,3,1,,,,,,,,,,,,,,,,,,,,,,,,,,,,,,,,,,,,,,,,,,,,,,,,,,,,,,,,,,,,,,,,,,,,,,,,,,,
,,,,,,,,,,stimuli/images/PICTURE_32.png,KIND,5c872cded9fe700001024123,2020-06-30_14h47.36.058,proactive,2020.1.2,Win32,60,5efb791ed4cb570da489e737,5efb871b53898c102d13215d,1,,,,,,crown,,,,,,0,47,47,35,1,4,1,,,,,,,,,,,,,,,,,,,,,,,,,,,,,,,,,,,,,,,,,,,,,,,,,,,,,,,,,,,,,,,,,,,,,,,,,,,
,,,,,,,,,,stimuli/images/PICTURE_405.png,YEAR,5c872cded9fe700001024123,2020-06-30_14h47.36.058,proactive,2020.1.2,Win32,60,5efb791ed4cb570da489e737,5efb871b53898c102d13215d,1,,,,,,anchor,,,,,,0,48,48,34,1,4,1,,,,,,,,,,,,,,,,,,,,,,,,,,,,,,,,,,,,,,,,,,,,,,,,,,,,,,,,,,,,,,,,,,,,,,,,,,,
,,,,,,,,,,stimuli/images/PICTURE_469.png,AGENT,5c872cded9fe700001024123,2020-06-30_14h47.36.058,proactive,2020.1.2,Win32,60,5efb791ed4cb570da489e737,5efb871b53898c102d13215d,1,,,,,,stool,,,,,,0,49,49,16,1,2,1,,,,,,,,,,,,,,,,,,,,,,,,,,,,,,,,,,,,,,,,,,,,,,,,,,,,,,,,,,,,,,,,,,,,,,,,,,,
,,,,,,,,,,stimuli/images/PICTURE_285.png,LIFE,5c872cded9fe700001024123,2020-06-30_14h47.36.058,proactive,2020.1.2,Win32,60,5efb791ed4cb570da489e737,5efb871b53898c102d13215d,1,,,,,,carrot,,,,,,0,50,50,33,1,4,1,,,,,,,,,,,,,,,,,,,,,,,,,,,,,,,,,,,,,,,,,,,,,,,,,,,,,,,,,,,,,,,,,,,,,,,,,,,
,,,,,,,,,,stimuli/images/PICTURE_339.png,CLIENT,5c872cded9fe700001024123,2020-06-30_14h47.36.058,proactive,2020.1.2,Win32,60,5efb791ed4cb570da489e737,5efb871b53898c102d13215d,1,,,,,,backpack,,,,,,0,51,51,11,1,2,1,,,,,,,,,,,,,,,,,,,,,,,,,,,,,,,,,,,,,,,,,,,,,,,,,,,,,,,,,,,,,,,,,,,,,,,,,,,
,,,,,,,,,,stimuli/images/PICTURE_296.png,LIFE,5c872cded9fe700001024123,2020-06-30_14h47.36.058,proactive,2020.1.2,Win32,60,5efb791ed4cb570da489e737,5efb871b53898c102d13215d,1,,,,,,bolt,,,,,,0,52,52,57,1,6,1,,,,,,,,,,,,,,,,,,,,,,,,,,,,,,,,,,,,,,,,,,,,,,,,,,,,,,,,,,,,,,,,,,,,,,,,,,,
,,,,,,,,,,stimuli/images/PICTURE_308.png,FAMILY,5c872cded9fe700001024123,2020-06-30_14h47.36.058,proactive,2020.1.2,Win32,60,5efb791ed4cb570da489e737,5efb871b53898c102d13215d,1,,,,,,dice,,,,,,0,53,53,36,1,4,1,,,,,,,,,,,,,,,,,,,,,,,,,,,,,,,,,,,,,,,,,,,,,,,,,,,,,,,,,,,,,,,,,,,,,,,,,,,
,,,,,,,,,,stimuli/images/PICTURE_708.png,RECORD,5c872cded9fe700001024123,2020-06-30_14h47.36.058,proactive,2020.1.2,Win32,60,5efb791ed4cb570da489e737,5efb871b53898c102d13215d,1,,,,,,monkey,,,,,,0,54,54,58,1,6,1,,,,,,,,,,,,,,,,,,,,,,,,,,,,,,,,,,,,,,,,,,,,,,,,,,,,,,,,,,,,,,,,,,,,,,,,,,,
,,,,,,,,,,stimuli/images/PICTURE_327.png,CASINO,5c872cded9fe700001024123,2020-06-30_14h47.36.058,proactive,2020.1.2,Win32,60,5efb791ed4cb570da489e737,5efb871b53898c102d13215d,1,,,,,,helmet,,,,,,0,55,55,20,1,3,1,,,,,,,,,,,,,,,,,,,,,,,,,,,,,,,,,,,,,,,,,,,,,,,,,,,,,,,,,,,,,,,,,,,,,,,,,,,
,,,,,,,,,,stimuli/images/PICTURE_95.png,BOYS,5c872cded9fe700001024123,2020-06-30_14h47.36.058,proactive,2020.1.2,Win32,60,5efb791ed4cb570da489e737,5efb871b53898c102d13215d,1,,,,,,suitcase,,,,,,0,56,56,1,1,1,1,,,,,,,,,,,,,,,,,,,,,,,,,,,,,,,,,,,,,,,,,,,,,,,,,,,,,,,,,,,,,,,,,,,,,,,,,,,
,,,,,,,,,,stimuli/images/PICTURE_177.png,WRITER,5c872cded9fe700001024123,2020-06-30_14h47.36.058,proactive,2020.1.2,Win32,60,5efb791ed4cb570da489e737,5efb871b53898c102d13215d,1,,,,,,mushroom,,,,,,0,57,57,41,1,5,1,,,,,,,,,,,,,,,,,,,,,,,,,,,,,,,,,,,,,,,,,,,,,,,,,,,,,,,,,,,,,,,,,,,,,,,,,,,
,,,,,,,,,,stimuli/images/PICTURE_504.png,COPS,5c872cded9fe700001024123,2020-06-30_14h47.36.058,proactive,2020.1.2,Win32,60,5efb791ed4cb570da489e737,5efb871b53898c102d13215d,1,,,,,,wheel,,,,,,0,58,58,52,1,6,1,,,,,,,,,,,,,,,,,,,,,,,,,,,,,,,,,,,,,,,,,,,,,,,,,,,,,,,,,,,,,,,,,,,,,,,,,,,
,,?,0.004,0,,,,,,stimuli/images/PICTURE_296.png,LIFE,5c872cded9fe700001024123,2020-06-30_14h47.36.058,proactive,2020.1.2,Win32,60,5efb791ed4cb570da489e737,5efb871b53898c102d13215d,1,,,,,,bolt,,,,,,,,,,,6,1,0,0,0,57,1,,,,,,,,,,,,,,,,,,,,,,,,,,,,,,,,,,,,,,,,,,,,,,,,,,,,,,,,,,,,,,,,,,,,,,
,,?,0.003,0,,,,,,stimuli/images/PICTURE_340.png,LETTER,5c872cded9fe700001024123,2020-06-30_14h47.36.058,proactive,2020.1.2,Win32,60,5efb791ed4cb570da489e737,5efb871b53898c102d13215d,1,,,,,,mirror,,,,,,,,,,,3,1,0,1,1,24,1,,,,,,,,,,,,,,,,,,,,,,,,,,,,,,,,,,,,,,,,,,,,,,,,,,,,,,,,,,,,,,,,,,,,,,
,,?,0.003,0,,,,,,stimuli/images/PICTURE_42.png,BOYS,5c872cded9fe700001024123,2020-06-30_14h47.36.058,proactive,2020.1.2,Win32,60,5efb791ed4cb570da489e737,5efb871b53898c102d13215d,1,,,,,,pear,,,,,,,,,,,6,1,0,2,2,55,1,,,,,,,,,,,,,,,,,,,,,,,,,,,,,,,,,,,,,,,,,,,,,,,,,,,,,,,,,,,,,,,,,,,,,,
,,?,0.003,0,,,,,,stimuli/images/PICTURE_744.png,WEAPON,5c872cded9fe700001024123,2020-06-30_14h47.36.058,proactive,2020.1.2,Win32,60,5efb791ed4cb570da489e737,5efb871b53898c102d13215d,1,,,,,,ring,,,,,,,,,,,6,1,0,3,3,50,1,,,,,,,,,,,,,,,,,,,,,,,,,,,,,,,,,,,,,,,,,,,,,,,,,,,,,,,,,,,,,,,,,,,,,,
,,?,0.003,0,,,,,,stimuli/images/PICTURE_32.png,KIND,5c872cded9fe700001024123,2020-06-30_14h47.36.058,proactive,2020.1.2,Win32,60,5efb791ed4cb570da489e737,5efb871b53898c102d13215d,1,,,,,,crown,,,,,,,,,,,4,1,0,4,4,35,1,,,,,,,,,,,,,,,,,,,,,,,,,,,,,,,,,,,,,,,,,,,,,,,,,,,,,,,,,,,,,,,,,,,,,,
,,LO,10.012,0,,,,,,stimuli/images/PICTURE_296.png,LOTS,5c872cded9fe700001024123,2020-06-30_14h47.36.058,proactive,2020.1.2,Win32,60,5efb791ed4cb570da489e737,5efb871b53898c102d13215d,1,,,,,,bolt,,,,,,,,,,,1,1,0,5,5,9,1,,,,,,,,,,,,,,,,,,,,,,,,,,,,,,,,,,,,,,,,,,,,,,,,,,,,,,,,,,,,,,,,,,,,,,
,,?,0.006,0,,,,,,stimuli/images/PICTURE_308.png,FAMILY,5c872cded9fe700001024123,2020-06-30_14h47.36.058,proactive,2020.1.2,Win32,60,5efb791ed4cb570da489e737,5efb871b53898c102d13215d,1,,,,,,dice,,,,,,,,,,,4,1,0,6,6,36,1,,,,,,,,,,,,,,,,,,,,,,,,,,,,,,,,,,,,,,,,,,,,,,,,,,,,,,,,,,,,,,,,,,,,,,
,,?,0.004,0,,,,,,stimuli/images/PICTURE_95.png,MILLER,5c872cded9fe700001024123,2020-06-30_14h47.36.058,proactive,2020.1.2,Win32,60,5efb791ed4cb570da489e737,5efb871b53898c102d13215d,1,,,,,,suitcase,,,,,,,,,,,6,1,0,7,7,56,1,,,,,,,,,,,,,,,,,,,,,,,,,,,,,,,,,,,,,,,,,,,,,,,,,,,,,,,,,,,,,,,,,,,,,,
,,?,0.006,0,,,,,,stimuli/images/PICTURE_233.png,LOTS,5c872cded9fe700001024123,2020-06-30_14h47.36.058,proactive,2020.1.2,Win32,60,5efb791ed4cb570da489e737,5efb871b53898c102d13215d,1,,,,,,salt,,,,,,,,,,,5,1,0,8,8,42,1,,,,,,,,,,,,,,,,,,,,,,,,,,,,,,,,,,,,,,,,,,,,,,,,,,,,,,,,,,,,,,,,,,,,,,
,,?,0.003,0,,,,,,stimuli/images/PICTURE_491.png,GLASS,5c872cded9fe700001024123,2020-06-30_14h47.36.058,proactive,2020.1.2,Win32,60,5efb791ed4cb570da489e737,5efb871b53898c102d13215d,1,,,,,,rug,,,,,,,,,,,2,1,0,9,9,14,1,,,,,,,,,,,,,,,,,,,,,,,,,,,,,,,,,,,,,,,,,,,,,,,,,,,,,,,,,,,,,,,,,,,,,,
,,?,0.005,0,,,,,,stimuli/images/PICTURE_677.png,APPLE,5c872cded9fe700001024123,2020-06-30_14h47.36.058,proactive,2020.1.2,Win32,60,5efb791ed4cb570da489e737,5efb871b53898c102d13215d,1,,,,,,map,,,,,,,,,,,5,1,0,10,10,43,1,,,,,,,,,,,,,,,,,,,,,,,,,,,,,,,,,,,,,,,,,,,,,,,,,,,,,,,,,,,,,,,,,,,,,,
,,?,0.003,0,,,,,,stimuli/images/PICTURE_203.png,GODS,5c872cded9fe700001024123,2020-06-30_14h47.36.058,proactive,2020.1.2,Win32,60,5efb791ed4cb570da489e737,5efb871b53898c102d13215d,1,,,,,,cap,,,,,,,,,,,4,1,0,11,11,30,1,,,,,,,,,,,,,,,,,,,,,,,,,,,,,,,,,,,,,,,,,,,,,,,,,,,,,,,,,,,,,,,,,,,,,,
,,?,0.004,0,,,,,,stimuli/images/PICTURE_564.png,BATH,5c872cded9fe700001024123,2020-06-30_14h47.36.058,proactive,2020.1.2,Win32,60,5efb791ed4cb570da489e737,5efb871b53898c102d13215d,1,,,,,,spoon,,,,,,,,,,,3,1,0,12,12,26,1,,,,,,,,,,,,,,,,,,,,,,,,,,,,,,,,,,,,,,,,,,,,,,,,,,,,,,,,,,,,,,,,,,,,,,
,,?,0.002,0,,,,,,stimuli/images/PICTURE_655.png,TOILET,5c872cded9fe700001024123,2020-06-30_14h47.36.058,proactive,2020.1.2,Win32,60,5efb791ed4cb570da489e737,5efb871b53898c102d13215d,1,,,,,,megaphone,,,,,,,,,,,2,1,0,13,13,12,1,,,,,,,,,,,,,,,,,,,,,,,,,,,,,,,,,,,,,,,,,,,,,,,,,,,,,,,,,,,,,,,,,,,,,,
,,?,0.005,0,,,,,,stimuli/images/PICTURE_297.png,RIVER,5c872cded9fe700001024123,2020-06-30_14h47.36.058,proactive,2020.1.2,Win32,60,5efb791ed4cb570da489e737,5efb871b53898c102d13215d,1,,,,,,aeroplane,,,,,,,,,,,4,1,0,14,14,39,1,,,,,,,,,,,,,,,,,,,,,,,,,,,,,,,,,,,,,,,,,,,,,,,,,,,,,,,,,,,,,,,,,,,,,,
,,?,0.003,0,,,,,,stimuli/images/PICTURE_469.png,AGENT,5c872cded9fe700001024123,2020-06-30_14h47.36.058,proactive,2020.1.2,Win32,60,5efb791ed4cb570da489e737,5efb871b53898c102d13215d,1,,,,,,stool,,,,,,,,,,,2,1,0,15,15,16,1,,,,,,,,,,,,,,,,,,,,,,,,,,,,,,,,,,,,,,,,,,,,,,,,,,,,,,,,,,,,,,,,,,,,,,
,,?,0.002,0,,,,,,stimuli/images/PICTURE_405.png,PLENTY,5c872cded9fe700001024123,2020-06-30_14h47.36.058,proactive,2020.1.2,Win32,60,5efb791ed4cb570da489e737,5efb871b53898c102d13215d,1,,,,,,anchor,,,,,,,,,,,3,1,0,16,16,23,1,,,,,,,,,,,,,,,,,,,,,,,,,,,,,,,,,,,,,,,,,,,,,,,,,,,,,,,,,,,,,,,,,,,,,,
,,?,0.003,0,,,,,,stimuli/images/PICTURE_750.png,HOTEL,5c872cded9fe700001024123,2020-06-30_14h47.36.058,proactive,2020.1.2,Win32,60,5efb791ed4cb570da489e737,5efb871b53898c102d13215d,1,,,,,,kettle,,,,,,,,,,,3,1,0,17,17,27,1,,,,,,,,,,,,,,,,,,,,,,,,,,,,,,,,,,,,,,,,,,,,,,,,,,,,,,,,,,,,,,,,,,,,,,
,,?,0.003,0,,,,,,stimuli/images/PICTURE_467.png,POLICY,5c872cded9fe700001024123,2020-06-30_14h47.36.058,proactive,2020.1.2,Win32,60,5efb791ed4cb570da489e737,5efb871b53898c102d13215d,1,,,,,,peg,,,,,,,,,,,6,1,0,18,18,53,1,,,,,,,,,,,,,,,,,,,,,,,,,,,,,,,,,,,,,,,,,,,,,,,,,,,,,,,,,,,,,,,,,,,,,,
,,?,0.005,0,,,,,,stimuli/images/PICTURE_327.png,CASINO,5c872cded9fe700001024123,2020-06-30_14h47.36.058,proactive,2020.1.2,Win32,60,5efb791ed4cb570da489e737,5efb871b53898c102d13215d,1,,,,,,helmet,,,,,,,,,,,3,1,0,19,19,20,1,,,,,,,,,,,,,,,,,,,,,,,,,,,,,,,,,,,,,,,,,,,,,,,,,,,,,,,,,,,,,,,,,,,,,,
,,?,0.005,0,,,,,,stimuli/images/PICTURE_667.png,RIVER,5c872cded9fe700001024123,2020-06-30_14h47.36.058,proactive,2020.1.2,Win32,60,5efb791ed4cb570da489e737,5efb871b53898c102d13215d,1,,,,,,daisy,,,,,,,,,,,2,1,0,20,20,10,1,,,,,,,,,,,,,,,,,,,,,,,,,,,,,,,,,,,,,,,,,,,,,,,,,,,,,,,,,,,,,,,,,,,,,,
,,N,10.002,0,,,,,,stimuli/images/PICTURE_85.png,NATION,5c872cded9fe700001024123,2020-06-30_14h47.36.058,proactive,2020.1.2,Win32,60,5efb791ed4cb570da489e737,5efb871b53898c102d13215d,1,,,,,,diamond,,,,,,,,,,,1,1,0,21,21,5,1,,,,,,,,,,,,,,,,,,,,,,,,,,,,,,,,,,,,,,,,,,,,,,,,,,,,,,,,,,,,,,,,,,,,,,
,,?,0.004,0,,,,,,stimuli/images/PICTURE_380.png,HONEY,5c872cded9fe700001024123,2020-06-30_14h47.36.058,proactive,2020.1.2,Win32,60,5efb791ed4cb570da489e737,5efb871b53898c102d13215d,1,,,,,,gorilla,,,,,,,,,,,2,1,0,22,22,19,1,,,,,,,,,,,,,,,,,,,,,,,,,,,,,,,,,,,,,,,,,,,,,,,,,,,,,,,,,,,,,,,,,,,,,,
,,?,0.005,0,,,,,,stimuli/images/PICTURE_504.png,YEAR,5c872cded9fe700001024123,2020-06-30_14h47.36.058,proactive,2020.1.2,Win32,60,5efb791ed4cb570da489e737,5efb871b53898c102d13215d,1,,,,,,wheel,,,,,,,,,,,2,1,0,23,23,13,1,,,,,,,,,,,,,,,,,,,,,,,,,,,,,,,,,,,,,,,,,,,,,,,,,,,,,,,,,,,,,,,,,,,,,,
,,?,0.006,0,,,,,,stimuli/images/PICTURE_32.png,PILLS,5c872cded9fe700001024123,2020-06-30_14h47.36.058,proactive,2020.1.2,Win32,60,5efb791ed4cb570da489e737,5efb871b53898c102d13215d,1,,,,,,crown,,,,,,,,,,,2,1,0,24,24,18,1,,,,,,,,,,,,,,,,,,,,,,,,,,,,,,,,,,,,,,,,,,,,,,,,,,,,,,,,,,,,,,,,,,,,,,
,,?,0.006,0,,,,,,stimuli/images/PICTURE_449.png,DUDE,5c872cded9fe700001024123,2020-06-30_14h47.36.058,proactive,2020.1.2,Win32,60,5efb791ed4cb570da489e737,5efb871b53898c102d13215d,1,,,,,,bench,,,,,,,,,,,2,1,0,25,25,17,1,,,,,,,,,,,,,,,,,,,,,,,,,,,,,,,,,,,,,,,,,,,,,,,,,,,,,,,,,,,,,,,,,,,,,,
,,?,0.002,0,,,,,,stimuli/images/PICTURE_95.png,HONEY,5c872cded9fe700001024123,2020-06-30_14h47.36.058,proactive,2020.1.2,Win32,60,5efb791ed4cb570da489e737,5efb871b53898c102d13215d,1,,,,,,suitcase,,,,,,,,,,,5,1,0,26,26,44,1,,,,,,,,,,,,,,,,,,,,,,,,,,,,,,,,,,,,,,,,,,,,,,,,,,,,,,,,,,,,,,,,,,,,,,
,,?,0.006,0,,,,,,stimuli/images/PICTURE_504.png,COPS,5c872cded9fe700001024123,2020-06-30_14h47.36.058,proactive,2020.1.2,Win32,60,5efb791ed4cb570da489e737,5efb871b53898c102d13215d,1,,,,,,wheel,,,,,,,,,,,6,1,0,27,27,52,1,,,,,,,,,,,,,,,,,,,,,,,,,,,,,,,,,,,,,,,,,,,,,,,,,,,,,,,,,,,,,,,,,,,,,,
,,?,0.003,0,,,,,,stimuli/images/PICTURE_403.png,RIVER,5c872cded9fe700001024123,2020-06-30_14h47.36.058,proactive,2020.1.2,Win32,60,5efb791ed4cb570da489e737,5efb871b53898c102d13215d,1,,,,,,cathedral,,,,,,,,,,,5,1,0,28,28,40,1,,,,,,,,,,,,,,,,,,,,,,,,,,,,,,,,,,,,,,,,,,,,,,,,,,,,,,,,,,,,,,,,,,,,,,
,,FRIEND,10.009,1,,,,,,stimuli/images/PICTURE_33.png,FRIEND,5c872cded9fe700001024123,2020-06-30_14h47.36.058,proactive,2020.1.2,Win32,60,5efb791ed4cb570da489e737,5efb871b53898c102d13215d,1,,,,,,frame,,,,,,,,,,,1,1,0,29,29,8,1,,,,,,,,,,,,,,,,,,,,,,,,,,,,,,,,,,,,,,,,,,,,,,,,,,,,,,,,,,,,,,,,,,,,,,
,,?,0.004,0,,,,,,stimuli/images/PICTURE_2.png,FLIGHT,5c872cded9fe700001024123,2020-06-30_14h47.36.058,proactive,2020.1.2,Win32,60,5efb791ed4cb570da489e737,5efb871b53898c102d13215d,1,,,,,,tyre,,,,,,,,,,,2,1,0,30,30,15,1,,,,,,,,,,,,,,,,,,,,,,,,,,,,,,,,,,,,,,,,,,,,,,,,,,,,,,,,,,,,,,,,,,,,,,
,,?,0.005,0,,,,,,stimuli/images/PICTURE_177.png,WRITER,5c872cded9fe700001024123,2020-06-30_14h47.36.058,proactive,2020.1.2,Win32,60,5efb791ed4cb570da489e737,5efb871b53898c102d13215d,1,,,,,,mushroom,,,,,,,,,,,5,1,0,31,31,41,1,,,,,,,,,,,,,,,,,,,,,,,,,,,,,,,,,,,,,,,,,,,,,,,,,,,,,,,,,,,,,,,,,,,,,,
,,?,0.006,0,,,,,,stimuli/images/PICTURE_340.png,VALLEY,5c872cded9fe700001024123,2020-06-30_14h47.36.058,proactive,2020.1.2,Win32,60,5efb791ed4cb570da489e737,5efb871b53898c102d13215d,1,,,,,,mirror,,,,,,,,,,,6,1,0,32,32,54,1,,,,,,,,,,,,,,,,,,,,,,,,,,,,,,,,,,,,,,,,,,,,,,,,,,,,,,,,,,,,,,,,,,,,,,
,,?,0.008,0,,,,,,stimuli/images/PICTURE_108.png,POLICY,5c872cded9fe700001024123,2020-06-30_14h47.36.058,proactive,2020.1.2,Win32,60,5efb791ed4cb570da489e737,5efb871b53898c102d13215d,1,,,,,,calendar,,,,,,,,,,,3,1,0,33,33,22,1,,,,,,,,,,,,,,,,,,,,,,,,,,,,,,,,,,,,,,,,,,,,,,,,,,,,,,,,,,,,,,,,,,,,,,
,,?,0.005,0,,,,,,stimuli/images/PICTURE_504.png,ARTIST,5c872cded9fe700001024123,2020-06-30_14h47.36.058,proactive,2020.1.2,Win32,60,5efb791ed4cb570da489e737,5efb871b53898c102d13215d,1,,,,,,wheel,,,,,,,,,,,5,1,0,34,34,49,1,,,,,,,,,,,,,,,,,,,,,,,,,,,,,,,,,,,,,,,,,,,,,,,,,,,,,,,,,,,,,,,,,,,,,,
,,?,0.002,0,,,,,,stimuli/images/PICTURE_339.png,CLIENT,5c872cded9fe700001024123,2020-06-30_14h47.36.058,proactive,2020.1.2,Win32,60,5efb791ed4cb570da489e737,5efb871b53898c102d13215d,1,,,,,,backpack,,,,,,,,,,,2,1,0,35,35,11,1,,,,,,,,,,,,,,,,,,,,,,,,,,,,,,,,,,,,,,,,,,,,,,,,,,,,,,,,,,,,,,,,,,,,,,
,,WOMEN,10.016,1,,,,,,stimuli/images/PICTURE_147.png,WOMEN,5c872cded9fe700001024123,2020-06-30_14h47.36.058,proactive,2020.1.2,Win32,60,5efb791ed4cb570da489e737,5efb871b53898c102d13215d,1,,,,,,hanger,,,,,,,,,,,1,1,0,36,36,7,1,,,,,,,,,,,,,,,,,,,,,,,,,,,,,,,,,,,,,,,,,,,,,,,,,,,,,,,,,,,,,,,,,,,,,,
,,?,0.007,0,,,,,,stimuli/images/PICTURE_487.png,GIRL,5c872cded9fe700001024123,2020-06-30_14h47.36.058,proactive,2020.1.2,Win32,60,5efb791ed4cb570da489e737,5efb871b53898c102d13215d,1,,,,,,basket,,,,,,,,,,,5,1,0,37,37,45,1,,,,,,,,,,,,,,,,,,,,,,,,,,,,,,,,,,,,,,,,,,,,,,,,,,,,,,,,,,,,,,,,,,,,,,
,,?,0.005,0,,,,,,stimuli/images/PICTURE_383.png,WRITER,5c872cded9fe700001024123,2020-06-30_14h47.36.058,proactive,2020.1.2,Win32,60,5efb791ed4cb570da489e737,5efb871b53898c102d13215d,1,,,,,,coin,,,,,,,,,,,3,1,0,38,38,28,1,,,,,,,,,,,,,,,,,,,,,,,,,,,,,,,,,,,,,,,,,,,,,,,,,,,,,,,,,,,,,,,,,,,,,,
,,RIVER,10.004,1,,,,,,stimuli/images/PICTURE_491.png,RIVER,5c872cded9fe700001024123,2020-06-30_14h47.36.058,proactive,2020.1.2,Win32,60,5efb791ed4cb570da489e737,5efb871b53898c102d13215d,1,,,,,,rug,,,,,,,,,,,1,1,0,39,39,6,1,,,,,,,,,,,,,,,,,,,,,,,,,,,,,,,,,,,,,,,,,,,,,,,,,,,,,,,,,,,,,,,,,,,,,,
,,?,0.003,0,,,,,,stimuli/images/PICTURE_405.png,YEAR,5c872cded9fe700001024123,2020-06-30_14h47.36.058,proactive,2020.1.2,Win32,60,5efb791ed4cb570da489e737,5efb871b53898c102d13215d,1,,,,,,anchor,,,,,,,,,,,4,1,0,40,40,34,1,,,,,,,,,,,,,,,,,,,,,,,,,,,,,,,,,,,,,,,,,,,,,,,,,,,,,,,,,,,,,,,,,,,,,,
,,CANDY,10.007,1,,,,,,stimuli/images/PICTURE_380.png,CANDY,5c872cded9fe700001024123,2020-06-30_14h47.36.058,proactive,2020.1.2,Win32,60,5efb791ed4cb570da489e737,5efb871b53898c102d13215d,1,,,,,,gorilla,,,,,,,,,,,1,1,0,41,41,0,1,,,,,,,,,,,,,,,,,,,,,,,,,,,,,,,,,,,,,,,,,,,,,,,,,,,,,,,,,,,,,,,,,,,,,,
,,BOYS,10.019,0,,,,,,stimuli/images/PICTURE_203.png,NIGHT,5c872cded9fe700001024123,2020-06-30_14h47.36.058,proactive,2020.1.2,Win32,60,5efb791ed4cb570da489e737,5efb871b53898c102d13215d,1,,,,,,cap,,,,,,,,,,,1,1,0,42,42,2,1,,,,,,,,,,,,,,,,,,,,,,,,,,,,,,,,,,,,,,,,,,,,,,,,,,,,,,,,,,,,,,,,,,,,,,
,,SERIES,10.018,0,,,,,,stimuli/images/PICTURE_685.png,PENNY,5c872cded9fe700001024123,2020-06-30_14h47.36.058,proactive,2020.1.2,Win32,60,5efb791ed4cb570da489e737,5efb871b53898c102d13215d,1,,,,,,goose,,,,,,,,,,,1,1,0,43,43,4,1,,,,,,,,,,,,,,,,,,,,,,,,,,,,,,,,,,,,,,,,,,,,,,,,,,,,,,,,,,,,,,,,,,,,,,
,,?,0.004,0,,,,,,stimuli/images/PICTURE_85.png,TOILET,5c872cded9fe700001024123,2020-06-30_14h47.36.058,proactive,2020.1.2,Win32,60,5efb791ed4cb570da489e737,5efb871b53898c102d13215d,1,,,,,,diamond,,,,,,,,,,,5,1,0,44,44,48,1,,,,,,,,,,,,,,,,,,,,,,,,,,,,,,,,,,,,,,,,,,,,,,,,,,,,,,,,,,,,,,,,,,,,,,
,,?,0.009,0,,,,,,stimuli/images/PICTURE_57.png,MOMENT,5c872cded9fe700001024123,2020-06-30_14h47.36.058,proactive,2020.1.2,Win32,60,5efb791ed4cb570da489e737,5efb871b53898c102d13215d,1,,,,,,stamp,,,,,,,,,,,4,1,0,45,45,37,1,,,,,,,,,,,,,,,,,,,,,,,,,,,,,,,,,,,,,,,,,,,,,,,,,,,,,,,,,,,,,,,,,,,,,,
,,?,0.005,0,,,,,,stimuli/images/PICTURE_403.png,WRITER,5c872cded9fe700001024123,2020-06-30_14h47.36.058,proactive,2020.1.2,Win32,60,5efb791ed4cb570da489e737,5efb871b53898c102d13215d,1,,,,,,cathedral,,,,,,,,,,,4,1,0,46,46,31,1,,,,,,,,,,,,,,,,,,,,,,,,,,,,,,,,,,,,,,,,,,,,,,,,,,,,,,,,,,,,,,,,,,,,,,
,,?,0.003,0,,,,,,stimuli/images/PICTURE_403.png,TOILET,5c872cded9fe700001024123,2020-06-30_14h47.36.058,proactive,2020.1.2,Win32,60,5efb791ed4cb570da489e737,5efb871b53898c102d13215d,1,,,,,,cathedral,,,,,,,,,,,3,1,0,47,47,25,1,,,,,,,,,,,,,,,,,,,,,,,,,,,,,,,,,,,,,,,,,,,,,,,,,,,,,,,,,,,,,,,,,,,,,,
,,?,0.004,0,,,,,,stimuli/images/PICTURE_68.png,MILE,5c872cded9fe700001024123,2020-06-30_14h47.36.058,proactive,2020.1.2,Win32,60,5efb791ed4cb570da489e737,5efb871b53898c102d13215d,1,,,,,,candle,,,,,,,,,,,6,1,0,48,48,51,1,,,,,,,,,,,,,,,,,,,,,,,,,,,,,,,,,,,,,,,,,,,,,,,,,,,,,,,,,,,,,,,,,,,,,,
,,NIGHT,10.014,0,,,,,,stimuli/images/PICTURE_95.png,BOYS,5c872cded9fe700001024123,2020-06-30_14h47.36.058,proactive,2020.1.2,Win32,60,5efb791ed4cb570da489e737,5efb871b53898c102d13215d,1,,,,,,suitcase,,,,,,,,,,,1,1,0,49,49,1,1,,,,,,,,,,,,,,,,,,,,,,,,,,,,,,,,,,,,,,,,,,,,,,,,,,,,,,,,,,,,,,,,,,,,,,
,,?,0.004,0,,,,,,stimuli/images/PICTURE_208.png,SYSTEM,5c872cded9fe700001024123,2020-06-30_14h47.36.058,proactive,2020.1.2,Win32,60,5efb791ed4cb570da489e737,5efb871b53898c102d13215d,1,,,,,,microphone,,,,,,,,,,,4,1,0,50,50,32,1,,,,,,,,,,,,,,,,,,,,,,,,,,,,,,,,,,,,,,,,,,,,,,,,,,,,,,,,,,,,,,,,,,,,,,
,,RIVER,10.012,0,,,,,,stimuli/images/PICTURE_327.png,SERIES,5c872cded9fe700001024123,2020-06-30_14h47.36.058,proactive,2020.1.2,Win32,60,5efb791ed4cb570da489e737,5efb871b53898c102d13215d,1,,,,,,helmet,,,,,,,,,,,1,1,0,51,51,3,1,,,,,,,,,,,,,,,,,,,,,,,,,,,,,,,,,,,,,,,,,,,,,,,,,,,,,,,,,,,,,,,,,,,,,,
,,?,0.007,0,,,,,,stimuli/images/PICTURE_383.png,SERIES,5c872cded9fe700001024123,2020-06-30_14h47.36.058,proactive,2020.1.2,Win32,60,5efb791ed4cb570da489e737,5efb871b53898c102d13215d,1,,,,,,coin,,,,,,,,,,,5,1,0,52,52,46,1,,,,,,,,,,,,,,,,,,,,,,,,,,,,,,,,,,,,,,,,,,,,,,,,,,,,,,,,,,,,,,,,,,,,,,
,,?,0.008,0,,,,,,stimuli/images/PICTURE_708.png,RECORD,5c872cded9fe700001024123,2020-06-30_14h47.36.058,proactive,2020.1.2,Win32,60,5efb791ed4cb570da489e737,5efb871b53898c102d13215d,1,,,,,,monkey,,,,,,,,,,,6,1,0,53,53,58,1,,,,,,,,,,,,,,,,,,,,,,,,,,,,,,,,,,,,,,,,,,,,,,,,,,,,,,,,,,,,,,,,,,,,,,
,,?,0.006,0,,,,,,stimuli/images/PICTURE_285.png,LIFE,5c872cded9fe700001024123,2020-06-30_14h47.36.058,proactive,2020.1.2,Win32,60,5efb791ed4cb570da489e737,5efb871b53898c102d13215d,1,,,,,,carrot,,,,,,,,,,,4,1,0,54,54,33,1,,,,,,,,,,,,,,,,,,,,,,,,,,,,,,,,,,,,,,,,,,,,,,,,,,,,,,,,,,,,,,,,,,,,,,
,,?,0.005,0,,,,,,stimuli/images/PICTURE_675.png,SALE,5c872cded9fe700001024123,2020-06-30_14h47.36.058,proactive,2020.1.2,Win32,60,5efb791ed4cb570da489e737,5efb871b53898c102d13215d,1,,,,,,windmill,,,,,,,,,,,5,1,0,55,55,47,1,,,,,,,,,,,,,,,,,,,,,,,,,,,,,,,,,,,,,,,,,,,,,,,,,,,,,,,,,,,,,,,,,,,,,,
,,?,0.005,0,,,,,,stimuli/images/PICTURE_108.png,FLIGHT,5c872cded9fe700001024123,2020-06-30_14h47.36.058,proactive,2020.1.2,Win32,60,5efb791ed4cb570da489e737,5efb871b53898c102d13215d,1,,,,,,calendar,,,,,,,,,,,6,1,0,56,56,59,1,,,,,,,,,,,,,,,,,,,,,,,,,,,,,,,,,,,,,,,,,,,,,,,,,,,,,,,,,,,,,,,,,,,,,,
,,?,0.005,0,,,,,,stimuli/images/PICTURE_68.png,ROOF,5c872cded9fe700001024123,2020-06-30_14h47.36.058,proactive,2020.1.2,Win32,60,5efb791ed4cb570da489e737,5efb871b53898c102d13215d,1,,,,,,candle,,,,,,,,,,,4,1,0,57,57,38,1,,,,,,,,,,,,,,,,,,,,,,,,,,,,,,,,,,,,,,,,,,,,,,,,,,,,,,,,,,,,,,,,,,,,,,
,,?,0.007,0,,,,,,stimuli/images/PICTURE_147.png,YEAR,5c872cded9fe700001024123,2020-06-30_14h47.36.058,proactive,2020.1.2,Win32,60,5efb791ed4cb570da489e737,5efb871b53898c102d13215d,1,,,,,,hanger,,,,,,,,,,,3,1,0,58,58,21,1,,,,,,,,,,,,,,,,,,,,,,,,,,,,,,,,,,,,,,,,,,,,,,,,,,,,,,,,,,,,,,,,,,,,,,
,,?,0.004,0,,,,,,stimuli/images/PICTURE_654.png,MONTH,5c872cded9fe700001024123,2020-06-30_14h47.36.058,proactive,2020.1.2,Win32,60,5efb791ed4cb570da489e737,5efb871b53898c102d13215d,1,,,,,,pencil,,,,,,,,,,,3,1,0,59,59,29,1,,,,,,,,,,,,,,,,,,,,,,,,,,,,,,,,,,,,,,,,,,,,,,,,,,,,,,,,,,,,,,,,,,,,,,
,,,,,,,,,,,,5c872cded9fe700001024123,2020-06-30_14h47.36.058,proactive,2020.1.2,Win32,60,5efb791ed4cb570da489e737,5efb871b53898c102d13215d,1,,,,,,,,,,,,,,,,,,,,,,,,0,1,1,1,1,stimuli/learn-block2.csv,,,,,,,,,,,,,,,,,,,,,,,,,,,,,,,,,,,,,,,,,,,,,,,,,,,,,,,,,,,,,,,,
,,,,,,,,,,stimuli/images/PICTURE_654.png,VALLEY,5c872cded9fe700001024123,2020-06-30_14h47.36.058,proactive,2020.1.2,Win32,60,5efb791ed4cb570da489e737,5efb871b53898c102d13215d,1,,,,,,pencil,,,,,,0,0,0,1,1,1,0,,,,,,,,,,,,,,,,,,,,,,,,,,,,,,,,,,,,,,,,,,,,,,,,,,,,,,,,,,,,,,,,,,,,,,,,,,,
,,,,,,,,,,stimuli/images/PICTURE_208.png,LOTS,5c872cded9fe700001024123,2020-06-30_14h47.36.058,proactive,2020.1.2,Win32,60,5efb791ed4cb570da489e737,5efb871b53898c102d13215d,1,,,,,,microphone,,,,,,0,1,1,10,1,2,0,,,,,,,,,,,,,,,,,,,,,,,,,,,,,,,,,,,,,,,,,,,,,,,,,,,,,,,,,,,,,,,,,,,,,,,,,,,
,,,,,,,,,,stimuli/images/PICTURE_208.png,THING,5c872cded9fe700001024123,2020-06-30_14h47.36.058,proactive,2020.1.2,Win32,60,5efb791ed4cb570da489e737,5efb871b53898c102d13215d,1,,,,,,microphone,,,,,,0,2,2,47,1,5,0,,,,,,,,,,,,,,,,,,,,,,,,,,,,,,,,,,,,,,,,,,,,,,,,,,,,,,,,,,,,,,,,,,,,,,,,,,,
,,,,,,,,,,stimuli/images/PICTURE_356.png,DANGER,5c872cded9fe700001024123,2020-06-30_14h47.36.058,proactive,2020.1.2,Win32,60,5efb791ed4cb570da489e737,5efb871b53898c102d13215d,1,,,,,,pawn,,,,,,0,3,3,55,1,6,0,,,,,,,,,,,,,,,,,,,,,,,,,,,,,,,,,,,,,,,,,,,,,,,,,,,,,,,,,,,,,,,,,,,,,,,,,,,
,,,,,,,,,,stimuli/images/PICTURE_95.png,STYLE,5c872cded9fe700001024123,2020-06-30_14h47.36.058,proactive,2020.1.2,Win32,60,5efb791ed4cb570da489e737,5efb871b53898c102d13215d,1,,,,,,suitcase,,,,,,0,4,4,25,1,3,0,,,,,,,,,,,,,,,,,,,,,,,,,,,,,,,,,,,,,,,,,,,,,,,,,,,,,,,,,,,,,,,,,,,,,,,,,,,
,,,,,,,,,,stimuli/images/PICTURE_677.png,MILE,5c872cded9fe700001024123,2020-06-30_14h47.36.058,proactive,2020.1.2,Win32,60,5efb791ed4cb570da489e737,5efb871b53898c102d13215d,1,,,,,,map,,,,,,0,5,5,30,1,4,0,,,,,,,,,,,,,,,,,,,,,,,,,,,,,,,,,,,,,,,,,,,,,,,,,,,,,,,,,,,,,,,,,,,,,,,,,,,
,,,,,,,,,,stimuli/images/PICTURE_491.png,WRITER,5c872cded9fe700001024123,2020-06-30_14h47.36.058,proactive,2020.1.2,Win32,60,5efb791ed4cb570da489e737,5efb871b53898c102d13215d,1,,,,,,rug,,,,,,0,6,6,57,1,6,0,,,,,,,,,,,,,,,,,,,,,,,,,,,,,,,,,,,,,,,,,,,,,,,,,,,,,,,,,,,,,,,,,,,,,,,,,,,
,,,,,,,,,,stimuli/images/PICTURE_215.png,PLENTY,5c872cded9fe700001024123,2020-06-30_14h47.36.058,proactive,2020.1.2,Win32,60,5efb791ed4cb570da489e737,5efb871b53898c102d13215d,1,,,,,,boot,,,,,,0,7,7,37,1,4,0,,,,,,,,,,,,,,,,,,,,,,,,,,,,,,,,,,,,,,,,,,,,,,,,,,,,,,,,,,,,,,,,,,,,,,,,,,,
,,,,,,,,,,stimuli/images/PICTURE_147.png,MOMENT,5c872cded9fe700001024123,2020-06-30_14h47.36.058,proactive,2020.1.2,Win32,60,5efb791ed4cb570da489e737,5efb871b53898c102d13215d,1,,,,,,hanger,,,,,,0,8,8,51,1,6,0,,,,,,,,,,,,,,,,,,,,,,,,,,,,,,,,,,,,,,,,,,,,,,,,,,,,,,,,,,,,,,,,,,,,,,,,,,,
,,,,,,,,,,stimuli/images/PICTURE_248.png,DOZEN,5c872cded9fe700001024123,2020-06-30_14h47.36.058,proactive,2020.1.2,Win32,60,5efb791ed4cb570da489e737,5efb871b53898c102d13215d,1,,,,,,cart,,,,,,0,9,9,39,1,4,0,,,,,,,,,,,,,,,,,,,,,,,,,,,,,,,,,,,,,,,,,,,,,,,,,,,,,,,,,,,,,,,,,,,,,,,,,,,
,,,,,,,,,,stimuli/images/PICTURE_348.png,SPEECH,5c872cded9fe700001024123,2020-06-30_14h47.36.058,proactive,2020.1.2,Win32,60,5efb791ed4cb570da489e737,5efb871b53898c102d13215d,1,,,,,,pepper,,,,,,0,10,10,20,1,3,0,,,,,,,,,,,,,,,,,,,,,,,,,,,,,,,,,,,,,,,,,,,,,,,,,,,,,,,,,,,,,,,,,,,,,,,,,,,
,,,,,,,,,,stimuli/images/PICTURE_151.png,GIRL,5c872cded9fe700001024123,2020-06-30_14h47.36.058,proactive,2020.1.2,Win32,60,5efb791ed4cb570da489e737,5efb871b53898c102d13215d,1,,,,,,tray,,,,,,0,11,11,19,1,2,0,,,,,,,,,,,,,,,,,,,,,,,,,,,,,,,,,,,,,,,,,,,,,,,,,,,,,,,,,,,,,,,,,,,,,,,,,,,
,,,,,,,,,,stimuli/images/PICTURE_208.png,MONTH,5c872cded9fe700001024123,2020-06-30_14h47.36.058,proactive,2020.1.2,Win32,60,5efb791ed4cb570da489e737,5efb871b53898c102d13215d,1,,,,,,microphone,,,,,,0,12,12,53,1,6,0,,,,,,,,,,,,,,,,,,,,,,,,,,,,,,,,,,,,,,,,,,,,,,,,,,,,,,,,,,,,,,,,,,,,,,,,,,,
,,,,,,,,,,stimuli/images/PICTURE_688.png,WOMEN,5c872cded9fe700001024123,2020-06-30_14h47.36.058,proactive,2020.1.2,Win32,60,5efb791ed4cb570da489e737,5efb871b53898c102d13215d,1,,,,,,runner,,,,,,0,13,13,14,1,2,0,,,,,,,,,,,,,,,,,,,,,,,,,,,,,,,,,,,,,,,,,,,,,,,,,,,,,,,,,,,,,,,,,,,,,,,,,,,
,,,,,,,,,,stimuli/images/PICTURE_453.png,PLENTY,5c872cded9fe700001024123,2020-06-30_14h47.36.058,proactive,2020.1.2,Win32,60,5efb791ed4cb570da489e737,5efb871b53898c102d13215d,1,,,,,,scissors,,,,,,0,14,14,56,1,6,0,,,,,,,,,,,,,,,,,,,,,,,,,,,,,,,,,,,,,,,,,,,,,,,,,,,,,,,,,,,,,,,,,,,,,,,,,,,
,,,,,,,,,,stimuli/images/PICTURE_123.png,ADVICE,5c872cded9fe700001024123,2020-06-30_14h47.36.058,proactive,2020.1.2,Win32,60,5efb791ed4cb570da489e737,5efb871b53898c102d13215d,1,,,,,,dart,,,,,,0,15,15,50,1,6,0,,,,,,,,,,,,,,,,,,,,,,,,,,,,,,,,,,,,,,,,,,,,,,,,,,,,,,,,,,,,,,,,,,,,,,,,,,,
,,,,,,,,,,stimuli/images/PICTURE_744.png,SAKE,5c872cded9fe700001024123,2020-06-30_14h47.36.058,proactive,2020.1.2,Win32,60,5efb791ed4cb570da489e737,5efb871b53898c102d13215d,1,,,,,,ring,,,,,,0,16,16,17,1,2,0,,,,,,,,,,,,,,,,,,,,,,,,,,,,,,,,,,,,,,,,,,,,,,,,,,,,,,,,,,,,,,,,,,,,,,,,,,,
,,,,,,,,,,stimuli/images/PICTURE_160.png,FEET,5c872cded9fe700001024123,2020-06-30_14h47.36.058,proactive,2020.1.2,Win32,60,5efb791ed4cb570da489e737,5efb871b53898c102d13215d,1,,,,,,wheelbarrow,,,,,,0,17,17,58,1,6,0,,,,,,,,,,,,,,,,,,,,,,,,,,,,,,,,,,,,,,,,,,,,,,,,,,,,,,,,,,,,,,,,,,,,,,,,,,,
,,,,,,,,,,stimuli/images/PICTURE_487.png,FLIGHT,5c872cded9fe700001024123,2020-06-30_14h47.36.058,proactive,2020.1.2,Win32,60,5efb791ed4cb570da489e737,5efb871b53898c102d13215d,1,,,,,,basket,,,,,,0,18,18,9,1,1,0,,,,,,,,,,,,,,,,,,,,,,,,,,,,,,,,,,,,,,,,,,,,,,,,,,,,,,,,,,,,,,,,,,,,,,,,,,,
,,,,,,,,,,stimuli/images/PICTURE_308.png,KIND,5c872cded9fe700001024123,2020-06-30_14h47.36.058,proactive,2020.1.2,Win32,60,5efb791ed4cb570da489e737,5efb871b53898c102d13215d,1,,,,,,dice,,,,,,0,19,19,54,1,6,0,,,,,,,,,,,,,,,,,,,,,,,,,,,,,,,,,,,,,,,,,,,,,,,,,,,,,,,,,,,,,,,,,,,,,,,,,,,
,,,,,,,,,,stimuli/images/PICTURE_449.png,THING,5c872cded9fe700001024123,2020-06-30_14h47.36.058,proactive,2020.1.2,Win32,60,5efb791ed4cb570da489e737,5efb871b53898c102d13215d,1,,,,,,bench,,,,,,0,20,20,59,1,6,0,,,,,,,,,,,,,,,,,,,,,,,,,,,,,,,,,,,,,,,,,,,,,,,,,,,,,,,,,,,,,,,,,,,,,,,,,,,
,,,,,,,,,,stimuli/images/PICTURE_285.png,ADVICE,5c872cded9fe700001024123,2020-06-30_14h47.36.058,proactive,2020.1.2,Win32,60,5efb791ed4cb570da489e737,5efb871b53898c102d13215d,1,,,,,,carrot,,,,,,0,21,21,12,1,2,0,,,,,,,,,,,,,,,,,,,,,,,,,,,,,,,,,,,,,,,,,,,,,,,,,,,,,,,,,,,,,,,,,,,,,,,,,,,
,,,,,,,,,,stimuli/images/PICTURE_708.png,PENNY,5c872cded9fe700001024123,2020-06-30_14h47.36.058,proactive,2020.1.2,Win32,60,5efb791ed4cb570da489e737,5efb871b53898c102d13215d,1,,,,,,monkey,,,,,,0,22,22,31,1,4,0,,,,,,,,,,,,,,,,,,,,,,,,,,,,,,,,,,,,,,,,,,,,,,,,,,,,,,,,,,,,,,,,,,,,,,,,,,,
,,,,,,,,,,stimuli/images/PICTURE_327.png,BEAUTY,5c872cded9fe700001024123,2020-06-30_14h47.36.058,proactive,2020.1.2,Win32,60,5efb791ed4cb570da489e737,5efb871b53898c102d13215d,1,,,,,,helmet,,,,,,0,23,23,48,1,5,0,,,,,,,,,,,,,,,,,,,,,,,,,,,,,,,,,,,,,,,,,,,,,,,,,,,,,,,,,,,,,,,,,,,,,,,,,,,
,,,,,,,,,,stimuli/images/PICTURE_308.png,ESTATE,5c872cded9fe700001024123,2020-06-30_14h47.36.058,proactive,2020.1.2,Win32,60,5efb791ed4cb570da489e737,5efb871b53898c102d13215d,1,,,,,,dice,,,,,,0,24,24,46,1,5,0,,,,,,,,,,,,,,,,,,,,,,,,,,,,,,,,,,,,,,,,,,,,,,,,,,,,,,,,,,,,,,,,,,,,,,,,,,,
,,,,,,,,,,stimuli/images/PICTURE_692.png,MONTH,5c872cded9fe700001024123,2020-06-30_14h47.36.058,proactive,2020.1.2,Win32,60,5efb791ed4cb570da489e737,5efb871b53898c102d13215d,1,,,,,,cherry,,,,,,0,25,25,16,1,2,0,,,,,,,,,,,,,,,,,,,,,,,,,,,,,,,,,,,,,,,,,,,,,,,,,,,,,,,,,,,,,,,,,,,,,,,,,,,
,,,,,,,,,,stimuli/images/PICTURE_708.png,YARD,5c872cded9fe700001024123,2020-06-30_14h47.36.058,proactive,2020.1.2,Win32,60,5efb791ed4cb570da489e737,5efb871b53898c102d13215d,1,,,,,,monkey,,,,,,0,26,26,29,1,3,0,,,,,,,,,,,,,,,,,,,,,,,,,,,,,,,,,,,,,,,,,,,,,,,,,,,,,,,,,,,,,,,,,,,,,,,,,,,
,,,,,,,,,,stimuli/images/PICTURE_339.png,PLENTY,5c872cded9fe700001024123,2020-06-30_14h47.36.058,proactive,2020.1.2,Win32,60,5efb791ed4cb570da489e737,5efb871b53898c102d13215d,1,,,,,,backpack,,,,,,0,27,27,0,1,1,0,,,,,,,,,,,,,,,,,,,,,,,,,,,,,,,,,,,,,,,,,,,,,,,,,,,,,,,,,,,,,,,,,,,,,,,,,,,
,,,,,,,,,,stimuli/images/PICTURE_470.png,CASINO,5c872cded9fe700001024123,2020-06-30_14h47.36.058,proactive,2020.1.2,Win32,60,5efb791ed4cb570da489e737,5efb871b53898c102d13215d,1,,,,,,motorbike,,,,,,0,28,28,36,1,4,0,,,,,,,,,,,,,,,,,,,,,,,,,,,,,,,,,,,,,,,,,,,,,,,,,,,,,,,,,,,,,,,,,,,,,,,,,,,
,,,,,,,,,,stimuli/images/PICTURE_314.png,SAKE,5c872cded9fe700001024123,2020-06-30_14h47.36.058,proactive,2020.1.2,Win32,60,5efb791ed4cb570da489e737,5efb871b53898c102d13215d,1,,,,,,perfume,,,,,,0,29,29,7,1,1,0,,,,,,,,,,,,,,,,,,,,,,,,,,,,,,,,,,,,,,,,,,,,,,,,,,,,,,,,,,,,,,,,,,,,,,,,,,,
,,,,,,,,,,stimuli/images/PICTURE_311.png,FRIEND,5c872cded9fe700001024123,2020-06-30_14h47.36.058,proactive,2020.1.2,Win32,60,5efb791ed4cb570da489e737,5efb871b53898c102d13215d,1,,,,,,razor,,,,,,0,30,30,34,1,4,0,,,,,,,,,,,,,,,,,,,,,,,,,,,,,,,,,,,,,,,,,,,,,,,,,,,,,,,,,,,,,,,,,,,,,,,,,,,
,,,,,,,,,,stimuli/images/PICTURE_233.png,WOMEN,5c872cded9fe700001024123,2020-06-30_14h47.36.058,proactive,2020.1.2,Win32,60,5efb791ed4cb570da489e737,5efb871b53898c102d13215d,1,,,,,,salt,,,,,,0,31,31,38,1,4,0,,,,,,,,,,,,,,,,,,,,,,,,,,,,,,,,,,,,,,,,,,,,,,,,,,,,,,,,,,,,,,,,,,,,,,,,,,,
,,,,,,,,,,stimuli/images/PICTURE_488.png,STYLE,5c872cded9fe700001024123,2020-06-30_14h47.36.058,proactive,2020.1.2,Win32,60,5efb791ed4cb570da489e737,5efb871b53898c102d13215d,1,,,,,,sun,,,,,,0,32,32,33,1,4,0,,,,,,,,,,,,,,,,,,,,,,,,,,,,,,,,,,,,,,,,,,,,,,,,,,,,,,,,,,,,,,,,,,,,,,,,,,,
,,,,,,,,,,stimuli/images/PICTURE_509.png,PHOTO,5c872cded9fe700001024123,2020-06-30_14h47.36.058,proactive,2020.1.2,Win32,60,5efb791ed4cb570da489e737,5efb871b53898c102d13215d,1,,,,,,telephone,,,,,,0,33,33,21,1,3,0,,,,,,,,,,,,,,,,,,,,,,,,,,,,,,,,,,,,,,,,,,,,,,,,,,,,,,,,,,,,,,,,,,,,,,,,,,,
,,,,,,,,,,stimuli/images/PICTURE_233.png,IDEAS,5c872cded9fe700001024123,2020-06-30_14h47.36.058,proactive,2020.1.2,Win32,60,5efb791ed4cb570da489e737,5efb871b53898c102d13215d,1,,,,,,salt,,,,,,0,34,34,28,1,3,0,,,,,,,,,,,,,,,,,,,,,,,,,,,,,,,,,,,,,,,,,,,,,,,,,,,,,,,,,,,,,,,,,,,,,,,,,,,
,,,,,,,,,,stimuli/images/PICTURE_504.png,BODY,5c872cded9fe700001024123,2020-06-30_14h47.36.058,proactive,2020.1.2,Win32,60,5efb791ed4cb570da489e737,5efb871b53898c102d13215d,1,,,,,,wheel,,,,,,0,35,35,8,1,1,0,,,,,,,,,,,,,,,,,,,,,,,,,,,,,,,,,,,,,,,,,,,,,,,,,,,,,,,,,,,,,,,,,,,,,,,,,,,
,,,,,,,,,,stimuli/images/PICTURE_85.png,THING,5c872cded9fe700001024123,2020-06-30_14h47.36.058,proactive,2020.1.2,Win32,60,5efb791ed4cb570da489e737,5efb871b53898c102d13215d,1,,,,,,diamond,,,,,,0,36,36,15,1,2,0,,,,,,,,,,,,,,,,,,,,,,,,,,,,,,,,,,,,,,,,,,,,,,,,,,,,,,,,,,,,,,,,,,,,,,,,,,,
,,,,,,,,,,stimuli/images/PICTURE_311.png,BEAUTY,5c872cded9fe700001024123,2020-06-30_14h47.36.058,proactive,2020.1.2,Win32,60,5efb791ed4cb570da489e737,5efb871b53898c102d13215d,1,,,,,,razor,,,,,,0,37,37,13,1,2,0,,,,,,,,,,,,,,,,,,,,,,,,,,,,,,,,,,,,,,,,,,,,,,,,,,,,,,,,,,,,,,,,,,,,,,,,,,,
,,,,,,,,,,stimuli/images/PICTURE_68.png,MILE,5c872cded9fe700001024123,2020-06-30_14h47.36.058,proactive,2020.1.2,Win32,60,5efb791ed4cb570da489e737,5efb871b53898c102d13215d,1,,,,,,candle,,,,,,0,38,38,44,1,5,0,,,,,,,,,,,,,,,,,,,,,,,,,,,,,,,,,,,,,,,,,,,,,,,,,,,,,,,,,,,,,,,,,,,,,,,,,,,
,,,,,,,,,,stimuli/images/PICTURE_708.png,CLIENT,5c872cded9fe700001024123,2020-06-30_14h47.36.058,proactive,2020.1.2,Win32,60,5efb791ed4cb570da489e737,5efb871b53898c102d13215d,1,,,,,,monkey,,,,,,0,39,39,5,1,1,0,,,,,,,,,,,,,,,,,,,,,,,,,,,,,,,,,,,,,,,,,,,,,,,,,,,,,,,,,,,,,,,,,,,,,,,,,,,
,,,,,,,,,,stimuli/images/PICTURE_32.png,JUNGLE,5c872cded9fe700001024123,2020-06-30_14h47.36.058,proactive,2020.1.2,Win32,60,5efb791ed4cb570da489e737,5efb871b53898c102d13215d,1,,,,,,crown,,,,,,0,40,40,45,1,5,0,,,,,,,,,,,,,,,,,,,,,,,,,,,,,,,,,,,,,,,,,,,,,,,,,,,,,,,,,,,,,,,,,,,,,,,,,,,
,,,,,,,,,,stimuli/images/PICTURE_380.png,DEATH,5c872cded9fe700001024123,2020-06-30_14h47.36.058,proactive,2020.1.2,Win32,60,5efb791ed4cb570da489e737,5efb871b53898c102d13215d,1,,,,,,gorilla,,,,,,0,41,41,49,1,5,0,,,,,,,,,,,,,,,,,,,,,,,,,,,,,,,,,,,,,,,,,,,,,,,,,,,,,,,,,,,,,,,,,,,,,,,,,,,
,,,,,,,,,,stimuli/images/PICTURE_744.png,SYSTEM,5c872cded9fe700001024123,2020-06-30_14h47.36.058,proactive,2020.1.2,Win32,60,5efb791ed4cb570da489e737,5efb871b53898c102d13215d,1,,,,,,ring,,,,,,0,42,42,43,1,5,0,,,,,,,,,,,,,,,,,,,,,,,,,,,,,,,,,,,,,,,,,,,,,,,,,,,,,,,,,,,,,,,,,,,,,,,,,,,
,,,,,,,,,,stimuli/images/PICTURE_302.png,FAMILY,5c872cded9fe700001024123,2020-06-30_14h47.36.058,proactive,2020.1.2,Win32,60,5efb791ed4cb570da489e737,5efb871b53898c102d13215d,1,,,,,,taxi,,,,,,0,43,43,18,1,2,0,,,,,,,,,,,,,,,,,,,,,,,,,,,,,,,,,,,,,,,,,,,,,,,,,,,,,,,,,,,,,,,,,,,,,,,,,,,
,,,,,,,,,,stimuli/images/PICTURE_469.png,ARTIST,5c872cded9fe700001024123,2020-06-30_14h47.36.058,proactive,2020.1.2,Win32,60,5efb791ed4cb570da489e737,5efb871b53898c102d13215d,1,,,,,,stool,,,,,,0,44,44,6,1,1,0,,,,,,,,,,,,,,,,,,,,,,,,,,,,,,,,,,,,,,,,,,,,,,,,,,,,,,,,,,,,,,,,,,,,,,,,,,,
,,,,,,,,,,stimuli/images/PICTURE_314.png,GODS,5c872cded9fe700001024123,2020-06-30_14h47.36.058,proactive,2020.1.2,Win32,60,5efb791ed4cb570da489e737,5efb871b53898c102d13215d,1,,,,,,perfume,,,,,,0,45,45,11,1,2,0,,,,,,,,,,,,,,,,,,,,,,,,,,,,,,,,,,,,,,,,,,,,,,,,,,,,,,,,,,,,,,,,,,,,,,,,,,,
,,,,,,,,,,stimuli/images/PICTURE_453.png,DUDE,5c872cded9fe700001024123,2020-06-30_14h47.36.058,proactive,2020.1.2,Win32,60,5efb791ed4cb570da489e737,5efb871b53898c102d13215d,1,,,,,,scissors,,,,,,0,46,46,27,1,3,0,,,,,,,,,,,,,,,,,,,,,,,,,,,,,,,,,,,,,,,,,,,,,,,,,,,,,,,,,,,,,,,,,,,,,,,,,,,
,,,,,,,,,,stimuli/images/PICTURE_667.png,PLENTY,5c872cded9fe700001024123,2020-06-30_14h47.36.058,proactive,2020.1.2,Win32,60,5efb791ed4cb570da489e737,5efb871b53898c102d13215d,1,,,,,,daisy,,,,,,0,47,47,41,1,5,0,,,,,,,,,,,,,,,,,,,,,,,,,,,,,,,,,,,,,,,,,,,,,,,,,,,,,,,,,,,,,,,,,,,,,,,,,,,
,,,,,,,,,,stimuli/images/PICTURE_160.png,LEADER,5c872cded9fe700001024123,2020-06-30_14h47.36.058,proactive,2020.1.2,Win32,60,5efb791ed4cb570da489e737,5efb871b53898c102d13215d,1,,,,,,wheelbarrow,,,,,,0,48,48,3,1,1,0,,,,,,,,,,,,,,,,,,,,,,,,,,,,,,,,,,,,,,,,,,,,,,,,,,,,,,,,,,,,,,,,,,,,,,,,,,,
,,,,,,,,,,stimuli/images/PICTURE_255.png,AREA,5c872cded9fe700001024123,2020-06-30_14h47.36.058,proactive,2020.1.2,Win32,60,5efb791ed4cb570da489e737,5efb871b53898c102d13215d,1,,,,,,shovel,,,,,,0,49,49,22,1,3,0,,,,,,,,,,,,,,,,,,,,,,,,,,,,,,,,,,,,,,,,,,,,,,,,,,,,,,,,,,,,,,,,,,,,,,,,,,,
,,,,,,,,,,stimuli/images/PICTURE_123.png,ADVICE,5c872cded9fe700001024123,2020-06-30_14h47.36.058,proactive,2020.1.2,Win32,60,5efb791ed4cb570da489e737,5efb871b53898c102d13215d,1,,,,,,dart,,,,,,0,50,50,40,1,5,0,,,,,,,,,,,,,,,,,,,,,,,,,,,,,,,,,,,,,,,,,,,,,,,,,,,,,,,,,,,,,,,,,,,,,,,,,,,
,,,,,,,,,,stimuli/images/PICTURE_491.png,ROOF,5c872cded9fe700001024123,2020-06-30_14h47.36.058,proactive,2020.1.2,Win32,60,5efb791ed4cb570da489e737,5efb871b53898c102d13215d,1,,,,,,rug,,,,,,0,51,51,24,1,3,0,,,,,,,,,,,,,,,,,,,,,,,,,,,,,,,,,,,,,,,,,,,,,,,,,,,,,,,,,,,,,,,,,,,,,,,,,,,
,,,,,,,,,,stimuli/images/PICTURE_203.png,ARTIST,5c872cded9fe700001024123,2020-06-30_14h47.36.058,proactive,2020.1.2,Win32,60,5efb791ed4cb570da489e737,5efb871b53898c102d13215d,1,,,,,,cap,,,,,,0,52,52,26,1,3,0,,,,,,,,,,,,,,,,,,,,,,,,,,,,,,,,,,,,,,,,,,,,,,,,,,,,,,,,,,,,,,,,,,,,,,,,,,,
,,,,,,,,,,stimuli/images/PICTURE_675.png,WEAPON,5c872cded9fe700001024123,2020-06-30_14h47.36.058,proactive,2020.1.2,Win32,60,5efb791ed4cb570da489e737,5efb871b53898c102d13215d,1,,,,,,windmill,,,,,,0,53,53,32,1,4,0,,,,,,,,,,,,,,,,,,,,,,,,,,,,,,,,,,,,,,,,,,,,,,,,,,,,,,,,,,,,,,,,,,,,,,,,,,,
,,,,,,,,,,stimuli/images/PICTURE_467.png,DEMON,5c872cded9fe700001024123,2020-06-30_14h47.36.058,proactive,2020.1.2,Win32,60,5efb791ed4cb570da489e737,5efb871b53898c102d13215d,1,,,,,,peg,,,,,,0,54,54,23,1,3,0,,,,,,,,,,,,,,,,,,,,,,,,,,,,,,,,,,,,,,,,,,,,,,,,,,,,,,,,,,,,,,,,,,,,,,,,,,,
,,,,,,,,,,stimuli/images/PICTURE_469.png,LETTER,5c872cded9fe700001024123,2020-06-30_14h47.36.058,proactive,2020.1.2,Win32,60,5efb791ed4cb570da489e737,5efb871b53898c102d13215d,1,,,,,,stool,,,,,,0,55,55,42,1,5,0,,,,,,,,,,,,,,,,,,,,,,,,,,,,,,,,,,,,,,,,,,,,,,,,,,,,,,,,,,,,,,,,,,,,,,,,,,,
,,,,,,,,,,stimuli/images/PICTURE_380.png,PHOTO,5c872cded9fe700001024123,2020-06-30_14h47.36.058,proactive,2020.1.2,Win32,60,5efb791ed4cb570da489e737,5efb871b53898c102d13215d,1,,,,,,gorilla,,,,,,0,56,56,52,1,6,0,,,,,,,,,,,,,,,,,,,,,,,,,,,,,,,,,,,,,,,,,,,,,,,,,,,,,,,,,,,,,,,,,,,,,,,,,,,
,,,,,,,,,,stimuli/images/PICTURE_667.png,BATH,5c872cded9fe700001024123,2020-06-30_14h47.36.058,proactive,2020.1.2,Win32,60,5efb791ed4cb570da489e737,5efb871b53898c102d13215d,1,,,,,,daisy,,,,,,0,57,57,4,1,1,0,,,,,,,,,,,,,,,,,,,,,,,,,,,,,,,,,,,,,,,,,,,,,,,,,,,,,,,,,,,,,,,,,,,,,,,,,,,
,,,,,,,,,,stimuli/images/PICTURE_177.png,CARS,5c872cded9fe700001024123,2020-06-30_14h47.36.058,proactive,2020.1.2,Win32,60,5efb791ed4cb570da489e737,5efb871b53898c102d13215d,1,,,,,,mushroom,,,,,,0,58,58,35,1,4,0,,,,,,,,,,,,,,,,,,,,,,,,,,,,,,,,,,,,,,,,,,,,,,,,,,,,,,,,,,,,,,,,,,,,,,,,,,,
,,?,0.006,0,,,,,,stimuli/images/PICTURE_744.png,SAKE,5c872cded9fe700001024123,2020-06-30_14h47.36.058,proactive,2020.1.2,Win32,60,5efb791ed4cb570da489e737,5efb871b53898c102d13215d,1,,,,,,ring,,,,,,,,,,,2,0,0,0,0,17,1,,,,,,,,,,,,,,,,,,,,,,,,,,,,,,,,,,,,,,,,,,,,,,,,,,,,,,,,,,,,,,,,,,,,,,
,,?,0.003,0,,,,,,stimuli/images/PICTURE_348.png,SPEECH,5c872cded9fe700001024123,2020-06-30_14h47.36.058,proactive,2020.1.2,Win32,60,5efb791ed4cb570da489e737,5efb871b53898c102d13215d,1,,,,,,pepper,,,,,,,,,,,3,0,0,1,1,20,1,,,,,,,,,,,,,,,,,,,,,,,,,,,,,,,,,,,,,,,,,,,,,,,,,,,,,,,,,,,,,,,,,,,,,,
,,?,0.005,0,,,,,,stimuli/images/PICTURE_491.png,ROOF,5c872cded9fe700001024123,2020-06-30_14h47.36.058,proactive,2020.1.2,Win32,60,5efb791ed4cb570da489e737,5efb871b53898c102d13215d,1,,,,,,rug,,,,,,,,,,,3,0,0,2,2,24,1,,,,,,,,,,,,,,,,,,,,,,,,,,,,,,,,,,,,,,,,,,,,,,,,,,,,,,,,,,,,,,,,,,,,,,
,,?,0.004,0,,,,,,stimuli/images/PICTURE_160.png,FEET,5c872cded9fe700001024123,2020-06-30_14h47.36.058,proactive,2020.1.2,Win32,60,5efb791ed4cb570da489e737,5efb871b53898c102d13215d,1,,,,,,wheelbarrow,,,,,,,,,,,6,0,0,3,3,58,1,,,,,,,,,,,,,,,,,,,,,,,,,,,,,,,,,,,,,,,,,,,,,,,,,,,,,,,,,,,,,,,,,,,,,,
,,?,0.005,0,,,,,,stimuli/images/PICTURE_677.png,MILE,5c872cded9fe700001024123,2020-06-30_14h47.36.058,proactive,2020.1.2,Win32,60,5efb791ed4cb570da489e737,5efb871b53898c102d13215d,1,,,,,,map,,,,,,,,,,,4,0,0,4,4,30,1,,,,,,,,,,,,,,,,,,,,,,,,,,,,,,,,,,,,,,,,,,,,,,,,,,,,,,,,,,,,,,,,,,,,,,
,,?,0.005,0,,,,,,stimuli/images/PICTURE_208.png,THING,5c872cded9fe700001024123,2020-06-30_14h47.36.058,proactive,2020.1.2,Win32,60,5efb791ed4cb570da489e737,5efb871b53898c102d13215d,1,,,,,,microphone,,,,,,,,,,,5,0,0,5,5,47,1,,,,,,,,,,,,,,,,,,,,,,,,,,,,,,,,,,,,,,,,,,,,,,,,,,,,,,,,,,,,,,,,,,,,,,
,,?,0.005,0,,,,,,stimuli/images/PICTURE_177.png,CARS,5c872cded9fe700001024123,2020-06-30_14h47.36.058,proactive,2020.1.2,Win32,60,5efb791ed4cb570da489e737,5efb871b53898c102d13215d,1,,,,,,mushroom,,,,,,,,,,,4,0,0,6,6,35,1,,,,,,,,,,,,,,,,,,,,,,,,,,,,,,,,,,,,,,,,,,,,,,,,,,,,,,,,,,,,,,,,,,,,,,
,,?,0.002,0,,,,,,stimuli/images/PICTURE_233.png,IDEAS,5c872cded9fe700001024123,2020-06-30_14h47.36.058,proactive,2020.1.2,Win32,60,5efb791ed4cb570da489e737,5efb871b53898c102d13215d,1,,,,,,salt,,,,,,,,,,,3,0,0,7,7,28,1,,,,,,,,,,,,,,,,,,,,,,,,,,,,,,,,,,,,,,,,,,,,,,,,,,,,,,,,,,,,,,,,,,,,,,
,,?,0.005,0,,,,,,stimuli/images/PICTURE_233.png,WOMEN,5c872cded9fe700001024123,2020-06-30_14h47.36.058,proactive,2020.1.2,Win32,60,5efb791ed4cb570da489e737,5efb871b53898c102d13215d,1,,,,,,salt,,,,,,,,,,,4,0,0,8,8,38,1,,,,,,,,,,,,,,,,,,,,,,,,,,,,,,,,,,,,,,,,,,,,,,,,,,,,,,,,,,,,,,,,,,,,,,
,,?,0.003,0,,,,,,stimuli/images/PICTURE_467.png,DEMON,5c872cded9fe700001024123,2020-06-30_14h47.36.058,proactive,2020.1.2,Win32,60,5efb791ed4cb570da489e737,5efb871b53898c102d13215d,1,,,,,,peg,,,,,,,,,,,3,0,0,9,9,23,1,,,,,,,,,,,,,,,,,,,,,,,,,,,,,,,,,,,,,,,,,,,,,,,,,,,,,,,,,,,,,,,,,,,,,,
,,?,0.003,0,,,,,,stimuli/images/PICTURE_95.png,STYLE,5c872cded9fe700001024123,2020-06-30_14h47.36.058,proactive,2020.1.2,Win32,60,5efb791ed4cb570da489e737,5efb871b53898c102d13215d,1,,,,,,suitcase,,,,,,,,,,,3,0,0,10,10,25,1,,,,,,,,,,,,,,,,,,,,,,,,,,,,,,,,,,,,,,,,,,,,,,,,,,,,,,,,,,,,,,,,,,,,,,
,,?,0.003,0,,,,,,stimuli/images/PICTURE_123.png,ADVICE,5c872cded9fe700001024123,2020-06-30_14h47.36.058,proactive,2020.1.2,Win32,60,5efb791ed4cb570da489e737,5efb871b53898c102d13215d,1,,,,,,dart,,,,,,,,,,,5,0,0,11,11,40,1,,,,,,,,,,,,,,,,,,,,,,,,,,,,,,,,,,,,,,,,,,,,,,,,,,,,,,,,,,,,,,,,,,,,,,
,,?,10.001,0,,,,,,stimuli/images/PICTURE_339.png,PLENTY,5c872cded9fe700001024123,2020-06-30_14h47.36.058,proactive,2020.1.2,Win32,60,5efb791ed4cb570da489e737,5efb871b53898c102d13215d,1,,,,,,backpack,,,,,,,,,,,1,0,0,12,12,0,1,,,,,,,,,,,,,,,,,,,,,,,,,,,,,,,,,,,,,,,,,,,,,,,,,,,,,,,,,,,,,,,,,,,,,,
,,?,0.011,0,,,,,,stimuli/images/PICTURE_68.png,MILE,5c872cded9fe700001024123,2020-06-30_14h47.36.058,proactive,2020.1.2,Win32,60,5efb791ed4cb570da489e737,5efb871b53898c102d13215d,1,,,,,,candle,,,,,,,,,,,5,0,0,13,13,44,1,,,,,,,,,,,,,,,,,,,,,,,,,,,,,,,,,,,,,,,,,,,,,,,,,,,,,,,,,,,,,,,,,,,,,,
,,?,0.006,0,,,,,,stimuli/images/PICTURE_688.png,WOMEN,5c872cded9fe700001024123,2020-06-30_14h47.36.058,proactive,2020.1.2,Win32,60,5efb791ed4cb570da489e737,5efb871b53898c102d13215d,1,,,,,,runner,,,,,,,,,,,2,0,0,14,14,14,1,,,,,,,,,,,,,,,,,,,,,,,,,,,,,,,,,,,,,,,,,,,,,,,,,,,,,,,,,,,,,,,,,,,,,,
,,CLIENT,10.005,1,,,,,,stimuli/images/PICTURE_708.png,CLIENT,5c872cded9fe700001024123,2020-06-30_14h47.36.058,proactive,2020.1.2,Win32,60,5efb791ed4cb570da489e737,5efb871b53898c102d13215d,1,,,,,,monkey,,,,,,,,,,,1,0,0,15,15,5,1,,,,,,,,,,,,,,,,,,,,,,,,,,,,,,,,,,,,,,,,,,,,,,,,,,,,,,,,,,,,,,,,,,,,,,
,,?,0.015,0,,,,,,stimuli/images/PICTURE_356.png,DANGER,5c872cded9fe700001024123,2020-06-30_14h47.36.058,proactive,2020.1.2,Win32,60,5efb791ed4cb570da489e737,5efb871b53898c102d13215d,1,,,,,,pawn,,,,,,,,,,,6,0,0,16,16,55,1,,,,,,,,,,,,,,,,,,,,,,,,,,,,,,,,,,,,,,,,,,,,,,,,,,,,,,,,,,,,,,,,,,,,,,
,,?,0.007,0,,,,,,stimuli/images/PICTURE_327.png,BEAUTY,5c872cded9fe700001024123,2020-06-30_14h47.36.058,proactive,2020.1.2,Win32,60,5efb791ed4cb570da489e737,5efb871b53898c102d13215d,1,,,,,,helmet,,,,,,,,,,,5,0,0,17,17,48,1,,,,,,,,,,,,,,,,,,,,,,,,,,,,,,,,,,,,,,,,,,,,,,,,,,,,,,,,,,,,,,,,,,,,,,
,,?,0.007,0,,,,,,stimuli/images/PICTURE_708.png,PENNY,5c872cded9fe700001024123,2020-06-30_14h47.36.058,proactive,2020.1.2,Win32,60,5efb791ed4cb570da489e737,5efb871b53898c102d13215d,1,,,,,,monkey,,,,,,,,,,,4,0,0,18,18,31,1,,,,,,,,,,,,,,,,,,,,,,,,,,,,,,,,,,,,,,,,,,,,,,,,,,,,,,,,,,,,,,,,,,,,,,
,,?,0.005,0,,,,,,stimuli/images/PICTURE_248.png,DOZEN,5c872cded9fe700001024123,2020-06-30_14h47.36.058,proactive,2020.1.2,Win32,60,5efb791ed4cb570da489e737,5efb871b53898c102d13215d,1,,,,,,cart,,,,,,,,,,,4,0,0,19,19,39,1,,,,,,,,,,,,,,,,,,,,,,,,,,,,,,,,,,,,,,,,,,,,,,,,,,,,,,,,,,,,,,,,,,,,,,
,,?,0.005,0,,,,,,stimuli/images/PICTURE_380.png,PHOTO,5c872cded9fe700001024123,2020-06-30_14h47.36.058,proactive,2020.1.2,Win32,60,5efb791ed4cb570da489e737,5efb871b53898c102d13215d,1,,,,,,gorilla,,,,,,,,,,,6,0,0,20,20,52,1,,,,,,,,,,,,,,,,,,,,,,,,,,,,,,,,,,,,,,,,,,,,,,,,,,,,,,,,,,,,,,,,,,,,,,
,,?,0.004,0,,,,,,stimuli/images/PICTURE_449.png,THING,5c872cded9fe700001024123,2020-06-30_14h47.36.058,proactive,2020.1.2,Win32,60,5efb791ed4cb570da489e737,5efb871b53898c102d13215d,1,,,,,,bench,,,,,,,,,,,6,0,0,21,21,59,1,,,,,,,,,,,,,,,,,,,,,,,,,,,,,,,,,,,,,,,,,,,,,,,,,,,,,,,,,,,,,,,,,,,,,,
,,PLANTY,10.001,0,,,,,,stimuli/images/PICTURE_487.png,FLIGHT,5c872cded9fe700001024123,2020-06-30_14h47.36.058,proactive,2020.1.2,Win32,60,5efb791ed4cb570da489e737,5efb871b53898c102d13215d,1,,,,,,basket,,,,,,,,,,,1,0,0,22,22,9,1,,,,,,,,,,,,,,,,,,,,,,,,,,,,,,,,,,,,,,,,,,,,,,,,,,,,,,,,,,,,,,,,,,,,,,
,,SAKE,10.006,1,,,,,,stimuli/images/PICTURE_314.png,SAKE,5c872cded9fe700001024123,2020-06-30_14h47.36.058,proactive,2020.1.2,Win32,60,5efb791ed4cb570da489e737,5efb871b53898c102d13215d,1,,,,,,perfume,,,,,,,,,,,1,0,0,23,23,7,1,,,,,,,,,,,,,,,,,,,,,,,,,,,,,,,,,,,,,,,,,,,,,,,,,,,,,,,,,,,,,,,,,,,,,,
,,BOD,10.002,0,,,,,,stimuli/images/PICTURE_469.png,ARTIST,5c872cded9fe700001024123,2020-06-30_14h47.36.058,proactive,2020.1.2,Win32,60,5efb791ed4cb570da489e737,5efb871b53898c102d13215d,1,,,,,,stool,,,,,,,,,,,1,0,0,24,24,6,1,,,,,,,,,,,,,,,,,,,,,,,,,,,,,,,,,,,,,,,,,,,,,,,,,,,,,,,,,,,,,,,,,,,,,,
,,?,0.004,0,,,,,,stimuli/images/PICTURE_147.png,MOMENT,5c872cded9fe700001024123,2020-06-30_14h47.36.058,proactive,2020.1.2,Win32,60,5efb791ed4cb570da489e737,5efb871b53898c102d13215d,1,,,,,,hanger,,,,,,,,,,,6,0,0,25,25,51,1,,,,,,,,,,,,,,,,,,,,,,,,,,,,,,,,,,,,,,,,,,,,,,,,,,,,,,,,,,,,,,,,,,,,,,
,,?,0.006,0,,,,,,stimuli/images/PICTURE_151.png,GIRL,5c872cded9fe700001024123,2020-06-30_14h47.36.058,proactive,2020.1.2,Win32,60,5efb791ed4cb570da489e737,5efb871b53898c102d13215d,1,,,,,,tray,,,,,,,,,,,2,0,0,26,26,19,1,,,,,,,,,,,,,,,,,,,,,,,,,,,,,,,,,,,,,,,,,,,,,,,,,,,,,,,,,,,,,,,,,,,,,,
,,?,0.007,0,,,,,,stimuli/images/PICTURE_509.png,PHOTO,5c872cded9fe700001024123,2020-06-30_14h47.36.058,proactive,2020.1.2,Win32,60,5efb791ed4cb570da489e737,5efb871b53898c102d13215d,1,,,,,,telephone,,,,,,,,,,,3,0,0,27,27,21,1,,,,,,,,,,,,,,,,,,,,,,,,,,,,,,,,,,,,,,,,,,,,,,,,,,,,,,,,,,,,,,,,,,,,,,
,,LADET,10.021,0,,,,,,stimuli/images/PICTURE_160.png,LEADER,5c872cded9fe700001024123,2020-06-30_14h47.36.058,proactive,2020.1.2,Win32,60,5efb791ed4cb570da489e737,5efb871b53898c102d13215d,1,,,,,,wheelbarrow,,,,,,,,,,,1,0,0,28,28,3,1,,,,,,,,,,,,,,,,,,,,,,,,,,,,,,,,,,,,,,,,,,,,,,,,,,,,,,,,,,,,,,,,,,,,,,
,,?,0.003,0,,,,,,stimuli/images/PICTURE_85.png,THING,5c872cded9fe700001024123,2020-06-30_14h47.36.058,proactive,2020.1.2,Win32,60,5efb791ed4cb570da489e737,5efb871b53898c102d13215d,1,,,,,,diamond,,,,,,,,,,,2,0,0,29,29,15,1,,,,,,,,,,,,,,,,,,,,,,,,,,,,,,,,,,,,,,,,,,,,,,,,,,,,,,,,,,,,,,,,,,,,,,
,,PLANTY,10.014,0,,,,,,stimuli/images/PICTURE_504.png,BODY,5c872cded9fe700001024123,2020-06-30_14h47.36.058,proactive,2020.1.2,Win32,60,5efb791ed4cb570da489e737,5efb871b53898c102d13215d,1,,,,,,wheel,,,,,,,,,,,1,0,0,30,30,8,1,,,,,,,,,,,,,,,,,,,,,,,,,,,,,,,,,,,,,,,,,,,,,,,,,,,,,,,,,,,,,,,,,,,,,,
