consent_key.keys,consent_key.rt,recalled,recalled_rt,recall_acc,example_recall.thisRepN,example_recall.thisTrialN,example_recall.thisN,example_recall.thisIndex,example_recall.ran,file,word,participant,please enter your date of birth (dd/mm/yyyy),date,expName,psychopyVersion,OS,frameRate,STUDY_ID,SESSION_ID,list,prac_learn_study_loop.thisRepN,prac_learn_study_loop.thisTrialN,prac_learn_study_loop.thisN,prac_learn_study_loop.thisIndex,prac_learn_study_loop.ran,image,prac_learn_test_loop.thisRepN,prac_learn_test_loop.thisTrialN,prac_learn_test_loop.thisN,prac_learn_test_loop.thisIndex,prac_learn_test_loop.ran,learn_study_loop.thisRepN,learn_study_loop.thisTrialN,learn_study_loop.thisN,learn_study_loop.thisIndex,learn_study_loop.ran,list_no,block_no,learn_test_loop.thisRepN,learn_test_loop.thisTrialN,learn_test_loop.thisN,learn_test_loop.thisIndex,learn_test_loop.ran,learn_blocks.thisRepN,learn_blocks.thisTrialN,learn_blocks.thisN,learn_blocks.thisIndex,learn_blocks.ran,block_csv,key_resp_13.keys,key_resp_13.rt,learn_blocks_loop.thisRepN,learn_blocks_loop.thisTrialN,learn_blocks_loop.thisN,learn_blocks_loop.thisIndex,learn_blocks_loop.ran,final_learn_test.thisRepN,final_learn_test.thisTrialN,final_learn_test.thisN,final_learn_test.thisIndex,final_learn_test.ran,prac_wm_test_loop.thisRepN,prac_wm_test_loop.thisTrialN,prac_wm_test_loop.thisN,prac_wm_test_loop.thisIndex,prac_wm_test_loop.ran,wm_recalled1,wm_recall_rt1,wm_probed1,wm_recall_acc1,wm_recalled2,wm_recall_rt2,wm_probed2,wm_recall_acc2,wm_recalled3,wm_recall_rt3,wm_probed3,wm_recall_acc3,wm_recalled4,wm_recall_rt4,wm_probed4,wm_recall_acc4,prac_wm_trial_loop.thisRepN,prac_wm_trial_loop.thisTrialN,prac_wm_trial_loop.thisN,prac_wm_trial_loop.thisIndex,prac_wm_trial_loop.ran,word1,image1,file1,item_type1,word2,image2,file2,item_type2,word4,image4,file4,item_type4,word3,image3,file3,item_type3,wm_test_loop.thisRepN,wm_test_loop.thisTrialN,wm_test_loop.thisN,wm_test_loop.thisIndex,wm_test_loop.ran,wm_trial_loop.thisRepN,wm_trial_loop.thisTrialN,wm_trial_loop.thisN,wm_trial_loop.thisIndex,wm_trial_loop.ran
y,40.3957,TOUGH,5.2288,1,0,0,0,0,1,stimuli/images/PICTURE_747.png,TOUGH,5c8eb16ed169ac0001c27629,08/05/1953,2020-07-09_16h04.19.927,proactive,2020.1.2,Win32,60,5f073de81c76c3308c0e4fb3,5f077800db22460008c9988d,3,,,,,,,,,,,,,,,,,,,,,,,,,,,,,,,,,,,,,,,,,,,,,,,,,,,,,,,,,,,,,,,,,,,,,,,,,,,,,,,,,,,,,,,,,,,,,
,,,,,,,,,,stimuli/images/PICTURE_378.png,LOSS,5c8eb16ed169ac0001c27629,08/05/1953,2020-07-09_16h04.19.927,proactive,2020.1.2,Win32,60,5f073de81c76c3308c0e4fb3,5f077800db22460008c9988d,3,0,0,0,2,1,lobster,,,,,,,,,,,,,,,,,,,,,,,,,,,,,,,,,,,,,,,,,,,,,,,,,,,,,,,,,,,,,,,,,,,,,,,,,,,,,,,,,,,,,,,
,,,,,,,,,,stimuli/images/PICTURE_658.png,DEVIL,5c8eb16ed169ac0001c27629,08/05/1953,2020-07-09_16h04.19.927,proactive,2020.1.2,Win32,60,5f073de81c76c3308c0e4fb3,5f077800db22460008c9988d,3,0,1,1,3,1,crow,,,,,,,,,,,,,,,,,,,,,,,,,,,,,,,,,,,,,,,,,,,,,,,,,,,,,,,,,,,,,,,,,,,,,,,,,,,,,,,,,,,,,,,
,,,,,,,,,,stimuli/images/PICTURE_269.png,GENIUS,5c8eb16ed169ac0001c27629,08/05/1953,2020-07-09_16h04.19.927,proactive,2020.1.2,Win32,60,5f073de81c76c3308c0e4fb3,5f077800db22460008c9988d,3,0,2,2,0,1,chameleon,,,,,,,,,,,,,,,,,,,,,,,,,,,,,,,,,,,,,,,,,,,,,,,,,,,,,,,,,,,,,,,,,,,,,,,,,,,,,,,,,,,,,,,
,,,,,,,,,,stimuli/images/PICTURE_727.png,CELL,5c8eb16ed169ac0001c27629,08/05/1953,2020-07-09_16h04.19.927,proactive,2020.1.2,Win32,60,5f073de81c76c3308c0e4fb3,5f077800db22460008c9988d,3,0,3,3,1,1,hose,,,,,,,,,,,,,,,,,,,,,,,,,,,,,,,,,,,,,,,,,,,,,,,,,,,,,,,,,,,,,,,,,,,,,,,,,,,,,,,,,,,,,,,
,,GENIUS,3.49495,1,,,,,,stimuli/images/PICTURE_269.png,GENIUS,5c8eb16ed169ac0001c27629,08/05/1953,2020-07-09_16h04.19.927,proactive,2020.1.2,Win32,60,5f073de81c76c3308c0e4fb3,5f077800db22460008c9988d,3,,,,,,chameleon,0,0,0,0,1,,,,,,,,,,,,,,,,,,,,,,,,,,,,,,,,,,,,,,,,,,,,,,,,,,,,,,,,,,,,,,,,,,,,,,,,,,,,,,,,,,
,,LOSS,4.05641,1,,,,,,stimuli/images/PICTURE_378.png,LOSS,5c8eb16ed169ac0001c27629,08/05/1953,2020-07-09_16h04.19.927,proactive,2020.1.2,Win32,60,5f073de81c76c3308c0e4fb3,5f077800db22460008c9988d,3,,,,,,lobster,0,1,1,2,1,,,,,,,,,,,,,,,,,,,,,,,,,,,,,,,,,,,,,,,,,,,,,,,,,,,,,,,,,,,,,,,,,,,,,,,,,,,,,,,,,,
,,CELL,2.10974,1,,,,,,stimuli/images/PICTURE_727.png,CELL,5c8eb16ed169ac0001c27629,08/05/1953,2020-07-09_16h04.19.927,proactive,2020.1.2,Win32,60,5f073de81c76c3308c0e4fb3,5f077800db22460008c9988d,3,,,,,,hose,0,2,2,1,1,,,,,,,,,,,,,,,,,,,,,,,,,,,,,,,,,,,,,,,,,,,,,,,,,,,,,,,,,,,,,,,,,,,,,,,,,,,,,,,,,,
,,DEVIL,2.59082,1,,,,,,stimuli/images/PICTURE_658.png,DEVIL,5c8eb16ed169ac0001c27629,08/05/1953,2020-07-09_16h04.19.927,proactive,2020.1.2,Win32,60,5f073de81c76c3308c0e4fb3,5f077800db22460008c9988d,3,,,,,,crow,0,3,3,3,1,,,,,,,,,,,,,,,,,,,,,,,,,,,,,,,,,,,,,,,,,,,,,,,,,,,,,,,,,,,,,,,,,,,,,,,,,,,,,,,,,,
,,KILLER,3.699895,1,,,,,,stimuli/images/PICTURE_697.png,KILLER,5c8eb16ed169ac0001c27629,08/05/1953,2020-07-09_16h04.19.927,proactive,2020.1.2,Win32,60,5f073de81c76c3308c0e4fb3,5f077800db22460008c9988d,3,,,,,,peach,0,4,4,4,1,,,,,,,,,,,,,,,,,,,,,,,,,,,,,,,,,,,,,,,,,,,,,,,,,,,,,,,,,,,,,,,,,,,,,,,,,,,,,,,,,,
,,,,,,,,,,stimuli/images/PICTURE_18.png,RIVER,5c8eb16ed169ac0001c27629,08/05/1953,2020-07-09_16h04.19.927,proactive,2020.1.2,Win32,60,5f073de81c76c3308c0e4fb3,5f077800db22460008c9988d,3,,,,,,planet,,,,,,0,0,0,22,1,3,2,,,,,,,,,,,,,,,,,,,,,,,,,,,,,,,,,,,,,,,,,,,,,,,,,,,,,,,,,,,,,,,,,,,,,,,,,,,
,,,,,,,,,,stimuli/images/PICTURE_296.png,CLOCK,5c8eb16ed169ac0001c27629,08/05/1953,2020-07-09_16h04.19.927,proactive,2020.1.2,Win32,60,5f073de81c76c3308c0e4fb3,5f077800db22460008c9988d,3,,,,,,bolt,,,,,,0,1,1,18,1,2,2,,,,,,,,,,,,,,,,,,,,,,,,,,,,,,,,,,,,,,,,,,,,,,,,,,,,,,,,,,,,,,,,,,,,,,,,,,,
,,,,,,,,,,stimuli/images/PICTURE_708.png,VALLEY,5c8eb16ed169ac0001c27629,08/05/1953,2020-07-09_16h04.19.927,proactive,2020.1.2,Win32,60,5f073de81c76c3308c0e4fb3,5f077800db22460008c9988d,3,,,,,,monkey,,,,,,0,2,2,45,1,5,2,,,,,,,,,,,,,,,,,,,,,,,,,,,,,,,,,,,,,,,,,,,,,,,,,,,,,,,,,,,,,,,,,,,,,,,,,,,
,,,,,,,,,,stimuli/images/PICTURE_504.png,HOUSE,5c8eb16ed169ac0001c27629,08/05/1953,2020-07-09_16h04.19.927,proactive,2020.1.2,Win32,60,5f073de81c76c3308c0e4fb3,5f077800db22460008c9988d,3,,,,,,wheel,,,,,,0,3,3,36,1,4,2,,,,,,,,,,,,,,,,,,,,,,,,,,,,,,,,,,,,,,,,,,,,,,,,,,,,,,,,,,,,,,,,,,,,,,,,,,,
,,,,,,,,,,stimuli/images/PICTURE_33.png,COPS,5c8eb16ed169ac0001c27629,08/05/1953,2020-07-09_16h04.19.927,proactive,2020.1.2,Win32,60,5f073de81c76c3308c0e4fb3,5f077800db22460008c9988d,3,,,,,,frame,,,,,,0,4,4,29,1,3,2,,,,,,,,,,,,,,,,,,,,,,,,,,,,,,,,,,,,,,,,,,,,,,,,,,,,,,,,,,,,,,,,,,,,,,,,,,,
,,,,,,,,,,stimuli/images/PICTURE_93.png,GIRL,5c8eb16ed169ac0001c27629,08/05/1953,2020-07-09_16h04.19.927,proactive,2020.1.2,Win32,60,5f073de81c76c3308c0e4fb3,5f077800db22460008c9988d,3,,,,,,skateboard,,,,,,0,5,5,31,1,4,2,,,,,,,,,,,,,,,,,,,,,,,,,,,,,,,,,,,,,,,,,,,,,,,,,,,,,,,,,,,,,,,,,,,,,,,,,,,
,,,,,,,,,,stimuli/images/PICTURE_654.png,YEAR,5c8eb16ed169ac0001c27629,08/05/1953,2020-07-09_16h04.19.927,proactive,2020.1.2,Win32,60,5f073de81c76c3308c0e4fb3,5f077800db22460008c9988d,3,,,,,,pencil,,,,,,0,6,6,41,1,5,2,,,,,,,,,,,,,,,,,,,,,,,,,,,,,,,,,,,,,,,,,,,,,,,,,,,,,,,,,,,,,,,,,,,,,,,,,,,
,,,,,,,,,,stimuli/images/PICTURE_667.png,GLASS,5c8eb16ed169ac0001c27629,08/05/1953,2020-07-09_16h04.19.927,proactive,2020.1.2,Win32,60,5f073de81c76c3308c0e4fb3,5f077800db22460008c9988d,3,,,,,,daisy,,,,,,0,7,7,27,1,3,2,,,,,,,,,,,,,,,,,,,,,,,,,,,,,,,,,,,,,,,,,,,,,,,,,,,,,,,,,,,,,,,,,,,,,,,,,,,
,,,,,,,,,,stimuli/images/PICTURE_147.png,LEADER,5c8eb16ed169ac0001c27629,08/05/1953,2020-07-09_16h04.19.927,proactive,2020.1.2,Win32,60,5f073de81c76c3308c0e4fb3,5f077800db22460008c9988d,3,,,,,,hanger,,,,,,0,8,8,33,1,4,2,,,,,,,,,,,,,,,,,,,,,,,,,,,,,,,,,,,,,,,,,,,,,,,,,,,,,,,,,,,,,,,,,,,,,,,,,,,
,,,,,,,,,,stimuli/images/PICTURE_208.png,SPIRIT,5c8eb16ed169ac0001c27629,08/05/1953,2020-07-09_16h04.19.927,proactive,2020.1.2,Win32,60,5f073de81c76c3308c0e4fb3,5f077800db22460008c9988d,3,,,,,,microphone,,,,,,0,9,9,28,1,3,2,,,,,,,,,,,,,,,,,,,,,,,,,,,,,,,,,,,,,,,,,,,,,,,,,,,,,,,,,,,,,,,,,,,,,,,,,,,
,,,,,,,,,,stimuli/images/PICTURE_655.png,SALE,5c8eb16ed169ac0001c27629,08/05/1953,2020-07-09_16h04.19.927,proactive,2020.1.2,Win32,60,5f073de81c76c3308c0e4fb3,5f077800db22460008c9988d,3,,,,,,megaphone,,,,,,0,10,10,57,1,6,2,,,,,,,,,,,,,,,,,,,,,,,,,,,,,,,,,,,,,,,,,,,,,,,,,,,,,,,,,,,,,,,,,,,,,,,,,,,
,,,,,,,,,,stimuli/images/PICTURE_311.png,FLESH,5c8eb16ed169ac0001c27629,08/05/1953,2020-07-09_16h04.19.927,proactive,2020.1.2,Win32,60,5f073de81c76c3308c0e4fb3,5f077800db22460008c9988d,3,,,,,,razor,,,,,,0,11,11,3,1,1,2,,,,,,,,,,,,,,,,,,,,,,,,,,,,,,,,,,,,,,,,,,,,,,,,,,,,,,,,,,,,,,,,,,,,,,,,,,,
,,,,,,,,,,stimuli/images/PICTURE_68.png,KIND,5c8eb16ed169ac0001c27629,08/05/1953,2020-07-09_16h04.19.927,proactive,2020.1.2,Win32,60,5f073de81c76c3308c0e4fb3,5f077800db22460008c9988d,3,,,,,,candle,,,,,,0,12,12,23,1,3,2,,,,,,,,,,,,,,,,,,,,,,,,,,,,,,,,,,,,,,,,,,,,,,,,,,,,,,,,,,,,,,,,,,,,,,,,,,,
,,,,,,,,,,stimuli/images/PICTURE_509.png,APPLE,5c8eb16ed169ac0001c27629,08/05/1953,2020-07-09_16h04.19.927,proactive,2020.1.2,Win32,60,5f073de81c76c3308c0e4fb3,5f077800db22460008c9988d,3,,,,,,telephone,,,,,,0,13,13,38,1,4,2,,,,,,,,,,,,,,,,,,,,,,,,,,,,,,,,,,,,,,,,,,,,,,,,,,,,,,,,,,,,,,,,,,,,,,,,,,,
,,,,,,,,,,stimuli/images/PICTURE_509.png,MILLER,5c8eb16ed169ac0001c27629,08/05/1953,2020-07-09_16h04.19.927,proactive,2020.1.2,Win32,60,5f073de81c76c3308c0e4fb3,5f077800db22460008c9988d,3,,,,,,telephone,,,,,,0,14,14,49,1,5,2,,,,,,,,,,,,,,,,,,,,,,,,,,,,,,,,,,,,,,,,,,,,,,,,,,,,,,,,,,,,,,,,,,,,,,,,,,,
,,,,,,,,,,stimuli/images/PICTURE_677.png,FAMILY,5c8eb16ed169ac0001c27629,08/05/1953,2020-07-09_16h04.19.927,proactive,2020.1.2,Win32,60,5f073de81c76c3308c0e4fb3,5f077800db22460008c9988d,3,,,,,,map,,,,,,0,15,15,53,1,6,2,,,,,,,,,,,,,,,,,,,,,,,,,,,,,,,,,,,,,,,,,,,,,,,,,,,,,,,,,,,,,,,,,,,,,,,,,,,
,,,,,,,,,,stimuli/images/PICTURE_327.png,LEADER,5c8eb16ed169ac0001c27629,08/05/1953,2020-07-09_16h04.19.927,proactive,2020.1.2,Win32,60,5f073de81c76c3308c0e4fb3,5f077800db22460008c9988d,3,,,,,,helmet,,,,,,0,16,16,17,1,2,2,,,,,,,,,,,,,,,,,,,,,,,,,,,,,,,,,,,,,,,,,,,,,,,,,,,,,,,,,,,,,,,,,,,,,,,,,,,
,,,,,,,,,,stimuli/images/PICTURE_470.png,BEAUTY,5c8eb16ed169ac0001c27629,08/05/1953,2020-07-09_16h04.19.927,proactive,2020.1.2,Win32,60,5f073de81c76c3308c0e4fb3,5f077800db22460008c9988d,3,,,,,,motorbike,,,,,,0,17,17,26,1,3,2,,,,,,,,,,,,,,,,,,,,,,,,,,,,,,,,,,,,,,,,,,,,,,,,,,,,,,,,,,,,,,,,,,,,,,,,,,,
,,,,,,,,,,stimuli/images/PICTURE_255.png,PENNY,5c8eb16ed169ac0001c27629,08/05/1953,2020-07-09_16h04.19.927,proactive,2020.1.2,Win32,60,5f073de81c76c3308c0e4fb3,5f077800db22460008c9988d,3,,,,,,shovel,,,,,,0,18,18,19,1,2,2,,,,,,,,,,,,,,,,,,,,,,,,,,,,,,,,,,,,,,,,,,,,,,,,,,,,,,,,,,,,,,,,,,,,,,,,,,,
,,,,,,,,,,stimuli/images/PICTURE_141.png,CLIENT,5c8eb16ed169ac0001c27629,08/05/1953,2020-07-09_16h04.19.927,proactive,2020.1.2,Win32,60,5f073de81c76c3308c0e4fb3,5f077800db22460008c9988d,3,,,,,,sunflower,,,,,,0,19,19,30,1,4,2,,,,,,,,,,,,,,,,,,,,,,,,,,,,,,,,,,,,,,,,,,,,,,,,,,,,,,,,,,,,,,,,,,,,,,,,,,,
,,,,,,,,,,stimuli/images/PICTURE_688.png,CLOCK,5c8eb16ed169ac0001c27629,08/05/1953,2020-07-09_16h04.19.927,proactive,2020.1.2,Win32,60,5f073de81c76c3308c0e4fb3,5f077800db22460008c9988d,3,,,,,,runner,,,,,,0,20,20,42,1,5,2,,,,,,,,,,,,,,,,,,,,,,,,,,,,,,,,,,,,,,,,,,,,,,,,,,,,,,,,,,,,,,,,,,,,,,,,,,,
,,,,,,,,,,stimuli/images/PICTURE_2.png,JUNGLE,5c8eb16ed169ac0001c27629,08/05/1953,2020-07-09_16h04.19.927,proactive,2020.1.2,Win32,60,5f073de81c76c3308c0e4fb3,5f077800db22460008c9988d,3,,,,,,tyre,,,,,,0,21,21,1,1,1,2,,,,,,,,,,,,,,,,,,,,,,,,,,,,,,,,,,,,,,,,,,,,,,,,,,,,,,,,,,,,,,,,,,,,,,,,,,,
,,,,,,,,,,stimuli/images/PICTURE_2.png,YARD,5c8eb16ed169ac0001c27629,08/05/1953,2020-07-09_16h04.19.927,proactive,2020.1.2,Win32,60,5f073de81c76c3308c0e4fb3,5f077800db22460008c9988d,3,,,,,,tyre,,,,,,0,22,22,55,1,6,2,,,,,,,,,,,,,,,,,,,,,,,,,,,,,,,,,,,,,,,,,,,,,,,,,,,,,,,,,,,,,,,,,,,,,,,,,,,
,,,,,,,,,,stimuli/images/PICTURE_57.png,CANDY,5c8eb16ed169ac0001c27629,08/05/1953,2020-07-09_16h04.19.927,proactive,2020.1.2,Win32,60,5f073de81c76c3308c0e4fb3,5f077800db22460008c9988d,3,,,,,,stamp,,,,,,0,23,23,52,1,6,2,,,,,,,,,,,,,,,,,,,,,,,,,,,,,,,,,,,,,,,,,,,,,,,,,,,,,,,,,,,,,,,,,,,,,,,,,,,
,,,,,,,,,,stimuli/images/PICTURE_285.png,WRITER,5c8eb16ed169ac0001c27629,08/05/1953,2020-07-09_16h04.19.927,proactive,2020.1.2,Win32,60,5f073de81c76c3308c0e4fb3,5f077800db22460008c9988d,3,,,,,,carrot,,,,,,0,24,24,6,1,1,2,,,,,,,,,,,,,,,,,,,,,,,,,,,,,,,,,,,,,,,,,,,,,,,,,,,,,,,,,,,,,,,,,,,,,,,,,,,
,,,,,,,,,,stimuli/images/PICTURE_692.png,DUDE,5c8eb16ed169ac0001c27629,08/05/1953,2020-07-09_16h04.19.927,proactive,2020.1.2,Win32,60,5f073de81c76c3308c0e4fb3,5f077800db22460008c9988d,3,,,,,,cherry,,,,,,0,25,25,47,1,5,2,,,,,,,,,,,,,,,,,,,,,,,,,,,,,,,,,,,,,,,,,,,,,,,,,,,,,,,,,,,,,,,,,,,,,,,,,,,
,,,,,,,,,,stimuli/images/PICTURE_405.png,HOUSE,5c8eb16ed169ac0001c27629,08/05/1953,2020-07-09_16h04.19.927,proactive,2020.1.2,Win32,60,5f073de81c76c3308c0e4fb3,5f077800db22460008c9988d,3,,,,,,anchor,,,,,,0,26,26,2,1,1,2,,,,,,,,,,,,,,,,,,,,,,,,,,,,,,,,,,,,,,,,,,,,,,,,,,,,,,,,,,,,,,,,,,,,,,,,,,,
,,,,,,,,,,stimuli/images/PICTURE_297.png,BODY,5c8eb16ed169ac0001c27629,08/05/1953,2020-07-09_16h04.19.927,proactive,2020.1.2,Win32,60,5f073de81c76c3308c0e4fb3,5f077800db22460008c9988d,3,,,,,,aeroplane,,,,,,0,27,27,51,1,6,2,,,,,,,,,,,,,,,,,,,,,,,,,,,,,,,,,,,,,,,,,,,,,,,,,,,,,,,,,,,,,,,,,,,,,,,,,,,
,,,,,,,,,,stimuli/images/PICTURE_750.png,POLICY,5c8eb16ed169ac0001c27629,08/05/1953,2020-07-09_16h04.19.927,proactive,2020.1.2,Win32,60,5f073de81c76c3308c0e4fb3,5f077800db22460008c9988d,3,,,,,,kettle,,,,,,0,28,28,44,1,5,2,,,,,,,,,,,,,,,,,,,,,,,,,,,,,,,,,,,,,,,,,,,,,,,,,,,,,,,,,,,,,,,,,,,,,,,,,,,
,,,,,,,,,,stimuli/images/PICTURE_403.png,FAMILY,5c8eb16ed169ac0001c27629,08/05/1953,2020-07-09_16h04.19.927,proactive,2020.1.2,Win32,60,5f073de81c76c3308c0e4fb3,5f077800db22460008c9988d,3,,,,,,cathedral,,,,,,0,29,29,9,1,1,2,,,,,,,,,,,,,,,,,,,,,,,,,,,,,,,,,,,,,,,,,,,,,,,,,,,,,,,,,,,,,,,,,,,,,,,,,,,
,,,,,,,,,,stimuli/images/PICTURE_215.png,LEADER,5c8eb16ed169ac0001c27629,08/05/1953,2020-07-09_16h04.19.927,proactive,2020.1.2,Win32,60,5f073de81c76c3308c0e4fb3,5f077800db22460008c9988d,3,,,,,,boot,,,,,,0,30,30,43,1,5,2,,,,,,,,,,,,,,,,,,,,,,,,,,,,,,,,,,,,,,,,,,,,,,,,,,,,,,,,,,,,,,,,,,,,,,,,,,,
,,,,,,,,,,stimuli/images/PICTURE_311.png,TOILET,5c8eb16ed169ac0001c27629,08/05/1953,2020-07-09_16h04.19.927,proactive,2020.1.2,Win32,60,5f073de81c76c3308c0e4fb3,5f077800db22460008c9988d,3,,,,,,razor,,,,,,0,31,31,54,1,6,2,,,,,,,,,,,,,,,,,,,,,,,,,,,,,,,,,,,,,,,,,,,,,,,,,,,,,,,,,,,,,,,,,,,,,,,,,,,
,,,,,,,,,,stimuli/images/PICTURE_487.png,ROOF,5c8eb16ed169ac0001c27629,08/05/1953,2020-07-09_16h04.19.927,proactive,2020.1.2,Win32,60,5f073de81c76c3308c0e4fb3,5f077800db22460008c9988d,3,,,,,,basket,,,,,,0,32,32,50,1,6,2,,,,,,,,,,,,,,,,,,,,,,,,,,,,,,,,,,,,,,,,,,,,,,,,,,,,,,,,,,,,,,,,,,,,,,,,,,,
,,,,,,,,,,stimuli/images/PICTURE_654.png,COPS,5c8eb16ed169ac0001c27629,08/05/1953,2020-07-09_16h04.19.927,proactive,2020.1.2,Win32,60,5f073de81c76c3308c0e4fb3,5f077800db22460008c9988d,3,,,,,,pencil,,,,,,0,33,33,10,1,2,2,,,,,,,,,,,,,,,,,,,,,,,,,,,,,,,,,,,,,,,,,,,,,,,,,,,,,,,,,,,,,,,,,,,,,,,,,,,
,,,,,,,,,,stimuli/images/PICTURE_677.png,PHOTO,5c8eb16ed169ac0001c27629,08/05/1953,2020-07-09_16h04.19.927,proactive,2020.1.2,Win32,60,5f073de81c76c3308c0e4fb3,5f077800db22460008c9988d,3,,,,,,map,,,,,,0,34,34,14,1,2,2,,,,,,,,,,,,,,,,,,,,,,,,,,,,,,,,,,,,,,,,,,,,,,,,,,,,,,,,,,,,,,,,,,,,,,,,,,,
,,,,,,,,,,stimuli/images/PICTURE_215.png,BOYS,5c8eb16ed169ac0001c27629,08/05/1953,2020-07-09_16h04.19.927,proactive,2020.1.2,Win32,60,5f073de81c76c3308c0e4fb3,5f077800db22460008c9988d,3,,,,,,boot,,,,,,0,35,35,24,1,3,2,,,,,,,,,,,,,,,,,,,,,,,,,,,,,,,,,,,,,,,,,,,,,,,,,,,,,,,,,,,,,,,,,,,,,,,,,,,
,,,,,,,,,,stimuli/images/PICTURE_2.png,AREA,5c8eb16ed169ac0001c27629,08/05/1953,2020-07-09_16h04.19.927,proactive,2020.1.2,Win32,60,5f073de81c76c3308c0e4fb3,5f077800db22460008c9988d,3,,,,,,tyre,,,,,,0,36,36,32,1,4,2,,,,,,,,,,,,,,,,,,,,,,,,,,,,,,,,,,,,,,,,,,,,,,,,,,,,,,,,,,,,,,,,,,,,,,,,,,,
,,,,,,,,,,stimuli/images/PICTURE_285.png,PRINCE,5c8eb16ed169ac0001c27629,08/05/1953,2020-07-09_16h04.19.927,proactive,2020.1.2,Win32,60,5f073de81c76c3308c0e4fb3,5f077800db22460008c9988d,3,,,,,,carrot,,,,,,0,37,37,20,1,3,2,,,,,,,,,,,,,,,,,,,,,,,,,,,,,,,,,,,,,,,,,,,,,,,,,,,,,,,,,,,,,,,,,,,,,,,,,,,
,,,,,,,,,,stimuli/images/PICTURE_405.png,JUNGLE,5c8eb16ed169ac0001c27629,08/05/1953,2020-07-09_16h04.19.927,proactive,2020.1.2,Win32,60,5f073de81c76c3308c0e4fb3,5f077800db22460008c9988d,3,,,,,,anchor,,,,,,0,38,38,58,1,6,2,,,,,,,,,,,,,,,,,,,,,,,,,,,,,,,,,,,,,,,,,,,,,,,,,,,,,,,,,,,,,,,,,,,,,,,,,,,
,,,,,,,,,,stimuli/images/PICTURE_177.png,HOUSE,5c8eb16ed169ac0001c27629,08/05/1953,2020-07-09_16h04.19.927,proactive,2020.1.2,Win32,60,5f073de81c76c3308c0e4fb3,5f077800db22460008c9988d,3,,,,,,mushroom,,,,,,0,39,39,25,1,3,2,,,,,,,,,,,,,,,,,,,,,,,,,,,,,,,,,,,,,,,,,,,,,,,,,,,,,,,,,,,,,,,,,,,,,,,,,,,
,,,,,,,,,,stimuli/images/PICTURE_57.png,NATION,5c8eb16ed169ac0001c27629,08/05/1953,2020-07-09_16h04.19.927,proactive,2020.1.2,Win32,60,5f073de81c76c3308c0e4fb3,5f077800db22460008c9988d,3,,,,,,stamp,,,,,,0,40,40,21,1,3,2,,,,,,,,,,,,,,,,,,,,,,,,,,,,,,,,,,,,,,,,,,,,,,,,,,,,,,,,,,,,,,,,,,,,,,,,,,,
,,,,,,,,,,stimuli/images/PICTURE_348.png,DUDE,5c8eb16ed169ac0001c27629,08/05/1953,2020-07-09_16h04.19.927,proactive,2020.1.2,Win32,60,5f073de81c76c3308c0e4fb3,5f077800db22460008c9988d,3,,,,,,pepper,,,,,,0,41,41,59,1,6,2,,,,,,,,,,,,,,,,,,,,,,,,,,,,,,,,,,,,,,,,,,,,,,,,,,,,,,,,,,,,,,,,,,,,,,,,,,,
,,,,,,,,,,stimuli/images/PICTURE_491.png,SERIES,5c8eb16ed169ac0001c27629,08/05/1953,2020-07-09_16h04.19.927,proactive,2020.1.2,Win32,60,5f073de81c76c3308c0e4fb3,5f077800db22460008c9988d,3,,,,,,rug,,,,,,0,42,42,39,1,4,2,,,,,,,,,,,,,,,,,,,,,,,,,,,,,,,,,,,,,,,,,,,,,,,,,,,,,,,,,,,,,,,,,,,,,,,,,,,
,,,,,,,,,,stimuli/images/PICTURE_95.png,NIGHT,5c8eb16ed169ac0001c27629,08/05/1953,2020-07-09_16h04.19.927,proactive,2020.1.2,Win32,60,5f073de81c76c3308c0e4fb3,5f077800db22460008c9988d,3,,,,,,suitcase,,,,,,0,43,43,37,1,4,2,,,,,,,,,,,,,,,,,,,,,,,,,,,,,,,,,,,,,,,,,,,,,,,,,,,,,,,,,,,,,,,,,,,,,,,,,,,
,,,,,,,,,,stimuli/images/PICTURE_452.png,COPS,5c8eb16ed169ac0001c27629,08/05/1953,2020-07-09_16h04.19.927,proactive,2020.1.2,Win32,60,5f073de81c76c3308c0e4fb3,5f077800db22460008c9988d,3,,,,,,watch,,,,,,0,44,44,0,1,1,2,,,,,,,,,,,,,,,,,,,,,,,,,,,,,,,,,,,,,,,,,,,,,,,,,,,,,,,,,,,,,,,,,,,,,,,,,,,
,,,,,,,,,,stimuli/images/PICTURE_509.png,BATH,5c8eb16ed169ac0001c27629,08/05/1953,2020-07-09_16h04.19.927,proactive,2020.1.2,Win32,60,5f073de81c76c3308c0e4fb3,5f077800db22460008c9988d,3,,,,,,telephone,,,,,,0,45,45,15,1,2,2,,,,,,,,,,,,,,,,,,,,,,,,,,,,,,,,,,,,,,,,,,,,,,,,,,,,,,,,,,,,,,,,,,,,,,,,,,,
,,,,,,,,,,stimuli/images/PICTURE_487.png,POLICY,5c8eb16ed169ac0001c27629,08/05/1953,2020-07-09_16h04.19.927,proactive,2020.1.2,Win32,60,5f073de81c76c3308c0e4fb3,5f077800db22460008c9988d,3,,,,,,basket,,,,,,0,46,46,34,1,4,2,,,,,,,,,,,,,,,,,,,,,,,,,,,,,,,,,,,,,,,,,,,,,,,,,,,,,,,,,,,,,,,,,,,,,,,,,,,
,,,,,,,,,,stimuli/images/PICTURE_57.png,CASINO,5c8eb16ed169ac0001c27629,08/05/1953,2020-07-09_16h04.19.927,proactive,2020.1.2,Win32,60,5f073de81c76c3308c0e4fb3,5f077800db22460008c9988d,3,,,,,,stamp,,,,,,0,47,47,12,1,2,2,,,,,,,,,,,,,,,,,,,,,,,,,,,,,,,,,,,,,,,,,,,,,,,,,,,,,,,,,,,,,,,,,,,,,,,,,,,
,,,,,,,,,,stimuli/images/PICTURE_348.png,TOILET,5c8eb16ed169ac0001c27629,08/05/1953,2020-07-09_16h04.19.927,proactive,2020.1.2,Win32,60,5f073de81c76c3308c0e4fb3,5f077800db22460008c9988d,3,,,,,,pepper,,,,,,0,48,48,4,1,1,2,,,,,,,,,,,,,,,,,,,,,,,,,,,,,,,,,,,,,,,,,,,,,,,,,,,,,,,,,,,,,,,,,,,,,,,,,,,
,,,,,,,,,,stimuli/images/PICTURE_215.png,FOOD,5c8eb16ed169ac0001c27629,08/05/1953,2020-07-09_16h04.19.927,proactive,2020.1.2,Win32,60,5f073de81c76c3308c0e4fb3,5f077800db22460008c9988d,3,,,,,,boot,,,,,,0,49,49,5,1,1,2,,,,,,,,,,,,,,,,,,,,,,,,,,,,,,,,,,,,,,,,,,,,,,,,,,,,,,,,,,,,,,,,,,,,,,,,,,,
,,,,,,,,,,stimuli/images/PICTURE_123.png,SALE,5c8eb16ed169ac0001c27629,08/05/1953,2020-07-09_16h04.19.927,proactive,2020.1.2,Win32,60,5f073de81c76c3308c0e4fb3,5f077800db22460008c9988d,3,,,,,,dart,,,,,,0,50,50,8,1,1,2,,,,,,,,,,,,,,,,,,,,,,,,,,,,,,,,,,,,,,,,,,,,,,,,,,,,,,,,,,,,,,,,,,,,,,,,,,,
,,,,,,,,,,stimuli/images/PICTURE_160.png,HOTEL,5c8eb16ed169ac0001c27629,08/05/1953,2020-07-09_16h04.19.927,proactive,2020.1.2,Win32,60,5f073de81c76c3308c0e4fb3,5f077800db22460008c9988d,3,,,,,,wheelbarrow,,,,,,0,51,51,16,1,2,2,,,,,,,,,,,,,,,,,,,,,,,,,,,,,,,,,,,,,,,,,,,,,,,,,,,,,,,,,,,,,,,,,,,,,,,,,,,
,,,,,,,,,,stimuli/images/PICTURE_32.png,LETTER,5c8eb16ed169ac0001c27629,08/05/1953,2020-07-09_16h04.19.927,proactive,2020.1.2,Win32,60,5f073de81c76c3308c0e4fb3,5f077800db22460008c9988d,3,,,,,,crown,,,,,,0,52,52,56,1,6,2,,,,,,,,,,,,,,,,,,,,,,,,,,,,,,,,,,,,,,,,,,,,,,,,,,,,,,,,,,,,,,,,,,,,,,,,,,,
,,,,,,,,,,stimuli/images/PICTURE_356.png,CANDY,5c8eb16ed169ac0001c27629,08/05/1953,2020-07-09_16h04.19.927,proactive,2020.1.2,Win32,60,5f073de81c76c3308c0e4fb3,5f077800db22460008c9988d,3,,,,,,pawn,,,,,,0,53,53,46,1,5,2,,,,,,,,,,,,,,,,,,,,,,,,,,,,,,,,,,,,,,,,,,,,,,,,,,,,,,,,,,,,,,,,,,,,,,,,,,,
,,,,,,,,,,stimuli/images/PICTURE_509.png,SHOTS,5c8eb16ed169ac0001c27629,08/05/1953,2020-07-09_16h04.19.927,proactive,2020.1.2,Win32,60,5f073de81c76c3308c0e4fb3,5f077800db22460008c9988d,3,,,,,,telephone,,,,,,0,54,54,7,1,1,2,,,,,,,,,,,,,,,,,,,,,,,,,,,,,,,,,,,,,,,,,,,,,,,,,,,,,,,,,,,,,,,,,,,,,,,,,,,
,,,,,,,,,,stimuli/images/PICTURE_405.png,JUNGLE,5c8eb16ed169ac0001c27629,08/05/1953,2020-07-09_16h04.19.927,proactive,2020.1.2,Win32,60,5f073de81c76c3308c0e4fb3,5f077800db22460008c9988d,3,,,,,,anchor,,,,,,0,55,55,13,1,2,2,,,,,,,,,,,,,,,,,,,,,,,,,,,,,,,,,,,,,,,,,,,,,,,,,,,,,,,,,,,,,,,,,,,,,,,,,,,
,,,,,,,,,,stimuli/images/PICTURE_314.png,SPEECH,5c8eb16ed169ac0001c27629,08/05/1953,2020-07-09_16h04.19.927,proactive,2020.1.2,Win32,60,5f073de81c76c3308c0e4fb3,5f077800db22460008c9988d,3,,,,,,perfume,,,,,,0,56,56,35,1,4,2,,,,,,,,,,,,,,,,,,,,,,,,,,,,,,,,,,,,,,,,,,,,,,,,,,,,,,,,,,,,,,,,,,,,,,,,,,,
,,,,,,,,,,stimuli/images/PICTURE_470.png,MOMENT,5c8eb16ed169ac0001c27629,08/05/1953,2020-07-09_16h04.19.927,proactive,2020.1.2,Win32,60,5f073de81c76c3308c0e4fb3,5f077800db22460008c9988d,3,,,,,,motorbike,,,,,,0,57,57,40,1,5,2,,,,,,,,,,,,,,,,,,,,,,,,,,,,,,,,,,,,,,,,,,,,,,,,,,,,,,,,,,,,,,,,,,,,,,,,,,,
,,,,,,,,,,stimuli/images/PICTURE_564.png,PLENTY,5c8eb16ed169ac0001c27629,08/05/1953,2020-07-09_16h04.19.927,proactive,2020.1.2,Win32,60,5f073de81c76c3308c0e4fb3,5f077800db22460008c9988d,3,,,,,,spoon,,,,,,0,58,58,11,1,2,2,,,,,,,,,,,,,,,,,,,,,,,,,,,,,,,,,,,,,,,,,,,,,,,,,,,,,,,,,,,,,,,,,,,,,,,,,,,
,,?,0.002475,0,,,,,,stimuli/images/PICTURE_348.png,DUDE,5c8eb16ed169ac0001c27629,08/05/1953,2020-07-09_16h04.19.927,proactive,2020.1.2,Win32,60,5f073de81c76c3308c0e4fb3,5f077800db22460008c9988d,3,,,,,,pepper,,,,,,,,,,,6,2,0,0,0,59,1,,,,,,,,,,,,,,,,,,,,,,,,,,,,,,,,,,,,,,,,,,,,,,,,,,,,,,,,,,,,,,,,,,,,,,
,,KIND,6.462645,1,,,,,,stimuli/images/PICTURE_68.png,KIND,5c8eb16ed169ac0001c27629,08/05/1953,2020-07-09_16h04.19.927,proactive,2020.1.2,Win32,60,5f073de81c76c3308c0e4fb3,5f077800db22460008c9988d,3,,,,,,candle,,,,,,,,,,,3,2,0,1,1,23,1,,,,,,,,,,,,,,,,,,,,,,,,,,,,,,,,,,,,,,,,,,,,,,,,,,,,,,,,,,,,,,,,,,,,,,
,,?,0.002385,0,,,,,,stimuli/images/PICTURE_141.png,CLIENT,5c8eb16ed169ac0001c27629,08/05/1953,2020-07-09_16h04.19.927,proactive,2020.1.2,Win32,60,5f073de81c76c3308c0e4fb3,5f077800db22460008c9988d,3,,,,,,sunflower,,,,,,,,,,,4,2,0,2,2,30,1,,,,,,,,,,,,,,,,,,,,,,,,,,,,,,,,,,,,,,,,,,,,,,,,,,,,,,,,,,,,,,,,,,,,,,
,,?,0.00252,0,,,,,,stimuli/images/PICTURE_509.png,APPLE,5c8eb16ed169ac0001c27629,08/05/1953,2020-07-09_16h04.19.927,proactive,2020.1.2,Win32,60,5f073de81c76c3308c0e4fb3,5f077800db22460008c9988d,3,,,,,,telephone,,,,,,,,,,,4,2,0,3,3,38,1,,,,,,,,,,,,,,,,,,,,,,,,,,,,,,,,,,,,,,,,,,,,,,,,,,,,,,,,,,,,,,,,,,,,,,
,,?,0.005,0,,,,,,stimuli/images/PICTURE_504.png,HOUSE,5c8eb16ed169ac0001c27629,08/05/1953,2020-07-09_16h04.19.927,proactive,2020.1.2,Win32,60,5f073de81c76c3308c0e4fb3,5f077800db22460008c9988d,3,,,,,,wheel,,,,,,,,,,,4,2,0,4,4,36,1,,,,,,,,,,,,,,,,,,,,,,,,,,,,,,,,,,,,,,,,,,,,,,,,,,,,,,,,,,,,,,,,,,,,,,
,,?,0.00241,0,,,,,,stimuli/images/PICTURE_356.png,CANDY,5c8eb16ed169ac0001c27629,08/05/1953,2020-07-09_16h04.19.927,proactive,2020.1.2,Win32,60,5f073de81c76c3308c0e4fb3,5f077800db22460008c9988d,3,,,,,,pawn,,,,,,,,,,,5,2,0,5,5,46,1,,,,,,,,,,,,,,,,,,,,,,,,,,,,,,,,,,,,,,,,,,,,,,,,,,,,,,,,,,,,,,,,,,,,,,
,,?,0.003855,0,,,,,,stimuli/images/PICTURE_452.png,COPS,5c8eb16ed169ac0001c27629,08/05/1953,2020-07-09_16h04.19.927,proactive,2020.1.2,Win32,60,5f073de81c76c3308c0e4fb3,5f077800db22460008c9988d,3,,,,,,watch,,,,,,,,,,,1,2,0,6,6,0,1,,,,,,,,,,,,,,,,,,,,,,,,,,,,,,,,,,,,,,,,,,,,,,,,,,,,,,,,,,,,,,,,,,,,,,
,,?,0.003175,0,,,,,,stimuli/images/PICTURE_453.png,FAMILY,5c8eb16ed169ac0001c27629,08/05/1953,2020-07-09_16h04.19.927,proactive,2020.1.2,Win32,60,5f073de81c76c3308c0e4fb3,5f077800db22460008c9988d,3,,,,,,scissors,,,,,,,,,,,5,2,0,7,7,48,1,,,,,,,,,,,,,,,,,,,,,,,,,,,,,,,,,,,,,,,,,,,,,,,,,,,,,,,,,,,,,,,,,,,,,,
,,?,0.00262,0,,,,,,stimuli/images/PICTURE_654.png,COPS,5c8eb16ed169ac0001c27629,08/05/1953,2020-07-09_16h04.19.927,proactive,2020.1.2,Win32,60,5f073de81c76c3308c0e4fb3,5f077800db22460008c9988d,3,,,,,,pencil,,,,,,,,,,,2,2,0,8,8,10,1,,,,,,,,,,,,,,,,,,,,,,,,,,,,,,,,,,,,,,,,,,,,,,,,,,,,,,,,,,,,,,,,,,,,,,
,,?,0.002685,0,,,,,,stimuli/images/PICTURE_509.png,SHOTS,5c8eb16ed169ac0001c27629,08/05/1953,2020-07-09_16h04.19.927,proactive,2020.1.2,Win32,60,5f073de81c76c3308c0e4fb3,5f077800db22460008c9988d,3,,,,,,telephone,,,,,,,,,,,1,2,0,9,9,7,1,,,,,,,,,,,,,,,,,,,,,,,,,,,,,,,,,,,,,,,,,,,,,,,,,,,,,,,,,,,,,,,,,,,,,,
,,?,0.00247,0,,,,,,stimuli/images/PICTURE_285.png,WRITER,5c8eb16ed169ac0001c27629,08/05/1953,2020-07-09_16h04.19.927,proactive,2020.1.2,Win32,60,5f073de81c76c3308c0e4fb3,5f077800db22460008c9988d,3,,,,,,carrot,,,,,,,,,,,1,2,0,10,10,6,1,,,,,,,,,,,,,,,,,,,,,,,,,,,,,,,,,,,,,,,,,,,,,,,,,,,,,,,,,,,,,,,,,,,,,,
,,?,6.343805,0,,,,,,stimuli/images/PICTURE_667.png,GLASS,5c8eb16ed169ac0001c27629,08/05/1953,2020-07-09_16h04.19.927,proactive,2020.1.2,Win32,60,5f073de81c76c3308c0e4fb3,5f077800db22460008c9988d,3,,,,,,daisy,,,,,,,,,,,3,2,0,11,11,27,1,,,,,,,,,,,,,,,,,,,,,,,,,,,,,,,,,,,,,,,,,,,,,,,,,,,,,,,,,,,,,,,,,,,,,,
,,?,0.002575,0,,,,,,stimuli/images/PICTURE_564.png,PLENTY,5c8eb16ed169ac0001c27629,08/05/1953,2020-07-09_16h04.19.927,proactive,2020.1.2,Win32,60,5f073de81c76c3308c0e4fb3,5f077800db22460008c9988d,3,,,,,,spoon,,,,,,,,,,,2,2,0,12,12,11,1,,,,,,,,,,,,,,,,,,,,,,,,,,,,,,,,,,,,,,,,,,,,,,,,,,,,,,,,,,,,,,,,,,,,,,
,,?,0.00237,0,,,,,,stimuli/images/PICTURE_314.png,SPEECH,5c8eb16ed169ac0001c27629,08/05/1953,2020-07-09_16h04.19.927,proactive,2020.1.2,Win32,60,5f073de81c76c3308c0e4fb3,5f077800db22460008c9988d,3,,,,,,perfume,,,,,,,,,,,4,2,0,13,13,35,1,,,,,,,,,,,,,,,,,,,,,,,,,,,,,,,,,,,,,,,,,,,,,,,,,,,,,,,,,,,,,,,,,,,,,,
,,?,0.002145,0,,,,,,stimuli/images/PICTURE_311.png,TOILET,5c8eb16ed169ac0001c27629,08/05/1953,2020-07-09_16h04.19.927,proactive,2020.1.2,Win32,60,5f073de81c76c3308c0e4fb3,5f077800db22460008c9988d,3,,,,,,razor,,,,,,,,,,,6,2,0,14,14,54,1,,,,,,,,,,,,,,,,,,,,,,,,,,,,,,,,,,,,,,,,,,,,,,,,,,,,,,,,,,,,,,,,,,,,,,
,,?,0.00208,0,,,,,,stimuli/images/PICTURE_147.png,LEADER,5c8eb16ed169ac0001c27629,08/05/1953,2020-07-09_16h04.19.927,proactive,2020.1.2,Win32,60,5f073de81c76c3308c0e4fb3,5f077800db22460008c9988d,3,,,,,,hanger,,,,,,,,,,,4,2,0,15,15,33,1,,,,,,,,,,,,,,,,,,,,,,,,,,,,,,,,,,,,,,,,,,,,,,,,,,,,,,,,,,,,,,,,,,,,,,
,,?,0.002815,0,,,,,,stimuli/images/PICTURE_255.png,PENNY,5c8eb16ed169ac0001c27629,08/05/1953,2020-07-09_16h04.19.927,proactive,2020.1.2,Win32,60,5f073de81c76c3308c0e4fb3,5f077800db22460008c9988d,3,,,,,,shovel,,,,,,,,,,,2,2,0,16,16,19,1,,,,,,,,,,,,,,,,,,,,,,,,,,,,,,,,,,,,,,,,,,,,,,,,,,,,,,,,,,,,,,,,,,,,,,
,,SPIRIT,4.5475,1,,,,,,stimuli/images/PICTURE_208.png,SPIRIT,5c8eb16ed169ac0001c27629,08/05/1953,2020-07-09_16h04.19.927,proactive,2020.1.2,Win32,60,5f073de81c76c3308c0e4fb3,5f077800db22460008c9988d,3,,,,,,microphone,,,,,,,,,,,3,2,0,17,17,28,1,,,,,,,,,,,,,,,,,,,,,,,,,,,,,,,,,,,,,,,,,,,,,,,,,,,,,,,,,,,,,,,,,,,,,,
,,?,0.002705,0,,,,,,stimuli/images/PICTURE_297.png,BODY,5c8eb16ed169ac0001c27629,08/05/1953,2020-07-09_16h04.19.927,proactive,2020.1.2,Win32,60,5f073de81c76c3308c0e4fb3,5f077800db22460008c9988d,3,,,,,,aeroplane,,,,,,,,,,,6,2,0,18,18,51,1,,,,,,,,,,,,,,,,,,,,,,,,,,,,,,,,,,,,,,,,,,,,,,,,,,,,,,,,,,,,,,,,,,,,,,
,,?,0.012265,0,,,,,,stimuli/images/PICTURE_311.png,FLESH,5c8eb16ed169ac0001c27629,08/05/1953,2020-07-09_16h04.19.927,proactive,2020.1.2,Win32,60,5f073de81c76c3308c0e4fb3,5f077800db22460008c9988d,3,,,,,,razor,,,,,,,,,,,1,2,0,19,19,3,1,,,,,,,,,,,,,,,,,,,,,,,,,,,,,,,,,,,,,,,,,,,,,,,,,,,,,,,,,,,,,,,,,,,,,,
,,?,0.00261,0,,,,,,stimuli/images/PICTURE_708.png,VALLEY,5c8eb16ed169ac0001c27629,08/05/1953,2020-07-09_16h04.19.927,proactive,2020.1.2,Win32,60,5f073de81c76c3308c0e4fb3,5f077800db22460008c9988d,3,,,,,,monkey,,,,,,,,,,,5,2,0,20,20,45,1,,,,,,,,,,,,,,,,,,,,,,,,,,,,,,,,,,,,,,,,,,,,,,,,,,,,,,,,,,,,,,,,,,,,,,
,,?,0.012685,0,,,,,,stimuli/images/PICTURE_93.png,GIRL,5c8eb16ed169ac0001c27629,08/05/1953,2020-07-09_16h04.19.927,proactive,2020.1.2,Win32,60,5f073de81c76c3308c0e4fb3,5f077800db22460008c9988d,3,,,,,,skateboard,,,,,,,,,,,4,2,0,21,21,31,1,,,,,,,,,,,,,,,,,,,,,,,,,,,,,,,,,,,,,,,,,,,,,,,,,,,,,,,,,,,,,,,,,,,,,,
,,?,0.002455,0,,,,,,stimuli/images/PICTURE_405.png,JUNGLE,5c8eb16ed169ac0001c27629,08/05/1953,2020-07-09_16h04.19.927,proactive,2020.1.2,Win32,60,5f073de81c76c3308c0e4fb3,5f077800db22460008c9988d,3,,,,,,anchor,,,,,,,,,,,2,2,0,22,22,13,1,,,,,,,,,,,,,,,,,,,,,,,,,,,,,,,,,,,,,,,,,,,,,,,,,,,,,,,,,,,,,,,,,,,,,,
,,?,0.00339,0,,,,,,stimuli/images/PICTURE_57.png,CASINO,5c8eb16ed169ac0001c27629,08/05/1953,2020-07-09_16h04.19.927,proactive,2020.1.2,Win32,60,5f073de81c76c3308c0e4fb3,5f077800db22460008c9988d,3,,,,,,stamp,,,,,,,,,,,2,2,0,23,23,12,1,,,,,,,,,,,,,,,,,,,,,,,,,,,,,,,,,,,,,,,,,,,,,,,,,,,,,,,,,,,,,,,,,,,,,,
,,?,0.0029,0,,,,,,stimuli/images/PICTURE_403.png,FAMILY,5c8eb16ed169ac0001c27629,08/05/1953,2020-07-09_16h04.19.927,proactive,2020.1.2,Win32,60,5f073de81c76c3308c0e4fb3,5f077800db22460008c9988d,3,,,,,,cathedral,,,,,,,,,,,1,2,0,24,24,9,1,,,,,,,,,,,,,,,,,,,,,,,,,,,,,,,,,,,,,,,,,,,,,,,,,,,,,,,,,,,,,,,,,,,,,,
,,?,0.002405,0,,,,,,stimuli/images/PICTURE_688.png,CLOCK,5c8eb16ed169ac0001c27629,08/05/1953,2020-07-09_16h04.19.927,proactive,2020.1.2,Win32,60,5f073de81c76c3308c0e4fb3,5f077800db22460008c9988d,3,,,,,,runner,,,,,,,,,,,5,2,0,25,25,42,1,,,,,,,,,,,,,,,,,,,,,,,,,,,,,,,,,,,,,,,,,,,,,,,,,,,,,,,,,,,,,,,,,,,,,,
,,?,0.002325,0,,,,,,stimuli/images/PICTURE_32.png,LETTER,5c8eb16ed169ac0001c27629,08/05/1953,2020-07-09_16h04.19.927,proactive,2020.1.2,Win32,60,5f073de81c76c3308c0e4fb3,5f077800db22460008c9988d,3,,,,,,crown,,,,,,,,,,,6,2,0,26,26,56,1,,,,,,,,,,,,,,,,,,,,,,,,,,,,,,,,,,,,,,,,,,,,,,,,,,,,,,,,,,,,,,,,,,,,,,
,,?,0.002335,0,,,,,,stimuli/images/PICTURE_677.png,PHOTO,5c8eb16ed169ac0001c27629,08/05/1953,2020-07-09_16h04.19.927,proactive,2020.1.2,Win32,60,5f073de81c76c3308c0e4fb3,5f077800db22460008c9988d,3,,,,,,map,,,,,,,,,,,2,2,0,27,27,14,1,,,,,,,,,,,,,,,,,,,,,,,,,,,,,,,,,,,,,,,,,,,,,,,,,,,,,,,,,,,,,,,,,,,,,,
,,?,0.00226,0,,,,,,stimuli/images/PICTURE_123.png,SALE,5c8eb16ed169ac0001c27629,08/05/1953,2020-07-09_16h04.19.927,proactive,2020.1.2,Win32,60,5f073de81c76c3308c0e4fb3,5f077800db22460008c9988d,3,,,,,,dart,,,,,,,,,,,1,2,0,28,28,8,1,,,,,,,,,,,,,,,,,,,,,,,,,,,,,,,,,,,,,,,,,,,,,,,,,,,,,,,,,,,,,,,,,,,,,,
,,?,0.00254,0,,,,,,stimuli/images/PICTURE_470.png,MOMENT,5c8eb16ed169ac0001c27629,08/05/1953,2020-07-09_16h04.19.927,proactive,2020.1.2,Win32,60,5f073de81c76c3308c0e4fb3,5f077800db22460008c9988d,3,,,,,,motorbike,,,,,,,,,,,5,2,0,29,29,40,1,,,,,,,,,,,,,,,,,,,,,,,,,,,,,,,,,,,,,,,,,,,,,,,,,,,,,,,,,,,,,,,,,,,,,,
,,?,4.265815,0,,,,,,stimuli/images/PICTURE_285.png,PRINCE,5c8eb16ed169ac0001c27629,08/05/1953,2020-07-09_16h04.19.927,proactive,2020.1.2,Win32,60,5f073de81c76c3308c0e4fb3,5f077800db22460008c9988d,3,,,,,,carrot,,,,,,,,,,,3,2,0,30,30,20,1,,,,,,,,,,,,,,,,,,,,,,,,,,,,,,,,,,,,,,,,,,,,,,,,,,,,,,,,,,,,,,,,,,,,,,
,,?,0.00241,0,,,,,,stimuli/images/PICTURE_655.png,SALE,5c8eb16ed169ac0001c27629,08/05/1953,2020-07-09_16h04.19.927,proactive,2020.1.2,Win32,60,5f073de81c76c3308c0e4fb3,5f077800db22460008c9988d,3,,,,,,megaphone,,,,,,,,,,,6,2,0,31,31,57,1,,,,,,,,,,,,,,,,,,,,,,,,,,,,,,,,,,,,,,,,,,,,,,,,,,,,,,,,,,,,,,,,,,,,,,
,,?,0.002855,0,,,,,,stimuli/images/PICTURE_2.png,AREA,5c8eb16ed169ac0001c27629,08/05/1953,2020-07-09_16h04.19.927,proactive,2020.1.2,Win32,60,5f073de81c76c3308c0e4fb3,5f077800db22460008c9988d,3,,,,,,tyre,,,,,,,,,,,4,2,0,32,32,32,1,,,,,,,,,,,,,,,,,,,,,,,,,,,,,,,,,,,,,,,,,,,,,,,,,,,,,,,,,,,,,,,,,,,,,,
,,RIVER,2.91015,1,,,,,,stimuli/images/PICTURE_18.png,RIVER,5c8eb16ed169ac0001c27629,08/05/1953,2020-07-09_16h04.19.927,proactive,2020.1.2,Win32,60,5f073de81c76c3308c0e4fb3,5f077800db22460008c9988d,3,,,,,,planet,,,,,,,,,,,3,2,0,33,33,22,1,,,,,,,,,,,,,,,,,,,,,,,,,,,,,,,,,,,,,,,,,,,,,,,,,,,,,,,,,,,,,,,,,,,,,,
,,?,0.00267,0,,,,,,stimuli/images/PICTURE_327.png,LEADER,5c8eb16ed169ac0001c27629,08/05/1953,2020-07-09_16h04.19.927,proactive,2020.1.2,Win32,60,5f073de81c76c3308c0e4fb3,5f077800db22460008c9988d,3,,,,,,helmet,,,,,,,,,,,2,2,0,34,34,17,1,,,,,,,,,,,,,,,,,,,,,,,,,,,,,,,,,,,,,,,,,,,,,,,,,,,,,,,,,,,,,,,,,,,,,,
,,?,0.00363,0,,,,,,stimuli/images/PICTURE_348.png,TOILET,5c8eb16ed169ac0001c27629,08/05/1953,2020-07-09_16h04.19.927,proactive,2020.1.2,Win32,60,5f073de81c76c3308c0e4fb3,5f077800db22460008c9988d,3,,,,,,pepper,,,,,,,,,,,1,2,0,35,35,4,1,,,,,,,,,,,,,,,,,,,,,,,,,,,,,,,,,,,,,,,,,,,,,,,,,,,,,,,,,,,,,,,,,,,,,,
,,BEAUTY,2.72319,1,,,,,,stimuli/images/PICTURE_470.png,BEAUTY,5c8eb16ed169ac0001c27629,08/05/1953,2020-07-09_16h04.19.927,proactive,2020.1.2,Win32,60,5f073de81c76c3308c0e4fb3,5f077800db22460008c9988d,3,,,,,,motorbike,,,,,,,,,,,3,2,0,36,36,26,1,,,,,,,,,,,,,,,,,,,,,,,,,,,,,,,,,,,,,,,,,,,,,,,,,,,,,,,,,,,,,,,,,,,,,,
,,?,0.003485,0,,,,,,stimuli/images/PICTURE_509.png,BATH,5c8eb16ed169ac0001c27629,08/05/1953,2020-07-09_16h04.19.927,proactive,2020.1.2,Win32,60,5f073de81c76c3308c0e4fb3,5f077800db22460008c9988d,3,,,,,,telephone,,,,,,,,,,,2,2,0,37,37,15,1,,,,,,,,,,,,,,,,,,,,,,,,,,,,,,,,,,,,,,,,,,,,,,,,,,,,,,,,,,,,,,,,,,,,,,
,,?,0.00236,0,,,,,,stimuli/images/PICTURE_160.png,HOTEL,5c8eb16ed169ac0001c27629,08/05/1953,2020-07-09_16h04.19.927,proactive,2020.1.2,Win32,60,5f073de81c76c3308c0e4fb3,5f077800db22460008c9988d,3,,,,,,wheelbarrow,,,,,,,,,,,2,2,0,38,38,16,1,,,,,,,,,,,,,,,,,,,,,,,,,,,,,,,,,,,,,,,,,,,,,,,,,,,,,,,,,,,,,,,,,,,,,,
,,?,0.003515,0,,,,,,stimuli/images/PICTURE_405.png,JUNGLE,5c8eb16ed169ac0001c27629,08/05/1953,2020-07-09_16h04.19.927,proactive,2020.1.2,Win32,60,5f073de81c76c3308c0e4fb3,5f077800db22460008c9988d,3,,,,,,anchor,,,,,,,,,,,6,2,0,39,39,58,1,,,,,,,,,,,,,,,,,,,,,,,,,,,,,,,,,,,,,,,,,,,,,,,,,,,,,,,,,,,,,,,,,,,,,,
,,?,0.002615,0,,,,,,stimuli/images/PICTURE_692.png,DUDE,5c8eb16ed169ac0001c27629,08/05/1953,2020-07-09_16h04.19.927,proactive,2020.1.2,Win32,60,5f073de81c76c3308c0e4fb3,5f077800db22460008c9988d,3,,,,,,cherry,,,,,,,,,,,5,2,0,40,40,47,1,,,,,,,,,,,,,,,,,,,,,,,,,,,,,,,,,,,,,,,,,,,,,,,,,,,,,,,,,,,,,,,,,,,,,,
,,?,0.002405,0,,,,,,stimuli/images/PICTURE_215.png,FOOD,5c8eb16ed169ac0001c27629,08/05/1953,2020-07-09_16h04.19.927,proactive,2020.1.2,Win32,60,5f073de81c76c3308c0e4fb3,5f077800db22460008c9988d,3,,,,,,boot,,,,,,,,,,,1,2,0,41,41,5,1,,,,,,,,,,,,,,,,,,,,,,,,,,,,,,,,,,,,,,,,,,,,,,,,,,,,,,,,,,,,,,,,,,,,,,
,,?,0.002615,0,,,,,,stimuli/images/PICTURE_2.png,JUNGLE,5c8eb16ed169ac0001c27629,08/05/1953,2020-07-09_16h04.19.927,proactive,2020.1.2,Win32,60,5f073de81c76c3308c0e4fb3,5f077800db22460008c9988d,3,,,,,,tyre,,,,,,,,,,,1,2,0,42,42,1,1,,,,,,,,,,,,,,,,,,,,,,,,,,,,,,,,,,,,,,,,,,,,,,,,,,,,,,,,,,,,,,,,,,,,,,
,,?,0.00238,0,,,,,,stimuli/images/PICTURE_677.png,FAMILY,5c8eb16ed169ac0001c27629,08/05/1953,2020-07-09_16h04.19.927,proactive,2020.1.2,Win32,60,5f073de81c76c3308c0e4fb3,5f077800db22460008c9988d,3,,,,,,map,,,,,,,,,,,6,2,0,43,43,53,1,,,,,,,,,,,,,,,,,,,,,,,,,,,,,,,,,,,,,,,,,,,,,,,,,,,,,,,,,,,,,,,,,,,,,,
,,?,0.002305,0,,,,,,stimuli/images/PICTURE_2.png,YARD,5c8eb16ed169ac0001c27629,08/05/1953,2020-07-09_16h04.19.927,proactive,2020.1.2,Win32,60,5f073de81c76c3308c0e4fb3,5f077800db22460008c9988d,3,,,,,,tyre,,,,,,,,,,,6,2,0,44,44,55,1,,,,,,,,,,,,,,,,,,,,,,,,,,,,,,,,,,,,,,,,,,,,,,,,,,,,,,,,,,,,,,,,,,,,,,
,,COPS,2.67314,1,,,,,,stimuli/images/PICTURE_33.png,COPS,5c8eb16ed169ac0001c27629,08/05/1953,2020-07-09_16h04.19.927,proactive,2020.1.2,Win32,60,5f073de81c76c3308c0e4fb3,5f077800db22460008c9988d,3,,,,,,frame,,,,,,,,,,,3,2,0,45,45,29,1,,,,,,,,,,,,,,,,,,,,,,,,,,,,,,,,,,,,,,,,,,,,,,,,,,,,,,,,,,,,,,,,,,,,,,
,,?,0.002185,0,,,,,,stimuli/images/PICTURE_57.png,CANDY,5c8eb16ed169ac0001c27629,08/05/1953,2020-07-09_16h04.19.927,proactive,2020.1.2,Win32,60,5f073de81c76c3308c0e4fb3,5f077800db22460008c9988d,3,,,,,,stamp,,,,,,,,,,,6,2,0,46,46,52,1,,,,,,,,,,,,,,,,,,,,,,,,,,,,,,,,,,,,,,,,,,,,,,,,,,,,,,,,,,,,,,,,,,,,,,
,,?,0.00252,0,,,,,,stimuli/images/PICTURE_405.png,HOUSE,5c8eb16ed169ac0001c27629,08/05/1953,2020-07-09_16h04.19.927,proactive,2020.1.2,Win32,60,5f073de81c76c3308c0e4fb3,5f077800db22460008c9988d,3,,,,,,anchor,,,,,,,,,,,1,2,0,47,47,2,1,,,,,,,,,,,,,,,,,,,,,,,,,,,,,,,,,,,,,,,,,,,,,,,,,,,,,,,,,,,,,,,,,,,,,,
,,?,0.003045,0,,,,,,stimuli/images/PICTURE_654.png,YEAR,5c8eb16ed169ac0001c27629,08/05/1953,2020-07-09_16h04.19.927,proactive,2020.1.2,Win32,60,5f073de81c76c3308c0e4fb3,5f077800db22460008c9988d,3,,,,,,pencil,,,,,,,,,,,5,2,0,48,48,41,1,,,,,,,,,,,,,,,,,,,,,,,,,,,,,,,,,,,,,,,,,,,,,,,,,,,,,,,,,,,,,,,,,,,,,,
,,?,0.00331,0,,,,,,stimuli/images/PICTURE_215.png,LEADER,5c8eb16ed169ac0001c27629,08/05/1953,2020-07-09_16h04.19.927,proactive,2020.1.2,Win32,60,5f073de81c76c3308c0e4fb3,5f077800db22460008c9988d,3,,,,,,boot,,,,,,,,,,,5,2,0,49,49,43,1,,,,,,,,,,,,,,,,,,,,,,,,,,,,,,,,,,,,,,,,,,,,,,,,,,,,,,,,,,,,,,,,,,,,,,
,,BOYS,2.154405,1,,,,,,stimuli/images/PICTURE_215.png,BOYS,5c8eb16ed169ac0001c27629,08/05/1953,2020-07-09_16h04.19.927,proactive,2020.1.2,Win32,60,5f073de81c76c3308c0e4fb3,5f077800db22460008c9988d,3,,,,,,boot,,,,,,,,,,,3,2,0,50,50,24,1,,,,,,,,,,,,,,,,,,,,,,,,,,,,,,,,,,,,,,,,,,,,,,,,,,,,,,,,,,,,,,,,,,,,,,
,,?,1.558905,0,,,,,,stimuli/images/PICTURE_177.png,HOUSE,5c8eb16ed169ac0001c27629,08/05/1953,2020-07-09_16h04.19.927,proactive,2020.1.2,Win32,60,5f073de81c76c3308c0e4fb3,5f077800db22460008c9988d,3,,,,,,mushroom,,,,,,,,,,,3,2,0,51,51,25,1,,,,,,,,,,,,,,,,,,,,,,,,,,,,,,,,,,,,,,,,,,,,,,,,,,,,,,,,,,,,,,,,,,,,,,
,,?,0.002775,0,,,,,,stimuli/images/PICTURE_296.png,CLOCK,5c8eb16ed169ac0001c27629,08/05/1953,2020-07-09_16h04.19.927,proactive,2020.1.2,Win32,60,5f073de81c76c3308c0e4fb3,5f077800db22460008c9988d,3,,,,,,bolt,,,,,,,,,,,2,2,0,52,52,18,1,,,,,,,,,,,,,,,,,,,,,,,,,,,,,,,,,,,,,,,,,,,,,,,,,,,,,,,,,,,,,,,,,,,,,,
,,?,0.005555,0,,,,,,stimuli/images/PICTURE_95.png,NIGHT,5c8eb16ed169ac0001c27629,08/05/1953,2020-07-09_16h04.19.927,proactive,2020.1.2,Win32,60,5f073de81c76c3308c0e4fb3,5f077800db22460008c9988d,3,,,,,,suitcase,,,,,,,,,,,4,2,0,53,53,37,1,,,,,,,,,,,,,,,,,,,,,,,,,,,,,,,,,,,,,,,,,,,,,,,,,,,,,,,,,,,,,,,,,,,,,,
,,?,0.002255,0,,,,,,stimuli/images/PICTURE_491.png,SERIES,5c8eb16ed169ac0001c27629,08/05/1953,2020-07-09_16h04.19.927,proactive,2020.1.2,Win32,60,5f073de81c76c3308c0e4fb3,5f077800db22460008c9988d,3,,,,,,rug,,,,,,,,,,,4,2,0,54,54,39,1,,,,,,,,,,,,,,,,,,,,,,,,,,,,,,,,,,,,,,,,,,,,,,,,,,,,,,,,,,,,,,,,,,,,,,
,,?,0.003025,0,,,,,,stimuli/images/PICTURE_487.png,POLICY,5c8eb16ed169ac0001c27629,08/05/1953,2020-07-09_16h04.19.927,proactive,2020.1.2,Win32,60,5f073de81c76c3308c0e4fb3,5f077800db22460008c9988d,3,,,,,,basket,,,,,,,,,,,4,2,0,55,55,34,1,,,,,,,,,,,,,,,,,,,,,,,,,,,,,,,,,,,,,,,,,,,,,,,,,,,,,,,,,,,,,,,,,,,,,,
,,?,0.003295,0,,,,,,stimuli/images/PICTURE_509.png,MILLER,5c8eb16ed169ac0001c27629,08/05/1953,2020-07-09_16h04.19.927,proactive,2020.1.2,Win32,60,5f073de81c76c3308c0e4fb3,5f077800db22460008c9988d,3,,,,,,telephone,,,,,,,,,,,5,2,0,56,56,49,1,,,,,,,,,,,,,,,,,,,,,,,,,,,,,,,,,,,,,,,,,,,,,,,,,,,,,,,,,,,,,,,,,,,,,,
,,NATION,3.02071,1,,,,,,stimuli/images/PICTURE_57.png,NATION,5c8eb16ed169ac0001c27629,08/05/1953,2020-07-09_16h04.19.927,proactive,2020.1.2,Win32,60,5f073de81c76c3308c0e4fb3,5f077800db22460008c9988d,3,,,,,,stamp,,,,,,,,,,,3,2,0,57,57,21,1,,,,,,,,,,,,,,,,,,,,,,,,,,,,,,,,,,,,,,,,,,,,,,,,,,,,,,,,,,,,,,,,,,,,,,
,,?,0.002315,0,,,,,,stimuli/images/PICTURE_487.png,ROOF,5c8eb16ed169ac0001c27629,08/05/1953,2020-07-09_16h04.19.927,proactive,2020.1.2,Win32,60,5f073de81c76c3308c0e4fb3,5f077800db22460008c9988d,3,,,,,,basket,,,,,,,,,,,6,2,0,58,58,50,1,,,,,,,,,,,,,,,,,,,,,,,,,,,,,,,,,,,,,,,,,,,,,,,,,,,,,,,,,,,,,,,,,,,,,,
,,?,0.00207,0,,,,,,stimuli/images/PICTURE_750.png,POLICY,5c8eb16ed169ac0001c27629,08/05/1953,2020-07-09_16h04.19.927,proactive,2020.1.2,Win32,60,5f073de81c76c3308c0e4fb3,5f077800db22460008c9988d,3,,,,,,kettle,,,,,,,,,,,5,2,0,59,59,44,1,,,,,,,,,,,,,,,,,,,,,,,,,,,,,,,,,,,,,,,,,,,,,,,,,,,,,,,,,,,,,,,,,,,,,,
,,,,,,,,,,,,5c8eb16ed169ac0001c27629,08/05/1953,2020-07-09_16h04.19.927,proactive,2020.1.2,Win32,60,5f073de81c76c3308c0e4fb3,5f077800db22460008c9988d,3,,,,,,,,,,,,,,,,,,,,,,,,0,0,0,2,1,stimuli/learn-block3.csv,,,,,,,,,,,,,,,,,,,,,,,,,,,,,,,,,,,,,,,,,,,,,,,,,,,,,,,,,,,,,,,,
,,,,,,,,,,stimuli/images/PICTURE_564.png,BATH,5c8eb16ed169ac0001c27629,08/05/1953,2020-07-09_16h04.19.927,proactive,2020.1.2,Win32,60,5f073de81c76c3308c0e4fb3,5f077800db22460008c9988d,3,,,,,,spoon,,,,,,0,0,0,26,1,3,1,,,,,,,,,,,,,,,,,,,,,,,,,,,,,,,,,,,,,,,,,,,,,,,,,,,,,,,,,,,,,,,,,,,,,,,,,,,
,,,,,,,,,,stimuli/images/PICTURE_32.png,KIND,5c8eb16ed169ac0001c27629,08/05/1953,2020-07-09_16h04.19.927,proactive,2020.1.2,Win32,60,5f073de81c76c3308c0e4fb3,5f077800db22460008c9988d,3,,,,,,crown,,,,,,0,1,1,35,1,4,1,,,,,,,,,,,,,,,,,,,,,,,,,,,,,,,,,,,,,,,,,,,,,,,,,,,,,,,,,,,,,,,,,,,,,,,,,,,
,,,,,,,,,,stimuli/images/PICTURE_296.png,LOTS,5c8eb16ed169ac0001c27629,08/05/1953,2020-07-09_16h04.19.927,proactive,2020.1.2,Win32,60,5f073de81c76c3308c0e4fb3,5f077800db22460008c9988d,3,,,,,,bolt,,,,,,0,2,2,9,1,1,1,,,,,,,,,,,,,,,,,,,,,,,,,,,,,,,,,,,,,,,,,,,,,,,,,,,,,,,,,,,,,,,,,,,,,,,,,,,
,,,,,,,,,,stimuli/images/PICTURE_57.png,MOMENT,5c8eb16ed169ac0001c27629,08/05/1953,2020-07-09_16h04.19.927,proactive,2020.1.2,Win32,60,5f073de81c76c3308c0e4fb3,5f077800db22460008c9988d,3,,,,,,stamp,,,,,,0,3,3,37,1,4,1,,,,,,,,,,,,,,,,,,,,,,,,,,,,,,,,,,,,,,,,,,,,,,,,,,,,,,,,,,,,,,,,,,,,,,,,,,,
,,,,,,,,,,stimuli/images/PICTURE_405.png,YEAR,5c8eb16ed169ac0001c27629,08/05/1953,2020-07-09_16h04.19.927,proactive,2020.1.2,Win32,60,5f073de81c76c3308c0e4fb3,5f077800db22460008c9988d,3,,,,,,anchor,,,,,,0,4,4,34,1,4,1,,,,,,,,,,,,,,,,,,,,,,,,,,,,,,,,,,,,,,,,,,,,,,,,,,,,,,,,,,,,,,,,,,,,,,,,,,,
,,,,,,,,,,stimuli/images/PICTURE_147.png,WOMEN,5c8eb16ed169ac0001c27629,08/05/1953,2020-07-09_16h04.19.927,proactive,2020.1.2,Win32,60,5f073de81c76c3308c0e4fb3,5f077800db22460008c9988d,3,,,,,,hanger,,,,,,0,5,5,7,1,1,1,,,,,,,,,,,,,,,,,,,,,,,,,,,,,,,,,,,,,,,,,,,,,,,,,,,,,,,,,,,,,,,,,,,,,,,,,,,
,,,,,,,,,,stimuli/images/PICTURE_297.png,RIVER,5c8eb16ed169ac0001c27629,08/05/1953,2020-07-09_16h04.19.927,proactive,2020.1.2,Win32,60,5f073de81c76c3308c0e4fb3,5f077800db22460008c9988d,3,,,,,,aeroplane,,,,,,0,6,6,39,1,4,1,,,,,,,,,,,,,,,,,,,,,,,,,,,,,,,,,,,,,,,,,,,,,,,,,,,,,,,,,,,,,,,,,,,,,,,,,,,
,,,,,,,,,,stimuli/images/PICTURE_68.png,MILE,5c8eb16ed169ac0001c27629,08/05/1953,2020-07-09_16h04.19.927,proactive,2020.1.2,Win32,60,5f073de81c76c3308c0e4fb3,5f077800db22460008c9988d,3,,,,,,candle,,,,,,0,7,7,51,1,6,1,,,,,,,,,,,,,,,,,,,,,,,,,,,,,,,,,,,,,,,,,,,,,,,,,,,,,,,,,,,,,,,,,,,,,,,,,,,
,,,,,,,,,,stimuli/images/PICTURE_685.png,PENNY,5c8eb16ed169ac0001c27629,08/05/1953,2020-07-09_16h04.19.927,proactive,2020.1.2,Win32,60,5f073de81c76c3308c0e4fb3,5f077800db22460008c9988d,3,,,,,,goose,,,,,,0,8,8,4,1,1,1,,,,,,,,,,,,,,,,,,,,,,,,,,,,,,,,,,,,,,,,,,,,,,,,,,,,,,,,,,,,,,,,,,,,,,,,,,,
,,,,,,,,,,stimuli/images/PICTURE_467.png,POLICY,5c8eb16ed169ac0001c27629,08/05/1953,2020-07-09_16h04.19.927,proactive,2020.1.2,Win32,60,5f073de81c76c3308c0e4fb3,5f077800db22460008c9988d,3,,,,,,peg,,,,,,0,9,9,53,1,6,1,,,,,,,,,,,,,,,,,,,,,,,,,,,,,,,,,,,,,,,,,,,,,,,,,,,,,,,,,,,,,,,,,,,,,,,,,,,
,,,,,,,,,,stimuli/images/PICTURE_327.png,CASINO,5c8eb16ed169ac0001c27629,08/05/1953,2020-07-09_16h04.19.927,proactive,2020.1.2,Win32,60,5f073de81c76c3308c0e4fb3,5f077800db22460008c9988d,3,,,,,,helmet,,,,,,0,10,10,20,1,3,1,,,,,,,,,,,,,,,,,,,,,,,,,,,,,,,,,,,,,,,,,,,,,,,,,,,,,,,,,,,,,,,,,,,,,,,,,,,
,,,,,,,,,,stimuli/images/PICTURE_85.png,NATION,5c8eb16ed169ac0001c27629,08/05/1953,2020-07-09_16h04.19.927,proactive,2020.1.2,Win32,60,5f073de81c76c3308c0e4fb3,5f077800db22460008c9988d,3,,,,,,diamond,,,,,,0,11,11,5,1,1,1,,,,,,,,,,,,,,,,,,,,,,,,,,,,,,,,,,,,,,,,,,,,,,,,,,,,,,,,,,,,,,,,,,,,,,,,,,,
,,,,,,,,,,stimuli/images/PICTURE_383.png,WRITER,5c8eb16ed169ac0001c27629,08/05/1953,2020-07-09_16h04.19.927,proactive,2020.1.2,Win32,60,5f073de81c76c3308c0e4fb3,5f077800db22460008c9988d,3,,,,,,coin,,,,,,0,12,12,28,1,3,1,,,,,,,,,,,,,,,,,,,,,,,,,,,,,,,,,,,,,,,,,,,,,,,,,,,,,,,,,,,,,,,,,,,,,,,,,,,
,,,,,,,,,,stimuli/images/PICTURE_750.png,HOTEL,5c8eb16ed169ac0001c27629,08/05/1953,2020-07-09_16h04.19.927,proactive,2020.1.2,Win32,60,5f073de81c76c3308c0e4fb3,5f077800db22460008c9988d,3,,,,,,kettle,,,,,,0,13,13,27,1,3,1,,,,,,,,,,,,,,,,,,,,,,,,,,,,,,,,,,,,,,,,,,,,,,,,,,,,,,,,,,,,,,,,,,,,,,,,,,,
,,,,,,,,,,stimuli/images/PICTURE_108.png,POLICY,5c8eb16ed169ac0001c27629,08/05/1953,2020-07-09_16h04.19.927,proactive,2020.1.2,Win32,60,5f073de81c76c3308c0e4fb3,5f077800db22460008c9988d,3,,,,,,calendar,,,,,,0,14,14,22,1,3,1,,,,,,,,,,,,,,,,,,,,,,,,,,,,,,,,,,,,,,,,,,,,,,,,,,,,,,,,,,,,,,,,,,,,,,,,,,,
,,,,,,,,,,stimuli/images/PICTURE_32.png,PILLS,5c8eb16ed169ac0001c27629,08/05/1953,2020-07-09_16h04.19.927,proactive,2020.1.2,Win32,60,5f073de81c76c3308c0e4fb3,5f077800db22460008c9988d,3,,,,,,crown,,,,,,0,15,15,18,1,2,1,,,,,,,,,,,,,,,,,,,,,,,,,,,,,,,,,,,,,,,,,,,,,,,,,,,,,,,,,,,,,,,,,,,,,,,,,,,
,,,,,,,,,,stimuli/images/PICTURE_177.png,WRITER,5c8eb16ed169ac0001c27629,08/05/1953,2020-07-09_16h04.19.927,proactive,2020.1.2,Win32,60,5f073de81c76c3308c0e4fb3,5f077800db22460008c9988d,3,,,,,,mushroom,,,,,,0,16,16,41,1,5,1,,,,,,,,,,,,,,,,,,,,,,,,,,,,,,,,,,,,,,,,,,,,,,,,,,,,,,,,,,,,,,,,,,,,,,,,,,,
,,,,,,,,,,stimuli/images/PICTURE_403.png,RIVER,5c8eb16ed169ac0001c27629,08/05/1953,2020-07-09_16h04.19.927,proactive,2020.1.2,Win32,60,5f073de81c76c3308c0e4fb3,5f077800db22460008c9988d,3,,,,,,cathedral,,,,,,0,17,17,40,1,5,1,,,,,,,,,,,,,,,,,,,,,,,,,,,,,,,,,,,,,,,,,,,,,,,,,,,,,,,,,,,,,,,,,,,,,,,,,,,
,,,,,,,,,,stimuli/images/PICTURE_449.png,DUDE,5c8eb16ed169ac0001c27629,08/05/1953,2020-07-09_16h04.19.927,proactive,2020.1.2,Win32,60,5f073de81c76c3308c0e4fb3,5f077800db22460008c9988d,3,,,,,,bench,,,,,,0,18,18,17,1,2,1,,,,,,,,,,,,,,,,,,,,,,,,,,,,,,,,,,,,,,,,,,,,,,,,,,,,,,,,,,,,,,,,,,,,,,,,,,,
,,,,,,,,,,stimuli/images/PICTURE_233.png,LOTS,5c8eb16ed169ac0001c27629,08/05/1953,2020-07-09_16h04.19.927,proactive,2020.1.2,Win32,60,5f073de81c76c3308c0e4fb3,5f077800db22460008c9988d,3,,,,,,salt,,,,,,0,19,19,42,1,5,1,,,,,,,,,,,,,,,,,,,,,,,,,,,,,,,,,,,,,,,,,,,,,,,,,,,,,,,,,,,,,,,,,,,,,,,,,,,
,,,,,,,,,,stimuli/images/PICTURE_208.png,SYSTEM,5c8eb16ed169ac0001c27629,08/05/1953,2020-07-09_16h04.19.927,proactive,2020.1.2,Win32,60,5f073de81c76c3308c0e4fb3,5f077800db22460008c9988d,3,,,,,,microphone,,,,,,0,20,20,32,1,4,1,,,,,,,,,,,,,,,,,,,,,,,,,,,,,,,,,,,,,,,,,,,,,,,,,,,,,,,,,,,,,,,,,,,,,,,,,,,
,,,,,,,,,,stimuli/images/PICTURE_95.png,MILLER,5c8eb16ed169ac0001c27629,08/05/1953,2020-07-09_16h04.19.927,proactive,2020.1.2,Win32,60,5f073de81c76c3308c0e4fb3,5f077800db22460008c9988d,3,,,,,,suitcase,,,,,,0,21,21,56,1,6,1,,,,,,,,,,,,,,,,,,,,,,,,,,,,,,,,,,,,,,,,,,,,,,,,,,,,,,,,,,,,,,,,,,,,,,,,,,,
,,,,,,,,,,stimuli/images/PICTURE_95.png,HONEY,5c8eb16ed169ac0001c27629,08/05/1953,2020-07-09_16h04.19.927,proactive,2020.1.2,Win32,60,5f073de81c76c3308c0e4fb3,5f077800db22460008c9988d,3,,,,,,suitcase,,,,,,0,22,22,44,1,5,1,,,,,,,,,,,,,,,,,,,,,,,,,,,,,,,,,,,,,,,,,,,,,,,,,,,,,,,,,,,,,,,,,,,,,,,,,,,
,,,,,,,,,,stimuli/images/PICTURE_327.png,SERIES,5c8eb16ed169ac0001c27629,08/05/1953,2020-07-09_16h04.19.927,proactive,2020.1.2,Win32,60,5f073de81c76c3308c0e4fb3,5f077800db22460008c9988d,3,,,,,,helmet,,,,,,0,23,23,3,1,1,1,,,,,,,,,,,,,,,,,,,,,,,,,,,,,,,,,,,,,,,,,,,,,,,,,,,,,,,,,,,,,,,,,,,,,,,,,,,
,,,,,,,,,,stimuli/images/PICTURE_403.png,WRITER,5c8eb16ed169ac0001c27629,08/05/1953,2020-07-09_16h04.19.927,proactive,2020.1.2,Win32,60,5f073de81c76c3308c0e4fb3,5f077800db22460008c9988d,3,,,,,,cathedral,,,,,,0,24,24,31,1,4,1,,,,,,,,,,,,,,,,,,,,,,,,,,,,,,,,,,,,,,,,,,,,,,,,,,,,,,,,,,,,,,,,,,,,,,,,,,,
,,,,,,,,,,stimuli/images/PICTURE_296.png,LIFE,5c8eb16ed169ac0001c27629,08/05/1953,2020-07-09_16h04.19.927,proactive,2020.1.2,Win32,60,5f073de81c76c3308c0e4fb3,5f077800db22460008c9988d,3,,,,,,bolt,,,,,,0,25,25,57,1,6,1,,,,,,,,,,,,,,,,,,,,,,,,,,,,,,,,,,,,,,,,,,,,,,,,,,,,,,,,,,,,,,,,,,,,,,,,,,,
,,,,,,,,,,stimuli/images/PICTURE_2.png,FLIGHT,5c8eb16ed169ac0001c27629,08/05/1953,2020-07-09_16h04.19.927,proactive,2020.1.2,Win32,60,5f073de81c76c3308c0e4fb3,5f077800db22460008c9988d,3,,,,,,tyre,,,,,,0,26,26,15,1,2,1,,,,,,,,,,,,,,,,,,,,,,,,,,,,,,,,,,,,,,,,,,,,,,,,,,,,,,,,,,,,,,,,,,,,,,,,,,,
,,,,,,,,,,stimuli/images/PICTURE_147.png,YEAR,5c8eb16ed169ac0001c27629,08/05/1953,2020-07-09_16h04.19.927,proactive,2020.1.2,Win32,60,5f073de81c76c3308c0e4fb3,5f077800db22460008c9988d,3,,,,,,hanger,,,,,,0,27,27,21,1,3,1,,,,,,,,,,,,,,,,,,,,,,,,,,,,,,,,,,,,,,,,,,,,,,,,,,,,,,,,,,,,,,,,,,,,,,,,,,,
,,,,,,,,,,stimuli/images/PICTURE_68.png,ROOF,5c8eb16ed169ac0001c27629,08/05/1953,2020-07-09_16h04.19.927,proactive,2020.1.2,Win32,60,5f073de81c76c3308c0e4fb3,5f077800db22460008c9988d,3,,,,,,candle,,,,,,0,28,28,38,1,4,1,,,,,,,,,,,,,,,,,,,,,,,,,,,,,,,,,,,,,,,,,,,,,,,,,,,,,,,,,,,,,,,,,,,,,,,,,,,
,,,,,,,,,,stimuli/images/PICTURE_655.png,TOILET,5c8eb16ed169ac0001c27629,08/05/1953,2020-07-09_16h04.19.927,proactive,2020.1.2,Win32,60,5f073de81c76c3308c0e4fb3,5f077800db22460008c9988d,3,,,,,,megaphone,,,,,,0,29,29,12,1,2,1,,,,,,,,,,,,,,,,,,,,,,,,,,,,,,,,,,,,,,,,,,,,,,,,,,,,,,,,,,,,,,,,,,,,,,,,,,,
,,,,,,,,,,stimuli/images/PICTURE_491.png,RIVER,5c8eb16ed169ac0001c27629,08/05/1953,2020-07-09_16h04.19.927,proactive,2020.1.2,Win32,60,5f073de81c76c3308c0e4fb3,5f077800db22460008c9988d,3,,,,,,rug,,,,,,0,30,30,6,1,1,1,,,,,,,,,,,,,,,,,,,,,,,,,,,,,,,,,,,,,,,,,,,,,,,,,,,,,,,,,,,,,,,,,,,,,,,,,,,
,,,,,,,,,,stimuli/images/PICTURE_403.png,TOILET,5c8eb16ed169ac0001c27629,08/05/1953,2020-07-09_16h04.19.927,proactive,2020.1.2,Win32,60,5f073de81c76c3308c0e4fb3,5f077800db22460008c9988d,3,,,,,,cathedral,,,,,,0,31,31,25,1,3,1,,,,,,,,,,,,,,,,,,,,,,,,,,,,,,,,,,,,,,,,,,,,,,,,,,,,,,,,,,,,,,,,,,,,,,,,,,,
,,,,,,,,,,stimuli/images/PICTURE_285.png,LIFE,5c8eb16ed169ac0001c27629,08/05/1953,2020-07-09_16h04.19.927,proactive,2020.1.2,Win32,60,5f073de81c76c3308c0e4fb3,5f077800db22460008c9988d,3,,,,,,carrot,,,,,,0,32,32,33,1,4,1,,,,,,,,,,,,,,,,,,,,,,,,,,,,,,,,,,,,,,,,,,,,,,,,,,,,,,,,,,,,,,,,,,,,,,,,,,,
,,,,,,,,,,stimuli/images/PICTURE_203.png,NIGHT,5c8eb16ed169ac0001c27629,08/05/1953,2020-07-09_16h04.19.927,proactive,2020.1.2,Win32,60,5f073de81c76c3308c0e4fb3,5f077800db22460008c9988d,3,,,,,,cap,,,,,,0,33,33,2,1,1,1,,,,,,,,,,,,,,,,,,,,,,,,,,,,,,,,,,,,,,,,,,,,,,,,,,,,,,,,,,,,,,,,,,,,,,,,,,,
,,,,,,,,,,stimuli/images/PICTURE_95.png,BOYS,5c8eb16ed169ac0001c27629,08/05/1953,2020-07-09_16h04.19.927,proactive,2020.1.2,Win32,60,5f073de81c76c3308c0e4fb3,5f077800db22460008c9988d,3,,,,,,suitcase,,,,,,0,34,34,1,1,1,1,,,,,,,,,,,,,,,,,,,,,,,,,,,,,,,,,,,,,,,,,,,,,,,,,,,,,,,,,,,,,,,,,,,,,,,,,,,
,,,,,,,,,,stimuli/images/PICTURE_405.png,PLENTY,5c8eb16ed169ac0001c27629,08/05/1953,2020-07-09_16h04.19.927,proactive,2020.1.2,Win32,60,5f073de81c76c3308c0e4fb3,5f077800db22460008c9988d,3,,,,,,anchor,,,,,,0,35,35,23,1,3,1,,,,,,,,,,,,,,,,,,,,,,,,,,,,,,,,,,,,,,,,,,,,,,,,,,,,,,,,,,,,,,,,,,,,,,,,,,,
,,,,,,,,,,stimuli/images/PICTURE_504.png,ARTIST,5c8eb16ed169ac0001c27629,08/05/1953,2020-07-09_16h04.19.927,proactive,2020.1.2,Win32,60,5f073de81c76c3308c0e4fb3,5f077800db22460008c9988d,3,,,,,,wheel,,,,,,0,36,36,49,1,5,1,,,,,,,,,,,,,,,,,,,,,,,,,,,,,,,,,,,,,,,,,,,,,,,,,,,,,,,,,,,,,,,,,,,,,,,,,,,
,,,,,,,,,,stimuli/images/PICTURE_85.png,TOILET,5c8eb16ed169ac0001c27629,08/05/1953,2020-07-09_16h04.19.927,proactive,2020.1.2,Win32,60,5f073de81c76c3308c0e4fb3,5f077800db22460008c9988d,3,,,,,,diamond,,,,,,0,37,37,48,1,5,1,,,,,,,,,,,,,,,,,,,,,,,,,,,,,,,,,,,,,,,,,,,,,,,,,,,,,,,,,,,,,,,,,,,,,,,,,,,
,,,,,,,,,,stimuli/images/PICTURE_340.png,VALLEY,5c8eb16ed169ac0001c27629,08/05/1953,2020-07-09_16h04.19.927,proactive,2020.1.2,Win32,60,5f073de81c76c3308c0e4fb3,5f077800db22460008c9988d,3,,,,,,mirror,,,,,,0,38,38,54,1,6,1,,,,,,,,,,,,,,,,,,,,,,,,,,,,,,,,,,,,,,,,,,,,,,,,,,,,,,,,,,,,,,,,,,,,,,,,,,,
,,,,,,,,,,stimuli/images/PICTURE_491.png,GLASS,5c8eb16ed169ac0001c27629,08/05/1953,2020-07-09_16h04.19.927,proactive,2020.1.2,Win32,60,5f073de81c76c3308c0e4fb3,5f077800db22460008c9988d,3,,,,,,rug,,,,,,0,39,39,14,1,2,1,,,,,,,,,,,,,,,,,,,,,,,,,,,,,,,,,,,,,,,,,,,,,,,,,,,,,,,,,,,,,,,,,,,,,,,,,,,
,,,,,,,,,,stimuli/images/PICTURE_469.png,AGENT,5c8eb16ed169ac0001c27629,08/05/1953,2020-07-09_16h04.19.927,proactive,2020.1.2,Win32,60,5f073de81c76c3308c0e4fb3,5f077800db22460008c9988d,3,,,,,,stool,,,,,,0,40,40,16,1,2,1,,,,,,,,,,,,,,,,,,,,,,,,,,,,,,,,,,,,,,,,,,,,,,,,,,,,,,,,,,,,,,,,,,,,,,,,,,,
,,,,,,,,,,stimuli/images/PICTURE_654.png,MONTH,5c8eb16ed169ac0001c27629,08/05/1953,2020-07-09_16h04.19.927,proactive,2020.1.2,Win32,60,5f073de81c76c3308c0e4fb3,5f077800db22460008c9988d,3,,,,,,pencil,,,,,,0,41,41,29,1,3,1,,,,,,,,,,,,,,,,,,,,,,,,,,,,,,,,,,,,,,,,,,,,,,,,,,,,,,,,,,,,,,,,,,,,,,,,,,,
,,,,,,,,,,stimuli/images/PICTURE_708.png,RECORD,5c8eb16ed169ac0001c27629,08/05/1953,2020-07-09_16h04.19.927,proactive,2020.1.2,Win32,60,5f073de81c76c3308c0e4fb3,5f077800db22460008c9988d,3,,,,,,monkey,,,,,,0,42,42,58,1,6,1,,,,,,,,,,,,,,,,,,,,,,,,,,,,,,,,,,,,,,,,,,,,,,,,,,,,,,,,,,,,,,,,,,,,,,,,,,,
,,,,,,,,,,stimuli/images/PICTURE_677.png,APPLE,5c8eb16ed169ac0001c27629,08/05/1953,2020-07-09_16h04.19.927,proactive,2020.1.2,Win32,60,5f073de81c76c3308c0e4fb3,5f077800db22460008c9988d,3,,,,,,map,,,,,,0,43,43,43,1,5,1,,,,,,,,,,,,,,,,,,,,,,,,,,,,,,,,,,,,,,,,,,,,,,,,,,,,,,,,,,,,,,,,,,,,,,,,,,,
,,,,,,,,,,stimuli/images/PICTURE_504.png,COPS,5c8eb16ed169ac0001c27629,08/05/1953,2020-07-09_16h04.19.927,proactive,2020.1.2,Win32,60,5f073de81c76c3308c0e4fb3,5f077800db22460008c9988d,3,,,,,,wheel,,,,,,0,44,44,52,1,6,1,,,,,,,,,,,,,,,,,,,,,,,,,,,,,,,,,,,,,,,,,,,,,,,,,,,,,,,,,,,,,,,,,,,,,,,,,,,
,,,,,,,,,,stimuli/images/PICTURE_667.png,RIVER,5c8eb16ed169ac0001c27629,08/05/1953,2020-07-09_16h04.19.927,proactive,2020.1.2,Win32,60,5f073de81c76c3308c0e4fb3,5f077800db22460008c9988d,3,,,,,,daisy,,,,,,0,45,45,10,1,2,1,,,,,,,,,,,,,,,,,,,,,,,,,,,,,,,,,,,,,,,,,,,,,,,,,,,,,,,,,,,,,,,,,,,,,,,,,,,
,,,,,,,,,,stimuli/images/PICTURE_340.png,LETTER,5c8eb16ed169ac0001c27629,08/05/1953,2020-07-09_16h04.19.927,proactive,2020.1.2,Win32,60,5f073de81c76c3308c0e4fb3,5f077800db22460008c9988d,3,,,,,,mirror,,,,,,0,46,46,24,1,3,1,,,,,,,,,,,,,,,,,,,,,,,,,,,,,,,,,,,,,,,,,,,,,,,,,,,,,,,,,,,,,,,,,,,,,,,,,,,
,,,,,,,,,,stimuli/images/PICTURE_380.png,CANDY,5c8eb16ed169ac0001c27629,08/05/1953,2020-07-09_16h04.19.927,proactive,2020.1.2,Win32,60,5f073de81c76c3308c0e4fb3,5f077800db22460008c9988d,3,,,,,,gorilla,,,,,,0,47,47,0,1,1,1,,,,,,,,,,,,,,,,,,,,,,,,,,,,,,,,,,,,,,,,,,,,,,,,,,,,,,,,,,,,,,,,,,,,,,,,,,,
,,,,,,,,,,stimuli/images/PICTURE_380.png,HONEY,5c8eb16ed169ac0001c27629,08/05/1953,2020-07-09_16h04.19.927,proactive,2020.1.2,Win32,60,5f073de81c76c3308c0e4fb3,5f077800db22460008c9988d,3,,,,,,gorilla,,,,,,0,48,48,19,1,2,1,,,,,,,,,,,,,,,,,,,,,,,,,,,,,,,,,,,,,,,,,,,,,,,,,,,,,,,,,,,,,,,,,,,,,,,,,,,
,,,,,,,,,,stimuli/images/PICTURE_203.png,GODS,5c8eb16ed169ac0001c27629,08/05/1953,2020-07-09_16h04.19.927,proactive,2020.1.2,Win32,60,5f073de81c76c3308c0e4fb3,5f077800db22460008c9988d,3,,,,,,cap,,,,,,0,49,49,30,1,4,1,,,,,,,,,,,,,,,,,,,,,,,,,,,,,,,,,,,,,,,,,,,,,,,,,,,,,,,,,,,,,,,,,,,,,,,,,,,
,,,,,,,,,,stimuli/images/PICTURE_308.png,FAMILY,5c8eb16ed169ac0001c27629,08/05/1953,2020-07-09_16h04.19.927,proactive,2020.1.2,Win32,60,5f073de81c76c3308c0e4fb3,5f077800db22460008c9988d,3,,,,,,dice,,,,,,0,50,50,36,1,4,1,,,,,,,,,,,,,,,,,,,,,,,,,,,,,,,,,,,,,,,,,,,,,,,,,,,,,,,,,,,,,,,,,,,,,,,,,,,
,,,,,,,,,,stimuli/images/PICTURE_487.png,GIRL,5c8eb16ed169ac0001c27629,08/05/1953,2020-07-09_16h04.19.927,proactive,2020.1.2,Win32,60,5f073de81c76c3308c0e4fb3,5f077800db22460008c9988d,3,,,,,,basket,,,,,,0,51,51,45,1,5,1,,,,,,,,,,,,,,,,,,,,,,,,,,,,,,,,,,,,,,,,,,,,,,,,,,,,,,,,,,,,,,,,,,,,,,,,,,,
,,,,,,,,,,stimuli/images/PICTURE_675.png,SALE,5c8eb16ed169ac0001c27629,08/05/1953,2020-07-09_16h04.19.927,proactive,2020.1.2,Win32,60,5f073de81c76c3308c0e4fb3,5f077800db22460008c9988d,3,,,,,,windmill,,,,,,0,52,52,47,1,5,1,,,,,,,,,,,,,,,,,,,,,,,,,,,,,,,,,,,,,,,,,,,,,,,,,,,,,,,,,,,,,,,,,,,,,,,,,,,
,,,,,,,,,,stimuli/images/PICTURE_42.png,BOYS,5c8eb16ed169ac0001c27629,08/05/1953,2020-07-09_16h04.19.927,proactive,2020.1.2,Win32,60,5f073de81c76c3308c0e4fb3,5f077800db22460008c9988d,3,,,,,,pear,,,,,,0,53,53,55,1,6,1,,,,,,,,,,,,,,,,,,,,,,,,,,,,,,,,,,,,,,,,,,,,,,,,,,,,,,,,,,,,,,,,,,,,,,,,,,,
,,,,,,,,,,stimuli/images/PICTURE_33.png,FRIEND,5c8eb16ed169ac0001c27629,08/05/1953,2020-07-09_16h04.19.927,proactive,2020.1.2,Win32,60,5f073de81c76c3308c0e4fb3,5f077800db22460008c9988d,3,,,,,,frame,,,,,,0,54,54,8,1,1,1,,,,,,,,,,,,,,,,,,,,,,,,,,,,,,,,,,,,,,,,,,,,,,,,,,,,,,,,,,,,,,,,,,,,,,,,,,,
,,,,,,,,,,stimuli/images/PICTURE_108.png,FLIGHT,5c8eb16ed169ac0001c27629,08/05/1953,2020-07-09_16h04.19.927,proactive,2020.1.2,Win32,60,5f073de81c76c3308c0e4fb3,5f077800db22460008c9988d,3,,,,,,calendar,,,,,,0,55,55,59,1,6,1,,,,,,,,,,,,,,,,,,,,,,,,,,,,,,,,,,,,,,,,,,,,,,,,,,,,,,,,,,,,,,,,,,,,,,,,,,,
,,,,,,,,,,stimuli/images/PICTURE_339.png,CLIENT,5c8eb16ed169ac0001c27629,08/05/1953,2020-07-09_16h04.19.927,proactive,2020.1.2,Win32,60,5f073de81c76c3308c0e4fb3,5f077800db22460008c9988d,3,,,,,,backpack,,,,,,0,56,56,11,1,2,1,,,,,,,,,,,,,,,,,,,,,,,,,,,,,,,,,,,,,,,,,,,,,,,,,,,,,,,,,,,,,,,,,,,,,,,,,,,
,,,,,,,,,,stimuli/images/PICTURE_504.png,YEAR,5c8eb16ed169ac0001c27629,08/05/1953,2020-07-09_16h04.19.927,proactive,2020.1.2,Win32,60,5f073de81c76c3308c0e4fb3,5f077800db22460008c9988d,3,,,,,,wheel,,,,,,0,57,57,13,1,2,1,,,,,,,,,,,,,,,,,,,,,,,,,,,,,,,,,,,,,,,,,,,,,,,,,,,,,,,,,,,,,,,,,,,,,,,,,,,
,,,,,,,,,,stimuli/images/PICTURE_744.png,WEAPON,5c8eb16ed169ac0001c27629,08/05/1953,2020-07-09_16h04.19.927,proactive,2020.1.2,Win32,60,5f073de81c76c3308c0e4fb3,5f077800db22460008c9988d,3,,,,,,ring,,,,,,0,58,58,50,1,6,1,,,,,,,,,,,,,,,,,,,,,,,,,,,,,,,,,,,,,,,,,,,,,,,,,,,,,,,,,,,,,,,,,,,,,,,,,,,
,,?,0.002865,0,,,,,,stimuli/images/PICTURE_147.png,WOMEN,5c8eb16ed169ac0001c27629,08/05/1953,2020-07-09_16h04.19.927,proactive,2020.1.2,Win32,60,5f073de81c76c3308c0e4fb3,5f077800db22460008c9988d,3,,,,,,hanger,,,,,,,,,,,1,1,0,0,0,7,1,,,,,,,,,,,,,,,,,,,,,,,,,,,,,,,,,,,,,,,,,,,,,,,,,,,,,,,,,,,,,,,,,,,,,,
,,?,0.003405,0,,,,,,stimuli/images/PICTURE_297.png,RIVER,5c8eb16ed169ac0001c27629,08/05/1953,2020-07-09_16h04.19.927,proactive,2020.1.2,Win32,60,5f073de81c76c3308c0e4fb3,5f077800db22460008c9988d,3,,,,,,aeroplane,,,,,,,,,,,4,1,0,1,1,39,1,,,,,,,,,,,,,,,,,,,,,,,,,,,,,,,,,,,,,,,,,,,,,,,,,,,,,,,,,,,,,,,,,,,,,,
,,?,0.002305,0,,,,,,stimuli/images/PICTURE_675.png,SALE,5c8eb16ed169ac0001c27629,08/05/1953,2020-07-09_16h04.19.927,proactive,2020.1.2,Win32,60,5f073de81c76c3308c0e4fb3,5f077800db22460008c9988d,3,,,,,,windmill,,,,,,,,,,,5,1,0,2,2,47,1,,,,,,,,,,,,,,,,,,,,,,,,,,,,,,,,,,,,,,,,,,,,,,,,,,,,,,,,,,,,,,,,,,,,,,
,,?,7.174175,0,,,,,,stimuli/images/PICTURE_147.png,YEAR,5c8eb16ed169ac0001c27629,08/05/1953,2020-07-09_16h04.19.927,proactive,2020.1.2,Win32,60,5f073de81c76c3308c0e4fb3,5f077800db22460008c9988d,3,,,,,,hanger,,,,,,,,,,,3,1,0,3,3,21,1,,,,,,,,,,,,,,,,,,,,,,,,,,,,,,,,,,,,,,,,,,,,,,,,,,,,,,,,,,,,,,,,,,,,,,
,,?,0.00225,0,,,,,,stimuli/images/PICTURE_744.png,WEAPON,5c8eb16ed169ac0001c27629,08/05/1953,2020-07-09_16h04.19.927,proactive,2020.1.2,Win32,60,5f073de81c76c3308c0e4fb3,5f077800db22460008c9988d,3,,,,,,ring,,,,,,,,,,,6,1,0,4,4,50,1,,,,,,,,,,,,,,,,,,,,,,,,,,,,,,,,,,,,,,,,,,,,,,,,,,,,,,,,,,,,,,,,,,,,,,
,,?,0.003845,0,,,,,,stimuli/images/PICTURE_177.png,WRITER,5c8eb16ed169ac0001c27629,08/05/1953,2020-07-09_16h04.19.927,proactive,2020.1.2,Win32,60,5f073de81c76c3308c0e4fb3,5f077800db22460008c9988d,3,,,,,,mushroom,,,,,,,,,,,5,1,0,5,5,41,1,,,,,,,,,,,,,,,,,,,,,,,,,,,,,,,,,,,,,,,,,,,,,,,,,,,,,,,,,,,,,,,,,,,,,,
,,BATH,2.79788,1,,,,,,stimuli/images/PICTURE_564.png,BATH,5c8eb16ed169ac0001c27629,08/05/1953,2020-07-09_16h04.19.927,proactive,2020.1.2,Win32,60,5f073de81c76c3308c0e4fb3,5f077800db22460008c9988d,3,,,,,,spoon,,,,,,,,,,,3,1,0,6,6,26,1,,,,,,,,,,,,,,,,,,,,,,,,,,,,,,,,,,,,,,,,,,,,,,,,,,,,,,,,,,,,,,,,,,,,,,
,,?,0.00254,0,,,,,,stimuli/images/PICTURE_32.png,PILLS,5c8eb16ed169ac0001c27629,08/05/1953,2020-07-09_16h04.19.927,proactive,2020.1.2,Win32,60,5f073de81c76c3308c0e4fb3,5f077800db22460008c9988d,3,,,,,,crown,,,,,,,,,,,2,1,0,7,7,18,1,,,,,,,,,,,,,,,,,,,,,,,,,,,,,,,,,,,,,,,,,,,,,,,,,,,,,,,,,,,,,,,,,,,,,,
,,?,0.00196,0,,,,,,stimuli/images/PICTURE_327.png,SERIES,5c8eb16ed169ac0001c27629,08/05/1953,2020-07-09_16h04.19.927,proactive,2020.1.2,Win32,60,5f073de81c76c3308c0e4fb3,5f077800db22460008c9988d,3,,,,,,helmet,,,,,,,,,,,1,1,0,8,8,3,1,,,,,,,,,,,,,,,,,,,,,,,,,,,,,,,,,,,,,,,,,,,,,,,,,,,,,,,,,,,,,,,,,,,,,,
,,?,0.0038,0,,,,,,stimuli/images/PICTURE_33.png,FRIEND,5c8eb16ed169ac0001c27629,08/05/1953,2020-07-09_16h04.19.927,proactive,2020.1.2,Win32,60,5f073de81c76c3308c0e4fb3,5f077800db22460008c9988d,3,,,,,,frame,,,,,,,,,,,1,1,0,9,9,8,1,,,,,,,,,,,,,,,,,,,,,,,,,,,,,,,,,,,,,,,,,,,,,,,,,,,,,,,,,,,,,,,,,,,,,,
,,?,0.0026,0,,,,,,stimuli/images/PICTURE_68.png,MILE,5c8eb16ed169ac0001c27629,08/05/1953,2020-07-09_16h04.19.927,proactive,2020.1.2,Win32,60,5f073de81c76c3308c0e4fb3,5f077800db22460008c9988d,3,,,,,,candle,,,,,,,,,,,6,1,0,10,10,51,1,,,,,,,,,,,,,,,,,,,,,,,,,,,,,,,,,,,,,,,,,,,,,,,,,,,,,,,,,,,,,,,,,,,,,,
,,?,0.003995,0,,,,,,stimuli/images/PICTURE_655.png,TOILET,5c8eb16ed169ac0001c27629,08/05/1953,2020-07-09_16h04.19.927,proactive,2020.1.2,Win32,60,5f073de81c76c3308c0e4fb3,5f077800db22460008c9988d,3,,,,,,megaphone,,,,,,,,,,,2,1,0,11,11,12,1,,,,,,,,,,,,,,,,,,,,,,,,,,,,,,,,,,,,,,,,,,,,,,,,,,,,,,,,,,,,,,,,,,,,,,
,,?,0.002175,0,,,,,,stimuli/images/PICTURE_108.png,FLIGHT,5c8eb16ed169ac0001c27629,08/05/1953,2020-07-09_16h04.19.927,proactive,2020.1.2,Win32,60,5f073de81c76c3308c0e4fb3,5f077800db22460008c9988d,3,,,,,,calendar,,,,,,,,,,,6,1,0,12,12,59,1,,,,,,,,,,,,,,,,,,,,,,,,,,,,,,,,,,,,,,,,,,,,,,,,,,,,,,,,,,,,,,,,,,,,,,
,,?,0.00211,0,,,,,,stimuli/images/PICTURE_380.png,HONEY,5c8eb16ed169ac0001c27629,08/05/1953,2020-07-09_16h04.19.927,proactive,2020.1.2,Win32,60,5f073de81c76c3308c0e4fb3,5f077800db22460008c9988d,3,,,,,,gorilla,,,,,,,,,,,2,1,0,13,13,19,1,,,,,,,,,,,,,,,,,,,,,,,,,,,,,,,,,,,,,,,,,,,,,,,,,,,,,,,,,,,,,,,,,,,,,,
,,?,0.003905,0,,,,,,stimuli/images/PICTURE_95.png,MILLER,5c8eb16ed169ac0001c27629,08/05/1953,2020-07-09_16h04.19.927,proactive,2020.1.2,Win32,60,5f073de81c76c3308c0e4fb3,5f077800db22460008c9988d,3,,,,,,suitcase,,,,,,,,,,,6,1,0,14,14,56,1,,,,,,,,,,,,,,,,,,,,,,,,,,,,,,,,,,,,,,,,,,,,,,,,,,,,,,,,,,,,,,,,,,,,,,
,,?,0.002205,0,,,,,,stimuli/images/PICTURE_42.png,BOYS,5c8eb16ed169ac0001c27629,08/05/1953,2020-07-09_16h04.19.927,proactive,2020.1.2,Win32,60,5f073de81c76c3308c0e4fb3,5f077800db22460008c9988d,3,,,,,,pear,,,,,,,,,,,6,1,0,15,15,55,1,,,,,,,,,,,,,,,,,,,,,,,,,,,,,,,,,,,,,,,,,,,,,,,,,,,,,,,,,,,,,,,,,,,,,,
,,POLICY,4.388,0,,,,,,stimuli/images/PICTURE_405.png,PLENTY,5c8eb16ed169ac0001c27629,08/05/1953,2020-07-09_16h04.19.927,proactive,2020.1.2,Win32,60,5f073de81c76c3308c0e4fb3,5f077800db22460008c9988d,3,,,,,,anchor,,,,,,,,,,,3,1,0,16,16,23,1,,,,,,,,,,,,,,,,,,,,,,,,,,,,,,,,,,,,,,,,,,,,,,,,,,,,,,,,,,,,,,,,,,,,,,
,,?,0.002195,0,,,,,,stimuli/images/PICTURE_491.png,GLASS,5c8eb16ed169ac0001c27629,08/05/1953,2020-07-09_16h04.19.927,proactive,2020.1.2,Win32,60,5f073de81c76c3308c0e4fb3,5f077800db22460008c9988d,3,,,,,,rug,,,,,,,,,,,2,1,0,17,17,14,1,,,,,,,,,,,,,,,,,,,,,,,,,,,,,,,,,,,,,,,,,,,,,,,,,,,,,,,,,,,,,,,,,,,,,,
,,?,0.002105,0,,,,,,stimuli/images/PICTURE_233.png,LOTS,5c8eb16ed169ac0001c27629,08/05/1953,2020-07-09_16h04.19.927,proactive,2020.1.2,Win32,60,5f073de81c76c3308c0e4fb3,5f077800db22460008c9988d,3,,,,,,salt,,,,,,,,,,,5,1,0,18,18,42,1,,,,,,,,,,,,,,,,,,,,,,,,,,,,,,,,,,,,,,,,,,,,,,,,,,,,,,,,,,,,,,,,,,,,,,
,,?,0.002115,0,,,,,,stimuli/images/PICTURE_296.png,LIFE,5c8eb16ed169ac0001c27629,08/05/1953,2020-07-09_16h04.19.927,proactive,2020.1.2,Win32,60,5f073de81c76c3308c0e4fb3,5f077800db22460008c9988d,3,,,,,,bolt,,,,,,,,,,,6,1,0,19,19,57,1,,,,,,,,,,,,,,,,,,,,,,,,,,,,,,,,,,,,,,,,,,,,,,,,,,,,,,,,,,,,,,,,,,,,,,
,,?,0.004265,0,,,,,,stimuli/images/PICTURE_85.png,TOILET,5c8eb16ed169ac0001c27629,08/05/1953,2020-07-09_16h04.19.927,proactive,2020.1.2,Win32,60,5f073de81c76c3308c0e4fb3,5f077800db22460008c9988d,3,,,,,,diamond,,,,,,,,,,,5,1,0,20,20,48,1,,,,,,,,,,,,,,,,,,,,,,,,,,,,,,,,,,,,,,,,,,,,,,,,,,,,,,,,,,,,,,,,,,,,,,
,,?,0.00337,0,,,,,,stimuli/images/PICTURE_405.png,YEAR,5c8eb16ed169ac0001c27629,08/05/1953,2020-07-09_16h04.19.927,proactive,2020.1.2,Win32,60,5f073de81c76c3308c0e4fb3,5f077800db22460008c9988d,3,,,,,,anchor,,,,,,,,,,,4,1,0,21,21,34,1,,,,,,,,,,,,,,,,,,,,,,,,,,,,,,,,,,,,,,,,,,,,,,,,,,,,,,,,,,,,,,,,,,,,,,
,,?,0.00217,0,,,,,,stimuli/images/PICTURE_487.png,GIRL,5c8eb16ed169ac0001c27629,08/05/1953,2020-07-09_16h04.19.927,proactive,2020.1.2,Win32,60,5f073de81c76c3308c0e4fb3,5f077800db22460008c9988d,3,,,,,,basket,,,,,,,,,,,5,1,0,22,22,45,1,,,,,,,,,,,,,,,,,,,,,,,,,,,,,,,,,,,,,,,,,,,,,,,,,,,,,,,,,,,,,,,,,,,,,,
,,?,0.00254,0,,,,,,stimuli/images/PICTURE_708.png,RECORD,5c8eb16ed169ac0001c27629,08/05/1953,2020-07-09_16h04.19.927,proactive,2020.1.2,Win32,60,5f073de81c76c3308c0e4fb3,5f077800db22460008c9988d,3,,,,,,monkey,,,,,,,,,,,6,1,0,23,23,58,1,,,,,,,,,,,,,,,,,,,,,,,,,,,,,,,,,,,,,,,,,,,,,,,,,,,,,,,,,,,,,,,,,,,,,,
,,?,0.002145,0,,,,,,stimuli/images/PICTURE_340.png,VALLEY,5c8eb16ed169ac0001c27629,08/05/1953,2020-07-09_16h04.19.927,proactive,2020.1.2,Win32,60,5f073de81c76c3308c0e4fb3,5f077800db22460008c9988d,3,,,,,,mirror,,,,,,,,,,,6,1,0,24,24,54,1,,,,,,,,,,,,,,,,,,,,,,,,,,,,,,,,,,,,,,,,,,,,,,,,,,,,,,,,,,,,,,,,,,,,,,
,,?,0.002285,0,,,,,,stimuli/images/PICTURE_339.png,CLIENT,5c8eb16ed169ac0001c27629,08/05/1953,2020-07-09_16h04.19.927,proactive,2020.1.2,Win32,60,5f073de81c76c3308c0e4fb3,5f077800db22460008c9988d,3,,,,,,backpack,,,,,,,,,,,2,1,0,25,25,11,1,,,,,,,,,,,,,,,,,,,,,,,,,,,,,,,,,,,,,,,,,,,,,,,,,,,,,,,,,,,,,,,,,,,,,,
,,?,0.002685,0,,,,,,stimuli/images/PICTURE_95.png,HONEY,5c8eb16ed169ac0001c27629,08/05/1953,2020-07-09_16h04.19.927,proactive,2020.1.2,Win32,60,5f073de81c76c3308c0e4fb3,5f077800db22460008c9988d,3,,,,,,suitcase,,,,,,,,,,,5,1,0,26,26,44,1,,,,,,,,,,,,,,,,,,,,,,,,,,,,,,,,,,,,,,,,,,,,,,,,,,,,,,,,,,,,,,,,,,,,,,
,,?,0.00308,0,,,,,,stimuli/images/PICTURE_203.png,NIGHT,5c8eb16ed169ac0001c27629,08/05/1953,2020-07-09_16h04.19.927,proactive,2020.1.2,Win32,60,5f073de81c76c3308c0e4fb3,5f077800db22460008c9988d,3,,,,,,cap,,,,,,,,,,,1,1,0,27,27,2,1,,,,,,,,,,,,,,,,,,,,,,,,,,,,,,,,,,,,,,,,,,,,,,,,,,,,,,,,,,,,,,,,,,,,,,
,,?,0.00213,0,,,,,,stimuli/images/PICTURE_85.png,NATION,5c8eb16ed169ac0001c27629,08/05/1953,2020-07-09_16h04.19.927,proactive,2020.1.2,Win32,60,5f073de81c76c3308c0e4fb3,5f077800db22460008c9988d,3,,,,,,diamond,,,,,,,,,,,1,1,0,28,28,5,1,,,,,,,,,,,,,,,,,,,,,,,,,,,,,,,,,,,,,,,,,,,,,,,,,,,,,,,,,,,,,,,,,,,,,,
,,POLICY,5.351,0,,,,,,stimuli/images/PICTURE_654.png,MONTH,5c8eb16ed169ac0001c27629,08/05/1953,2020-07-09_16h04.19.927,proactive,2020.1.2,Win32,60,5f073de81c76c3308c0e4fb3,5f077800db22460008c9988d,3,,,,,,pencil,,,,,,,,,,,3,1,0,29,29,29,1,,,,,,,,,,,,,,,,,,,,,,,,,,,,,,,,,,,,,,,,,,,,,,,,,,,,,,,,,,,,,,,,,,,,,,
,,?,0.002155,0,,,,,,stimuli/images/PICTURE_403.png,RIVER,5c8eb16ed169ac0001c27629,08/05/1953,2020-07-09_16h04.19.927,proactive,2020.1.2,Win32,60,5f073de81c76c3308c0e4fb3,5f077800db22460008c9988d,3,,,,,,cathedral,,,,,,,,,,,5,1,0,30,30,40,1,,,,,,,,,,,,,,,,,,,,,,,,,,,,,,,,,,,,,,,,,,,,,,,,,,,,,,,,,,,,,,,,,,,,,,
,,?,0.002105,0,,,,,,stimuli/images/PICTURE_95.png,BOYS,5c8eb16ed169ac0001c27629,08/05/1953,2020-07-09_16h04.19.927,proactive,2020.1.2,Win32,60,5f073de81c76c3308c0e4fb3,5f077800db22460008c9988d,3,,,,,,suitcase,,,,,,,,,,,1,1,0,31,31,1,1,,,,,,,,,,,,,,,,,,,,,,,,,,,,,,,,,,,,,,,,,,,,,,,,,,,,,,,,,,,,,,,,,,,,,,
,,?,0.00209,0,,,,,,stimuli/images/PICTURE_68.png,ROOF,5c8eb16ed169ac0001c27629,08/05/1953,2020-07-09_16h04.19.927,proactive,2020.1.2,Win32,60,5f073de81c76c3308c0e4fb3,5f077800db22460008c9988d,3,,,,,,candle,,,,,,,,,,,4,1,0,32,32,38,1,,,,,,,,,,,,,,,,,,,,,,,,,,,,,,,,,,,,,,,,,,,,,,,,,,,,,,,,,,,,,,,,,,,,,,
,,?,0.002385,0,,,,,,stimuli/images/PICTURE_504.png,YEAR,5c8eb16ed169ac0001c27629,08/05/1953,2020-07-09_16h04.19.927,proactive,2020.1.2,Win32,60,5f073de81c76c3308c0e4fb3,5f077800db22460008c9988d,3,,,,,,wheel,,,,,,,,,,,2,1,0,33,33,13,1,,,,,,,,,,,,,,,,,,,,,,,,,,,,,,,,,,,,,,,,,,,,,,,,,,,,,,,,,,,,,,,,,,,,,,
,,WRITER,3.25945,1,,,,,,stimuli/images/PICTURE_383.png,WRITER,5c8eb16ed169ac0001c27629,08/05/1953,2020-07-09_16h04.19.927,proactive,2020.1.2,Win32,60,5f073de81c76c3308c0e4fb3,5f077800db22460008c9988d,3,,,,,,coin,,,,,,,,,,,3,1,0,34,34,28,1,,,,,,,,,,,,,,,,,,,,,,,,,,,,,,,,,,,,,,,,,,,,,,,,,,,,,,,,,,,,,,,,,,,,,,
,,?,0.002135,0,,,,,,stimuli/images/PICTURE_285.png,LIFE,5c8eb16ed169ac0001c27629,08/05/1953,2020-07-09_16h04.19.927,proactive,2020.1.2,Win32,60,5f073de81c76c3308c0e4fb3,5f077800db22460008c9988d,3,,,,,,carrot,,,,,,,,,,,4,1,0,35,35,33,1,,,,,,,,,,,,,,,,,,,,,,,,,,,,,,,,,,,,,,,,,,,,,,,,,,,,,,,,,,,,,,,,,,,,,,
,,?,0.00183,0,,,,,,stimuli/images/PICTURE_449.png,DUDE,5c8eb16ed169ac0001c27629,08/05/1953,2020-07-09_16h04.19.927,proactive,2020.1.2,Win32,60,5f073de81c76c3308c0e4fb3,5f077800db22460008c9988d,3,,,,,,bench,,,,,,,,,,,2,1,0,36,36,17,1,,,,,,,,,,,,,,,,,,,,,,,,,,,,,,,,,,,,,,,,,,,,,,,,,,,,,,,,,,,,,,,,,,,,,,
,,?,0.00193,0,,,,,,stimuli/images/PICTURE_32.png,KIND,5c8eb16ed169ac0001c27629,08/05/1953,2020-07-09_16h04.19.927,proactive,2020.1.2,Win32,60,5f073de81c76c3308c0e4fb3,5f077800db22460008c9988d,3,,,,,,crown,,,,,,,,,,,4,1,0,37,37,35,1,,,,,,,,,,,,,,,,,,,,,,,,,,,,,,,,,,,,,,,,,,,,,,,,,,,,,,,,,,,,,,,,,,,,,,
,,?,0.002135,0,,,,,,stimuli/images/PICTURE_296.png,LOTS,5c8eb16ed169ac0001c27629,08/05/1953,2020-07-09_16h04.19.927,proactive,2020.1.2,Win32,60,5f073de81c76c3308c0e4fb3,5f077800db22460008c9988d,3,,,,,,bolt,,,,,,,,,,,1,1,0,38,38,9,1,,,,,,,,,,,,,,,,,,,,,,,,,,,,,,,,,,,,,,,,,,,,,,,,,,,,,,,,,,,,,,,,,,,,,,
,,?,0.0022,0,,,,,,stimuli/images/PICTURE_208.png,SYSTEM,5c8eb16ed169ac0001c27629,08/05/1953,2020-07-09_16h04.19.927,proactive,2020.1.2,Win32,60,5f073de81c76c3308c0e4fb3,5f077800db22460008c9988d,3,,,,,,microphone,,,,,,,,,,,4,1,0,39,39,32,1,,,,,,,,,,,,,,,,,,,,,,,,,,,,,,,,,,,,,,,,,,,,,,,,,,,,,,,,,,,,,,,,,,,,,,
,,?,0.00211,0,,,,,,stimuli/images/PICTURE_504.png,ARTIST,5c8eb16ed169ac0001c27629,08/05/1953,2020-07-09_16h04.19.927,proactive,2020.1.2,Win32,60,5f073de81c76c3308c0e4fb3,5f077800db22460008c9988d,3,,,,,,wheel,,,,,,,,,,,5,1,0,40,40,49,1,,,,,,,,,,,,,,,,,,,,,,,,,,,,,,,,,,,,,,,,,,,,,,,,,,,,,,,,,,,,,,,,,,,,,,
,,?,0.00208,0,,,,,,stimuli/images/PICTURE_383.png,SERIES,5c8eb16ed169ac0001c27629,08/05/1953,2020-07-09_16h04.19.927,proactive,2020.1.2,Win32,60,5f073de81c76c3308c0e4fb3,5f077800db22460008c9988d,3,,,,,,coin,,,,,,,,,,,5,1,0,41,41,46,1,,,,,,,,,,,,,,,,,,,,,,,,,,,,,,,,,,,,,,,,,,,,,,,,,,,,,,,,,,,,,,,,,,,,,,
,,?,0.002155,0,,,,,,stimuli/images/PICTURE_2.png,FLIGHT,5c8eb16ed169ac0001c27629,08/05/1953,2020-07-09_16h04.19.927,proactive,2020.1.2,Win32,60,5f073de81c76c3308c0e4fb3,5f077800db22460008c9988d,3,,,,,,tyre,,,,,,,,,,,2,1,0,42,42,15,1,,,,,,,,,,,,,,,,,,,,,,,,,,,,,,,,,,,,,,,,,,,,,,,,,,,,,,,,,,,,,,,,,,,,,,
,,?,0.002135,0,,,,,,stimuli/images/PICTURE_467.png,POLICY,5c8eb16ed169ac0001c27629,08/05/1953,2020-07-09_16h04.19.927,proactive,2020.1.2,Win32,60,5f073de81c76c3308c0e4fb3,5f077800db22460008c9988d,3,,,,,,peg,,,,,,,,,,,6,1,0,43,43,53,1,,,,,,,,,,,,,,,,,,,,,,,,,,,,,,,,,,,,,,,,,,,,,,,,,,,,,,,,,,,,,,,,,,,,,,
,,?,0.002315,0,,,,,,stimuli/images/PICTURE_469.png,AGENT,5c8eb16ed169ac0001c27629,08/05/1953,2020-07-09_16h04.19.927,proactive,2020.1.2,Win32,60,5f073de81c76c3308c0e4fb3,5f077800db22460008c9988d,3,,,,,,stool,,,,,,,,,,,2,1,0,44,44,16,1,,,,,,,,,,,,,,,,,,,,,,,,,,,,,,,,,,,,,,,,,,,,,,,,,,,,,,,,,,,,,,,,,,,,,,
,,TOILET,2.140935,1,,,,,,stimuli/images/PICTURE_403.png,TOILET,5c8eb16ed169ac0001c27629,08/05/1953,2020-07-09_16h04.19.927,proactive,2020.1.2,Win32,60,5f073de81c76c3308c0e4fb3,5f077800db22460008c9988d,3,,,,,,cathedral,,,,,,,,,,,3,1,0,45,45,25,1,,,,,,,,,,,,,,,,,,,,,,,,,,,,,,,,,,,,,,,,,,,,,,,,,,,,,,,,,,,,,,,,,,,,,,
,,?,0.0021,0,,,,,,stimuli/images/PICTURE_491.png,RIVER,5c8eb16ed169ac0001c27629,08/05/1953,2020-07-09_16h04.19.927,proactive,2020.1.2,Win32,60,5f073de81c76c3308c0e4fb3,5f077800db22460008c9988d,3,,,,,,rug,,,,,,,,,,,1,1,0,46,46,6,1,,,,,,,,,,,,,,,,,,,,,,,,,,,,,,,,,,,,,,,,,,,,,,,,,,,,,,,,,,,,,,,,,,,,,,
,,?,0.005595,0,,,,,,stimuli/images/PICTURE_667.png,RIVER,5c8eb16ed169ac0001c27629,08/05/1953,2020-07-09_16h04.19.927,proactive,2020.1.2,Win32,60,5f073de81c76c3308c0e4fb3,5f077800db22460008c9988d,3,,,,,,daisy,,,,,,,,,,,2,1,0,47,47,10,1,,,,,,,,,,,,,,,,,,,,,,,,,,,,,,,,,,,,,,,,,,,,,,,,,,,,,,,,,,,,,,,,,,,,,,
,,?,0.00319,0,,,,,,stimuli/images/PICTURE_380.png,CANDY,5c8eb16ed169ac0001c27629,08/05/1953,2020-07-09_16h04.19.927,proactive,2020.1.2,Win32,60,5f073de81c76c3308c0e4fb3,5f077800db22460008c9988d,3,,,,,,gorilla,,,,,,,,,,,1,1,0,48,48,0,1,,,,,,,,,,,,,,,,,,,,,,,,,,,,,,,,,,,,,,,,,,,,,,,,,,,,,,,,,,,,,,,,,,,,,,
,,?,0.00218,0,,,,,,stimuli/images/PICTURE_685.png,PENNY,5c8eb16ed169ac0001c27629,08/05/1953,2020-07-09_16h04.19.927,proactive,2020.1.2,Win32,60,5f073de81c76c3308c0e4fb3,5f077800db22460008c9988d,3,,,,,,goose,,,,,,,,,,,1,1,0,49,49,4,1,,,,,,,,,,,,,,,,,,,,,,,,,,,,,,,,,,,,,,,,,,,,,,,,,,,,,,,,,,,,,,,,,,,,,,
,,?,0.002055,0,,,,,,stimuli/images/PICTURE_504.png,COPS,5c8eb16ed169ac0001c27629,08/05/1953,2020-07-09_16h04.19.927,proactive,2020.1.2,Win32,60,5f073de81c76c3308c0e4fb3,5f077800db22460008c9988d,3,,,,,,wheel,,,,,,,,,,,6,1,0,50,50,52,1,,,,,,,,,,,,,,,,,,,,,,,,,,,,,,,,,,,,,,,,,,,,,,,,,,,,,,,,,,,,,,,,,,,,,,
,,?,0.00263,0,,,,,,stimuli/images/PICTURE_308.png,FAMILY,5c8eb16ed169ac0001c27629,08/05/1953,2020-07-09_16h04.19.927,proactive,2020.1.2,Win32,60,5f073de81c76c3308c0e4fb3,5f077800db22460008c9988d,3,,,,,,dice,,,,,,,,,,,4,1,0,51,51,36,1,,,,,,,,,,,,,,,,,,,,,,,,,,,,,,,,,,,,,,,,,,,,,,,,,,,,,,,,,,,,,,,,,,,,,,
,,?,0.002055,0,,,,,,stimuli/images/PICTURE_403.png,WRITER,5c8eb16ed169ac0001c27629,08/05/1953,2020-07-09_16h04.19.927,proactive,2020.1.2,Win32,60,5f073de81c76c3308c0e4fb3,5f077800db22460008c9988d,3,,,,,,cathedral,,,,,,,,,,,4,1,0,52,52,31,1,,,,,,,,,,,,,,,,,,,,,,,,,,,,,,,,,,,,,,,,,,,,,,,,,,,,,,,,,,,,,,,,,,,,,,
,,HOUSE,9.281375,0,,,,,,stimuli/images/PICTURE_750.png,HOTEL,5c8eb16ed169ac0001c27629,08/05/1953,2020-07-09_16h04.19.927,proactive,2020.1.2,Win32,60,5f073de81c76c3308c0e4fb3,5f077800db22460008c9988d,3,,,,,,kettle,,,,,,,,,,,3,1,0,53,53,27,1,,,,,,,,,,,,,,,,,,,,,,,,,,,,,,,,,,,,,,,,,,,,,,,,,,,,,,,,,,,,,,,,,,,,,,
,,?,0.00221,0,,,,,,stimuli/images/PICTURE_677.png,APPLE,5c8eb16ed169ac0001c27629,08/05/1953,2020-07-09_16h04.19.927,proactive,2020.1.2,Win32,60,5f073de81c76c3308c0e4fb3,5f077800db22460008c9988d,3,,,,,,map,,,,,,,,,,,5,1,0,54,54,43,1,,,,,,,,,,,,,,,,,,,,,,,,,,,,,,,,,,,,,,,,,,,,,,,,,,,,,,,,,,,,,,,,,,,,,,
,,?,4.291915,0,,,,,,stimuli/images/PICTURE_340.png,LETTER,5c8eb16ed169ac0001c27629,08/05/1953,2020-07-09_16h04.19.927,proactive,2020.1.2,Win32,60,5f073de81c76c3308c0e4fb3,5f077800db22460008c9988d,3,,,,,,mirror,,,,,,,,,,,3,1,0,55,55,24,1,,,,,,,,,,,,,,,,,,,,,,,,,,,,,,,,,,,,,,,,,,,,,,,,,,,,,,,,,,,,,,,,,,,,,,
,,POLICY,3.748255,1,,,,,,stimuli/images/PICTURE_108.png,POLICY,5c8eb16ed169ac0001c27629,08/05/1953,2020-07-09_16h04.19.927,proactive,2020.1.2,Win32,60,5f073de81c76c3308c0e4fb3,5f077800db22460008c9988d,3,,,,,,calendar,,,,,,,,,,,3,1,0,56,56,22,1,,,,,,,,,,,,,,,,,,,,,,,,,,,,,,,,,,,,,,,,,,,,,,,,,,,,,,,,,,,,,,,,,,,,,,
,,?,0.00238,0,,,,,,stimuli/images/PICTURE_57.png,MOMENT,5c8eb16ed169ac0001c27629,08/05/1953,2020-07-09_16h04.19.927,proactive,2020.1.2,Win32,60,5f073de81c76c3308c0e4fb3,5f077800db22460008c9988d,3,,,,,,stamp,,,,,,,,,,,4,1,0,57,57,37,1,,,,,,,,,,,,,,,,,,,,,,,,,,,,,,,,,,,,,,,,,,,,,,,,,,,,,,,,,,,,,,,,,,,,,,
,,?,6.174515,0,,,,,,stimuli/images/PICTURE_327.png,CASINO,5c8eb16ed169ac0001c27629,08/05/1953,2020-07-09_16h04.19.927,proactive,2020.1.2,Win32,60,5f073de81c76c3308c0e4fb3,5f077800db22460008c9988d,3,,,,,,helmet,,,,,,,,,,,3,1,0,58,58,20,1,,,,,,,,,,,,,,,,,,,,,,,,,,,,,,,,,,,,,,,,,,,,,,,,,,,,,,,,,,,,,,,,,,,,,,
,,?,0.002365,0,,,,,,stimuli/images/PICTURE_203.png,GODS,5c8eb16ed169ac0001c27629,08/05/1953,2020-07-09_16h04.19.927,proactive,2020.1.2,Win32,60,5f073de81c76c3308c0e4fb3,5f077800db22460008c9988d,3,,,,,,cap,,,,,,,,,,,4,1,0,59,59,30,1,,,,,,,,,,,,,,,,,,,,,,,,,,,,,,,,,,,,,,,,,,,,,,,,,,,,,,,,,,,,,,,,,,,,,,
,,,,,,,,,,,,5c8eb16ed169ac0001c27629,08/05/1953,2020-07-09_16h04.19.927,proactive,2020.1.2,Win32,60,5f073de81c76c3308c0e4fb3,5f077800db22460008c9988d,3,,,,,,,,,,,,,,,,,,,,,,,,0,1,1,1,1,stimuli/learn-block2.csv,,,,,,,,,,,,,,,,,,,,,,,,,,,,,,,,,,,,,,,,,,,,,,,,,,,,,,,,,,,,,,,,
,,,,,,,,,,stimuli/images/PICTURE_675.png,WEAPON,5c8eb16ed169ac0001c27629,08/05/1953,2020-07-09_16h04.19.927,proactive,2020.1.2,Win32,60,5f073de81c76c3308c0e4fb3,5f077800db22460008c9988d,3,,,,,,windmill,,,,,,0,0,0,32,1,4,0,,,,,,,,,,,,,,,,,,,,,,,,,,,,,,,,,,,,,,,,,,,,,,,,,,,,,,,,,,,,,,,,,,,,,,,,,,,
,,,,,,,,,,stimuli/images/PICTURE_208.png,MONTH,5c8eb16ed169ac0001c27629,08/05/1953,2020-07-09_16h04.19.927,proactive,2020.1.2,Win32,60,5f073de81c76c3308c0e4fb3,5f077800db22460008c9988d,3,,,,,,microphone,,,,,,0,1,1,53,1,6,0,,,,,,,,,,,,,,,,,,,,,,,,,,,,,,,,,,,,,,,,,,,,,,,,,,,,,,,,,,,,,,,,,,,,,,,,,,,
,,,,,,,,,,stimuli/images/PICTURE_151.png,GIRL,5c8eb16ed169ac0001c27629,08/05/1953,2020-07-09_16h04.19.927,proactive,2020.1.2,Win32,60,5f073de81c76c3308c0e4fb3,5f077800db22460008c9988d,3,,,,,,tray,,,,,,0,2,2,19,1,2,0,,,,,,,,,,,,,,,,,,,,,,,,,,,,,,,,,,,,,,,,,,,,,,,,,,,,,,,,,,,,,,,,,,,,,,,,,,,
,,,,,,,,,,stimuli/images/PICTURE_248.png,DOZEN,5c8eb16ed169ac0001c27629,08/05/1953,2020-07-09_16h04.19.927,proactive,2020.1.2,Win32,60,5f073de81c76c3308c0e4fb3,5f077800db22460008c9988d,3,,,,,,cart,,,,,,0,3,3,39,1,4,0,,,,,,,,,,,,,,,,,,,,,,,,,,,,,,,,,,,,,,,,,,,,,,,,,,,,,,,,,,,,,,,,,,,,,,,,,,,
,,,,,,,,,,stimuli/images/PICTURE_95.png,STYLE,5c8eb16ed169ac0001c27629,08/05/1953,2020-07-09_16h04.19.927,proactive,2020.1.2,Win32,60,5f073de81c76c3308c0e4fb3,5f077800db22460008c9988d,3,,,,,,suitcase,,,,,,0,4,4,25,1,3,0,,,,,,,,,,,,,,,,,,,,,,,,,,,,,,,,,,,,,,,,,,,,,,,,,,,,,,,,,,,,,,,,,,,,,,,,,,,
,,,,,,,,,,stimuli/images/PICTURE_654.png,VALLEY,5c8eb16ed169ac0001c27629,08/05/1953,2020-07-09_16h04.19.927,proactive,2020.1.2,Win32,60,5f073de81c76c3308c0e4fb3,5f077800db22460008c9988d,3,,,,,,pencil,,,,,,0,5,5,1,1,1,0,,,,,,,,,,,,,,,,,,,,,,,,,,,,,,,,,,,,,,,,,,,,,,,,,,,,,,,,,,,,,,,,,,,,,,,,,,,
,,,,,,,,,,stimuli/images/PICTURE_208.png,THING,5c8eb16ed169ac0001c27629,08/05/1953,2020-07-09_16h04.19.927,proactive,2020.1.2,Win32,60,5f073de81c76c3308c0e4fb3,5f077800db22460008c9988d,3,,,,,,microphone,,,,,,0,6,6,47,1,5,0,,,,,,,,,,,,,,,,,,,,,,,,,,,,,,,,,,,,,,,,,,,,,,,,,,,,,,,,,,,,,,,,,,,,,,,,,,,
,,,,,,,,,,stimuli/images/PICTURE_215.png,PLENTY,5c8eb16ed169ac0001c27629,08/05/1953,2020-07-09_16h04.19.927,proactive,2020.1.2,Win32,60,5f073de81c76c3308c0e4fb3,5f077800db22460008c9988d,3,,,,,,boot,,,,,,0,7,7,37,1,4,0,,,,,,,,,,,,,,,,,,,,,,,,,,,,,,,,,,,,,,,,,,,,,,,,,,,,,,,,,,,,,,,,,,,,,,,,,,,
,,,,,,,,,,stimuli/images/PICTURE_255.png,AREA,5c8eb16ed169ac0001c27629,08/05/1953,2020-07-09_16h04.19.927,proactive,2020.1.2,Win32,60,5f073de81c76c3308c0e4fb3,5f077800db22460008c9988d,3,,,,,,shovel,,,,,,0,8,8,22,1,3,0,,,,,,,,,,,,,,,,,,,,,,,,,,,,,,,,,,,,,,,,,,,,,,,,,,,,,,,,,,,,,,,,,,,,,,,,,,,
,,,,,,,,,,stimuli/images/PICTURE_708.png,PENNY,5c8eb16ed169ac0001c27629,08/05/1953,2020-07-09_16h04.19.927,proactive,2020.1.2,Win32,60,5f073de81c76c3308c0e4fb3,5f077800db22460008c9988d,3,,,,,,monkey,,,,,,0,9,9,31,1,4,0,,,,,,,,,,,,,,,,,,,,,,,,,,,,,,,,,,,,,,,,,,,,,,,,,,,,,,,,,,,,,,,,,,,,,,,,,,,
,,,,,,,,,,stimuli/images/PICTURE_302.png,FAMILY,5c8eb16ed169ac0001c27629,08/05/1953,2020-07-09_16h04.19.927,proactive,2020.1.2,Win32,60,5f073de81c76c3308c0e4fb3,5f077800db22460008c9988d,3,,,,,,taxi,,,,,,0,10,10,18,1,2,0,,,,,,,,,,,,,,,,,,,,,,,,,,,,,,,,,,,,,,,,,,,,,,,,,,,,,,,,,,,,,,,,,,,,,,,,,,,
,,,,,,,,,,stimuli/images/PICTURE_314.png,GODS,5c8eb16ed169ac0001c27629,08/05/1953,2020-07-09_16h04.19.927,proactive,2020.1.2,Win32,60,5f073de81c76c3308c0e4fb3,5f077800db22460008c9988d,3,,,,,,perfume,,,,,,0,11,11,11,1,2,0,,,,,,,,,,,,,,,,,,,,,,,,,,,,,,,,,,,,,,,,,,,,,,,,,,,,,,,,,,,,,,,,,,,,,,,,,,,
,,,,,,,,,,stimuli/images/PICTURE_509.png,PHOTO,5c8eb16ed169ac0001c27629,08/05/1953,2020-07-09_16h04.19.927,proactive,2020.1.2,Win32,60,5f073de81c76c3308c0e4fb3,5f077800db22460008c9988d,3,,,,,,telephone,,,,,,0,12,12,21,1,3,0,,,,,,,,,,,,,,,,,,,,,,,,,,,,,,,,,,,,,,,,,,,,,,,,,,,,,,,,,,,,,,,,,,,,,,,,,,,
,,,,,,,,,,stimuli/images/PICTURE_488.png,STYLE,5c8eb16ed169ac0001c27629,08/05/1953,2020-07-09_16h04.19.927,proactive,2020.1.2,Win32,60,5f073de81c76c3308c0e4fb3,5f077800db22460008c9988d,3,,,,,,sun,,,,,,0,13,13,33,1,4,0,,,,,,,,,,,,,,,,,,,,,,,,,,,,,,,,,,,,,,,,,,,,,,,,,,,,,,,,,,,,,,,,,,,,,,,,,,,
,,,,,,,,,,stimuli/images/PICTURE_339.png,PLENTY,5c8eb16ed169ac0001c27629,08/05/1953,2020-07-09_16h04.19.927,proactive,2020.1.2,Win32,60,5f073de81c76c3308c0e4fb3,5f077800db22460008c9988d,3,,,,,,backpack,,,,,,0,14,14,0,1,1,0,,,,,,,,,,,,,,,,,,,,,,,,,,,,,,,,,,,,,,,,,,,,,,,,,,,,,,,,,,,,,,,,,,,,,,,,,,,
,,,,,,,,,,stimuli/images/PICTURE_85.png,THING,5c8eb16ed169ac0001c27629,08/05/1953,2020-07-09_16h04.19.927,proactive,2020.1.2,Win32,60,5f073de81c76c3308c0e4fb3,5f077800db22460008c9988d,3,,,,,,diamond,,,,,,0,15,15,15,1,2,0,,,,,,,,,,,,,,,,,,,,,,,,,,,,,,,,,,,,,,,,,,,,,,,,,,,,,,,,,,,,,,,,,,,,,,,,,,,
,,,,,,,,,,stimuli/images/PICTURE_311.png,BEAUTY,5c8eb16ed169ac0001c27629,08/05/1953,2020-07-09_16h04.19.927,proactive,2020.1.2,Win32,60,5f073de81c76c3308c0e4fb3,5f077800db22460008c9988d,3,,,,,,razor,,,,,,0,16,16,13,1,2,0,,,,,,,,,,,,,,,,,,,,,,,,,,,,,,,,,,,,,,,,,,,,,,,,,,,,,,,,,,,,,,,,,,,,,,,,,,,
,,,,,,,,,,stimuli/images/PICTURE_285.png,ADVICE,5c8eb16ed169ac0001c27629,08/05/1953,2020-07-09_16h04.19.927,proactive,2020.1.2,Win32,60,5f073de81c76c3308c0e4fb3,5f077800db22460008c9988d,3,,,,,,carrot,,,,,,0,17,17,12,1,2,0,,,,,,,,,,,,,,,,,,,,,,,,,,,,,,,,,,,,,,,,,,,,,,,,,,,,,,,,,,,,,,,,,,,,,,,,,,,
,,,,,,,,,,stimuli/images/PICTURE_667.png,PLENTY,5c8eb16ed169ac0001c27629,08/05/1953,2020-07-09_16h04.19.927,proactive,2020.1.2,Win32,60,5f073de81c76c3308c0e4fb3,5f077800db22460008c9988d,3,,,,,,daisy,,,,,,0,18,18,41,1,5,0,,,,,,,,,,,,,,,,,,,,,,,,,,,,,,,,,,,,,,,,,,,,,,,,,,,,,,,,,,,,,,,,,,,,,,,,,,,
,,,,,,,,,,stimuli/images/PICTURE_160.png,LEADER,5c8eb16ed169ac0001c27629,08/05/1953,2020-07-09_16h04.19.927,proactive,2020.1.2,Win32,60,5f073de81c76c3308c0e4fb3,5f077800db22460008c9988d,3,,,,,,wheelbarrow,,,,,,0,19,19,3,1,1,0,,,,,,,,,,,,,,,,,,,,,,,,,,,,,,,,,,,,,,,,,,,,,,,,,,,,,,,,,,,,,,,,,,,,,,,,,,,
,,,,,,,,,,stimuli/images/PICTURE_667.png,BATH,5c8eb16ed169ac0001c27629,08/05/1953,2020-07-09_16h04.19.927,proactive,2020.1.2,Win32,60,5f073de81c76c3308c0e4fb3,5f077800db22460008c9988d,3,,,,,,daisy,,,,,,0,20,20,4,1,1,0,,,,,,,,,,,,,,,,,,,,,,,,,,,,,,,,,,,,,,,,,,,,,,,,,,,,,,,,,,,,,,,,,,,,,,,,,,,
,,,,,,,,,,stimuli/images/PICTURE_160.png,FEET,5c8eb16ed169ac0001c27629,08/05/1953,2020-07-09_16h04.19.927,proactive,2020.1.2,Win32,60,5f073de81c76c3308c0e4fb3,5f077800db22460008c9988d,3,,,,,,wheelbarrow,,,,,,0,21,21,58,1,6,0,,,,,,,,,,,,,,,,,,,,,,,,,,,,,,,,,,,,,,,,,,,,,,,,,,,,,,,,,,,,,,,,,,,,,,,,,,,
,,,,,,,,,,stimuli/images/PICTURE_504.png,BODY,5c8eb16ed169ac0001c27629,08/05/1953,2020-07-09_16h04.19.927,proactive,2020.1.2,Win32,60,5f073de81c76c3308c0e4fb3,5f077800db22460008c9988d,3,,,,,,wheel,,,,,,0,22,22,8,1,1,0,,,,,,,,,,,,,,,,,,,,,,,,,,,,,,,,,,,,,,,,,,,,,,,,,,,,,,,,,,,,,,,,,,,,,,,,,,,
,,,,,,,,,,stimuli/images/PICTURE_449.png,THING,5c8eb16ed169ac0001c27629,08/05/1953,2020-07-09_16h04.19.927,proactive,2020.1.2,Win32,60,5f073de81c76c3308c0e4fb3,5f077800db22460008c9988d,3,,,,,,bench,,,,,,0,23,23,59,1,6,0,,,,,,,,,,,,,,,,,,,,,,,,,,,,,,,,,,,,,,,,,,,,,,,,,,,,,,,,,,,,,,,,,,,,,,,,,,,
,,,,,,,,,,stimuli/images/PICTURE_692.png,MONTH,5c8eb16ed169ac0001c27629,08/05/1953,2020-07-09_16h04.19.927,proactive,2020.1.2,Win32,60,5f073de81c76c3308c0e4fb3,5f077800db22460008c9988d,3,,,,,,cherry,,,,,,0,24,24,16,1,2,0,,,,,,,,,,,,,,,,,,,,,,,,,,,,,,,,,,,,,,,,,,,,,,,,,,,,,,,,,,,,,,,,,,,,,,,,,,,
,,,,,,,,,,stimuli/images/PICTURE_744.png,SAKE,5c8eb16ed169ac0001c27629,08/05/1953,2020-07-09_16h04.19.927,proactive,2020.1.2,Win32,60,5f073de81c76c3308c0e4fb3,5f077800db22460008c9988d,3,,,,,,ring,,,,,,0,25,25,17,1,2,0,,,,,,,,,,,,,,,,,,,,,,,,,,,,,,,,,,,,,,,,,,,,,,,,,,,,,,,,,,,,,,,,,,,,,,,,,,,
,,,,,,,,,,stimuli/images/PICTURE_380.png,PHOTO,5c8eb16ed169ac0001c27629,08/05/1953,2020-07-09_16h04.19.927,proactive,2020.1.2,Win32,60,5f073de81c76c3308c0e4fb3,5f077800db22460008c9988d,3,,,,,,gorilla,,,,,,0,26,26,52,1,6,0,,,,,,,,,,,,,,,,,,,,,,,,,,,,,,,,,,,,,,,,,,,,,,,,,,,,,,,,,,,,,,,,,,,,,,,,,,,
,,,,,,,,,,stimuli/images/PICTURE_453.png,DUDE,5c8eb16ed169ac0001c27629,08/05/1953,2020-07-09_16h04.19.927,proactive,2020.1.2,Win32,60,5f073de81c76c3308c0e4fb3,5f077800db22460008c9988d,3,,,,,,scissors,,,,,,0,27,27,27,1,3,0,,,,,,,,,,,,,,,,,,,,,,,,,,,,,,,,,,,,,,,,,,,,,,,,,,,,,,,,,,,,,,,,,,,,,,,,,,,
,,,,,,,,,,stimuli/images/PICTURE_308.png,ESTATE,5c8eb16ed169ac0001c27629,08/05/1953,2020-07-09_16h04.19.927,proactive,2020.1.2,Win32,60,5f073de81c76c3308c0e4fb3,5f077800db22460008c9988d,3,,,,,,dice,,,,,,0,28,28,46,1,5,0,,,,,,,,,,,,,,,,,,,,,,,,,,,,,,,,,,,,,,,,,,,,,,,,,,,,,,,,,,,,,,,,,,,,,,,,,,,
,,,,,,,,,,stimuli/images/PICTURE_327.png,BEAUTY,5c8eb16ed169ac0001c27629,08/05/1953,2020-07-09_16h04.19.927,proactive,2020.1.2,Win32,60,5f073de81c76c3308c0e4fb3,5f077800db22460008c9988d,3,,,,,,helmet,,,,,,0,29,29,48,1,5,0,,,,,,,,,,,,,,,,,,,,,,,,,,,,,,,,,,,,,,,,,,,,,,,,,,,,,,,,,,,,,,,,,,,,,,,,,,,
,,,,,,,,,,stimuli/images/PICTURE_123.png,ADVICE,5c8eb16ed169ac0001c27629,08/05/1953,2020-07-09_16h04.19.927,proactive,2020.1.2,Win32,60,5f073de81c76c3308c0e4fb3,5f077800db22460008c9988d,3,,,,,,dart,,,,,,0,30,30,40,1,5,0,,,,,,,,,,,,,,,,,,,,,,,,,,,,,,,,,,,,,,,,,,,,,,,,,,,,,,,,,,,,,,,,,,,,,,,,,,,
,,,,,,,,,,stimuli/images/PICTURE_491.png,WRITER,5c8eb16ed169ac0001c27629,08/05/1953,2020-07-09_16h04.19.927,proactive,2020.1.2,Win32,60,5f073de81c76c3308c0e4fb3,5f077800db22460008c9988d,3,,,,,,rug,,,,,,0,31,31,57,1,6,0,,,,,,,,,,,,,,,,,,,,,,,,,,,,,,,,,,,,,,,,,,,,,,,,,,,,,,,,,,,,,,,,,,,,,,,,,,,
,,,,,,,,,,stimuli/images/PICTURE_203.png,ARTIST,5c8eb16ed169ac0001c27629,08/05/1953,2020-07-09_16h04.19.927,proactive,2020.1.2,Win32,60,5f073de81c76c3308c0e4fb3,5f077800db22460008c9988d,3,,,,,,cap,,,,,,0,32,32,26,1,3,0,,,,,,,,,,,,,,,,,,,,,,,,,,,,,,,,,,,,,,,,,,,,,,,,,,,,,,,,,,,,,,,,,,,,,,,,,,,
,,,,,,,,,,stimuli/images/PICTURE_208.png,LOTS,5c8eb16ed169ac0001c27629,08/05/1953,2020-07-09_16h04.19.927,proactive,2020.1.2,Win32,60,5f073de81c76c3308c0e4fb3,5f077800db22460008c9988d,3,,,,,,microphone,,,,,,0,33,33,10,1,2,0,,,,,,,,,,,,,,,,,,,,,,,,,,,,,,,,,,,,,,,,,,,,,,,,,,,,,,,,,,,,,,,,,,,,,,,,,,,
,,,,,,,,,,stimuli/images/PICTURE_688.png,WOMEN,5c8eb16ed169ac0001c27629,08/05/1953,2020-07-09_16h04.19.927,proactive,2020.1.2,Win32,60,5f073de81c76c3308c0e4fb3,5f077800db22460008c9988d,3,,,,,,runner,,,,,,0,34,34,14,1,2,0,,,,,,,,,,,,,,,,,,,,,,,,,,,,,,,,,,,,,,,,,,,,,,,,,,,,,,,,,,,,,,,,,,,,,,,,,,,
,,,,,,,,,,stimuli/images/PICTURE_177.png,CARS,5c8eb16ed169ac0001c27629,08/05/1953,2020-07-09_16h04.19.927,proactive,2020.1.2,Win32,60,5f073de81c76c3308c0e4fb3,5f077800db22460008c9988d,3,,,,,,mushroom,,,,,,0,35,35,35,1,4,0,,,,,,,,,,,,,,,,,,,,,,,,,,,,,,,,,,,,,,,,,,,,,,,,,,,,,,,,,,,,,,,,,,,,,,,,,,,
,,,,,,,,,,stimuli/images/PICTURE_348.png,SPEECH,5c8eb16ed169ac0001c27629,08/05/1953,2020-07-09_16h04.19.927,proactive,2020.1.2,Win32,60,5f073de81c76c3308c0e4fb3,5f077800db22460008c9988d,3,,,,,,pepper,,,,,,0,36,36,20,1,3,0,,,,,,,,,,,,,,,,,,,,,,,,,,,,,,,,,,,,,,,,,,,,,,,,,,,,,,,,,,,,,,,,,,,,,,,,,,,
,,,,,,,,,,stimuli/images/PICTURE_308.png,KIND,5c8eb16ed169ac0001c27629,08/05/1953,2020-07-09_16h04.19.927,proactive,2020.1.2,Win32,60,5f073de81c76c3308c0e4fb3,5f077800db22460008c9988d,3,,,,,,dice,,,,,,0,37,37,54,1,6,0,,,,,,,,,,,,,,,,,,,,,,,,,,,,,,,,,,,,,,,,,,,,,,,,,,,,,,,,,,,,,,,,,,,,,,,,,,,
,,,,,,,,,,stimuli/images/PICTURE_708.png,YARD,5c8eb16ed169ac0001c27629,08/05/1953,2020-07-09_16h04.19.927,proactive,2020.1.2,Win32,60,5f073de81c76c3308c0e4fb3,5f077800db22460008c9988d,3,,,,,,monkey,,,,,,0,38,38,29,1,3,0,,,,,,,,,,,,,,,,,,,,,,,,,,,,,,,,,,,,,,,,,,,,,,,,,,,,,,,,,,,,,,,,,,,,,,,,,,,
,,,,,,,,,,stimuli/images/PICTURE_32.png,JUNGLE,5c8eb16ed169ac0001c27629,08/05/1953,2020-07-09_16h04.19.927,proactive,2020.1.2,Win32,60,5f073de81c76c3308c0e4fb3,5f077800db22460008c9988d,3,,,,,,crown,,,,,,0,39,39,45,1,5,0,,,,,,,,,,,,,,,,,,,,,,,,,,,,,,,,,,,,,,,,,,,,,,,,,,,,,,,,,,,,,,,,,,,,,,,,,,,
,,,,,,,,,,stimuli/images/PICTURE_123.png,ADVICE,5c8eb16ed169ac0001c27629,08/05/1953,2020-07-09_16h04.19.927,proactive,2020.1.2,Win32,60,5f073de81c76c3308c0e4fb3,5f077800db22460008c9988d,3,,,,,,dart,,,,,,0,40,40,50,1,6,0,,,,,,,,,,,,,,,,,,,,,,,,,,,,,,,,,,,,,,,,,,,,,,,,,,,,,,,,,,,,,,,,,,,,,,,,,,,
,,,,,,,,,,stimuli/images/PICTURE_453.png,PLENTY,5c8eb16ed169ac0001c27629,08/05/1953,2020-07-09_16h04.19.927,proactive,2020.1.2,Win32,60,5f073de81c76c3308c0e4fb3,5f077800db22460008c9988d,3,,,,,,scissors,,,,,,0,41,41,56,1,6,0,,,,,,,,,,,,,,,,,,,,,,,,,,,,,,,,,,,,,,,,,,,,,,,,,,,,,,,,,,,,,,,,,,,,,,,,,,,
,,,,,,,,,,stimuli/images/PICTURE_487.png,FLIGHT,5c8eb16ed169ac0001c27629,08/05/1953,2020-07-09_16h04.19.927,proactive,2020.1.2,Win32,60,5f073de81c76c3308c0e4fb3,5f077800db22460008c9988d,3,,,,,,basket,,,,,,0,42,42,9,1,1,0,,,,,,,,,,,,,,,,,,,,,,,,,,,,,,,,,,,,,,,,,,,,,,,,,,,,,,,,,,,,,,,,,,,,,,,,,,,
,,,,,,,,,,stimuli/images/PICTURE_677.png,MILE,5c8eb16ed169ac0001c27629,08/05/1953,2020-07-09_16h04.19.927,proactive,2020.1.2,Win32,60,5f073de81c76c3308c0e4fb3,5f077800db22460008c9988d,3,,,,,,map,,,,,,0,43,43,30,1,4,0,,,,,,,,,,,,,,,,,,,,,,,,,,,,,,,,,,,,,,,,,,,,,,,,,,,,,,,,,,,,,,,,,,,,,,,,,,,
,,,,,,,,,,stimuli/images/PICTURE_356.png,DANGER,5c8eb16ed169ac0001c27629,08/05/1953,2020-07-09_16h04.19.927,proactive,2020.1.2,Win32,60,5f073de81c76c3308c0e4fb3,5f077800db22460008c9988d,3,,,,,,pawn,,,,,,0,44,44,55,1,6,0,,,,,,,,,,,,,,,,,,,,,,,,,,,,,,,,,,,,,,,,,,,,,,,,,,,,,,,,,,,,,,,,,,,,,,,,,,,
,,,,,,,,,,stimuli/images/PICTURE_469.png,LETTER,5c8eb16ed169ac0001c27629,08/05/1953,2020-07-09_16h04.19.927,proactive,2020.1.2,Win32,60,5f073de81c76c3308c0e4fb3,5f077800db22460008c9988d,3,,,,,,stool,,,,,,0,45,45,42,1,5,0,,,,,,,,,,,,,,,,,,,,,,,,,,,,,,,,,,,,,,,,,,,,,,,,,,,,,,,,,,,,,,,,,,,,,,,,,,,
,,,,,,,,,,stimuli/images/PICTURE_233.png,IDEAS,5c8eb16ed169ac0001c27629,08/05/1953,2020-07-09_16h04.19.927,proactive,2020.1.2,Win32,60,5f073de81c76c3308c0e4fb3,5f077800db22460008c9988d,3,,,,,,salt,,,,,,0,46,46,28,1,3,0,,,,,,,,,,,,,,,,,,,,,,,,,,,,,,,,,,,,,,,,,,,,,,,,,,,,,,,,,,,,,,,,,,,,,,,,,,,
,,,,,,,,,,stimuli/images/PICTURE_708.png,CLIENT,5c8eb16ed169ac0001c27629,08/05/1953,2020-07-09_16h04.19.927,proactive,2020.1.2,Win32,60,5f073de81c76c3308c0e4fb3,5f077800db22460008c9988d,3,,,,,,monkey,,,,,,0,47,47,5,1,1,0,,,,,,,,,,,,,,,,,,,,,,,,,,,,,,,,,,,,,,,,,,,,,,,,,,,,,,,,,,,,,,,,,,,,,,,,,,,
,,,,,,,,,,stimuli/images/PICTURE_311.png,FRIEND,5c8eb16ed169ac0001c27629,08/05/1953,2020-07-09_16h04.19.927,proactive,2020.1.2,Win32,60,5f073de81c76c3308c0e4fb3,5f077800db22460008c9988d,3,,,,,,razor,,,,,,0,48,48,34,1,4,0,,,,,,,,,,,,,,,,,,,,,,,,,,,,,,,,,,,,,,,,,,,,,,,,,,,,,,,,,,,,,,,,,,,,,,,,,,,
,,,,,,,,,,stimuli/images/PICTURE_469.png,ARTIST,5c8eb16ed169ac0001c27629,08/05/1953,2020-07-09_16h04.19.927,proactive,2020.1.2,Win32,60,5f073de81c76c3308c0e4fb3,5f077800db22460008c9988d,3,,,,,,stool,,,,,,0,49,49,6,1,1,0,,,,,,,,,,,,,,,,,,,,,,,,,,,,,,,,,,,,,,,,,,,,,,,,,,,,,,,,,,,,,,,,,,,,,,,,,,,
,,,,,,,,,,stimuli/images/PICTURE_467.png,DEMON,5c8eb16ed169ac0001c27629,08/05/1953,2020-07-09_16h04.19.927,proactive,2020.1.2,Win32,60,5f073de81c76c3308c0e4fb3,5f077800db22460008c9988d,3,,,,,,peg,,,,,,0,50,50,23,1,3,0,,,,,,,,,,,,,,,,,,,,,,,,,,,,,,,,,,,,,,,,,,,,,,,,,,,,,,,,,,,,,,,,,,,,,,,,,,,
,,,,,,,,,,stimuli/images/PICTURE_68.png,MILE,5c8eb16ed169ac0001c27629,08/05/1953,2020-07-09_16h04.19.927,proactive,2020.1.2,Win32,60,5f073de81c76c3308c0e4fb3,5f077800db22460008c9988d,3,,,,,,candle,,,,,,0,51,51,44,1,5,0,,,,,,,,,,,,,,,,,,,,,,,,,,,,,,,,,,,,,,,,,,,,,,,,,,,,,,,,,,,,,,,,,,,,,,,,,,,
,,,,,,,,,,stimuli/images/PICTURE_233.png,WOMEN,5c8eb16ed169ac0001c27629,08/05/1953,2020-07-09_16h04.19.927,proactive,2020.1.2,Win32,60,5f073de81c76c3308c0e4fb3,5f077800db22460008c9988d,3,,,,,,salt,,,,,,0,52,52,38,1,4,0,,,,,,,,,,,,,,,,,,,,,,,,,,,,,,,,,,,,,,,,,,,,,,,,,,,,,,,,,,,,,,,,,,,,,,,,,,,
,,,,,,,,,,stimuli/images/PICTURE_380.png,DEATH,5c8eb16ed169ac0001c27629,08/05/1953,2020-07-09_16h04.19.927,proactive,2020.1.2,Win32,60,5f073de81c76c3308c0e4fb3,5f077800db22460008c9988d,3,,,,,,gorilla,,,,,,0,53,53,49,1,5,0,,,,,,,,,,,,,,,,,,,,,,,,,,,,,,,,,,,,,,,,,,,,,,,,,,,,,,,,,,,,,,,,,,,,,,,,,,,
,,,,,,,,,,stimuli/images/PICTURE_147.png,MOMENT,5c8eb16ed169ac0001c27629,08/05/1953,2020-07-09_16h04.19.927,proactive,2020.1.2,Win32,60,5f073de81c76c3308c0e4fb3,5f077800db22460008c9988d,3,,,,,,hanger,,,,,,0,54,54,51,1,6,0,,,,,,,,,,,,,,,,,,,,,,,,,,,,,,,,,,,,,,,,,,,,,,,,,,,,,,,,,,,,,,,,,,,,,,,,,,,
,,,,,,,,,,stimuli/images/PICTURE_744.png,SYSTEM,5c8eb16ed169ac0001c27629,08/05/1953,2020-07-09_16h04.19.927,proactive,2020.1.2,Win32,60,5f073de81c76c3308c0e4fb3,5f077800db22460008c9988d,3,,,,,,ring,,,,,,0,55,55,43,1,5,0,,,,,,,,,,,,,,,,,,,,,,,,,,,,,,,,,,,,,,,,,,,,,,,,,,,,,,,,,,,,,,,,,,,,,,,,,,,
,,,,,,,,,,stimuli/images/PICTURE_314.png,SAKE,5c8eb16ed169ac0001c27629,08/05/1953,2020-07-09_16h04.19.927,proactive,2020.1.2,Win32,60,5f073de81c76c3308c0e4fb3,5f077800db22460008c9988d,3,,,,,,perfume,,,,,,0,56,56,7,1,1,0,,,,,,,,,,,,,,,,,,,,,,,,,,,,,,,,,,,,,,,,,,,,,,,,,,,,,,,,,,,,,,,,,,,,,,,,,,,
,,,,,,,,,,stimuli/images/PICTURE_491.png,ROOF,5c8eb16ed169ac0001c27629,08/05/1953,2020-07-09_16h04.19.927,proactive,2020.1.2,Win32,60,5f073de81c76c3308c0e4fb3,5f077800db22460008c9988d,3,,,,,,rug,,,,,,0,57,57,24,1,3,0,,,,,,,,,,,,,,,,,,,,,,,,,,,,,,,,,,,,,,,,,,,,,,,,,,,,,,,,,,,,,,,,,,,,,,,,,,,
,,,,,,,,,,stimuli/images/PICTURE_470.png,CASINO,5c8eb16ed169ac0001c27629,08/05/1953,2020-07-09_16h04.19.927,proactive,2020.1.2,Win32,60,5f073de81c76c3308c0e4fb3,5f077800db22460008c9988d,3,,,,,,motorbike,,,,,,0,58,58,36,1,4,0,,,,,,,,,,,,,,,,,,,,,,,,,,,,,,,,,,,,,,,,,,,,,,,,,,,,,,,,,,,,,,,,,,,,,,,,,,,
,,?,0.003305,0,,,,,,stimuli/images/PICTURE_654.png,VALLEY,5c8eb16ed169ac0001c27629,08/05/1953,2020-07-09_16h04.19.927,proactive,2020.1.2,Win32,60,5f073de81c76c3308c0e4fb3,5f077800db22460008c9988d,3,,,,,,pencil,,,,,,,,,,,1,0,0,0,0,1,1,,,,,,,,,,,,,,,,,,,,,,,,,,,,,,,,,,,,,,,,,,,,,,,,,,,,,,,,,,,,,,,,,,,,,,
,,?,0.00213,0,,,,,,stimuli/images/PICTURE_123.png,ADVICE,5c8eb16ed169ac0001c27629,08/05/1953,2020-07-09_16h04.19.927,proactive,2020.1.2,Win32,60,5f073de81c76c3308c0e4fb3,5f077800db22460008c9988d,3,,,,,,dart,,,,,,,,,,,5,0,0,1,1,40,1,,,,,,,,,,,,,,,,,,,,,,,,,,,,,,,,,,,,,,,,,,,,,,,,,,,,,,,,,,,,,,,,,,,,,,
,,?,0.00211,0,,,,,,stimuli/images/PICTURE_491.png,WRITER,5c8eb16ed169ac0001c27629,08/05/1953,2020-07-09_16h04.19.927,proactive,2020.1.2,Win32,60,5f073de81c76c3308c0e4fb3,5f077800db22460008c9988d,3,,,,,,rug,,,,,,,,,,,6,0,0,2,2,57,1,,,,,,,,,,,,,,,,,,,,,,,,,,,,,,,,,,,,,,,,,,,,,,,,,,,,,,,,,,,,,,,,,,,,,,
,,?,0.00304,0,,,,,,stimuli/images/PICTURE_469.png,LETTER,5c8eb16ed169ac0001c27629,08/05/1953,2020-07-09_16h04.19.927,proactive,2020.1.2,Win32,60,5f073de81c76c3308c0e4fb3,5f077800db22460008c9988d,3,,,,,,stool,,,,,,,,,,,5,0,0,3,3,42,1,,,,,,,,,,,,,,,,,,,,,,,,,,,,,,,,,,,,,,,,,,,,,,,,,,,,,,,,,,,,,,,,,,,,,,
,,?,0.003225,0,,,,,,stimuli/images/PICTURE_147.png,MOMENT,5c8eb16ed169ac0001c27629,08/05/1953,2020-07-09_16h04.19.927,proactive,2020.1.2,Win32,60,5f073de81c76c3308c0e4fb3,5f077800db22460008c9988d,3,,,,,,hanger,,,,,,,,,,,6,0,0,4,4,51,1,,,,,,,,,,,,,,,,,,,,,,,,,,,,,,,,,,,,,,,,,,,,,,,,,,,,,,,,,,,,,,,,,,,,,,
,,IDEAS,3.46287,1,,,,,,stimuli/images/PICTURE_233.png,IDEAS,5c8eb16ed169ac0001c27629,08/05/1953,2020-07-09_16h04.19.927,proactive,2020.1.2,Win32,60,5f073de81c76c3308c0e4fb3,5f077800db22460008c9988d,3,,,,,,salt,,,,,,,,,,,3,0,0,5,5,28,1,,,,,,,,,,,,,,,,,,,,,,,,,,,,,,,,,,,,,,,,,,,,,,,,,,,,,,,,,,,,,,,,,,,,,,
,,?,0.00222,0,,,,,,stimuli/images/PICTURE_327.png,BEAUTY,5c8eb16ed169ac0001c27629,08/05/1953,2020-07-09_16h04.19.927,proactive,2020.1.2,Win32,60,5f073de81c76c3308c0e4fb3,5f077800db22460008c9988d,3,,,,,,helmet,,,,,,,,,,,5,0,0,6,6,48,1,,,,,,,,,,,,,,,,,,,,,,,,,,,,,,,,,,,,,,,,,,,,,,,,,,,,,,,,,,,,,,,,,,,,,,
,,?,0.002065,0,,,,,,stimuli/images/PICTURE_208.png,MONTH,5c8eb16ed169ac0001c27629,08/05/1953,2020-07-09_16h04.19.927,proactive,2020.1.2,Win32,60,5f073de81c76c3308c0e4fb3,5f077800db22460008c9988d,3,,,,,,microphone,,,,,,,,,,,6,0,0,7,7,53,1,,,,,,,,,,,,,,,,,,,,,,,,,,,,,,,,,,,,,,,,,,,,,,,,,,,,,,,,,,,,,,,,,,,,,,
,,?,0.00389,0,,,,,,stimuli/images/PICTURE_285.png,ADVICE,5c8eb16ed169ac0001c27629,08/05/1953,2020-07-09_16h04.19.927,proactive,2020.1.2,Win32,60,5f073de81c76c3308c0e4fb3,5f077800db22460008c9988d,3,,,,,,carrot,,,,,,,,,,,2,0,0,8,8,12,1,,,,,,,,,,,,,,,,,,,,,,,,,,,,,,,,,,,,,,,,,,,,,,,,,,,,,,,,,,,,,,,,,,,,,,
,,?,0.00623,0,,,,,,stimuli/images/PICTURE_708.png,CLIENT,5c8eb16ed169ac0001c27629,08/05/1953,2020-07-09_16h04.19.927,proactive,2020.1.2,Win32,60,5f073de81c76c3308c0e4fb3,5f077800db22460008c9988d,3,,,,,,monkey,,,,,,,,,,,1,0,0,9,9,5,1,,,,,,,,,,,,,,,,,,,,,,,,,,,,,,,,,,,,,,,,,,,,,,,,,,,,,,,,,,,,,,,,,,,,,,
,,?,0.002215,0,,,,,,stimuli/images/PICTURE_688.png,WOMEN,5c8eb16ed169ac0001c27629,08/05/1953,2020-07-09_16h04.19.927,proactive,2020.1.2,Win32,60,5f073de81c76c3308c0e4fb3,5f077800db22460008c9988d,3,,,,,,runner,,,,,,,,,,,2,0,0,10,10,14,1,,,,,,,,,,,,,,,,,,,,,,,,,,,,,,,,,,,,,,,,,,,,,,,,,,,,,,,,,,,,,,,,,,,,,,
,,?,0.00222,0,,,,,,stimuli/images/PICTURE_160.png,FEET,5c8eb16ed169ac0001c27629,08/05/1953,2020-07-09_16h04.19.927,proactive,2020.1.2,Win32,60,5f073de81c76c3308c0e4fb3,5f077800db22460008c9988d,3,,,,,,wheelbarrow,,,,,,,,,,,6,0,0,11,11,58,1,,,,,,,,,,,,,,,,,,,,,,,,,,,,,,,,,,,,,,,,,,,,,,,,,,,,,,,,,,,,,,,,,,,,,,
,,?,0.002225,0,,,,,,stimuli/images/PICTURE_160.png,LEADER,5c8eb16ed169ac0001c27629,08/05/1953,2020-07-09_16h04.19.927,proactive,2020.1.2,Win32,60,5f073de81c76c3308c0e4fb3,5f077800db22460008c9988d,3,,,,,,wheelbarrow,,,,,,,,,,,1,0,0,12,12,3,1,,,,,,,,,,,,,,,,,,,,,,,,,,,,,,,,,,,,,,,,,,,,,,,,,,,,,,,,,,,,,,,,,,,,,,
,,?,0.002255,0,,,,,,stimuli/images/PICTURE_302.png,FAMILY,5c8eb16ed169ac0001c27629,08/05/1953,2020-07-09_16h04.19.927,proactive,2020.1.2,Win32,60,5f073de81c76c3308c0e4fb3,5f077800db22460008c9988d,3,,,,,,taxi,,,,,,,,,,,2,0,0,13,13,18,1,,,,,,,,,,,,,,,,,,,,,,,,,,,,,,,,,,,,,,,,,,,,,,,,,,,,,,,,,,,,,,,,,,,,,,
,,?,0.002175,0,,,,,,stimuli/images/PICTURE_356.png,DANGER,5c8eb16ed169ac0001c27629,08/05/1953,2020-07-09_16h04.19.927,proactive,2020.1.2,Win32,60,5f073de81c76c3308c0e4fb3,5f077800db22460008c9988d,3,,,,,,pawn,,,,,,,,,,,6,0,0,14,14,55,1,,,,,,,,,,,,,,,,,,,,,,,,,,,,,,,,,,,,,,,,,,,,,,,,,,,,,,,,,,,,,,,,,,,,,,
,,?,0.00282,0,,,,,,stimuli/images/PICTURE_208.png,LOTS,5c8eb16ed169ac0001c27629,08/05/1953,2020-07-09_16h04.19.927,proactive,2020.1.2,Win32,60,5f073de81c76c3308c0e4fb3,5f077800db22460008c9988d,3,,,,,,microphone,,,,,,,,,,,2,0,0,15,15,10,1,,,,,,,,,,,,,,,,,,,,,,,,,,,,,,,,,,,,,,,,,,,,,,,,,,,,,,,,,,,,,,,,,,,,,,
,,?,0.002045,0,,,,,,stimuli/images/PICTURE_744.png,SAKE,5c8eb16ed169ac0001c27629,08/05/1953,2020-07-09_16h04.19.927,proactive,2020.1.2,Win32,60,5f073de81c76c3308c0e4fb3,5f077800db22460008c9988d,3,,,,,,ring,,,,,,,,,,,2,0,0,16,16,17,1,,,,,,,,,,,,,,,,,,,,,,,,,,,,,,,,,,,,,,,,,,,,,,,,,,,,,,,,,,,,,,,,,,,,,,
