consent_key.keys,consent_key.rt,recalled,recalled_rt,recall_acc,example_recall.thisRepN,example_recall.thisTrialN,example_recall.thisN,example_recall.thisIndex,example_recall.ran,file,word,participant,please enter your date of birth (dd/mm/yyyy),date,expName,psychopyVersion,OS,frameRate,STUDY_ID,SESSION_ID,list,prac_learn_study_loop.thisRepN,prac_learn_study_loop.thisTrialN,prac_learn_study_loop.thisN,prac_learn_study_loop.thisIndex,prac_learn_study_loop.ran,image,prac_learn_test_loop.thisRepN,prac_learn_test_loop.thisTrialN,prac_learn_test_loop.thisN,prac_learn_test_loop.thisIndex,prac_learn_test_loop.ran,learn_study_loop.thisRepN,learn_study_loop.thisTrialN,learn_study_loop.thisN,learn_study_loop.thisIndex,learn_study_loop.ran,list_no,block_no,learn_test_loop.thisRepN,learn_test_loop.thisTrialN,learn_test_loop.thisN,learn_test_loop.thisIndex,learn_test_loop.ran,learn_blocks.thisRepN,learn_blocks.thisTrialN,learn_blocks.thisN,learn_blocks.thisIndex,learn_blocks.ran,block_csv,key_resp_13.keys,key_resp_13.rt,learn_blocks_loop.thisRepN,learn_blocks_loop.thisTrialN,learn_blocks_loop.thisN,learn_blocks_loop.thisIndex,learn_blocks_loop.ran,final_learn_test.thisRepN,final_learn_test.thisTrialN,final_learn_test.thisN,final_learn_test.thisIndex,final_learn_test.ran,prac_wm_test_loop.thisRepN,prac_wm_test_loop.thisTrialN,prac_wm_test_loop.thisN,prac_wm_test_loop.thisIndex,prac_wm_test_loop.ran,wm_recalled1,wm_recall_rt1,wm_probed1,wm_recall_acc1,wm_recalled2,wm_recall_rt2,wm_probed2,wm_recall_acc2,wm_recalled3,wm_recall_rt3,wm_probed3,wm_recall_acc3,wm_recalled4,wm_recall_rt4,wm_probed4,wm_recall_acc4,prac_wm_trial_loop.thisRepN,prac_wm_trial_loop.thisTrialN,prac_wm_trial_loop.thisN,prac_wm_trial_loop.thisIndex,prac_wm_trial_loop.ran,word1,image1,file1,item_type1,word2,image2,file2,item_type2,word4,image4,file4,item_type4,word3,image3,file3,item_type3,wm_test_loop.thisRepN,wm_test_loop.thisTrialN,wm_test_loop.thisN,wm_test_loop.thisIndex,wm_test_loop.ran,wm_trial_loop.thisRepN,wm_trial_loop.thisTrialN,wm_trial_loop.thisN,wm_trial_loop.thisIndex,wm_trial_loop.ran
y,67.082495,TOUGH,10.013105,1,0,0,0,0,1,stimuli/images/PICTURE_747.png,TOUGH,5d33ff76f665c6001ab9aa1e,19/04/1994,2020-07-08_18h53.29.406,proactive,2020.1.2,Win32,60,5f035e5afe130c270d6ae6dd,5f05ebd798000b0d6563a269,2,,,,,,,,,,,,,,,,,,,,,,,,,,,,,,,,,,,,,,,,,,,,,,,,,,,,,,,,,,,,,,,,,,,,,,,,,,,,,,,,,,,,,,,,,,,,,
,,,,,,,,,,stimuli/images/PICTURE_727.png,CELL,5d33ff76f665c6001ab9aa1e,19/04/1994,2020-07-08_18h53.29.406,proactive,2020.1.2,Win32,60,5f035e5afe130c270d6ae6dd,5f05ebd798000b0d6563a269,2,0,0,0,1,1,hose,,,,,,,,,,,,,,,,,,,,,,,,,,,,,,,,,,,,,,,,,,,,,,,,,,,,,,,,,,,,,,,,,,,,,,,,,,,,,,,,,,,,,,,
,,,,,,,,,,stimuli/images/PICTURE_269.png,GENIUS,5d33ff76f665c6001ab9aa1e,19/04/1994,2020-07-08_18h53.29.406,proactive,2020.1.2,Win32,60,5f035e5afe130c270d6ae6dd,5f05ebd798000b0d6563a269,2,0,1,1,0,1,chameleon,,,,,,,,,,,,,,,,,,,,,,,,,,,,,,,,,,,,,,,,,,,,,,,,,,,,,,,,,,,,,,,,,,,,,,,,,,,,,,,,,,,,,,,
,,,,,,,,,,stimuli/images/PICTURE_658.png,DEVIL,5d33ff76f665c6001ab9aa1e,19/04/1994,2020-07-08_18h53.29.406,proactive,2020.1.2,Win32,60,5f035e5afe130c270d6ae6dd,5f05ebd798000b0d6563a269,2,0,2,2,3,1,crow,,,,,,,,,,,,,,,,,,,,,,,,,,,,,,,,,,,,,,,,,,,,,,,,,,,,,,,,,,,,,,,,,,,,,,,,,,,,,,,,,,,,,,,
,,,,,,,,,,stimuli/images/PICTURE_697.png,KILLER,5d33ff76f665c6001ab9aa1e,19/04/1994,2020-07-08_18h53.29.406,proactive,2020.1.2,Win32,60,5f035e5afe130c270d6ae6dd,5f05ebd798000b0d6563a269,2,0,3,3,4,1,peach,,,,,,,,,,,,,,,,,,,,,,,,,,,,,,,,,,,,,,,,,,,,,,,,,,,,,,,,,,,,,,,,,,,,,,,,,,,,,,,,,,,,,,,
,,LOSS,10.00732,1,,,,,,stimuli/images/PICTURE_378.png,LOSS,5d33ff76f665c6001ab9aa1e,19/04/1994,2020-07-08_18h53.29.406,proactive,2020.1.2,Win32,60,5f035e5afe130c270d6ae6dd,5f05ebd798000b0d6563a269,2,,,,,,lobster,0,0,0,2,1,,,,,,,,,,,,,,,,,,,,,,,,,,,,,,,,,,,,,,,,,,,,,,,,,,,,,,,,,,,,,,,,,,,,,,,,,,,,,,,,,,
,,DEVIL,10.013375,0,,,,,,stimuli/images/PICTURE_697.png,KILLER,5d33ff76f665c6001ab9aa1e,19/04/1994,2020-07-08_18h53.29.406,proactive,2020.1.2,Win32,60,5f035e5afe130c270d6ae6dd,5f05ebd798000b0d6563a269,2,,,,,,peach,0,1,1,4,1,,,,,,,,,,,,,,,,,,,,,,,,,,,,,,,,,,,,,,,,,,,,,,,,,,,,,,,,,,,,,,,,,,,,,,,,,,,,,,,,,,
,,DEVIL,10.014415,1,,,,,,stimuli/images/PICTURE_658.png,DEVIL,5d33ff76f665c6001ab9aa1e,19/04/1994,2020-07-08_18h53.29.406,proactive,2020.1.2,Win32,60,5f035e5afe130c270d6ae6dd,5f05ebd798000b0d6563a269,2,,,,,,crow,0,2,2,3,1,,,,,,,,,,,,,,,,,,,,,,,,,,,,,,,,,,,,,,,,,,,,,,,,,,,,,,,,,,,,,,,,,,,,,,,,,,,,,,,,,,
,,CELL,10.01447,0,,,,,,stimuli/images/PICTURE_269.png,GENIUS,5d33ff76f665c6001ab9aa1e,19/04/1994,2020-07-08_18h53.29.406,proactive,2020.1.2,Win32,60,5f035e5afe130c270d6ae6dd,5f05ebd798000b0d6563a269,2,,,,,,chameleon,0,3,3,0,1,,,,,,,,,,,,,,,,,,,,,,,,,,,,,,,,,,,,,,,,,,,,,,,,,,,,,,,,,,,,,,,,,,,,,,,,,,,,,,,,,,
,,CELL,10.013875,1,,,,,,stimuli/images/PICTURE_727.png,CELL,5d33ff76f665c6001ab9aa1e,19/04/1994,2020-07-08_18h53.29.406,proactive,2020.1.2,Win32,60,5f035e5afe130c270d6ae6dd,5f05ebd798000b0d6563a269,2,,,,,,hose,0,4,4,1,1,,,,,,,,,,,,,,,,,,,,,,,,,,,,,,,,,,,,,,,,,,,,,,,,,,,,,,,,,,,,,,,,,,,,,,,,,,,,,,,,,,
,,,,,,,,,,stimuli/images/PICTURE_285.png,ADVICE,5d33ff76f665c6001ab9aa1e,19/04/1994,2020-07-08_18h53.29.406,proactive,2020.1.2,Win32,60,5f035e5afe130c270d6ae6dd,5f05ebd798000b0d6563a269,2,,,,,,carrot,,,,,,0,0,0,12,1,2,0,,,,,,,,,,,,,,,,,,,,,,,,,,,,,,,,,,,,,,,,,,,,,,,,,,,,,,,,,,,,,,,,,,,,,,,,,,,
,,,,,,,,,,stimuli/images/PICTURE_311.png,FRIEND,5d33ff76f665c6001ab9aa1e,19/04/1994,2020-07-08_18h53.29.406,proactive,2020.1.2,Win32,60,5f035e5afe130c270d6ae6dd,5f05ebd798000b0d6563a269,2,,,,,,razor,,,,,,0,1,1,34,1,4,0,,,,,,,,,,,,,,,,,,,,,,,,,,,,,,,,,,,,,,,,,,,,,,,,,,,,,,,,,,,,,,,,,,,,,,,,,,,
,,,,,,,,,,stimuli/images/PICTURE_467.png,DEMON,5d33ff76f665c6001ab9aa1e,19/04/1994,2020-07-08_18h53.29.406,proactive,2020.1.2,Win32,60,5f035e5afe130c270d6ae6dd,5f05ebd798000b0d6563a269,2,,,,,,peg,,,,,,0,2,2,23,1,3,0,,,,,,,,,,,,,,,,,,,,,,,,,,,,,,,,,,,,,,,,,,,,,,,,,,,,,,,,,,,,,,,,,,,,,,,,,,,
,,,,,,,,,,stimuli/images/PICTURE_147.png,MOMENT,5d33ff76f665c6001ab9aa1e,19/04/1994,2020-07-08_18h53.29.406,proactive,2020.1.2,Win32,60,5f035e5afe130c270d6ae6dd,5f05ebd798000b0d6563a269,2,,,,,,hanger,,,,,,0,3,3,51,1,6,0,,,,,,,,,,,,,,,,,,,,,,,,,,,,,,,,,,,,,,,,,,,,,,,,,,,,,,,,,,,,,,,,,,,,,,,,,,,
,,,,,,,,,,stimuli/images/PICTURE_203.png,ARTIST,5d33ff76f665c6001ab9aa1e,19/04/1994,2020-07-08_18h53.29.406,proactive,2020.1.2,Win32,60,5f035e5afe130c270d6ae6dd,5f05ebd798000b0d6563a269,2,,,,,,cap,,,,,,0,4,4,26,1,3,0,,,,,,,,,,,,,,,,,,,,,,,,,,,,,,,,,,,,,,,,,,,,,,,,,,,,,,,,,,,,,,,,,,,,,,,,,,,
,,,,,,,,,,stimuli/images/PICTURE_449.png,THING,5d33ff76f665c6001ab9aa1e,19/04/1994,2020-07-08_18h53.29.406,proactive,2020.1.2,Win32,60,5f035e5afe130c270d6ae6dd,5f05ebd798000b0d6563a269,2,,,,,,bench,,,,,,0,5,5,59,1,6,0,,,,,,,,,,,,,,,,,,,,,,,,,,,,,,,,,,,,,,,,,,,,,,,,,,,,,,,,,,,,,,,,,,,,,,,,,,,
,,,,,,,,,,stimuli/images/PICTURE_654.png,VALLEY,5d33ff76f665c6001ab9aa1e,19/04/1994,2020-07-08_18h53.29.406,proactive,2020.1.2,Win32,60,5f035e5afe130c270d6ae6dd,5f05ebd798000b0d6563a269,2,,,,,,pencil,,,,,,0,6,6,1,1,1,0,,,,,,,,,,,,,,,,,,,,,,,,,,,,,,,,,,,,,,,,,,,,,,,,,,,,,,,,,,,,,,,,,,,,,,,,,,,
,,,,,,,,,,stimuli/images/PICTURE_123.png,ADVICE,5d33ff76f665c6001ab9aa1e,19/04/1994,2020-07-08_18h53.29.406,proactive,2020.1.2,Win32,60,5f035e5afe130c270d6ae6dd,5f05ebd798000b0d6563a269,2,,,,,,dart,,,,,,0,7,7,40,1,5,0,,,,,,,,,,,,,,,,,,,,,,,,,,,,,,,,,,,,,,,,,,,,,,,,,,,,,,,,,,,,,,,,,,,,,,,,,,,
,,,,,,,,,,stimuli/images/PICTURE_233.png,WOMEN,5d33ff76f665c6001ab9aa1e,19/04/1994,2020-07-08_18h53.29.406,proactive,2020.1.2,Win32,60,5f035e5afe130c270d6ae6dd,5f05ebd798000b0d6563a269,2,,,,,,salt,,,,,,0,8,8,38,1,4,0,,,,,,,,,,,,,,,,,,,,,,,,,,,,,,,,,,,,,,,,,,,,,,,,,,,,,,,,,,,,,,,,,,,,,,,,,,,
,,,,,,,,,,stimuli/images/PICTURE_688.png,WOMEN,5d33ff76f665c6001ab9aa1e,19/04/1994,2020-07-08_18h53.29.406,proactive,2020.1.2,Win32,60,5f035e5afe130c270d6ae6dd,5f05ebd798000b0d6563a269,2,,,,,,runner,,,,,,0,9,9,14,1,2,0,,,,,,,,,,,,,,,,,,,,,,,,,,,,,,,,,,,,,,,,,,,,,,,,,,,,,,,,,,,,,,,,,,,,,,,,,,,
,,,,,,,,,,stimuli/images/PICTURE_667.png,BATH,5d33ff76f665c6001ab9aa1e,19/04/1994,2020-07-08_18h53.29.406,proactive,2020.1.2,Win32,60,5f035e5afe130c270d6ae6dd,5f05ebd798000b0d6563a269,2,,,,,,daisy,,,,,,0,10,10,4,1,1,0,,,,,,,,,,,,,,,,,,,,,,,,,,,,,,,,,,,,,,,,,,,,,,,,,,,,,,,,,,,,,,,,,,,,,,,,,,,
,,,,,,,,,,stimuli/images/PICTURE_491.png,ROOF,5d33ff76f665c6001ab9aa1e,19/04/1994,2020-07-08_18h53.29.406,proactive,2020.1.2,Win32,60,5f035e5afe130c270d6ae6dd,5f05ebd798000b0d6563a269,2,,,,,,rug,,,,,,0,11,11,24,1,3,0,,,,,,,,,,,,,,,,,,,,,,,,,,,,,,,,,,,,,,,,,,,,,,,,,,,,,,,,,,,,,,,,,,,,,,,,,,,
,,,,,,,,,,stimuli/images/PICTURE_744.png,SYSTEM,5d33ff76f665c6001ab9aa1e,19/04/1994,2020-07-08_18h53.29.406,proactive,2020.1.2,Win32,60,5f035e5afe130c270d6ae6dd,5f05ebd798000b0d6563a269,2,,,,,,ring,,,,,,0,12,12,43,1,5,0,,,,,,,,,,,,,,,,,,,,,,,,,,,,,,,,,,,,,,,,,,,,,,,,,,,,,,,,,,,,,,,,,,,,,,,,,,,
,,,,,,,,,,stimuli/images/PICTURE_208.png,MONTH,5d33ff76f665c6001ab9aa1e,19/04/1994,2020-07-08_18h53.29.406,proactive,2020.1.2,Win32,60,5f035e5afe130c270d6ae6dd,5f05ebd798000b0d6563a269,2,,,,,,microphone,,,,,,0,13,13,53,1,6,0,,,,,,,,,,,,,,,,,,,,,,,,,,,,,,,,,,,,,,,,,,,,,,,,,,,,,,,,,,,,,,,,,,,,,,,,,,,
,,,,,,,,,,stimuli/images/PICTURE_85.png,THING,5d33ff76f665c6001ab9aa1e,19/04/1994,2020-07-08_18h53.29.406,proactive,2020.1.2,Win32,60,5f035e5afe130c270d6ae6dd,5f05ebd798000b0d6563a269,2,,,,,,diamond,,,,,,0,14,14,15,1,2,0,,,,,,,,,,,,,,,,,,,,,,,,,,,,,,,,,,,,,,,,,,,,,,,,,,,,,,,,,,,,,,,,,,,,,,,,,,,
,,,,,,,,,,stimuli/images/PICTURE_308.png,KIND,5d33ff76f665c6001ab9aa1e,19/04/1994,2020-07-08_18h53.29.406,proactive,2020.1.2,Win32,60,5f035e5afe130c270d6ae6dd,5f05ebd798000b0d6563a269,2,,,,,,dice,,,,,,0,15,15,54,1,6,0,,,,,,,,,,,,,,,,,,,,,,,,,,,,,,,,,,,,,,,,,,,,,,,,,,,,,,,,,,,,,,,,,,,,,,,,,,,
,,,,,,,,,,stimuli/images/PICTURE_708.png,CLIENT,5d33ff76f665c6001ab9aa1e,19/04/1994,2020-07-08_18h53.29.406,proactive,2020.1.2,Win32,60,5f035e5afe130c270d6ae6dd,5f05ebd798000b0d6563a269,2,,,,,,monkey,,,,,,0,16,16,5,1,1,0,,,,,,,,,,,,,,,,,,,,,,,,,,,,,,,,,,,,,,,,,,,,,,,,,,,,,,,,,,,,,,,,,,,,,,,,,,,
,,,,,,,,,,stimuli/images/PICTURE_327.png,BEAUTY,5d33ff76f665c6001ab9aa1e,19/04/1994,2020-07-08_18h53.29.406,proactive,2020.1.2,Win32,60,5f035e5afe130c270d6ae6dd,5f05ebd798000b0d6563a269,2,,,,,,helmet,,,,,,0,17,17,48,1,5,0,,,,,,,,,,,,,,,,,,,,,,,,,,,,,,,,,,,,,,,,,,,,,,,,,,,,,,,,,,,,,,,,,,,,,,,,,,,
,,,,,,,,,,stimuli/images/PICTURE_160.png,LEADER,5d33ff76f665c6001ab9aa1e,19/04/1994,2020-07-08_18h53.29.406,proactive,2020.1.2,Win32,60,5f035e5afe130c270d6ae6dd,5f05ebd798000b0d6563a269,2,,,,,,wheelbarrow,,,,,,0,18,18,3,1,1,0,,,,,,,,,,,,,,,,,,,,,,,,,,,,,,,,,,,,,,,,,,,,,,,,,,,,,,,,,,,,,,,,,,,,,,,,,,,
,,,,,,,,,,stimuli/images/PICTURE_302.png,FAMILY,5d33ff76f665c6001ab9aa1e,19/04/1994,2020-07-08_18h53.29.406,proactive,2020.1.2,Win32,60,5f035e5afe130c270d6ae6dd,5f05ebd798000b0d6563a269,2,,,,,,taxi,,,,,,0,19,19,18,1,2,0,,,,,,,,,,,,,,,,,,,,,,,,,,,,,,,,,,,,,,,,,,,,,,,,,,,,,,,,,,,,,,,,,,,,,,,,,,,
,,,,,,,,,,stimuli/images/PICTURE_311.png,BEAUTY,5d33ff76f665c6001ab9aa1e,19/04/1994,2020-07-08_18h53.29.406,proactive,2020.1.2,Win32,60,5f035e5afe130c270d6ae6dd,5f05ebd798000b0d6563a269,2,,,,,,razor,,,,,,0,20,20,13,1,2,0,,,,,,,,,,,,,,,,,,,,,,,,,,,,,,,,,,,,,,,,,,,,,,,,,,,,,,,,,,,,,,,,,,,,,,,,,,,
,,,,,,,,,,stimuli/images/PICTURE_248.png,DOZEN,5d33ff76f665c6001ab9aa1e,19/04/1994,2020-07-08_18h53.29.406,proactive,2020.1.2,Win32,60,5f035e5afe130c270d6ae6dd,5f05ebd798000b0d6563a269,2,,,,,,cart,,,,,,0,21,21,39,1,4,0,,,,,,,,,,,,,,,,,,,,,,,,,,,,,,,,,,,,,,,,,,,,,,,,,,,,,,,,,,,,,,,,,,,,,,,,,,,
,,,,,,,,,,stimuli/images/PICTURE_491.png,WRITER,5d33ff76f665c6001ab9aa1e,19/04/1994,2020-07-08_18h53.29.406,proactive,2020.1.2,Win32,60,5f035e5afe130c270d6ae6dd,5f05ebd798000b0d6563a269,2,,,,,,rug,,,,,,0,22,22,57,1,6,0,,,,,,,,,,,,,,,,,,,,,,,,,,,,,,,,,,,,,,,,,,,,,,,,,,,,,,,,,,,,,,,,,,,,,,,,,,,
,,,,,,,,,,stimuli/images/PICTURE_314.png,SAKE,5d33ff76f665c6001ab9aa1e,19/04/1994,2020-07-08_18h53.29.406,proactive,2020.1.2,Win32,60,5f035e5afe130c270d6ae6dd,5f05ebd798000b0d6563a269,2,,,,,,perfume,,,,,,0,23,23,7,1,1,0,,,,,,,,,,,,,,,,,,,,,,,,,,,,,,,,,,,,,,,,,,,,,,,,,,,,,,,,,,,,,,,,,,,,,,,,,,,
,,,,,,,,,,stimuli/images/PICTURE_675.png,WEAPON,5d33ff76f665c6001ab9aa1e,19/04/1994,2020-07-08_18h53.29.406,proactive,2020.1.2,Win32,60,5f035e5afe130c270d6ae6dd,5f05ebd798000b0d6563a269,2,,,,,,windmill,,,,,,0,24,24,32,1,4,0,,,,,,,,,,,,,,,,,,,,,,,,,,,,,,,,,,,,,,,,,,,,,,,,,,,,,,,,,,,,,,,,,,,,,,,,,,,
,,,,,,,,,,stimuli/images/PICTURE_215.png,PLENTY,5d33ff76f665c6001ab9aa1e,19/04/1994,2020-07-08_18h53.29.406,proactive,2020.1.2,Win32,60,5f035e5afe130c270d6ae6dd,5f05ebd798000b0d6563a269,2,,,,,,boot,,,,,,0,25,25,37,1,4,0,,,,,,,,,,,,,,,,,,,,,,,,,,,,,,,,,,,,,,,,,,,,,,,,,,,,,,,,,,,,,,,,,,,,,,,,,,,
,,,,,,,,,,stimuli/images/PICTURE_151.png,GIRL,5d33ff76f665c6001ab9aa1e,19/04/1994,2020-07-08_18h53.29.406,proactive,2020.1.2,Win32,60,5f035e5afe130c270d6ae6dd,5f05ebd798000b0d6563a269,2,,,,,,tray,,,,,,0,26,26,19,1,2,0,,,,,,,,,,,,,,,,,,,,,,,,,,,,,,,,,,,,,,,,,,,,,,,,,,,,,,,,,,,,,,,,,,,,,,,,,,,
,,,,,,,,,,stimuli/images/PICTURE_380.png,DEATH,5d33ff76f665c6001ab9aa1e,19/04/1994,2020-07-08_18h53.29.406,proactive,2020.1.2,Win32,60,5f035e5afe130c270d6ae6dd,5f05ebd798000b0d6563a269,2,,,,,,gorilla,,,,,,0,27,27,49,1,5,0,,,,,,,,,,,,,,,,,,,,,,,,,,,,,,,,,,,,,,,,,,,,,,,,,,,,,,,,,,,,,,,,,,,,,,,,,,,
,,,,,,,,,,stimuli/images/PICTURE_667.png,PLENTY,5d33ff76f665c6001ab9aa1e,19/04/1994,2020-07-08_18h53.29.406,proactive,2020.1.2,Win32,60,5f035e5afe130c270d6ae6dd,5f05ebd798000b0d6563a269,2,,,,,,daisy,,,,,,0,28,28,41,1,5,0,,,,,,,,,,,,,,,,,,,,,,,,,,,,,,,,,,,,,,,,,,,,,,,,,,,,,,,,,,,,,,,,,,,,,,,,,,,
,,,,,,,,,,stimuli/images/PICTURE_488.png,STYLE,5d33ff76f665c6001ab9aa1e,19/04/1994,2020-07-08_18h53.29.406,proactive,2020.1.2,Win32,60,5f035e5afe130c270d6ae6dd,5f05ebd798000b0d6563a269,2,,,,,,sun,,,,,,0,29,29,33,1,4,0,,,,,,,,,,,,,,,,,,,,,,,,,,,,,,,,,,,,,,,,,,,,,,,,,,,,,,,,,,,,,,,,,,,,,,,,,,,
,,,,,,,,,,stimuli/images/PICTURE_339.png,PLENTY,5d33ff76f665c6001ab9aa1e,19/04/1994,2020-07-08_18h53.29.406,proactive,2020.1.2,Win32,60,5f035e5afe130c270d6ae6dd,5f05ebd798000b0d6563a269,2,,,,,,backpack,,,,,,0,30,30,0,1,1,0,,,,,,,,,,,,,,,,,,,,,,,,,,,,,,,,,,,,,,,,,,,,,,,,,,,,,,,,,,,,,,,,,,,,,,,,,,,
,,,,,,,,,,stimuli/images/PICTURE_677.png,MILE,5d33ff76f665c6001ab9aa1e,19/04/1994,2020-07-08_18h53.29.406,proactive,2020.1.2,Win32,60,5f035e5afe130c270d6ae6dd,5f05ebd798000b0d6563a269,2,,,,,,map,,,,,,0,31,31,30,1,4,0,,,,,,,,,,,,,,,,,,,,,,,,,,,,,,,,,,,,,,,,,,,,,,,,,,,,,,,,,,,,,,,,,,,,,,,,,,,
,,,,,,,,,,stimuli/images/PICTURE_233.png,IDEAS,5d33ff76f665c6001ab9aa1e,19/04/1994,2020-07-08_18h53.29.406,proactive,2020.1.2,Win32,60,5f035e5afe130c270d6ae6dd,5f05ebd798000b0d6563a269,2,,,,,,salt,,,,,,0,32,32,28,1,3,0,,,,,,,,,,,,,,,,,,,,,,,,,,,,,,,,,,,,,,,,,,,,,,,,,,,,,,,,,,,,,,,,,,,,,,,,,,,
,,,,,,,,,,stimuli/images/PICTURE_487.png,FLIGHT,5d33ff76f665c6001ab9aa1e,19/04/1994,2020-07-08_18h53.29.406,proactive,2020.1.2,Win32,60,5f035e5afe130c270d6ae6dd,5f05ebd798000b0d6563a269,2,,,,,,basket,,,,,,0,33,33,9,1,1,0,,,,,,,,,,,,,,,,,,,,,,,,,,,,,,,,,,,,,,,,,,,,,,,,,,,,,,,,,,,,,,,,,,,,,,,,,,,
,,,,,,,,,,stimuli/images/PICTURE_314.png,GODS,5d33ff76f665c6001ab9aa1e,19/04/1994,2020-07-08_18h53.29.406,proactive,2020.1.2,Win32,60,5f035e5afe130c270d6ae6dd,5f05ebd798000b0d6563a269,2,,,,,,perfume,,,,,,0,34,34,11,1,2,0,,,,,,,,,,,,,,,,,,,,,,,,,,,,,,,,,,,,,,,,,,,,,,,,,,,,,,,,,,,,,,,,,,,,,,,,,,,
,,,,,,,,,,stimuli/images/PICTURE_744.png,SAKE,5d33ff76f665c6001ab9aa1e,19/04/1994,2020-07-08_18h53.29.406,proactive,2020.1.2,Win32,60,5f035e5afe130c270d6ae6dd,5f05ebd798000b0d6563a269,2,,,,,,ring,,,,,,0,35,35,17,1,2,0,,,,,,,,,,,,,,,,,,,,,,,,,,,,,,,,,,,,,,,,,,,,,,,,,,,,,,,,,,,,,,,,,,,,,,,,,,,
,,,,,,,,,,stimuli/images/PICTURE_348.png,SPEECH,5d33ff76f665c6001ab9aa1e,19/04/1994,2020-07-08_18h53.29.406,proactive,2020.1.2,Win32,60,5f035e5afe130c270d6ae6dd,5f05ebd798000b0d6563a269,2,,,,,,pepper,,,,,,0,36,36,20,1,3,0,,,,,,,,,,,,,,,,,,,,,,,,,,,,,,,,,,,,,,,,,,,,,,,,,,,,,,,,,,,,,,,,,,,,,,,,,,,
,,,,,,,,,,stimuli/images/PICTURE_469.png,LETTER,5d33ff76f665c6001ab9aa1e,19/04/1994,2020-07-08_18h53.29.406,proactive,2020.1.2,Win32,60,5f035e5afe130c270d6ae6dd,5f05ebd798000b0d6563a269,2,,,,,,stool,,,,,,0,37,37,42,1,5,0,,,,,,,,,,,,,,,,,,,,,,,,,,,,,,,,,,,,,,,,,,,,,,,,,,,,,,,,,,,,,,,,,,,,,,,,,,,
,,,,,,,,,,stimuli/images/PICTURE_95.png,STYLE,5d33ff76f665c6001ab9aa1e,19/04/1994,2020-07-08_18h53.29.406,proactive,2020.1.2,Win32,60,5f035e5afe130c270d6ae6dd,5f05ebd798000b0d6563a269,2,,,,,,suitcase,,,,,,0,38,38,25,1,3,0,,,,,,,,,,,,,,,,,,,,,,,,,,,,,,,,,,,,,,,,,,,,,,,,,,,,,,,,,,,,,,,,,,,,,,,,,,,
,,,,,,,,,,stimuli/images/PICTURE_380.png,PHOTO,5d33ff76f665c6001ab9aa1e,19/04/1994,2020-07-08_18h53.29.406,proactive,2020.1.2,Win32,60,5f035e5afe130c270d6ae6dd,5f05ebd798000b0d6563a269,2,,,,,,gorilla,,,,,,0,39,39,52,1,6,0,,,,,,,,,,,,,,,,,,,,,,,,,,,,,,,,,,,,,,,,,,,,,,,,,,,,,,,,,,,,,,,,,,,,,,,,,,,
,,,,,,,,,,stimuli/images/PICTURE_469.png,ARTIST,5d33ff76f665c6001ab9aa1e,19/04/1994,2020-07-08_18h53.29.406,proactive,2020.1.2,Win32,60,5f035e5afe130c270d6ae6dd,5f05ebd798000b0d6563a269,2,,,,,,stool,,,,,,0,40,40,6,1,1,0,,,,,,,,,,,,,,,,,,,,,,,,,,,,,,,,,,,,,,,,,,,,,,,,,,,,,,,,,,,,,,,,,,,,,,,,,,,
,,,,,,,,,,stimuli/images/PICTURE_208.png,LOTS,5d33ff76f665c6001ab9aa1e,19/04/1994,2020-07-08_18h53.29.406,proactive,2020.1.2,Win32,60,5f035e5afe130c270d6ae6dd,5f05ebd798000b0d6563a269,2,,,,,,microphone,,,,,,0,41,41,10,1,2,0,,,,,,,,,,,,,,,,,,,,,,,,,,,,,,,,,,,,,,,,,,,,,,,,,,,,,,,,,,,,,,,,,,,,,,,,,,,
,,,,,,,,,,stimuli/images/PICTURE_470.png,CASINO,5d33ff76f665c6001ab9aa1e,19/04/1994,2020-07-08_18h53.29.406,proactive,2020.1.2,Win32,60,5f035e5afe130c270d6ae6dd,5f05ebd798000b0d6563a269,2,,,,,,motorbike,,,,,,0,42,42,36,1,4,0,,,,,,,,,,,,,,,,,,,,,,,,,,,,,,,,,,,,,,,,,,,,,,,,,,,,,,,,,,,,,,,,,,,,,,,,,,,
,,,,,,,,,,stimuli/images/PICTURE_453.png,DUDE,5d33ff76f665c6001ab9aa1e,19/04/1994,2020-07-08_18h53.29.406,proactive,2020.1.2,Win32,60,5f035e5afe130c270d6ae6dd,5f05ebd798000b0d6563a269,2,,,,,,scissors,,,,,,0,43,43,27,1,3,0,,,,,,,,,,,,,,,,,,,,,,,,,,,,,,,,,,,,,,,,,,,,,,,,,,,,,,,,,,,,,,,,,,,,,,,,,,,
,,,,,,,,,,stimuli/images/PICTURE_504.png,BODY,5d33ff76f665c6001ab9aa1e,19/04/1994,2020-07-08_18h53.29.406,proactive,2020.1.2,Win32,60,5f035e5afe130c270d6ae6dd,5f05ebd798000b0d6563a269,2,,,,,,wheel,,,,,,0,44,44,8,1,1,0,,,,,,,,,,,,,,,,,,,,,,,,,,,,,,,,,,,,,,,,,,,,,,,,,,,,,,,,,,,,,,,,,,,,,,,,,,,
,,,,,,,,,,stimuli/images/PICTURE_356.png,DANGER,5d33ff76f665c6001ab9aa1e,19/04/1994,2020-07-08_18h53.29.406,proactive,2020.1.2,Win32,60,5f035e5afe130c270d6ae6dd,5f05ebd798000b0d6563a269,2,,,,,,pawn,,,,,,0,45,45,55,1,6,0,,,,,,,,,,,,,,,,,,,,,,,,,,,,,,,,,,,,,,,,,,,,,,,,,,,,,,,,,,,,,,,,,,,,,,,,,,,
,,,,,,,,,,stimuli/images/PICTURE_208.png,THING,5d33ff76f665c6001ab9aa1e,19/04/1994,2020-07-08_18h53.29.406,proactive,2020.1.2,Win32,60,5f035e5afe130c270d6ae6dd,5f05ebd798000b0d6563a269,2,,,,,,microphone,,,,,,0,46,46,47,1,5,0,,,,,,,,,,,,,,,,,,,,,,,,,,,,,,,,,,,,,,,,,,,,,,,,,,,,,,,,,,,,,,,,,,,,,,,,,,,
,,,,,,,,,,stimuli/images/PICTURE_177.png,CARS,5d33ff76f665c6001ab9aa1e,19/04/1994,2020-07-08_18h53.29.406,proactive,2020.1.2,Win32,60,5f035e5afe130c270d6ae6dd,5f05ebd798000b0d6563a269,2,,,,,,mushroom,,,,,,0,47,47,35,1,4,0,,,,,,,,,,,,,,,,,,,,,,,,,,,,,,,,,,,,,,,,,,,,,,,,,,,,,,,,,,,,,,,,,,,,,,,,,,,
,,,,,,,,,,stimuli/images/PICTURE_255.png,AREA,5d33ff76f665c6001ab9aa1e,19/04/1994,2020-07-08_18h53.29.406,proactive,2020.1.2,Win32,60,5f035e5afe130c270d6ae6dd,5f05ebd798000b0d6563a269,2,,,,,,shovel,,,,,,0,48,48,22,1,3,0,,,,,,,,,,,,,,,,,,,,,,,,,,,,,,,,,,,,,,,,,,,,,,,,,,,,,,,,,,,,,,,,,,,,,,,,,,,
,,,,,,,,,,stimuli/images/PICTURE_708.png,YARD,5d33ff76f665c6001ab9aa1e,19/04/1994,2020-07-08_18h53.29.406,proactive,2020.1.2,Win32,60,5f035e5afe130c270d6ae6dd,5f05ebd798000b0d6563a269,2,,,,,,monkey,,,,,,0,49,49,29,1,3,0,,,,,,,,,,,,,,,,,,,,,,,,,,,,,,,,,,,,,,,,,,,,,,,,,,,,,,,,,,,,,,,,,,,,,,,,,,,
,,,,,,,,,,stimuli/images/PICTURE_68.png,MILE,5d33ff76f665c6001ab9aa1e,19/04/1994,2020-07-08_18h53.29.406,proactive,2020.1.2,Win32,60,5f035e5afe130c270d6ae6dd,5f05ebd798000b0d6563a269,2,,,,,,candle,,,,,,0,50,50,44,1,5,0,,,,,,,,,,,,,,,,,,,,,,,,,,,,,,,,,,,,,,,,,,,,,,,,,,,,,,,,,,,,,,,,,,,,,,,,,,,
,,,,,,,,,,stimuli/images/PICTURE_509.png,PHOTO,5d33ff76f665c6001ab9aa1e,19/04/1994,2020-07-08_18h53.29.406,proactive,2020.1.2,Win32,60,5f035e5afe130c270d6ae6dd,5f05ebd798000b0d6563a269,2,,,,,,telephone,,,,,,0,51,51,21,1,3,0,,,,,,,,,,,,,,,,,,,,,,,,,,,,,,,,,,,,,,,,,,,,,,,,,,,,,,,,,,,,,,,,,,,,,,,,,,,
,,,,,,,,,,stimuli/images/PICTURE_692.png,MONTH,5d33ff76f665c6001ab9aa1e,19/04/1994,2020-07-08_18h53.29.406,proactive,2020.1.2,Win32,60,5f035e5afe130c270d6ae6dd,5f05ebd798000b0d6563a269,2,,,,,,cherry,,,,,,0,52,52,16,1,2,0,,,,,,,,,,,,,,,,,,,,,,,,,,,,,,,,,,,,,,,,,,,,,,,,,,,,,,,,,,,,,,,,,,,,,,,,,,,
,,,,,,,,,,stimuli/images/PICTURE_453.png,PLENTY,5d33ff76f665c6001ab9aa1e,19/04/1994,2020-07-08_18h53.29.406,proactive,2020.1.2,Win32,60,5f035e5afe130c270d6ae6dd,5f05ebd798000b0d6563a269,2,,,,,,scissors,,,,,,0,53,53,56,1,6,0,,,,,,,,,,,,,,,,,,,,,,,,,,,,,,,,,,,,,,,,,,,,,,,,,,,,,,,,,,,,,,,,,,,,,,,,,,,
,,,,,,,,,,stimuli/images/PICTURE_308.png,ESTATE,5d33ff76f665c6001ab9aa1e,19/04/1994,2020-07-08_18h53.29.406,proactive,2020.1.2,Win32,60,5f035e5afe130c270d6ae6dd,5f05ebd798000b0d6563a269,2,,,,,,dice,,,,,,0,54,54,46,1,5,0,,,,,,,,,,,,,,,,,,,,,,,,,,,,,,,,,,,,,,,,,,,,,,,,,,,,,,,,,,,,,,,,,,,,,,,,,,,
,,,,,,,,,,stimuli/images/PICTURE_708.png,PENNY,5d33ff76f665c6001ab9aa1e,19/04/1994,2020-07-08_18h53.29.406,proactive,2020.1.2,Win32,60,5f035e5afe130c270d6ae6dd,5f05ebd798000b0d6563a269,2,,,,,,monkey,,,,,,0,55,55,31,1,4,0,,,,,,,,,,,,,,,,,,,,,,,,,,,,,,,,,,,,,,,,,,,,,,,,,,,,,,,,,,,,,,,,,,,,,,,,,,,
,,,,,,,,,,stimuli/images/PICTURE_688.png,CASINO,5d33ff76f665c6001ab9aa1e,19/04/1994,2020-07-08_18h53.29.406,proactive,2020.1.2,Win32,60,5f035e5afe130c270d6ae6dd,5f05ebd798000b0d6563a269,2,,,,,,runner,,,,,,0,56,56,2,1,1,0,,,,,,,,,,,,,,,,,,,,,,,,,,,,,,,,,,,,,,,,,,,,,,,,,,,,,,,,,,,,,,,,,,,,,,,,,,,
,,,,,,,,,,stimuli/images/PICTURE_123.png,ADVICE,5d33ff76f665c6001ab9aa1e,19/04/1994,2020-07-08_18h53.29.406,proactive,2020.1.2,Win32,60,5f035e5afe130c270d6ae6dd,5f05ebd798000b0d6563a269,2,,,,,,dart,,,,,,0,57,57,50,1,6,0,,,,,,,,,,,,,,,,,,,,,,,,,,,,,,,,,,,,,,,,,,,,,,,,,,,,,,,,,,,,,,,,,,,,,,,,,,,
,,,,,,,,,,stimuli/images/PICTURE_160.png,FEET,5d33ff76f665c6001ab9aa1e,19/04/1994,2020-07-08_18h53.29.406,proactive,2020.1.2,Win32,60,5f035e5afe130c270d6ae6dd,5f05ebd798000b0d6563a269,2,,,,,,wheelbarrow,,,,,,0,58,58,58,1,6,0,,,,,,,,,,,,,,,,,,,,,,,,,,,,,,,,,,,,,,,,,,,,,,,,,,,,,,,,,,,,,,,,,,,,,,,,,,,
,,?,0.00084,0,,,,,,stimuli/images/PICTURE_233.png,WOMEN,5d33ff76f665c6001ab9aa1e,19/04/1994,2020-07-08_18h53.29.406,proactive,2020.1.2,Win32,60,5f035e5afe130c270d6ae6dd,5f05ebd798000b0d6563a269,2,,,,,,salt,,,,,,,,,,,4,0,0,0,0,38,1,,,,,,,,,,,,,,,,,,,,,,,,,,,,,,,,,,,,,,,,,,,,,,,,,,,,,,,,,,,,,,,,,,,,,,
,,FAMILY,10.00911,1,,,,,,stimuli/images/PICTURE_302.png,FAMILY,5d33ff76f665c6001ab9aa1e,19/04/1994,2020-07-08_18h53.29.406,proactive,2020.1.2,Win32,60,5f035e5afe130c270d6ae6dd,5f05ebd798000b0d6563a269,2,,,,,,taxi,,,,,,,,,,,2,0,0,1,1,18,1,,,,,,,,,,,,,,,,,,,,,,,,,,,,,,,,,,,,,,,,,,,,,,,,,,,,,,,,,,,,,,,,,,,,,,
,,?,0.00087,0,,,,,,stimuli/images/PICTURE_667.png,BATH,5d33ff76f665c6001ab9aa1e,19/04/1994,2020-07-08_18h53.29.406,proactive,2020.1.2,Win32,60,5f035e5afe130c270d6ae6dd,5f05ebd798000b0d6563a269,2,,,,,,daisy,,,,,,,,,,,1,0,0,2,2,4,1,,,,,,,,,,,,,,,,,,,,,,,,,,,,,,,,,,,,,,,,,,,,,,,,,,,,,,,,,,,,,,,,,,,,,,
,,?,0.00061,0,,,,,,stimuli/images/PICTURE_491.png,ROOF,5d33ff76f665c6001ab9aa1e,19/04/1994,2020-07-08_18h53.29.406,proactive,2020.1.2,Win32,60,5f035e5afe130c270d6ae6dd,5f05ebd798000b0d6563a269,2,,,,,,rug,,,,,,,,,,,3,0,0,3,3,24,1,,,,,,,,,,,,,,,,,,,,,,,,,,,,,,,,,,,,,,,,,,,,,,,,,,,,,,,,,,,,,,,,,,,,,,
,,?,0.00058,0,,,,,,stimuli/images/PICTURE_708.png,CLIENT,5d33ff76f665c6001ab9aa1e,19/04/1994,2020-07-08_18h53.29.406,proactive,2020.1.2,Win32,60,5f035e5afe130c270d6ae6dd,5f05ebd798000b0d6563a269,2,,,,,,monkey,,,,,,,,,,,1,0,0,4,4,5,1,,,,,,,,,,,,,,,,,,,,,,,,,,,,,,,,,,,,,,,,,,,,,,,,,,,,,,,,,,,,,,,,,,,,,,
,,?,0.000565,0,,,,,,stimuli/images/PICTURE_339.png,PLENTY,5d33ff76f665c6001ab9aa1e,19/04/1994,2020-07-08_18h53.29.406,proactive,2020.1.2,Win32,60,5f035e5afe130c270d6ae6dd,5f05ebd798000b0d6563a269,2,,,,,,backpack,,,,,,,,,,,1,0,0,5,5,0,1,,,,,,,,,,,,,,,,,,,,,,,,,,,,,,,,,,,,,,,,,,,,,,,,,,,,,,,,,,,,,,,,,,,,,,
,,MONTH,10.008235,1,,,,,,stimuli/images/PICTURE_692.png,MONTH,5d33ff76f665c6001ab9aa1e,19/04/1994,2020-07-08_18h53.29.406,proactive,2020.1.2,Win32,60,5f035e5afe130c270d6ae6dd,5f05ebd798000b0d6563a269,2,,,,,,cherry,,,,,,,,,,,2,0,0,6,6,16,1,,,,,,,,,,,,,,,,,,,,,,,,,,,,,,,,,,,,,,,,,,,,,,,,,,,,,,,,,,,,,,,,,,,,,,
,,BEAUTY,10.01349,1,,,,,,stimuli/images/PICTURE_311.png,BEAUTY,5d33ff76f665c6001ab9aa1e,19/04/1994,2020-07-08_18h53.29.406,proactive,2020.1.2,Win32,60,5f035e5afe130c270d6ae6dd,5f05ebd798000b0d6563a269,2,,,,,,razor,,,,,,,,,,,2,0,0,7,7,13,1,,,,,,,,,,,,,,,,,,,,,,,,,,,,,,,,,,,,,,,,,,,,,,,,,,,,,,,,,,,,,,,,,,,,,,
,,?,0.00137,0,,,,,,stimuli/images/PICTURE_509.png,PHOTO,5d33ff76f665c6001ab9aa1e,19/04/1994,2020-07-08_18h53.29.406,proactive,2020.1.2,Win32,60,5f035e5afe130c270d6ae6dd,5f05ebd798000b0d6563a269,2,,,,,,telephone,,,,,,,,,,,3,0,0,8,8,21,1,,,,,,,,,,,,,,,,,,,,,,,,,,,,,,,,,,,,,,,,,,,,,,,,,,,,,,,,,,,,,,,,,,,,,,
,,?,0.00166,0,,,,,,stimuli/images/PICTURE_123.png,ADVICE,5d33ff76f665c6001ab9aa1e,19/04/1994,2020-07-08_18h53.29.406,proactive,2020.1.2,Win32,60,5f035e5afe130c270d6ae6dd,5f05ebd798000b0d6563a269,2,,,,,,dart,,,,,,,,,,,5,0,0,9,9,40,1,,,,,,,,,,,,,,,,,,,,,,,,,,,,,,,,,,,,,,,,,,,,,,,,,,,,,,,,,,,,,,,,,,,,,,
,,GODS,10.003645,0,,,,,,stimuli/images/PICTURE_744.png,SAKE,5d33ff76f665c6001ab9aa1e,19/04/1994,2020-07-08_18h53.29.406,proactive,2020.1.2,Win32,60,5f035e5afe130c270d6ae6dd,5f05ebd798000b0d6563a269,2,,,,,,ring,,,,,,,,,,,2,0,0,10,10,17,1,,,,,,,,,,,,,,,,,,,,,,,,,,,,,,,,,,,,,,,,,,,,,,,,,,,,,,,,,,,,,,,,,,,,,,
,,?,0.000765,0,,,,,,stimuli/images/PICTURE_469.png,LETTER,5d33ff76f665c6001ab9aa1e,19/04/1994,2020-07-08_18h53.29.406,proactive,2020.1.2,Win32,60,5f035e5afe130c270d6ae6dd,5f05ebd798000b0d6563a269,2,,,,,,stool,,,,,,,,,,,5,0,0,11,11,42,1,,,,,,,,,,,,,,,,,,,,,,,,,,,,,,,,,,,,,,,,,,,,,,,,,,,,,,,,,,,,,,,,,,,,,,
,,?,0.00056,0,,,,,,stimuli/images/PICTURE_177.png,CARS,5d33ff76f665c6001ab9aa1e,19/04/1994,2020-07-08_18h53.29.406,proactive,2020.1.2,Win32,60,5f035e5afe130c270d6ae6dd,5f05ebd798000b0d6563a269,2,,,,,,mushroom,,,,,,,,,,,4,0,0,12,12,35,1,,,,,,,,,,,,,,,,,,,,,,,,,,,,,,,,,,,,,,,,,,,,,,,,,,,,,,,,,,,,,,,,,,,,,,
,,?,0.00064,0,,,,,,stimuli/images/PICTURE_314.png,SAKE,5d33ff76f665c6001ab9aa1e,19/04/1994,2020-07-08_18h53.29.406,proactive,2020.1.2,Win32,60,5f035e5afe130c270d6ae6dd,5f05ebd798000b0d6563a269,2,,,,,,perfume,,,,,,,,,,,1,0,0,13,13,7,1,,,,,,,,,,,,,,,,,,,,,,,,,,,,,,,,,,,,,,,,,,,,,,,,,,,,,,,,,,,,,,,,,,,,,,
,,?,0.00053,0,,,,,,stimuli/images/PICTURE_147.png,MOMENT,5d33ff76f665c6001ab9aa1e,19/04/1994,2020-07-08_18h53.29.406,proactive,2020.1.2,Win32,60,5f035e5afe130c270d6ae6dd,5f05ebd798000b0d6563a269,2,,,,,,hanger,,,,,,,,,,,6,0,0,14,14,51,1,,,,,,,,,,,,,,,,,,,,,,,,,,,,,,,,,,,,,,,,,,,,,,,,,,,,,,,,,,,,,,,,,,,,,,
,,?,0.000605,0,,,,,,stimuli/images/PICTURE_160.png,LEADER,5d33ff76f665c6001ab9aa1e,19/04/1994,2020-07-08_18h53.29.406,proactive,2020.1.2,Win32,60,5f035e5afe130c270d6ae6dd,5f05ebd798000b0d6563a269,2,,,,,,wheelbarrow,,,,,,,,,,,1,0,0,15,15,3,1,,,,,,,,,,,,,,,,,,,,,,,,,,,,,,,,,,,,,,,,,,,,,,,,,,,,,,,,,,,,,,,,,,,,,,
,,?,0.00051,0,,,,,,stimuli/images/PICTURE_233.png,IDEAS,5d33ff76f665c6001ab9aa1e,19/04/1994,2020-07-08_18h53.29.406,proactive,2020.1.2,Win32,60,5f035e5afe130c270d6ae6dd,5f05ebd798000b0d6563a269,2,,,,,,salt,,,,,,,,,,,3,0,0,16,16,28,1,,,,,,,,,,,,,,,,,,,,,,,,,,,,,,,,,,,,,,,,,,,,,,,,,,,,,,,,,,,,,,,,,,,,,,
,,?,0.000545,0,,,,,,stimuli/images/PICTURE_95.png,STYLE,5d33ff76f665c6001ab9aa1e,19/04/1994,2020-07-08_18h53.29.406,proactive,2020.1.2,Win32,60,5f035e5afe130c270d6ae6dd,5f05ebd798000b0d6563a269,2,,,,,,suitcase,,,,,,,,,,,3,0,0,17,17,25,1,,,,,,,,,,,,,,,,,,,,,,,,,,,,,,,,,,,,,,,,,,,,,,,,,,,,,,,,,,,,,,,,,,,,,,
,,?,0.00059,0,,,,,,stimuli/images/PICTURE_453.png,DUDE,5d33ff76f665c6001ab9aa1e,19/04/1994,2020-07-08_18h53.29.406,proactive,2020.1.2,Win32,60,5f035e5afe130c270d6ae6dd,5f05ebd798000b0d6563a269,2,,,,,,scissors,,,,,,,,,,,3,0,0,18,18,27,1,,,,,,,,,,,,,,,,,,,,,,,,,,,,,,,,,,,,,,,,,,,,,,,,,,,,,,,,,,,,,,,,,,,,,,
,,?,0.00053,0,,,,,,stimuli/images/PICTURE_248.png,DOZEN,5d33ff76f665c6001ab9aa1e,19/04/1994,2020-07-08_18h53.29.406,proactive,2020.1.2,Win32,60,5f035e5afe130c270d6ae6dd,5f05ebd798000b0d6563a269,2,,,,,,cart,,,,,,,,,,,4,0,0,19,19,39,1,,,,,,,,,,,,,,,,,,,,,,,,,,,,,,,,,,,,,,,,,,,,,,,,,,,,,,,,,,,,,,,,,,,,,,
,,?,0.00054,0,,,,,,stimuli/images/PICTURE_203.png,ARTIST,5d33ff76f665c6001ab9aa1e,19/04/1994,2020-07-08_18h53.29.406,proactive,2020.1.2,Win32,60,5f035e5afe130c270d6ae6dd,5f05ebd798000b0d6563a269,2,,,,,,cap,,,,,,,,,,,3,0,0,20,20,26,1,,,,,,,,,,,,,,,,,,,,,,,,,,,,,,,,,,,,,,,,,,,,,,,,,,,,,,,,,,,,,,,,,,,,,,
,,WOMEN,10.00011,1,,,,,,stimuli/images/PICTURE_688.png,WOMEN,5d33ff76f665c6001ab9aa1e,19/04/1994,2020-07-08_18h53.29.406,proactive,2020.1.2,Win32,60,5f035e5afe130c270d6ae6dd,5f05ebd798000b0d6563a269,2,,,,,,runner,,,,,,,,,,,2,0,0,21,21,14,1,,,,,,,,,,,,,,,,,,,,,,,,,,,,,,,,,,,,,,,,,,,,,,,,,,,,,,,,,,,,,,,,,,,,,,
,,?,0.001375,0,,,,,,stimuli/images/PICTURE_453.png,PLENTY,5d33ff76f665c6001ab9aa1e,19/04/1994,2020-07-08_18h53.29.406,proactive,2020.1.2,Win32,60,5f035e5afe130c270d6ae6dd,5f05ebd798000b0d6563a269,2,,,,,,scissors,,,,,,,,,,,6,0,0,22,22,56,1,,,,,,,,,,,,,,,,,,,,,,,,,,,,,,,,,,,,,,,,,,,,,,,,,,,,,,,,,,,,,,,,,,,,,,
,,ADVICE,10.010485,1,,,,,,stimuli/images/PICTURE_285.png,ADVICE,5d33ff76f665c6001ab9aa1e,19/04/1994,2020-07-08_18h53.29.406,proactive,2020.1.2,Win32,60,5f035e5afe130c270d6ae6dd,5f05ebd798000b0d6563a269,2,,,,,,carrot,,,,,,,,,,,2,0,0,23,23,12,1,,,,,,,,,,,,,,,,,,,,,,,,,,,,,,,,,,,,,,,,,,,,,,,,,,,,,,,,,,,,,,,,,,,,,,
,,?,0.000725,0,,,,,,stimuli/images/PICTURE_449.png,THING,5d33ff76f665c6001ab9aa1e,19/04/1994,2020-07-08_18h53.29.406,proactive,2020.1.2,Win32,60,5f035e5afe130c270d6ae6dd,5f05ebd798000b0d6563a269,2,,,,,,bench,,,,,,,,,,,6,0,0,24,24,59,1,,,,,,,,,,,,,,,,,,,,,,,,,,,,,,,,,,,,,,,,,,,,,,,,,,,,,,,,,,,,,,,,,,,,,,
,,?,0.00058,0,,,,,,stimuli/images/PICTURE_208.png,MONTH,5d33ff76f665c6001ab9aa1e,19/04/1994,2020-07-08_18h53.29.406,proactive,2020.1.2,Win32,60,5f035e5afe130c270d6ae6dd,5f05ebd798000b0d6563a269,2,,,,,,microphone,,,,,,,,,,,6,0,0,25,25,53,1,,,,,,,,,,,,,,,,,,,,,,,,,,,,,,,,,,,,,,,,,,,,,,,,,,,,,,,,,,,,,,,,,,,,,,
,,?,0.0009,0,,,,,,stimuli/images/PICTURE_667.png,PLENTY,5d33ff76f665c6001ab9aa1e,19/04/1994,2020-07-08_18h53.29.406,proactive,2020.1.2,Win32,60,5f035e5afe130c270d6ae6dd,5f05ebd798000b0d6563a269,2,,,,,,daisy,,,,,,,,,,,5,0,0,26,26,41,1,,,,,,,,,,,,,,,,,,,,,,,,,,,,,,,,,,,,,,,,,,,,,,,,,,,,,,,,,,,,,,,,,,,,,,
,,LOTS,10.00824,1,,,,,,stimuli/images/PICTURE_208.png,LOTS,5d33ff76f665c6001ab9aa1e,19/04/1994,2020-07-08_18h53.29.406,proactive,2020.1.2,Win32,60,5f035e5afe130c270d6ae6dd,5f05ebd798000b0d6563a269,2,,,,,,microphone,,,,,,,,,,,2,0,0,27,27,10,1,,,,,,,,,,,,,,,,,,,,,,,,,,,,,,,,,,,,,,,,,,,,,,,,,,,,,,,,,,,,,,,,,,,,,,
,,?,0.001235,0,,,,,,stimuli/images/PICTURE_470.png,CASINO,5d33ff76f665c6001ab9aa1e,19/04/1994,2020-07-08_18h53.29.406,proactive,2020.1.2,Win32,60,5f035e5afe130c270d6ae6dd,5f05ebd798000b0d6563a269,2,,,,,,motorbike,,,,,,,,,,,4,0,0,28,28,36,1,,,,,,,,,,,,,,,,,,,,,,,,,,,,,,,,,,,,,,,,,,,,,,,,,,,,,,,,,,,,,,,,,,,,,,
,,?,0.00093,0,,,,,,stimuli/images/PICTURE_308.png,ESTATE,5d33ff76f665c6001ab9aa1e,19/04/1994,2020-07-08_18h53.29.406,proactive,2020.1.2,Win32,60,5f035e5afe130c270d6ae6dd,5f05ebd798000b0d6563a269,2,,,,,,dice,,,,,,,,,,,5,0,0,29,29,46,1,,,,,,,,,,,,,,,,,,,,,,,,,,,,,,,,,,,,,,,,,,,,,,,,,,,,,,,,,,,,,,,,,,,,,,
,,?,0.0009,0,,,,,,stimuli/images/PICTURE_68.png,MILE,5d33ff76f665c6001ab9aa1e,19/04/1994,2020-07-08_18h53.29.406,proactive,2020.1.2,Win32,60,5f035e5afe130c270d6ae6dd,5f05ebd798000b0d6563a269,2,,,,,,candle,,,,,,,,,,,5,0,0,30,30,44,1,,,,,,,,,,,,,,,,,,,,,,,,,,,,,,,,,,,,,,,,,,,,,,,,,,,,,,,,,,,,,,,,,,,,,,
,,?,0.00133,0,,,,,,stimuli/images/PICTURE_688.png,CASINO,5d33ff76f665c6001ab9aa1e,19/04/1994,2020-07-08_18h53.29.406,proactive,2020.1.2,Win32,60,5f035e5afe130c270d6ae6dd,5f05ebd798000b0d6563a269,2,,,,,,runner,,,,,,,,,,,1,0,0,31,31,2,1,,,,,,,,,,,,,,,,,,,,,,,,,,,,,,,,,,,,,,,,,,,,,,,,,,,,,,,,,,,,,,,,,,,,,,
,,?,0.00093,0,,,,,,stimuli/images/PICTURE_311.png,FRIEND,5d33ff76f665c6001ab9aa1e,19/04/1994,2020-07-08_18h53.29.406,proactive,2020.1.2,Win32,60,5f035e5afe130c270d6ae6dd,5f05ebd798000b0d6563a269,2,,,,,,razor,,,,,,,,,,,4,0,0,32,32,34,1,,,,,,,,,,,,,,,,,,,,,,,,,,,,,,,,,,,,,,,,,,,,,,,,,,,,,,,,,,,,,,,,,,,,,,
,,?,0.001265,0,,,,,,stimuli/images/PICTURE_469.png,ARTIST,5d33ff76f665c6001ab9aa1e,19/04/1994,2020-07-08_18h53.29.406,proactive,2020.1.2,Win32,60,5f035e5afe130c270d6ae6dd,5f05ebd798000b0d6563a269,2,,,,,,stool,,,,,,,,,,,1,0,0,33,33,6,1,,,,,,,,,,,,,,,,,,,,,,,,,,,,,,,,,,,,,,,,,,,,,,,,,,,,,,,,,,,,,,,,,,,,,,
,,?,0.00099,0,,,,,,stimuli/images/PICTURE_744.png,SYSTEM,5d33ff76f665c6001ab9aa1e,19/04/1994,2020-07-08_18h53.29.406,proactive,2020.1.2,Win32,60,5f035e5afe130c270d6ae6dd,5f05ebd798000b0d6563a269,2,,,,,,ring,,,,,,,,,,,5,0,0,34,34,43,1,,,,,,,,,,,,,,,,,,,,,,,,,,,,,,,,,,,,,,,,,,,,,,,,,,,,,,,,,,,,,,,,,,,,,,
,,?,0.00094,0,,,,,,stimuli/images/PICTURE_504.png,BODY,5d33ff76f665c6001ab9aa1e,19/04/1994,2020-07-08_18h53.29.406,proactive,2020.1.2,Win32,60,5f035e5afe130c270d6ae6dd,5f05ebd798000b0d6563a269,2,,,,,,wheel,,,,,,,,,,,1,0,0,35,35,8,1,,,,,,,,,,,,,,,,,,,,,,,,,,,,,,,,,,,,,,,,,,,,,,,,,,,,,,,,,,,,,,,,,,,,,,
,,?,0.00097,0,,,,,,stimuli/images/PICTURE_487.png,FLIGHT,5d33ff76f665c6001ab9aa1e,19/04/1994,2020-07-08_18h53.29.406,proactive,2020.1.2,Win32,60,5f035e5afe130c270d6ae6dd,5f05ebd798000b0d6563a269,2,,,,,,basket,,,,,,,,,,,1,0,0,36,36,9,1,,,,,,,,,,,,,,,,,,,,,,,,,,,,,,,,,,,,,,,,,,,,,,,,,,,,,,,,,,,,,,,,,,,,,,
,,GODS,10.00743,1,,,,,,stimuli/images/PICTURE_314.png,GODS,5d33ff76f665c6001ab9aa1e,19/04/1994,2020-07-08_18h53.29.406,proactive,2020.1.2,Win32,60,5f035e5afe130c270d6ae6dd,5f05ebd798000b0d6563a269,2,,,,,,perfume,,,,,,,,,,,2,0,0,37,37,11,1,,,,,,,,,,,,,,,,,,,,,,,,,,,,,,,,,,,,,,,,,,,,,,,,,,,,,,,,,,,,,,,,,,,,,,
,,GIRL,10.01356,1,,,,,,stimuli/images/PICTURE_151.png,GIRL,5d33ff76f665c6001ab9aa1e,19/04/1994,2020-07-08_18h53.29.406,proactive,2020.1.2,Win32,60,5f035e5afe130c270d6ae6dd,5f05ebd798000b0d6563a269,2,,,,,,tray,,,,,,,,,,,2,0,0,38,38,19,1,,,,,,,,,,,,,,,,,,,,,,,,,,,,,,,,,,,,,,,,,,,,,,,,,,,,,,,,,,,,,,,,,,,,,,
,,?,0.001215,0,,,,,,stimuli/images/PICTURE_675.png,WEAPON,5d33ff76f665c6001ab9aa1e,19/04/1994,2020-07-08_18h53.29.406,proactive,2020.1.2,Win32,60,5f035e5afe130c270d6ae6dd,5f05ebd798000b0d6563a269,2,,,,,,windmill,,,,,,,,,,,4,0,0,39,39,32,1,,,,,,,,,,,,,,,,,,,,,,,,,,,,,,,,,,,,,,,,,,,,,,,,,,,,,,,,,,,,,,,,,,,,,,
,,?,0.001085,0,,,,,,stimuli/images/PICTURE_380.png,PHOTO,5d33ff76f665c6001ab9aa1e,19/04/1994,2020-07-08_18h53.29.406,proactive,2020.1.2,Win32,60,5f035e5afe130c270d6ae6dd,5f05ebd798000b0d6563a269,2,,,,,,gorilla,,,,,,,,,,,6,0,0,40,40,52,1,,,,,,,,,,,,,,,,,,,,,,,,,,,,,,,,,,,,,,,,,,,,,,,,,,,,,,,,,,,,,,,,,,,,,,
,,?,0.00395,0,,,,,,stimuli/images/PICTURE_677.png,MILE,5d33ff76f665c6001ab9aa1e,19/04/1994,2020-07-08_18h53.29.406,proactive,2020.1.2,Win32,60,5f035e5afe130c270d6ae6dd,5f05ebd798000b0d6563a269,2,,,,,,map,,,,,,,,,,,4,0,0,41,41,30,1,,,,,,,,,,,,,,,,,,,,,,,,,,,,,,,,,,,,,,,,,,,,,,,,,,,,,,,,,,,,,,,,,,,,,,
,,?,0.001035,0,,,,,,stimuli/images/PICTURE_708.png,PENNY,5d33ff76f665c6001ab9aa1e,19/04/1994,2020-07-08_18h53.29.406,proactive,2020.1.2,Win32,60,5f035e5afe130c270d6ae6dd,5f05ebd798000b0d6563a269,2,,,,,,monkey,,,,,,,,,,,4,0,0,42,42,31,1,,,,,,,,,,,,,,,,,,,,,,,,,,,,,,,,,,,,,,,,,,,,,,,,,,,,,,,,,,,,,,,,,,,,,,
,,?,0.001575,0,,,,,,stimuli/images/PICTURE_380.png,DEATH,5d33ff76f665c6001ab9aa1e,19/04/1994,2020-07-08_18h53.29.406,proactive,2020.1.2,Win32,60,5f035e5afe130c270d6ae6dd,5f05ebd798000b0d6563a269,2,,,,,,gorilla,,,,,,,,,,,5,0,0,43,43,49,1,,,,,,,,,,,,,,,,,,,,,,,,,,,,,,,,,,,,,,,,,,,,,,,,,,,,,,,,,,,,,,,,,,,,,,
,,?,0.001085,0,,,,,,stimuli/images/PICTURE_123.png,ADVICE,5d33ff76f665c6001ab9aa1e,19/04/1994,2020-07-08_18h53.29.406,proactive,2020.1.2,Win32,60,5f035e5afe130c270d6ae6dd,5f05ebd798000b0d6563a269,2,,,,,,dart,,,,,,,,,,,6,0,0,44,44,50,1,,,,,,,,,,,,,,,,,,,,,,,,,,,,,,,,,,,,,,,,,,,,,,,,,,,,,,,,,,,,,,,,,,,,,,
,,?,0.001285,0,,,,,,stimuli/images/PICTURE_491.png,WRITER,5d33ff76f665c6001ab9aa1e,19/04/1994,2020-07-08_18h53.29.406,proactive,2020.1.2,Win32,60,5f035e5afe130c270d6ae6dd,5f05ebd798000b0d6563a269,2,,,,,,rug,,,,,,,,,,,6,0,0,45,45,57,1,,,,,,,,,,,,,,,,,,,,,,,,,,,,,,,,,,,,,,,,,,,,,,,,,,,,,,,,,,,,,,,,,,,,,,
,,?,0.001015,0,,,,,,stimuli/images/PICTURE_215.png,PLENTY,5d33ff76f665c6001ab9aa1e,19/04/1994,2020-07-08_18h53.29.406,proactive,2020.1.2,Win32,60,5f035e5afe130c270d6ae6dd,5f05ebd798000b0d6563a269,2,,,,,,boot,,,,,,,,,,,4,0,0,46,46,37,1,,,,,,,,,,,,,,,,,,,,,,,,,,,,,,,,,,,,,,,,,,,,,,,,,,,,,,,,,,,,,,,,,,,,,,
,,?,0.001045,0,,,,,,stimuli/images/PICTURE_308.png,KIND,5d33ff76f665c6001ab9aa1e,19/04/1994,2020-07-08_18h53.29.406,proactive,2020.1.2,Win32,60,5f035e5afe130c270d6ae6dd,5f05ebd798000b0d6563a269,2,,,,,,dice,,,,,,,,,,,6,0,0,47,47,54,1,,,,,,,,,,,,,,,,,,,,,,,,,,,,,,,,,,,,,,,,,,,,,,,,,,,,,,,,,,,,,,,,,,,,,,
,,?,0.001395,0,,,,,,stimuli/images/PICTURE_255.png,AREA,5d33ff76f665c6001ab9aa1e,19/04/1994,2020-07-08_18h53.29.406,proactive,2020.1.2,Win32,60,5f035e5afe130c270d6ae6dd,5f05ebd798000b0d6563a269,2,,,,,,shovel,,,,,,,,,,,3,0,0,48,48,22,1,,,,,,,,,,,,,,,,,,,,,,,,,,,,,,,,,,,,,,,,,,,,,,,,,,,,,,,,,,,,,,,,,,,,,,
,,?,0.001185,0,,,,,,stimuli/images/PICTURE_327.png,BEAUTY,5d33ff76f665c6001ab9aa1e,19/04/1994,2020-07-08_18h53.29.406,proactive,2020.1.2,Win32,60,5f035e5afe130c270d6ae6dd,5f05ebd798000b0d6563a269,2,,,,,,helmet,,,,,,,,,,,5,0,0,49,49,48,1,,,,,,,,,,,,,,,,,,,,,,,,,,,,,,,,,,,,,,,,,,,,,,,,,,,,,,,,,,,,,,,,,,,,,,
,,?,0.00114,0,,,,,,stimuli/images/PICTURE_708.png,YARD,5d33ff76f665c6001ab9aa1e,19/04/1994,2020-07-08_18h53.29.406,proactive,2020.1.2,Win32,60,5f035e5afe130c270d6ae6dd,5f05ebd798000b0d6563a269,2,,,,,,monkey,,,,,,,,,,,3,0,0,50,50,29,1,,,,,,,,,,,,,,,,,,,,,,,,,,,,,,,,,,,,,,,,,,,,,,,,,,,,,,,,,,,,,,,,,,,,,,
,,?,0.00058,0,,,,,,stimuli/images/PICTURE_32.png,JUNGLE,5d33ff76f665c6001ab9aa1e,19/04/1994,2020-07-08_18h53.29.406,proactive,2020.1.2,Win32,60,5f035e5afe130c270d6ae6dd,5f05ebd798000b0d6563a269,2,,,,,,crown,,,,,,,,,,,5,0,0,51,51,45,1,,,,,,,,,,,,,,,,,,,,,,,,,,,,,,,,,,,,,,,,,,,,,,,,,,,,,,,,,,,,,,,,,,,,,,
,,?,0.00052,0,,,,,,stimuli/images/PICTURE_160.png,FEET,5d33ff76f665c6001ab9aa1e,19/04/1994,2020-07-08_18h53.29.406,proactive,2020.1.2,Win32,60,5f035e5afe130c270d6ae6dd,5f05ebd798000b0d6563a269,2,,,,,,wheelbarrow,,,,,,,,,,,6,0,0,52,52,58,1,,,,,,,,,,,,,,,,,,,,,,,,,,,,,,,,,,,,,,,,,,,,,,,,,,,,,,,,,,,,,,,,,,,,,,
,,?,0.000495,0,,,,,,stimuli/images/PICTURE_356.png,DANGER,5d33ff76f665c6001ab9aa1e,19/04/1994,2020-07-08_18h53.29.406,proactive,2020.1.2,Win32,60,5f035e5afe130c270d6ae6dd,5f05ebd798000b0d6563a269,2,,,,,,pawn,,,,,,,,,,,6,0,0,53,53,55,1,,,,,,,,,,,,,,,,,,,,,,,,,,,,,,,,,,,,,,,,,,,,,,,,,,,,,,,,,,,,,,,,,,,,,,
,,?,0.00047,0,,,,,,stimuli/images/PICTURE_348.png,SPEECH,5d33ff76f665c6001ab9aa1e,19/04/1994,2020-07-08_18h53.29.406,proactive,2020.1.2,Win32,60,5f035e5afe130c270d6ae6dd,5f05ebd798000b0d6563a269,2,,,,,,pepper,,,,,,,,,,,3,0,0,54,54,20,1,,,,,,,,,,,,,,,,,,,,,,,,,,,,,,,,,,,,,,,,,,,,,,,,,,,,,,,,,,,,,,,,,,,,,,
,,?,0.00047,0,,,,,,stimuli/images/PICTURE_488.png,STYLE,5d33ff76f665c6001ab9aa1e,19/04/1994,2020-07-08_18h53.29.406,proactive,2020.1.2,Win32,60,5f035e5afe130c270d6ae6dd,5f05ebd798000b0d6563a269,2,,,,,,sun,,,,,,,,,,,4,0,0,55,55,33,1,,,,,,,,,,,,,,,,,,,,,,,,,,,,,,,,,,,,,,,,,,,,,,,,,,,,,,,,,,,,,,,,,,,,,,
,,THING,10.002505,1,,,,,,stimuli/images/PICTURE_85.png,THING,5d33ff76f665c6001ab9aa1e,19/04/1994,2020-07-08_18h53.29.406,proactive,2020.1.2,Win32,60,5f035e5afe130c270d6ae6dd,5f05ebd798000b0d6563a269,2,,,,,,diamond,,,,,,,,,,,2,0,0,56,56,15,1,,,,,,,,,,,,,,,,,,,,,,,,,,,,,,,,,,,,,,,,,,,,,,,,,,,,,,,,,,,,,,,,,,,,,,
,,?,0.00113,0,,,,,,stimuli/images/PICTURE_467.png,DEMON,5d33ff76f665c6001ab9aa1e,19/04/1994,2020-07-08_18h53.29.406,proactive,2020.1.2,Win32,60,5f035e5afe130c270d6ae6dd,5f05ebd798000b0d6563a269,2,,,,,,peg,,,,,,,,,,,3,0,0,57,57,23,1,,,,,,,,,,,,,,,,,,,,,,,,,,,,,,,,,,,,,,,,,,,,,,,,,,,,,,,,,,,,,,,,,,,,,,
,,?,0.000965,0,,,,,,stimuli/images/PICTURE_208.png,THING,5d33ff76f665c6001ab9aa1e,19/04/1994,2020-07-08_18h53.29.406,proactive,2020.1.2,Win32,60,5f035e5afe130c270d6ae6dd,5f05ebd798000b0d6563a269,2,,,,,,microphone,,,,,,,,,,,5,0,0,58,58,47,1,,,,,,,,,,,,,,,,,,,,,,,,,,,,,,,,,,,,,,,,,,,,,,,,,,,,,,,,,,,,,,,,,,,,,,
,,?,0.000945,0,,,,,,stimuli/images/PICTURE_654.png,VALLEY,5d33ff76f665c6001ab9aa1e,19/04/1994,2020-07-08_18h53.29.406,proactive,2020.1.2,Win32,60,5f035e5afe130c270d6ae6dd,5f05ebd798000b0d6563a269,2,,,,,,pencil,,,,,,,,,,,1,0,0,59,59,1,1,,,,,,,,,,,,,,,,,,,,,,,,,,,,,,,,,,,,,,,,,,,,,,,,,,,,,,,,,,,,,,,,,,,,,,
,,,,,,,,,,,,5d33ff76f665c6001ab9aa1e,19/04/1994,2020-07-08_18h53.29.406,proactive,2020.1.2,Win32,60,5f035e5afe130c270d6ae6dd,5f05ebd798000b0d6563a269,2,,,,,,,,,,,,,,,,,,,,,,,,0,0,0,0,1,stimuli/learn-block1.csv,,,,,,,,,,,,,,,,,,,,,,,,,,,,,,,,,,,,,,,,,,,,,,,,,,,,,,,,,,,,,,,,
,,,,,,,,,,stimuli/images/PICTURE_504.png,COPS,5d33ff76f665c6001ab9aa1e,19/04/1994,2020-07-08_18h53.29.406,proactive,2020.1.2,Win32,60,5f035e5afe130c270d6ae6dd,5f05ebd798000b0d6563a269,2,,,,,,wheel,,,,,,0,0,0,52,1,6,1,,,,,,,,,,,,,,,,,,,,,,,,,,,,,,,,,,,,,,,,,,,,,,,,,,,,,,,,,,,,,,,,,,,,,,,,,,,
,,,,,,,,,,stimuli/images/PICTURE_380.png,HONEY,5d33ff76f665c6001ab9aa1e,19/04/1994,2020-07-08_18h53.29.406,proactive,2020.1.2,Win32,60,5f035e5afe130c270d6ae6dd,5f05ebd798000b0d6563a269,2,,,,,,gorilla,,,,,,0,1,1,19,1,2,1,,,,,,,,,,,,,,,,,,,,,,,,,,,,,,,,,,,,,,,,,,,,,,,,,,,,,,,,,,,,,,,,,,,,,,,,,,,
,,,,,,,,,,stimuli/images/PICTURE_564.png,BATH,5d33ff76f665c6001ab9aa1e,19/04/1994,2020-07-08_18h53.29.406,proactive,2020.1.2,Win32,60,5f035e5afe130c270d6ae6dd,5f05ebd798000b0d6563a269,2,,,,,,spoon,,,,,,0,2,2,26,1,3,1,,,,,,,,,,,,,,,,,,,,,,,,,,,,,,,,,,,,,,,,,,,,,,,,,,,,,,,,,,,,,,,,,,,,,,,,,,,
,,,,,,,,,,stimuli/images/PICTURE_340.png,LETTER,5d33ff76f665c6001ab9aa1e,19/04/1994,2020-07-08_18h53.29.406,proactive,2020.1.2,Win32,60,5f035e5afe130c270d6ae6dd,5f05ebd798000b0d6563a269,2,,,,,,mirror,,,,,,0,3,3,24,1,3,1,,,,,,,,,,,,,,,,,,,,,,,,,,,,,,,,,,,,,,,,,,,,,,,,,,,,,,,,,,,,,,,,,,,,,,,,,,,
,,,,,,,,,,stimuli/images/PICTURE_667.png,RIVER,5d33ff76f665c6001ab9aa1e,19/04/1994,2020-07-08_18h53.29.406,proactive,2020.1.2,Win32,60,5f035e5afe130c270d6ae6dd,5f05ebd798000b0d6563a269,2,,,,,,daisy,,,,,,0,4,4,10,1,2,1,,,,,,,,,,,,,,,,,,,,,,,,,,,,,,,,,,,,,,,,,,,,,,,,,,,,,,,,,,,,,,,,,,,,,,,,,,,
,,,,,,,,,,stimuli/images/PICTURE_491.png,RIVER,5d33ff76f665c6001ab9aa1e,19/04/1994,2020-07-08_18h53.29.406,proactive,2020.1.2,Win32,60,5f035e5afe130c270d6ae6dd,5f05ebd798000b0d6563a269,2,,,,,,rug,,,,,,0,5,5,6,1,1,1,,,,,,,,,,,,,,,,,,,,,,,,,,,,,,,,,,,,,,,,,,,,,,,,,,,,,,,,,,,,,,,,,,,,,,,,,,,
,,,,,,,,,,stimuli/images/PICTURE_95.png,MILLER,5d33ff76f665c6001ab9aa1e,19/04/1994,2020-07-08_18h53.29.406,proactive,2020.1.2,Win32,60,5f035e5afe130c270d6ae6dd,5f05ebd798000b0d6563a269,2,,,,,,suitcase,,,,,,0,6,6,56,1,6,1,,,,,,,,,,,,,,,,,,,,,,,,,,,,,,,,,,,,,,,,,,,,,,,,,,,,,,,,,,,,,,,,,,,,,,,,,,,
,,,,,,,,,,stimuli/images/PICTURE_327.png,SERIES,5d33ff76f665c6001ab9aa1e,19/04/1994,2020-07-08_18h53.29.406,proactive,2020.1.2,Win32,60,5f035e5afe130c270d6ae6dd,5f05ebd798000b0d6563a269,2,,,,,,helmet,,,,,,0,7,7,3,1,1,1,,,,,,,,,,,,,,,,,,,,,,,,,,,,,,,,,,,,,,,,,,,,,,,,,,,,,,,,,,,,,,,,,,,,,,,,,,,
,,,,,,,,,,stimuli/images/PICTURE_108.png,FLIGHT,5d33ff76f665c6001ab9aa1e,19/04/1994,2020-07-08_18h53.29.406,proactive,2020.1.2,Win32,60,5f035e5afe130c270d6ae6dd,5f05ebd798000b0d6563a269,2,,,,,,calendar,,,,,,0,8,8,59,1,6,1,,,,,,,,,,,,,,,,,,,,,,,,,,,,,,,,,,,,,,,,,,,,,,,,,,,,,,,,,,,,,,,,,,,,,,,,,,,
,,,,,,,,,,stimuli/images/PICTURE_297.png,RIVER,5d33ff76f665c6001ab9aa1e,19/04/1994,2020-07-08_18h53.29.406,proactive,2020.1.2,Win32,60,5f035e5afe130c270d6ae6dd,5f05ebd798000b0d6563a269,2,,,,,,aeroplane,,,,,,0,9,9,39,1,4,1,,,,,,,,,,,,,,,,,,,,,,,,,,,,,,,,,,,,,,,,,,,,,,,,,,,,,,,,,,,,,,,,,,,,,,,,,,,
,,,,,,,,,,stimuli/images/PICTURE_203.png,NIGHT,5d33ff76f665c6001ab9aa1e,19/04/1994,2020-07-08_18h53.29.406,proactive,2020.1.2,Win32,60,5f035e5afe130c270d6ae6dd,5f05ebd798000b0d6563a269,2,,,,,,cap,,,,,,0,10,10,2,1,1,1,,,,,,,,,,,,,,,,,,,,,,,,,,,,,,,,,,,,,,,,,,,,,,,,,,,,,,,,,,,,,,,,,,,,,,,,,,,
,,,,,,,,,,stimuli/images/PICTURE_383.png,SERIES,5d33ff76f665c6001ab9aa1e,19/04/1994,2020-07-08_18h53.29.406,proactive,2020.1.2,Win32,60,5f035e5afe130c270d6ae6dd,5f05ebd798000b0d6563a269,2,,,,,,coin,,,,,,0,11,11,46,1,5,1,,,,,,,,,,,,,,,,,,,,,,,,,,,,,,,,,,,,,,,,,,,,,,,,,,,,,,,,,,,,,,,,,,,,,,,,,,,
,,,,,,,,,,stimuli/images/PICTURE_327.png,CASINO,5d33ff76f665c6001ab9aa1e,19/04/1994,2020-07-08_18h53.29.406,proactive,2020.1.2,Win32,60,5f035e5afe130c270d6ae6dd,5f05ebd798000b0d6563a269,2,,,,,,helmet,,,,,,0,12,12,20,1,3,1,,,,,,,,,,,,,,,,,,,,,,,,,,,,,,,,,,,,,,,,,,,,,,,,,,,,,,,,,,,,,,,,,,,,,,,,,,,
,,,,,,,,,,stimuli/images/PICTURE_42.png,BOYS,5d33ff76f665c6001ab9aa1e,19/04/1994,2020-07-08_18h53.29.406,proactive,2020.1.2,Win32,60,5f035e5afe130c270d6ae6dd,5f05ebd798000b0d6563a269,2,,,,,,pear,,,,,,0,13,13,55,1,6,1,,,,,,,,,,,,,,,,,,,,,,,,,,,,,,,,,,,,,,,,,,,,,,,,,,,,,,,,,,,,,,,,,,,,,,,,,,,
,,,,,,,,,,stimuli/images/PICTURE_2.png,FLIGHT,5d33ff76f665c6001ab9aa1e,19/04/1994,2020-07-08_18h53.29.406,proactive,2020.1.2,Win32,60,5f035e5afe130c270d6ae6dd,5f05ebd798000b0d6563a269,2,,,,,,tyre,,,,,,0,14,14,15,1,2,1,,,,,,,,,,,,,,,,,,,,,,,,,,,,,,,,,,,,,,,,,,,,,,,,,,,,,,,,,,,,,,,,,,,,,,,,,,,
,,,,,,,,,,stimuli/images/PICTURE_68.png,ROOF,5d33ff76f665c6001ab9aa1e,19/04/1994,2020-07-08_18h53.29.406,proactive,2020.1.2,Win32,60,5f035e5afe130c270d6ae6dd,5f05ebd798000b0d6563a269,2,,,,,,candle,,,,,,0,15,15,38,1,4,1,,,,,,,,,,,,,,,,,,,,,,,,,,,,,,,,,,,,,,,,,,,,,,,,,,,,,,,,,,,,,,,,,,,,,,,,,,,
,,,,,,,,,,stimuli/images/PICTURE_487.png,GIRL,5d33ff76f665c6001ab9aa1e,19/04/1994,2020-07-08_18h53.29.406,proactive,2020.1.2,Win32,60,5f035e5afe130c270d6ae6dd,5f05ebd798000b0d6563a269,2,,,,,,basket,,,,,,0,16,16,45,1,5,1,,,,,,,,,,,,,,,,,,,,,,,,,,,,,,,,,,,,,,,,,,,,,,,,,,,,,,,,,,,,,,,,,,,,,,,,,,,
,,,,,,,,,,stimuli/images/PICTURE_403.png,RIVER,5d33ff76f665c6001ab9aa1e,19/04/1994,2020-07-08_18h53.29.406,proactive,2020.1.2,Win32,60,5f035e5afe130c270d6ae6dd,5f05ebd798000b0d6563a269,2,,,,,,cathedral,,,,,,0,17,17,40,1,5,1,,,,,,,,,,,,,,,,,,,,,,,,,,,,,,,,,,,,,,,,,,,,,,,,,,,,,,,,,,,,,,,,,,,,,,,,,,,
,,,,,,,,,,stimuli/images/PICTURE_675.png,SALE,5d33ff76f665c6001ab9aa1e,19/04/1994,2020-07-08_18h53.29.406,proactive,2020.1.2,Win32,60,5f035e5afe130c270d6ae6dd,5f05ebd798000b0d6563a269,2,,,,,,windmill,,,,,,0,18,18,47,1,5,1,,,,,,,,,,,,,,,,,,,,,,,,,,,,,,,,,,,,,,,,,,,,,,,,,,,,,,,,,,,,,,,,,,,,,,,,,,,
,,,,,,,,,,stimuli/images/PICTURE_403.png,WRITER,5d33ff76f665c6001ab9aa1e,19/04/1994,2020-07-08_18h53.29.406,proactive,2020.1.2,Win32,60,5f035e5afe130c270d6ae6dd,5f05ebd798000b0d6563a269,2,,,,,,cathedral,,,,,,0,19,19,31,1,4,1,,,,,,,,,,,,,,,,,,,,,,,,,,,,,,,,,,,,,,,,,,,,,,,,,,,,,,,,,,,,,,,,,,,,,,,,,,,
,,,,,,,,,,stimuli/images/PICTURE_380.png,CANDY,5d33ff76f665c6001ab9aa1e,19/04/1994,2020-07-08_18h53.29.406,proactive,2020.1.2,Win32,60,5f035e5afe130c270d6ae6dd,5f05ebd798000b0d6563a269,2,,,,,,gorilla,,,,,,0,20,20,0,1,1,1,,,,,,,,,,,,,,,,,,,,,,,,,,,,,,,,,,,,,,,,,,,,,,,,,,,,,,,,,,,,,,,,,,,,,,,,,,,
,,,,,,,,,,stimuli/images/PICTURE_403.png,TOILET,5d33ff76f665c6001ab9aa1e,19/04/1994,2020-07-08_18h53.29.406,proactive,2020.1.2,Win32,60,5f035e5afe130c270d6ae6dd,5f05ebd798000b0d6563a269,2,,,,,,cathedral,,,,,,0,21,21,25,1,3,1,,,,,,,,,,,,,,,,,,,,,,,,,,,,,,,,,,,,,,,,,,,,,,,,,,,,,,,,,,,,,,,,,,,,,,,,,,,
,,,,,,,,,,stimuli/images/PICTURE_383.png,WRITER,5d33ff76f665c6001ab9aa1e,19/04/1994,2020-07-08_18h53.29.406,proactive,2020.1.2,Win32,60,5f035e5afe130c270d6ae6dd,5f05ebd798000b0d6563a269,2,,,,,,coin,,,,,,0,22,22,28,1,3,1,,,,,,,,,,,,,,,,,,,,,,,,,,,,,,,,,,,,,,,,,,,,,,,,,,,,,,,,,,,,,,,,,,,,,,,,,,,
,,,,,,,,,,stimuli/images/PICTURE_147.png,YEAR,5d33ff76f665c6001ab9aa1e,19/04/1994,2020-07-08_18h53.29.406,proactive,2020.1.2,Win32,60,5f035e5afe130c270d6ae6dd,5f05ebd798000b0d6563a269,2,,,,,,hanger,,,,,,0,23,23,21,1,3,1,,,,,,,,,,,,,,,,,,,,,,,,,,,,,,,,,,,,,,,,,,,,,,,,,,,,,,,,,,,,,,,,,,,,,,,,,,,
,,,,,,,,,,stimuli/images/PICTURE_744.png,WEAPON,5d33ff76f665c6001ab9aa1e,19/04/1994,2020-07-08_18h53.29.406,proactive,2020.1.2,Win32,60,5f035e5afe130c270d6ae6dd,5f05ebd798000b0d6563a269,2,,,,,,ring,,,,,,0,24,24,50,1,6,1,,,,,,,,,,,,,,,,,,,,,,,,,,,,,,,,,,,,,,,,,,,,,,,,,,,,,,,,,,,,,,,,,,,,,,,,,,,
,,,,,,,,,,stimuli/images/PICTURE_57.png,MOMENT,5d33ff76f665c6001ab9aa1e,19/04/1994,2020-07-08_18h53.29.406,proactive,2020.1.2,Win32,60,5f035e5afe130c270d6ae6dd,5f05ebd798000b0d6563a269,2,,,,,,stamp,,,,,,0,25,25,37,1,4,1,,,,,,,,,,,,,,,,,,,,,,,,,,,,,,,,,,,,,,,,,,,,,,,,,,,,,,,,,,,,,,,,,,,,,,,,,,,
,,,,,,,,,,stimuli/images/PICTURE_147.png,WOMEN,5d33ff76f665c6001ab9aa1e,19/04/1994,2020-07-08_18h53.29.406,proactive,2020.1.2,Win32,60,5f035e5afe130c270d6ae6dd,5f05ebd798000b0d6563a269,2,,,,,,hanger,,,,,,0,26,26,7,1,1,1,,,,,,,,,,,,,,,,,,,,,,,,,,,,,,,,,,,,,,,,,,,,,,,,,,,,,,,,,,,,,,,,,,,,,,,,,,,
,,,,,,,,,,stimuli/images/PICTURE_33.png,FRIEND,5d33ff76f665c6001ab9aa1e,19/04/1994,2020-07-08_18h53.29.406,proactive,2020.1.2,Win32,60,5f035e5afe130c270d6ae6dd,5f05ebd798000b0d6563a269,2,,,,,,frame,,,,,,0,27,27,8,1,1,1,,,,,,,,,,,,,,,,,,,,,,,,,,,,,,,,,,,,,,,,,,,,,,,,,,,,,,,,,,,,,,,,,,,,,,,,,,,
,,,,,,,,,,stimuli/images/PICTURE_32.png,KIND,5d33ff76f665c6001ab9aa1e,19/04/1994,2020-07-08_18h53.29.406,proactive,2020.1.2,Win32,60,5f035e5afe130c270d6ae6dd,5f05ebd798000b0d6563a269,2,,,,,,crown,,,,,,0,28,28,35,1,4,1,,,,,,,,,,,,,,,,,,,,,,,,,,,,,,,,,,,,,,,,,,,,,,,,,,,,,,,,,,,,,,,,,,,,,,,,,,,
,,,,,,,,,,stimuli/images/PICTURE_233.png,LOTS,5d33ff76f665c6001ab9aa1e,19/04/1994,2020-07-08_18h53.29.406,proactive,2020.1.2,Win32,60,5f035e5afe130c270d6ae6dd,5f05ebd798000b0d6563a269,2,,,,,,salt,,,,,,0,29,29,42,1,5,1,,,,,,,,,,,,,,,,,,,,,,,,,,,,,,,,,,,,,,,,,,,,,,,,,,,,,,,,,,,,,,,,,,,,,,,,,,,
,,,,,,,,,,stimuli/images/PICTURE_708.png,RECORD,5d33ff76f665c6001ab9aa1e,19/04/1994,2020-07-08_18h53.29.406,proactive,2020.1.2,Win32,60,5f035e5afe130c270d6ae6dd,5f05ebd798000b0d6563a269,2,,,,,,monkey,,,,,,0,30,30,58,1,6,1,,,,,,,,,,,,,,,,,,,,,,,,,,,,,,,,,,,,,,,,,,,,,,,,,,,,,,,,,,,,,,,,,,,,,,,,,,,
,,,,,,,,,,stimuli/images/PICTURE_68.png,MILE,5d33ff76f665c6001ab9aa1e,19/04/1994,2020-07-08_18h53.29.406,proactive,2020.1.2,Win32,60,5f035e5afe130c270d6ae6dd,5f05ebd798000b0d6563a269,2,,,,,,candle,,,,,,0,31,31,51,1,6,1,,,,,,,,,,,,,,,,,,,,,,,,,,,,,,,,,,,,,,,,,,,,,,,,,,,,,,,,,,,,,,,,,,,,,,,,,,,
,,,,,,,,,,stimuli/images/PICTURE_203.png,GODS,5d33ff76f665c6001ab9aa1e,19/04/1994,2020-07-08_18h53.29.406,proactive,2020.1.2,Win32,60,5f035e5afe130c270d6ae6dd,5f05ebd798000b0d6563a269,2,,,,,,cap,,,,,,0,32,32,30,1,4,1,,,,,,,,,,,,,,,,,,,,,,,,,,,,,,,,,,,,,,,,,,,,,,,,,,,,,,,,,,,,,,,,,,,,,,,,,,,
,,,,,,,,,,stimuli/images/PICTURE_340.png,VALLEY,5d33ff76f665c6001ab9aa1e,19/04/1994,2020-07-08_18h53.29.406,proactive,2020.1.2,Win32,60,5f035e5afe130c270d6ae6dd,5f05ebd798000b0d6563a269,2,,,,,,mirror,,,,,,0,33,33,54,1,6,1,,,,,,,,,,,,,,,,,,,,,,,,,,,,,,,,,,,,,,,,,,,,,,,,,,,,,,,,,,,,,,,,,,,,,,,,,,,
,,,,,,,,,,stimuli/images/PICTURE_654.png,MONTH,5d33ff76f665c6001ab9aa1e,19/04/1994,2020-07-08_18h53.29.406,proactive,2020.1.2,Win32,60,5f035e5afe130c270d6ae6dd,5f05ebd798000b0d6563a269,2,,,,,,pencil,,,,,,0,34,34,29,1,3,1,,,,,,,,,,,,,,,,,,,,,,,,,,,,,,,,,,,,,,,,,,,,,,,,,,,,,,,,,,,,,,,,,,,,,,,,,,,
,,,,,,,,,,stimuli/images/PICTURE_296.png,LIFE,5d33ff76f665c6001ab9aa1e,19/04/1994,2020-07-08_18h53.29.406,proactive,2020.1.2,Win32,60,5f035e5afe130c270d6ae6dd,5f05ebd798000b0d6563a269,2,,,,,,bolt,,,,,,0,35,35,57,1,6,1,,,,,,,,,,,,,,,,,,,,,,,,,,,,,,,,,,,,,,,,,,,,,,,,,,,,,,,,,,,,,,,,,,,,,,,,,,,
,,,,,,,,,,stimuli/images/PICTURE_308.png,FAMILY,5d33ff76f665c6001ab9aa1e,19/04/1994,2020-07-08_18h53.29.406,proactive,2020.1.2,Win32,60,5f035e5afe130c270d6ae6dd,5f05ebd798000b0d6563a269,2,,,,,,dice,,,,,,0,36,36,36,1,4,1,,,,,,,,,,,,,,,,,,,,,,,,,,,,,,,,,,,,,,,,,,,,,,,,,,,,,,,,,,,,,,,,,,,,,,,,,,,
,,,,,,,,,,stimuli/images/PICTURE_85.png,TOILET,5d33ff76f665c6001ab9aa1e,19/04/1994,2020-07-08_18h53.29.406,proactive,2020.1.2,Win32,60,5f035e5afe130c270d6ae6dd,5f05ebd798000b0d6563a269,2,,,,,,diamond,,,,,,0,37,37,48,1,5,1,,,,,,,,,,,,,,,,,,,,,,,,,,,,,,,,,,,,,,,,,,,,,,,,,,,,,,,,,,,,,,,,,,,,,,,,,,,
,,,,,,,,,,stimuli/images/PICTURE_339.png,CLIENT,5d33ff76f665c6001ab9aa1e,19/04/1994,2020-07-08_18h53.29.406,proactive,2020.1.2,Win32,60,5f035e5afe130c270d6ae6dd,5f05ebd798000b0d6563a269,2,,,,,,backpack,,,,,,0,38,38,11,1,2,1,,,,,,,,,,,,,,,,,,,,,,,,,,,,,,,,,,,,,,,,,,,,,,,,,,,,,,,,,,,,,,,,,,,,,,,,,,,
,,,,,,,,,,stimuli/images/PICTURE_467.png,POLICY,5d33ff76f665c6001ab9aa1e,19/04/1994,2020-07-08_18h53.29.406,proactive,2020.1.2,Win32,60,5f035e5afe130c270d6ae6dd,5f05ebd798000b0d6563a269,2,,,,,,peg,,,,,,0,39,39,53,1,6,1,,,,,,,,,,,,,,,,,,,,,,,,,,,,,,,,,,,,,,,,,,,,,,,,,,,,,,,,,,,,,,,,,,,,,,,,,,,
,,,,,,,,,,stimuli/images/PICTURE_95.png,HONEY,5d33ff76f665c6001ab9aa1e,19/04/1994,2020-07-08_18h53.29.406,proactive,2020.1.2,Win32,60,5f035e5afe130c270d6ae6dd,5f05ebd798000b0d6563a269,2,,,,,,suitcase,,,,,,0,40,40,44,1,5,1,,,,,,,,,,,,,,,,,,,,,,,,,,,,,,,,,,,,,,,,,,,,,,,,,,,,,,,,,,,,,,,,,,,,,,,,,,,
,,,,,,,,,,stimuli/images/PICTURE_449.png,DUDE,5d33ff76f665c6001ab9aa1e,19/04/1994,2020-07-08_18h53.29.406,proactive,2020.1.2,Win32,60,5f035e5afe130c270d6ae6dd,5f05ebd798000b0d6563a269,2,,,,,,bench,,,,,,0,41,41,17,1,2,1,,,,,,,,,,,,,,,,,,,,,,,,,,,,,,,,,,,,,,,,,,,,,,,,,,,,,,,,,,,,,,,,,,,,,,,,,,,
,,,,,,,,,,stimuli/images/PICTURE_177.png,WRITER,5d33ff76f665c6001ab9aa1e,19/04/1994,2020-07-08_18h53.29.406,proactive,2020.1.2,Win32,60,5f035e5afe130c270d6ae6dd,5f05ebd798000b0d6563a269,2,,,,,,mushroom,,,,,,0,42,42,41,1,5,1,,,,,,,,,,,,,,,,,,,,,,,,,,,,,,,,,,,,,,,,,,,,,,,,,,,,,,,,,,,,,,,,,,,,,,,,,,,
,,,,,,,,,,stimuli/images/PICTURE_296.png,LOTS,5d33ff76f665c6001ab9aa1e,19/04/1994,2020-07-08_18h53.29.406,proactive,2020.1.2,Win32,60,5f035e5afe130c270d6ae6dd,5f05ebd798000b0d6563a269,2,,,,,,bolt,,,,,,0,43,43,9,1,1,1,,,,,,,,,,,,,,,,,,,,,,,,,,,,,,,,,,,,,,,,,,,,,,,,,,,,,,,,,,,,,,,,,,,,,,,,,,,
,,,,,,,,,,stimuli/images/PICTURE_491.png,GLASS,5d33ff76f665c6001ab9aa1e,19/04/1994,2020-07-08_18h53.29.406,proactive,2020.1.2,Win32,60,5f035e5afe130c270d6ae6dd,5f05ebd798000b0d6563a269,2,,,,,,rug,,,,,,0,44,44,14,1,2,1,,,,,,,,,,,,,,,,,,,,,,,,,,,,,,,,,,,,,,,,,,,,,,,,,,,,,,,,,,,,,,,,,,,,,,,,,,,
,,,,,,,,,,stimuli/images/PICTURE_208.png,SYSTEM,5d33ff76f665c6001ab9aa1e,19/04/1994,2020-07-08_18h53.29.406,proactive,2020.1.2,Win32,60,5f035e5afe130c270d6ae6dd,5f05ebd798000b0d6563a269,2,,,,,,microphone,,,,,,0,45,45,32,1,4,1,,,,,,,,,,,,,,,,,,,,,,,,,,,,,,,,,,,,,,,,,,,,,,,,,,,,,,,,,,,,,,,,,,,,,,,,,,,
,,,,,,,,,,stimuli/images/PICTURE_685.png,PENNY,5d33ff76f665c6001ab9aa1e,19/04/1994,2020-07-08_18h53.29.406,proactive,2020.1.2,Win32,60,5f035e5afe130c270d6ae6dd,5f05ebd798000b0d6563a269,2,,,,,,goose,,,,,,0,46,46,4,1,1,1,,,,,,,,,,,,,,,,,,,,,,,,,,,,,,,,,,,,,,,,,,,,,,,,,,,,,,,,,,,,,,,,,,,,,,,,,,,
,,,,,,,,,,stimuli/images/PICTURE_504.png,YEAR,5d33ff76f665c6001ab9aa1e,19/04/1994,2020-07-08_18h53.29.406,proactive,2020.1.2,Win32,60,5f035e5afe130c270d6ae6dd,5f05ebd798000b0d6563a269,2,,,,,,wheel,,,,,,0,47,47,13,1,2,1,,,,,,,,,,,,,,,,,,,,,,,,,,,,,,,,,,,,,,,,,,,,,,,,,,,,,,,,,,,,,,,,,,,,,,,,,,,
,,,,,,,,,,stimuli/images/PICTURE_95.png,BOYS,5d33ff76f665c6001ab9aa1e,19/04/1994,2020-07-08_18h53.29.406,proactive,2020.1.2,Win32,60,5f035e5afe130c270d6ae6dd,5f05ebd798000b0d6563a269,2,,,,,,suitcase,,,,,,0,48,48,1,1,1,1,,,,,,,,,,,,,,,,,,,,,,,,,,,,,,,,,,,,,,,,,,,,,,,,,,,,,,,,,,,,,,,,,,,,,,,,,,,
,,,,,,,,,,stimuli/images/PICTURE_677.png,APPLE,5d33ff76f665c6001ab9aa1e,19/04/1994,2020-07-08_18h53.29.406,proactive,2020.1.2,Win32,60,5f035e5afe130c270d6ae6dd,5f05ebd798000b0d6563a269,2,,,,,,map,,,,,,0,49,49,43,1,5,1,,,,,,,,,,,,,,,,,,,,,,,,,,,,,,,,,,,,,,,,,,,,,,,,,,,,,,,,,,,,,,,,,,,,,,,,,,,
,,,,,,,,,,stimuli/images/PICTURE_32.png,PILLS,5d33ff76f665c6001ab9aa1e,19/04/1994,2020-07-08_18h53.29.406,proactive,2020.1.2,Win32,60,5f035e5afe130c270d6ae6dd,5f05ebd798000b0d6563a269,2,,,,,,crown,,,,,,0,50,50,18,1,2,1,,,,,,,,,,,,,,,,,,,,,,,,,,,,,,,,,,,,,,,,,,,,,,,,,,,,,,,,,,,,,,,,,,,,,,,,,,,
,,,,,,,,,,stimuli/images/PICTURE_285.png,LIFE,5d33ff76f665c6001ab9aa1e,19/04/1994,2020-07-08_18h53.29.406,proactive,2020.1.2,Win32,60,5f035e5afe130c270d6ae6dd,5f05ebd798000b0d6563a269,2,,,,,,carrot,,,,,,0,51,51,33,1,4,1,,,,,,,,,,,,,,,,,,,,,,,,,,,,,,,,,,,,,,,,,,,,,,,,,,,,,,,,,,,,,,,,,,,,,,,,,,,
,,,,,,,,,,stimuli/images/PICTURE_469.png,AGENT,5d33ff76f665c6001ab9aa1e,19/04/1994,2020-07-08_18h53.29.406,proactive,2020.1.2,Win32,60,5f035e5afe130c270d6ae6dd,5f05ebd798000b0d6563a269,2,,,,,,stool,,,,,,0,52,52,16,1,2,1,,,,,,,,,,,,,,,,,,,,,,,,,,,,,,,,,,,,,,,,,,,,,,,,,,,,,,,,,,,,,,,,,,,,,,,,,,,
,,,,,,,,,,stimuli/images/PICTURE_405.png,PLENTY,5d33ff76f665c6001ab9aa1e,19/04/1994,2020-07-08_18h53.29.406,proactive,2020.1.2,Win32,60,5f035e5afe130c270d6ae6dd,5f05ebd798000b0d6563a269,2,,,,,,anchor,,,,,,0,53,53,23,1,3,1,,,,,,,,,,,,,,,,,,,,,,,,,,,,,,,,,,,,,,,,,,,,,,,,,,,,,,,,,,,,,,,,,,,,,,,,,,,
,,,,,,,,,,stimuli/images/PICTURE_655.png,TOILET,5d33ff76f665c6001ab9aa1e,19/04/1994,2020-07-08_18h53.29.406,proactive,2020.1.2,Win32,60,5f035e5afe130c270d6ae6dd,5f05ebd798000b0d6563a269,2,,,,,,megaphone,,,,,,0,54,54,12,1,2,1,,,,,,,,,,,,,,,,,,,,,,,,,,,,,,,,,,,,,,,,,,,,,,,,,,,,,,,,,,,,,,,,,,,,,,,,,,,
,,,,,,,,,,stimuli/images/PICTURE_504.png,ARTIST,5d33ff76f665c6001ab9aa1e,19/04/1994,2020-07-08_18h53.29.406,proactive,2020.1.2,Win32,60,5f035e5afe130c270d6ae6dd,5f05ebd798000b0d6563a269,2,,,,,,wheel,,,,,,0,55,55,49,1,5,1,,,,,,,,,,,,,,,,,,,,,,,,,,,,,,,,,,,,,,,,,,,,,,,,,,,,,,,,,,,,,,,,,,,,,,,,,,,
,,,,,,,,,,stimuli/images/PICTURE_108.png,POLICY,5d33ff76f665c6001ab9aa1e,19/04/1994,2020-07-08_18h53.29.406,proactive,2020.1.2,Win32,60,5f035e5afe130c270d6ae6dd,5f05ebd798000b0d6563a269,2,,,,,,calendar,,,,,,0,56,56,22,1,3,1,,,,,,,,,,,,,,,,,,,,,,,,,,,,,,,,,,,,,,,,,,,,,,,,,,,,,,,,,,,,,,,,,,,,,,,,,,,
,,,,,,,,,,stimuli/images/PICTURE_85.png,NATION,5d33ff76f665c6001ab9aa1e,19/04/1994,2020-07-08_18h53.29.406,proactive,2020.1.2,Win32,60,5f035e5afe130c270d6ae6dd,5f05ebd798000b0d6563a269,2,,,,,,diamond,,,,,,0,57,57,5,1,1,1,,,,,,,,,,,,,,,,,,,,,,,,,,,,,,,,,,,,,,,,,,,,,,,,,,,,,,,,,,,,,,,,,,,,,,,,,,,
,,,,,,,,,,stimuli/images/PICTURE_405.png,YEAR,5d33ff76f665c6001ab9aa1e,19/04/1994,2020-07-08_18h53.29.406,proactive,2020.1.2,Win32,60,5f035e5afe130c270d6ae6dd,5f05ebd798000b0d6563a269,2,,,,,,anchor,,,,,,0,58,58,34,1,4,1,,,,,,,,,,,,,,,,,,,,,,,,,,,,,,,,,,,,,,,,,,,,,,,,,,,,,,,,,,,,,,,,,,,,,,,,,,,
,,?,0.001575,0,,,,,,stimuli/images/PICTURE_85.png,NATION,5d33ff76f665c6001ab9aa1e,19/04/1994,2020-07-08_18h53.29.406,proactive,2020.1.2,Win32,60,5f035e5afe130c270d6ae6dd,5f05ebd798000b0d6563a269,2,,,,,,diamond,,,,,,,,,,,1,1,0,0,0,5,1,,,,,,,,,,,,,,,,,,,,,,,,,,,,,,,,,,,,,,,,,,,,,,,,,,,,,,,,,,,,,,,,,,,,,,
,,HONEY,10.01624,1,,,,,,stimuli/images/PICTURE_380.png,HONEY,5d33ff76f665c6001ab9aa1e,19/04/1994,2020-07-08_18h53.29.406,proactive,2020.1.2,Win32,60,5f035e5afe130c270d6ae6dd,5f05ebd798000b0d6563a269,2,,,,,,gorilla,,,,,,,,,,,2,1,0,1,1,19,1,,,,,,,,,,,,,,,,,,,,,,,,,,,,,,,,,,,,,,,,,,,,,,,,,,,,,,,,,,,,,,,,,,,,,,
,,?,0.00114,0,,,,,,stimuli/images/PICTURE_491.png,RIVER,5d33ff76f665c6001ab9aa1e,19/04/1994,2020-07-08_18h53.29.406,proactive,2020.1.2,Win32,60,5f035e5afe130c270d6ae6dd,5f05ebd798000b0d6563a269,2,,,,,,rug,,,,,,,,,,,1,1,0,2,2,6,1,,,,,,,,,,,,,,,,,,,,,,,,,,,,,,,,,,,,,,,,,,,,,,,,,,,,,,,,,,,,,,,,,,,,,,
,,CLIENT,10.011195,1,,,,,,stimuli/images/PICTURE_339.png,CLIENT,5d33ff76f665c6001ab9aa1e,19/04/1994,2020-07-08_18h53.29.406,proactive,2020.1.2,Win32,60,5f035e5afe130c270d6ae6dd,5f05ebd798000b0d6563a269,2,,,,,,backpack,,,,,,,,,,,2,1,0,3,3,11,1,,,,,,,,,,,,,,,,,,,,,,,,,,,,,,,,,,,,,,,,,,,,,,,,,,,,,,,,,,,,,,,,,,,,,,
,,?,0.00071,0,,,,,,stimuli/images/PICTURE_32.png,KIND,5d33ff76f665c6001ab9aa1e,19/04/1994,2020-07-08_18h53.29.406,proactive,2020.1.2,Win32,60,5f035e5afe130c270d6ae6dd,5f05ebd798000b0d6563a269,2,,,,,,crown,,,,,,,,,,,4,1,0,4,4,35,1,,,,,,,,,,,,,,,,,,,,,,,,,,,,,,,,,,,,,,,,,,,,,,,,,,,,,,,,,,,,,,,,,,,,,,
,,?,2.430945,0,,,,,,stimuli/images/PICTURE_667.png,RIVER,5d33ff76f665c6001ab9aa1e,19/04/1994,2020-07-08_18h53.29.406,proactive,2020.1.2,Win32,60,5f035e5afe130c270d6ae6dd,5f05ebd798000b0d6563a269,2,,,,,,daisy,,,,,,,,,,,2,1,0,5,5,10,1,,,,,,,,,,,,,,,,,,,,,,,,,,,,,,,,,,,,,,,,,,,,,,,,,,,,,,,,,,,,,,,,,,,,,,
,,?,0.00122,0,,,,,,stimuli/images/PICTURE_685.png,PENNY,5d33ff76f665c6001ab9aa1e,19/04/1994,2020-07-08_18h53.29.406,proactive,2020.1.2,Win32,60,5f035e5afe130c270d6ae6dd,5f05ebd798000b0d6563a269,2,,,,,,goose,,,,,,,,,,,1,1,0,6,6,4,1,,,,,,,,,,,,,,,,,,,,,,,,,,,,,,,,,,,,,,,,,,,,,,,,,,,,,,,,,,,,,,,,,,,,,,
,,?,0.00105,0,,,,,,stimuli/images/PICTURE_675.png,SALE,5d33ff76f665c6001ab9aa1e,19/04/1994,2020-07-08_18h53.29.406,proactive,2020.1.2,Win32,60,5f035e5afe130c270d6ae6dd,5f05ebd798000b0d6563a269,2,,,,,,windmill,,,,,,,,,,,5,1,0,7,7,47,1,,,,,,,,,,,,,,,,,,,,,,,,,,,,,,,,,,,,,,,,,,,,,,,,,,,,,,,,,,,,,,,,,,,,,,
,,?,0.001015,0,,,,,,stimuli/images/PICTURE_177.png,WRITER,5d33ff76f665c6001ab9aa1e,19/04/1994,2020-07-08_18h53.29.406,proactive,2020.1.2,Win32,60,5f035e5afe130c270d6ae6dd,5f05ebd798000b0d6563a269,2,,,,,,mushroom,,,,,,,,,,,5,1,0,8,8,41,1,,,,,,,,,,,,,,,,,,,,,,,,,,,,,,,,,,,,,,,,,,,,,,,,,,,,,,,,,,,,,,,,,,,,,,
,,?,0.00099,0,,,,,,stimuli/images/PICTURE_297.png,RIVER,5d33ff76f665c6001ab9aa1e,19/04/1994,2020-07-08_18h53.29.406,proactive,2020.1.2,Win32,60,5f035e5afe130c270d6ae6dd,5f05ebd798000b0d6563a269,2,,,,,,aeroplane,,,,,,,,,,,4,1,0,9,9,39,1,,,,,,,,,,,,,,,,,,,,,,,,,,,,,,,,,,,,,,,,,,,,,,,,,,,,,,,,,,,,,,,,,,,,,,
,,?,0.001065,0,,,,,,stimuli/images/PICTURE_147.png,YEAR,5d33ff76f665c6001ab9aa1e,19/04/1994,2020-07-08_18h53.29.406,proactive,2020.1.2,Win32,60,5f035e5afe130c270d6ae6dd,5f05ebd798000b0d6563a269,2,,,,,,hanger,,,,,,,,,,,3,1,0,10,10,21,1,,,,,,,,,,,,,,,,,,,,,,,,,,,,,,,,,,,,,,,,,,,,,,,,,,,,,,,,,,,,,,,,,,,,,,
,,?,0.001365,0,,,,,,stimuli/images/PICTURE_403.png,TOILET,5d33ff76f665c6001ab9aa1e,19/04/1994,2020-07-08_18h53.29.406,proactive,2020.1.2,Win32,60,5f035e5afe130c270d6ae6dd,5f05ebd798000b0d6563a269,2,,,,,,cathedral,,,,,,,,,,,3,1,0,11,11,25,1,,,,,,,,,,,,,,,,,,,,,,,,,,,,,,,,,,,,,,,,,,,,,,,,,,,,,,,,,,,,,,,,,,,,,,
,,?,0.00105,0,,,,,,stimuli/images/PICTURE_750.png,HOTEL,5d33ff76f665c6001ab9aa1e,19/04/1994,2020-07-08_18h53.29.406,proactive,2020.1.2,Win32,60,5f035e5afe130c270d6ae6dd,5f05ebd798000b0d6563a269,2,,,,,,kettle,,,,,,,,,,,3,1,0,12,12,27,1,,,,,,,,,,,,,,,,,,,,,,,,,,,,,,,,,,,,,,,,,,,,,,,,,,,,,,,,,,,,,,,,,,,,,,
,,?,0.001045,0,,,,,,stimuli/images/PICTURE_744.png,WEAPON,5d33ff76f665c6001ab9aa1e,19/04/1994,2020-07-08_18h53.29.406,proactive,2020.1.2,Win32,60,5f035e5afe130c270d6ae6dd,5f05ebd798000b0d6563a269,2,,,,,,ring,,,,,,,,,,,6,1,0,13,13,50,1,,,,,,,,,,,,,,,,,,,,,,,,,,,,,,,,,,,,,,,,,,,,,,,,,,,,,,,,,,,,,,,,,,,,,,
,,?,0.00102,0,,,,,,stimuli/images/PICTURE_296.png,LIFE,5d33ff76f665c6001ab9aa1e,19/04/1994,2020-07-08_18h53.29.406,proactive,2020.1.2,Win32,60,5f035e5afe130c270d6ae6dd,5f05ebd798000b0d6563a269,2,,,,,,bolt,,,,,,,,,,,6,1,0,14,14,57,1,,,,,,,,,,,,,,,,,,,,,,,,,,,,,,,,,,,,,,,,,,,,,,,,,,,,,,,,,,,,,,,,,,,,,,
,,PILLS,10.00453,1,,,,,,stimuli/images/PICTURE_32.png,PILLS,5d33ff76f665c6001ab9aa1e,19/04/1994,2020-07-08_18h53.29.406,proactive,2020.1.2,Win32,60,5f035e5afe130c270d6ae6dd,5f05ebd798000b0d6563a269,2,,,,,,crown,,,,,,,,,,,2,1,0,15,15,18,1,,,,,,,,,,,,,,,,,,,,,,,,,,,,,,,,,,,,,,,,,,,,,,,,,,,,,,,,,,,,,,,,,,,,,,
,,?,0.000725,0,,,,,,stimuli/images/PICTURE_42.png,BOYS,5d33ff76f665c6001ab9aa1e,19/04/1994,2020-07-08_18h53.29.406,proactive,2020.1.2,Win32,60,5f035e5afe130c270d6ae6dd,5f05ebd798000b0d6563a269,2,,,,,,pear,,,,,,,,,,,6,1,0,16,16,55,1,,,,,,,,,,,,,,,,,,,,,,,,,,,,,,,,,,,,,,,,,,,,,,,,,,,,,,,,,,,,,,,,,,,,,,
,,?,0.00053,0,,,,,,stimuli/images/PICTURE_405.png,PLENTY,5d33ff76f665c6001ab9aa1e,19/04/1994,2020-07-08_18h53.29.406,proactive,2020.1.2,Win32,60,5f035e5afe130c270d6ae6dd,5f05ebd798000b0d6563a269,2,,,,,,anchor,,,,,,,,,,,3,1,0,17,17,23,1,,,,,,,,,,,,,,,,,,,,,,,,,,,,,,,,,,,,,,,,,,,,,,,,,,,,,,,,,,,,,,,,,,,,,,
,,?,0.000635,0,,,,,,stimuli/images/PICTURE_95.png,HONEY,5d33ff76f665c6001ab9aa1e,19/04/1994,2020-07-08_18h53.29.406,proactive,2020.1.2,Win32,60,5f035e5afe130c270d6ae6dd,5f05ebd798000b0d6563a269,2,,,,,,suitcase,,,,,,,,,,,5,1,0,18,18,44,1,,,,,,,,,,,,,,,,,,,,,,,,,,,,,,,,,,,,,,,,,,,,,,,,,,,,,,,,,,,,,,,,,,,,,,
,,?,0.0005,0,,,,,,stimuli/images/PICTURE_327.png,CASINO,5d33ff76f665c6001ab9aa1e,19/04/1994,2020-07-08_18h53.29.406,proactive,2020.1.2,Win32,60,5f035e5afe130c270d6ae6dd,5f05ebd798000b0d6563a269,2,,,,,,helmet,,,,,,,,,,,3,1,0,19,19,20,1,,,,,,,,,,,,,,,,,,,,,,,,,,,,,,,,,,,,,,,,,,,,,,,,,,,,,,,,,,,,,,,,,,,,,,
,,FLIGHT,10.008755,0,,,,,,stimuli/images/PICTURE_655.png,TOILET,5d33ff76f665c6001ab9aa1e,19/04/1994,2020-07-08_18h53.29.406,proactive,2020.1.2,Win32,60,5f035e5afe130c270d6ae6dd,5f05ebd798000b0d6563a269,2,,,,,,megaphone,,,,,,,,,,,2,1,0,20,20,12,1,,,,,,,,,,,,,,,,,,,,,,,,,,,,,,,,,,,,,,,,,,,,,,,,,,,,,,,,,,,,,,,,,,,,,,
,,AGENT,10.013245,1,,,,,,stimuli/images/PICTURE_469.png,AGENT,5d33ff76f665c6001ab9aa1e,19/04/1994,2020-07-08_18h53.29.406,proactive,2020.1.2,Win32,60,5f035e5afe130c270d6ae6dd,5f05ebd798000b0d6563a269,2,,,,,,stool,,,,,,,,,,,2,1,0,21,21,16,1,,,,,,,,,,,,,,,,,,,,,,,,,,,,,,,,,,,,,,,,,,,,,,,,,,,,,,,,,,,,,,,,,,,,,,
,,?,0.00185,0,,,,,,stimuli/images/PICTURE_285.png,LIFE,5d33ff76f665c6001ab9aa1e,19/04/1994,2020-07-08_18h53.29.406,proactive,2020.1.2,Win32,60,5f035e5afe130c270d6ae6dd,5f05ebd798000b0d6563a269,2,,,,,,carrot,,,,,,,,,,,4,1,0,22,22,33,1,,,,,,,,,,,,,,,,,,,,,,,,,,,,,,,,,,,,,,,,,,,,,,,,,,,,,,,,,,,,,,,,,,,,,,
,,?,0.001685,0,,,,,,stimuli/images/PICTURE_405.png,YEAR,5d33ff76f665c6001ab9aa1e,19/04/1994,2020-07-08_18h53.29.406,proactive,2020.1.2,Win32,60,5f035e5afe130c270d6ae6dd,5f05ebd798000b0d6563a269,2,,,,,,anchor,,,,,,,,,,,4,1,0,23,23,34,1,,,,,,,,,,,,,,,,,,,,,,,,,,,,,,,,,,,,,,,,,,,,,,,,,,,,,,,,,,,,,,,,,,,,,,
,,?,0.00134,0,,,,,,stimuli/images/PICTURE_340.png,LETTER,5d33ff76f665c6001ab9aa1e,19/04/1994,2020-07-08_18h53.29.406,proactive,2020.1.2,Win32,60,5f035e5afe130c270d6ae6dd,5f05ebd798000b0d6563a269,2,,,,,,mirror,,,,,,,,,,,3,1,0,24,24,24,1,,,,,,,,,,,,,,,,,,,,,,,,,,,,,,,,,,,,,,,,,,,,,,,,,,,,,,,,,,,,,,,,,,,,,,
,,?,0.00124,0,,,,,,stimuli/images/PICTURE_327.png,SERIES,5d33ff76f665c6001ab9aa1e,19/04/1994,2020-07-08_18h53.29.406,proactive,2020.1.2,Win32,60,5f035e5afe130c270d6ae6dd,5f05ebd798000b0d6563a269,2,,,,,,helmet,,,,,,,,,,,1,1,0,25,25,3,1,,,,,,,,,,,,,,,,,,,,,,,,,,,,,,,,,,,,,,,,,,,,,,,,,,,,,,,,,,,,,,,,,,,,,,
,,?,0.00173,0,,,,,,stimuli/images/PICTURE_296.png,LOTS,5d33ff76f665c6001ab9aa1e,19/04/1994,2020-07-08_18h53.29.406,proactive,2020.1.2,Win32,60,5f035e5afe130c270d6ae6dd,5f05ebd798000b0d6563a269,2,,,,,,bolt,,,,,,,,,,,1,1,0,26,26,9,1,,,,,,,,,,,,,,,,,,,,,,,,,,,,,,,,,,,,,,,,,,,,,,,,,,,,,,,,,,,,,,,,,,,,,,
,,?,0.00137,0,,,,,,stimuli/images/PICTURE_147.png,WOMEN,5d33ff76f665c6001ab9aa1e,19/04/1994,2020-07-08_18h53.29.406,proactive,2020.1.2,Win32,60,5f035e5afe130c270d6ae6dd,5f05ebd798000b0d6563a269,2,,,,,,hanger,,,,,,,,,,,1,1,0,27,27,7,1,,,,,,,,,,,,,,,,,,,,,,,,,,,,,,,,,,,,,,,,,,,,,,,,,,,,,,,,,,,,,,,,,,,,,,
,,?,0.0015,0,,,,,,stimuli/images/PICTURE_708.png,RECORD,5d33ff76f665c6001ab9aa1e,19/04/1994,2020-07-08_18h53.29.406,proactive,2020.1.2,Win32,60,5f035e5afe130c270d6ae6dd,5f05ebd798000b0d6563a269,2,,,,,,monkey,,,,,,,,,,,6,1,0,28,28,58,1,,,,,,,,,,,,,,,,,,,,,,,,,,,,,,,,,,,,,,,,,,,,,,,,,,,,,,,,,,,,,,,,,,,,,,
,,?,0.001025,0,,,,,,stimuli/images/PICTURE_68.png,MILE,5d33ff76f665c6001ab9aa1e,19/04/1994,2020-07-08_18h53.29.406,proactive,2020.1.2,Win32,60,5f035e5afe130c270d6ae6dd,5f05ebd798000b0d6563a269,2,,,,,,candle,,,,,,,,,,,6,1,0,29,29,51,1,,,,,,,,,,,,,,,,,,,,,,,,,,,,,,,,,,,,,,,,,,,,,,,,,,,,,,,,,,,,,,,,,,,,,,
,,?,0.001,0,,,,,,stimuli/images/PICTURE_95.png,MILLER,5d33ff76f665c6001ab9aa1e,19/04/1994,2020-07-08_18h53.29.406,proactive,2020.1.2,Win32,60,5f035e5afe130c270d6ae6dd,5f05ebd798000b0d6563a269,2,,,,,,suitcase,,,,,,,,,,,6,1,0,30,30,56,1,,,,,,,,,,,,,,,,,,,,,,,,,,,,,,,,,,,,,,,,,,,,,,,,,,,,,,,,,,,,,,,,,,,,,,
,,?,0.00115,0,,,,,,stimuli/images/PICTURE_467.png,POLICY,5d33ff76f665c6001ab9aa1e,19/04/1994,2020-07-08_18h53.29.406,proactive,2020.1.2,Win32,60,5f035e5afe130c270d6ae6dd,5f05ebd798000b0d6563a269,2,,,,,,peg,,,,,,,,,,,6,1,0,31,31,53,1,,,,,,,,,,,,,,,,,,,,,,,,,,,,,,,,,,,,,,,,,,,,,,,,,,,,,,,,,,,,,,,,,,,,,,
,,?,0.001785,0,,,,,,stimuli/images/PICTURE_308.png,FAMILY,5d33ff76f665c6001ab9aa1e,19/04/1994,2020-07-08_18h53.29.406,proactive,2020.1.2,Win32,60,5f035e5afe130c270d6ae6dd,5f05ebd798000b0d6563a269,2,,,,,,dice,,,,,,,,,,,4,1,0,32,32,36,1,,,,,,,,,,,,,,,,,,,,,,,,,,,,,,,,,,,,,,,,,,,,,,,,,,,,,,,,,,,,,,,,,,,,,,
,,?,0.001085,0,,,,,,stimuli/images/PICTURE_383.png,WRITER,5d33ff76f665c6001ab9aa1e,19/04/1994,2020-07-08_18h53.29.406,proactive,2020.1.2,Win32,60,5f035e5afe130c270d6ae6dd,5f05ebd798000b0d6563a269,2,,,,,,coin,,,,,,,,,,,3,1,0,33,33,28,1,,,,,,,,,,,,,,,,,,,,,,,,,,,,,,,,,,,,,,,,,,,,,,,,,,,,,,,,,,,,,,,,,,,,,,
,,?,0.000545,0,,,,,,stimuli/images/PICTURE_383.png,SERIES,5d33ff76f665c6001ab9aa1e,19/04/1994,2020-07-08_18h53.29.406,proactive,2020.1.2,Win32,60,5f035e5afe130c270d6ae6dd,5f05ebd798000b0d6563a269,2,,,,,,coin,,,,,,,,,,,5,1,0,34,34,46,1,,,,,,,,,,,,,,,,,,,,,,,,,,,,,,,,,,,,,,,,,,,,,,,,,,,,,,,,,,,,,,,,,,,,,,
,,?,0.000575,0,,,,,,stimuli/images/PICTURE_108.png,FLIGHT,5d33ff76f665c6001ab9aa1e,19/04/1994,2020-07-08_18h53.29.406,proactive,2020.1.2,Win32,60,5f035e5afe130c270d6ae6dd,5f05ebd798000b0d6563a269,2,,,,,,calendar,,,,,,,,,,,6,1,0,35,35,59,1,,,,,,,,,,,,,,,,,,,,,,,,,,,,,,,,,,,,,,,,,,,,,,,,,,,,,,,,,,,,,,,,,,,,,,
,,?,0.00073,0,,,,,,stimuli/images/PICTURE_33.png,FRIEND,5d33ff76f665c6001ab9aa1e,19/04/1994,2020-07-08_18h53.29.406,proactive,2020.1.2,Win32,60,5f035e5afe130c270d6ae6dd,5f05ebd798000b0d6563a269,2,,,,,,frame,,,,,,,,,,,1,1,0,36,36,8,1,,,,,,,,,,,,,,,,,,,,,,,,,,,,,,,,,,,,,,,,,,,,,,,,,,,,,,,,,,,,,,,,,,,,,,
,,?,0.00055,0,,,,,,stimuli/images/PICTURE_677.png,APPLE,5d33ff76f665c6001ab9aa1e,19/04/1994,2020-07-08_18h53.29.406,proactive,2020.1.2,Win32,60,5f035e5afe130c270d6ae6dd,5f05ebd798000b0d6563a269,2,,,,,,map,,,,,,,,,,,5,1,0,37,37,43,1,,,,,,,,,,,,,,,,,,,,,,,,,,,,,,,,,,,,,,,,,,,,,,,,,,,,,,,,,,,,,,,,,,,,,,
,,?,0.00072,0,,,,,,stimuli/images/PICTURE_203.png,GODS,5d33ff76f665c6001ab9aa1e,19/04/1994,2020-07-08_18h53.29.406,proactive,2020.1.2,Win32,60,5f035e5afe130c270d6ae6dd,5f05ebd798000b0d6563a269,2,,,,,,cap,,,,,,,,,,,4,1,0,38,38,30,1,,,,,,,,,,,,,,,,,,,,,,,,,,,,,,,,,,,,,,,,,,,,,,,,,,,,,,,,,,,,,,,,,,,,,,
,,GLASS,10.01475,1,,,,,,stimuli/images/PICTURE_491.png,GLASS,5d33ff76f665c6001ab9aa1e,19/04/1994,2020-07-08_18h53.29.406,proactive,2020.1.2,Win32,60,5f035e5afe130c270d6ae6dd,5f05ebd798000b0d6563a269,2,,,,,,rug,,,,,,,,,,,2,1,0,39,39,14,1,,,,,,,,,,,,,,,,,,,,,,,,,,,,,,,,,,,,,,,,,,,,,,,,,,,,,,,,,,,,,,,,,,,,,,
,,?,0.002165,0,,,,,,stimuli/images/PICTURE_208.png,SYSTEM,5d33ff76f665c6001ab9aa1e,19/04/1994,2020-07-08_18h53.29.406,proactive,2020.1.2,Win32,60,5f035e5afe130c270d6ae6dd,5f05ebd798000b0d6563a269,2,,,,,,microphone,,,,,,,,,,,4,1,0,40,40,32,1,,,,,,,,,,,,,,,,,,,,,,,,,,,,,,,,,,,,,,,,,,,,,,,,,,,,,,,,,,,,,,,,,,,,,,
,,?,0.00163,0,,,,,,stimuli/images/PICTURE_108.png,POLICY,5d33ff76f665c6001ab9aa1e,19/04/1994,2020-07-08_18h53.29.406,proactive,2020.1.2,Win32,60,5f035e5afe130c270d6ae6dd,5f05ebd798000b0d6563a269,2,,,,,,calendar,,,,,,,,,,,3,1,0,41,41,22,1,,,,,,,,,,,,,,,,,,,,,,,,,,,,,,,,,,,,,,,,,,,,,,,,,,,,,,,,,,,,,,,,,,,,,,
,,?,0.001495,0,,,,,,stimuli/images/PICTURE_340.png,VALLEY,5d33ff76f665c6001ab9aa1e,19/04/1994,2020-07-08_18h53.29.406,proactive,2020.1.2,Win32,60,5f035e5afe130c270d6ae6dd,5f05ebd798000b0d6563a269,2,,,,,,mirror,,,,,,,,,,,6,1,0,42,42,54,1,,,,,,,,,,,,,,,,,,,,,,,,,,,,,,,,,,,,,,,,,,,,,,,,,,,,,,,,,,,,,,,,,,,,,,
,,?,0.0015,0,,,,,,stimuli/images/PICTURE_203.png,NIGHT,5d33ff76f665c6001ab9aa1e,19/04/1994,2020-07-08_18h53.29.406,proactive,2020.1.2,Win32,60,5f035e5afe130c270d6ae6dd,5f05ebd798000b0d6563a269,2,,,,,,cap,,,,,,,,,,,1,1,0,43,43,2,1,,,,,,,,,,,,,,,,,,,,,,,,,,,,,,,,,,,,,,,,,,,,,,,,,,,,,,,,,,,,,,,,,,,,,,
,,?,0.00144,0,,,,,,stimuli/images/PICTURE_564.png,BATH,5d33ff76f665c6001ab9aa1e,19/04/1994,2020-07-08_18h53.29.406,proactive,2020.1.2,Win32,60,5f035e5afe130c270d6ae6dd,5f05ebd798000b0d6563a269,2,,,,,,spoon,,,,,,,,,,,3,1,0,44,44,26,1,,,,,,,,,,,,,,,,,,,,,,,,,,,,,,,,,,,,,,,,,,,,,,,,,,,,,,,,,,,,,,,,,,,,,,
,,?,0.00145,0,,,,,,stimuli/images/PICTURE_487.png,GIRL,5d33ff76f665c6001ab9aa1e,19/04/1994,2020-07-08_18h53.29.406,proactive,2020.1.2,Win32,60,5f035e5afe130c270d6ae6dd,5f05ebd798000b0d6563a269,2,,,,,,basket,,,,,,,,,,,5,1,0,45,45,45,1,,,,,,,,,,,,,,,,,,,,,,,,,,,,,,,,,,,,,,,,,,,,,,,,,,,,,,,,,,,,,,,,,,,,,,
,,?,0.00108,0,,,,,,stimuli/images/PICTURE_68.png,ROOF,5d33ff76f665c6001ab9aa1e,19/04/1994,2020-07-08_18h53.29.406,proactive,2020.1.2,Win32,60,5f035e5afe130c270d6ae6dd,5f05ebd798000b0d6563a269,2,,,,,,candle,,,,,,,,,,,4,1,0,46,46,38,1,,,,,,,,,,,,,,,,,,,,,,,,,,,,,,,,,,,,,,,,,,,,,,,,,,,,,,,,,,,,,,,,,,,,,,
,,DUDE,10.002085,1,,,,,,stimuli/images/PICTURE_449.png,DUDE,5d33ff76f665c6001ab9aa1e,19/04/1994,2020-07-08_18h53.29.406,proactive,2020.1.2,Win32,60,5f035e5afe130c270d6ae6dd,5f05ebd798000b0d6563a269,2,,,,,,bench,,,,,,,,,,,2,1,0,47,47,17,1,,,,,,,,,,,,,,,,,,,,,,,,,,,,,,,,,,,,,,,,,,,,,,,,,,,,,,,,,,,,,,,,,,,,,,
,,YEAR,10.014235,1,,,,,,stimuli/images/PICTURE_504.png,YEAR,5d33ff76f665c6001ab9aa1e,19/04/1994,2020-07-08_18h53.29.406,proactive,2020.1.2,Win32,60,5f035e5afe130c270d6ae6dd,5f05ebd798000b0d6563a269,2,,,,,,wheel,,,,,,,,,,,2,1,0,48,48,13,1,,,,,,,,,,,,,,,,,,,,,,,,,,,,,,,,,,,,,,,,,,,,,,,,,,,,,,,,,,,,,,,,,,,,,,
,,?,0.001095,0,,,,,,stimuli/images/PICTURE_504.png,COPS,5d33ff76f665c6001ab9aa1e,19/04/1994,2020-07-08_18h53.29.406,proactive,2020.1.2,Win32,60,5f035e5afe130c270d6ae6dd,5f05ebd798000b0d6563a269,2,,,,,,wheel,,,,,,,,,,,6,1,0,49,49,52,1,,,,,,,,,,,,,,,,,,,,,,,,,,,,,,,,,,,,,,,,,,,,,,,,,,,,,,,,,,,,,,,,,,,,,,
,,?,0.00093,0,,,,,,stimuli/images/PICTURE_504.png,ARTIST,5d33ff76f665c6001ab9aa1e,19/04/1994,2020-07-08_18h53.29.406,proactive,2020.1.2,Win32,60,5f035e5afe130c270d6ae6dd,5f05ebd798000b0d6563a269,2,,,,,,wheel,,,,,,,,,,,5,1,0,50,50,49,1,,,,,,,,,,,,,,,,,,,,,,,,,,,,,,,,,,,,,,,,,,,,,,,,,,,,,,,,,,,,,,,,,,,,,,
,,?,0.00098,0,,,,,,stimuli/images/PICTURE_57.png,MOMENT,5d33ff76f665c6001ab9aa1e,19/04/1994,2020-07-08_18h53.29.406,proactive,2020.1.2,Win32,60,5f035e5afe130c270d6ae6dd,5f05ebd798000b0d6563a269,2,,,,,,stamp,,,,,,,,,,,4,1,0,51,51,37,1,,,,,,,,,,,,,,,,,,,,,,,,,,,,,,,,,,,,,,,,,,,,,,,,,,,,,,,,,,,,,,,,,,,,,,
,,?,0.00087,0,,,,,,stimuli/images/PICTURE_380.png,CANDY,5d33ff76f665c6001ab9aa1e,19/04/1994,2020-07-08_18h53.29.406,proactive,2020.1.2,Win32,60,5f035e5afe130c270d6ae6dd,5f05ebd798000b0d6563a269,2,,,,,,gorilla,,,,,,,,,,,1,1,0,52,52,0,1,,,,,,,,,,,,,,,,,,,,,,,,,,,,,,,,,,,,,,,,,,,,,,,,,,,,,,,,,,,,,,,,,,,,,,
,,?,0.00086,0,,,,,,stimuli/images/PICTURE_95.png,BOYS,5d33ff76f665c6001ab9aa1e,19/04/1994,2020-07-08_18h53.29.406,proactive,2020.1.2,Win32,60,5f035e5afe130c270d6ae6dd,5f05ebd798000b0d6563a269,2,,,,,,suitcase,,,,,,,,,,,1,1,0,53,53,1,1,,,,,,,,,,,,,,,,,,,,,,,,,,,,,,,,,,,,,,,,,,,,,,,,,,,,,,,,,,,,,,,,,,,,,,
,,FLIGHT,10.000915,1,,,,,,stimuli/images/PICTURE_2.png,FLIGHT,5d33ff76f665c6001ab9aa1e,19/04/1994,2020-07-08_18h53.29.406,proactive,2020.1.2,Win32,60,5f035e5afe130c270d6ae6dd,5f05ebd798000b0d6563a269,2,,,,,,tyre,,,,,,,,,,,2,1,0,54,54,15,1,,,,,,,,,,,,,,,,,,,,,,,,,,,,,,,,,,,,,,,,,,,,,,,,,,,,,,,,,,,,,,,,,,,,,,
,,?,0.000835,0,,,,,,stimuli/images/PICTURE_403.png,WRITER,5d33ff76f665c6001ab9aa1e,19/04/1994,2020-07-08_18h53.29.406,proactive,2020.1.2,Win32,60,5f035e5afe130c270d6ae6dd,5f05ebd798000b0d6563a269,2,,,,,,cathedral,,,,,,,,,,,4,1,0,55,55,31,1,,,,,,,,,,,,,,,,,,,,,,,,,,,,,,,,,,,,,,,,,,,,,,,,,,,,,,,,,,,,,,,,,,,,,,
,,?,0.0005,0,,,,,,stimuli/images/PICTURE_654.png,MONTH,5d33ff76f665c6001ab9aa1e,19/04/1994,2020-07-08_18h53.29.406,proactive,2020.1.2,Win32,60,5f035e5afe130c270d6ae6dd,5f05ebd798000b0d6563a269,2,,,,,,pencil,,,,,,,,,,,3,1,0,56,56,29,1,,,,,,,,,,,,,,,,,,,,,,,,,,,,,,,,,,,,,,,,,,,,,,,,,,,,,,,,,,,,,,,,,,,,,,
,,?,0.000505,0,,,,,,stimuli/images/PICTURE_85.png,TOILET,5d33ff76f665c6001ab9aa1e,19/04/1994,2020-07-08_18h53.29.406,proactive,2020.1.2,Win32,60,5f035e5afe130c270d6ae6dd,5f05ebd798000b0d6563a269,2,,,,,,diamond,,,,,,,,,,,5,1,0,57,57,48,1,,,,,,,,,,,,,,,,,,,,,,,,,,,,,,,,,,,,,,,,,,,,,,,,,,,,,,,,,,,,,,,,,,,,,,
,,?,0.00051,0,,,,,,stimuli/images/PICTURE_233.png,LOTS,5d33ff76f665c6001ab9aa1e,19/04/1994,2020-07-08_18h53.29.406,proactive,2020.1.2,Win32,60,5f035e5afe130c270d6ae6dd,5f05ebd798000b0d6563a269,2,,,,,,salt,,,,,,,,,,,5,1,0,58,58,42,1,,,,,,,,,,,,,,,,,,,,,,,,,,,,,,,,,,,,,,,,,,,,,,,,,,,,,,,,,,,,,,,,,,,,,,
,,?,0.00053,0,,,,,,stimuli/images/PICTURE_403.png,RIVER,5d33ff76f665c6001ab9aa1e,19/04/1994,2020-07-08_18h53.29.406,proactive,2020.1.2,Win32,60,5f035e5afe130c270d6ae6dd,5f05ebd798000b0d6563a269,2,,,,,,cathedral,,,,,,,,,,,5,1,0,59,59,40,1,,,,,,,,,,,,,,,,,,,,,,,,,,,,,,,,,,,,,,,,,,,,,,,,,,,,,,,,,,,,,,,,,,,,,,
,,,,,,,,,,,,5d33ff76f665c6001ab9aa1e,19/04/1994,2020-07-08_18h53.29.406,proactive,2020.1.2,Win32,60,5f035e5afe130c270d6ae6dd,5f05ebd798000b0d6563a269,2,,,,,,,,,,,,,,,,,,,,,,,,0,1,1,1,1,stimuli/learn-block2.csv,,,,,,,,,,,,,,,,,,,,,,,,,,,,,,,,,,,,,,,,,,,,,,,,,,,,,,,,,,,,,,,,
,,,,,,,,,,stimuli/images/PICTURE_215.png,BOYS,5d33ff76f665c6001ab9aa1e,19/04/1994,2020-07-08_18h53.29.406,proactive,2020.1.2,Win32,60,5f035e5afe130c270d6ae6dd,5f05ebd798000b0d6563a269,2,,,,,,boot,,,,,,0,0,0,24,1,3,2,,,,,,,,,,,,,,,,,,,,,,,,,,,,,,,,,,,,,,,,,,,,,,,,,,,,,,,,,,,,,,,,,,,,,,,,,,,
,,,,,,,,,,stimuli/images/PICTURE_491.png,SERIES,5d33ff76f665c6001ab9aa1e,19/04/1994,2020-07-08_18h53.29.406,proactive,2020.1.2,Win32,60,5f035e5afe130c270d6ae6dd,5f05ebd798000b0d6563a269,2,,,,,,rug,,,,,,0,1,1,39,1,4,2,,,,,,,,,,,,,,,,,,,,,,,,,,,,,,,,,,,,,,,,,,,,,,,,,,,,,,,,,,,,,,,,,,,,,,,,,,,
,,,,,,,,,,stimuli/images/PICTURE_509.png,BATH,5d33ff76f665c6001ab9aa1e,19/04/1994,2020-07-08_18h53.29.406,proactive,2020.1.2,Win32,60,5f035e5afe130c270d6ae6dd,5f05ebd798000b0d6563a269,2,,,,,,telephone,,,,,,0,2,2,15,1,2,2,,,,,,,,,,,,,,,,,,,,,,,,,,,,,,,,,,,,,,,,,,,,,,,,,,,,,,,,,,,,,,,,,,,,,,,,,,,
,,,,,,,,,,stimuli/images/PICTURE_487.png,ROOF,5d33ff76f665c6001ab9aa1e,19/04/1994,2020-07-08_18h53.29.406,proactive,2020.1.2,Win32,60,5f035e5afe130c270d6ae6dd,5f05ebd798000b0d6563a269,2,,,,,,basket,,,,,,0,3,3,50,1,6,2,,,,,,,,,,,,,,,,,,,,,,,,,,,,,,,,,,,,,,,,,,,,,,,,,,,,,,,,,,,,,,,,,,,,,,,,,,,
,,,,,,,,,,stimuli/images/PICTURE_208.png,SPIRIT,5d33ff76f665c6001ab9aa1e,19/04/1994,2020-07-08_18h53.29.406,proactive,2020.1.2,Win32,60,5f035e5afe130c270d6ae6dd,5f05ebd798000b0d6563a269,2,,,,,,microphone,,,,,,0,4,4,28,1,3,2,,,,,,,,,,,,,,,,,,,,,,,,,,,,,,,,,,,,,,,,,,,,,,,,,,,,,,,,,,,,,,,,,,,,,,,,,,,
,,,,,,,,,,stimuli/images/PICTURE_487.png,POLICY,5d33ff76f665c6001ab9aa1e,19/04/1994,2020-07-08_18h53.29.406,proactive,2020.1.2,Win32,60,5f035e5afe130c270d6ae6dd,5f05ebd798000b0d6563a269,2,,,,,,basket,,,,,,0,5,5,34,1,4,2,,,,,,,,,,,,,,,,,,,,,,,,,,,,,,,,,,,,,,,,,,,,,,,,,,,,,,,,,,,,,,,,,,,,,,,,,,,
,,,,,,,,,,stimuli/images/PICTURE_453.png,FAMILY,5d33ff76f665c6001ab9aa1e,19/04/1994,2020-07-08_18h53.29.406,proactive,2020.1.2,Win32,60,5f035e5afe130c270d6ae6dd,5f05ebd798000b0d6563a269,2,,,,,,scissors,,,,,,0,6,6,48,1,5,2,,,,,,,,,,,,,,,,,,,,,,,,,,,,,,,,,,,,,,,,,,,,,,,,,,,,,,,,,,,,,,,,,,,,,,,,,,,
,,,,,,,,,,stimuli/images/PICTURE_509.png,SHOTS,5d33ff76f665c6001ab9aa1e,19/04/1994,2020-07-08_18h53.29.406,proactive,2020.1.2,Win32,60,5f035e5afe130c270d6ae6dd,5f05ebd798000b0d6563a269,2,,,,,,telephone,,,,,,0,7,7,7,1,1,2,,,,,,,,,,,,,,,,,,,,,,,,,,,,,,,,,,,,,,,,,,,,,,,,,,,,,,,,,,,,,,,,,,,,,,,,,,,
,,,,,,,,,,stimuli/images/PICTURE_504.png,HOUSE,5d33ff76f665c6001ab9aa1e,19/04/1994,2020-07-08_18h53.29.406,proactive,2020.1.2,Win32,60,5f035e5afe130c270d6ae6dd,5f05ebd798000b0d6563a269,2,,,,,,wheel,,,,,,0,8,8,36,1,4,2,,,,,,,,,,,,,,,,,,,,,,,,,,,,,,,,,,,,,,,,,,,,,,,,,,,,,,,,,,,,,,,,,,,,,,,,,,,
,,,,,,,,,,stimuli/images/PICTURE_311.png,TOILET,5d33ff76f665c6001ab9aa1e,19/04/1994,2020-07-08_18h53.29.406,proactive,2020.1.2,Win32,60,5f035e5afe130c270d6ae6dd,5f05ebd798000b0d6563a269,2,,,,,,razor,,,,,,0,9,9,54,1,6,2,,,,,,,,,,,,,,,,,,,,,,,,,,,,,,,,,,,,,,,,,,,,,,,,,,,,,,,,,,,,,,,,,,,,,,,,,,,
,,,,,,,,,,stimuli/images/PICTURE_509.png,MILLER,5d33ff76f665c6001ab9aa1e,19/04/1994,2020-07-08_18h53.29.406,proactive,2020.1.2,Win32,60,5f035e5afe130c270d6ae6dd,5f05ebd798000b0d6563a269,2,,,,,,telephone,,,,,,0,10,10,49,1,5,2,,,,,,,,,,,,,,,,,,,,,,,,,,,,,,,,,,,,,,,,,,,,,,,,,,,,,,,,,,,,,,,,,,,,,,,,,,,
,,,,,,,,,,stimuli/images/PICTURE_311.png,FLESH,5d33ff76f665c6001ab9aa1e,19/04/1994,2020-07-08_18h53.29.406,proactive,2020.1.2,Win32,60,5f035e5afe130c270d6ae6dd,5f05ebd798000b0d6563a269,2,,,,,,razor,,,,,,0,11,11,3,1,1,2,,,,,,,,,,,,,,,,,,,,,,,,,,,,,,,,,,,,,,,,,,,,,,,,,,,,,,,,,,,,,,,,,,,,,,,,,,,
,,,,,,,,,,stimuli/images/PICTURE_692.png,DUDE,5d33ff76f665c6001ab9aa1e,19/04/1994,2020-07-08_18h53.29.406,proactive,2020.1.2,Win32,60,5f035e5afe130c270d6ae6dd,5f05ebd798000b0d6563a269,2,,,,,,cherry,,,,,,0,12,12,47,1,5,2,,,,,,,,,,,,,,,,,,,,,,,,,,,,,,,,,,,,,,,,,,,,,,,,,,,,,,,,,,,,,,,,,,,,,,,,,,,
,,,,,,,,,,stimuli/images/PICTURE_403.png,FAMILY,5d33ff76f665c6001ab9aa1e,19/04/1994,2020-07-08_18h53.29.406,proactive,2020.1.2,Win32,60,5f035e5afe130c270d6ae6dd,5f05ebd798000b0d6563a269,2,,,,,,cathedral,,,,,,0,13,13,9,1,1,2,,,,,,,,,,,,,,,,,,,,,,,,,,,,,,,,,,,,,,,,,,,,,,,,,,,,,,,,,,,,,,,,,,,,,,,,,,,
,,,,,,,,,,stimuli/images/PICTURE_57.png,NATION,5d33ff76f665c6001ab9aa1e,19/04/1994,2020-07-08_18h53.29.406,proactive,2020.1.2,Win32,60,5f035e5afe130c270d6ae6dd,5f05ebd798000b0d6563a269,2,,,,,,stamp,,,,,,0,14,14,21,1,3,2,,,,,,,,,,,,,,,,,,,,,,,,,,,,,,,,,,,,,,,,,,,,,,,,,,,,,,,,,,,,,,,,,,,,,,,,,,,
,,,,,,,,,,stimuli/images/PICTURE_327.png,LEADER,5d33ff76f665c6001ab9aa1e,19/04/1994,2020-07-08_18h53.29.406,proactive,2020.1.2,Win32,60,5f035e5afe130c270d6ae6dd,5f05ebd798000b0d6563a269,2,,,,,,helmet,,,,,,0,15,15,17,1,2,2,,,,,,,,,,,,,,,,,,,,,,,,,,,,,,,,,,,,,,,,,,,,,,,,,,,,,,,,,,,,,,,,,,,,,,,,,,,
,,,,,,,,,,stimuli/images/PICTURE_95.png,NIGHT,5d33ff76f665c6001ab9aa1e,19/04/1994,2020-07-08_18h53.29.406,proactive,2020.1.2,Win32,60,5f035e5afe130c270d6ae6dd,5f05ebd798000b0d6563a269,2,,,,,,suitcase,,,,,,0,16,16,37,1,4,2,,,,,,,,,,,,,,,,,,,,,,,,,,,,,,,,,,,,,,,,,,,,,,,,,,,,,,,,,,,,,,,,,,,,,,,,,,,
,,,,,,,,,,stimuli/images/PICTURE_348.png,DUDE,5d33ff76f665c6001ab9aa1e,19/04/1994,2020-07-08_18h53.29.406,proactive,2020.1.2,Win32,60,5f035e5afe130c270d6ae6dd,5f05ebd798000b0d6563a269,2,,,,,,pepper,,,,,,0,17,17,59,1,6,2,,,,,,,,,,,,,,,,,,,,,,,,,,,,,,,,,,,,,,,,,,,,,,,,,,,,,,,,,,,,,,,,,,,,,,,,,,,
,,,,,,,,,,stimuli/images/PICTURE_348.png,TOILET,5d33ff76f665c6001ab9aa1e,19/04/1994,2020-07-08_18h53.29.406,proactive,2020.1.2,Win32,60,5f035e5afe130c270d6ae6dd,5f05ebd798000b0d6563a269,2,,,,,,pepper,,,,,,0,18,18,4,1,1,2,,,,,,,,,,,,,,,,,,,,,,,,,,,,,,,,,,,,,,,,,,,,,,,,,,,,,,,,,,,,,,,,,,,,,,,,,,,
,,,,,,,,,,stimuli/images/PICTURE_2.png,JUNGLE,5d33ff76f665c6001ab9aa1e,19/04/1994,2020-07-08_18h53.29.406,proactive,2020.1.2,Win32,60,5f035e5afe130c270d6ae6dd,5f05ebd798000b0d6563a269,2,,,,,,tyre,,,,,,0,19,19,1,1,1,2,,,,,,,,,,,,,,,,,,,,,,,,,,,,,,,,,,,,,,,,,,,,,,,,,,,,,,,,,,,,,,,,,,,,,,,,,,,
,,,,,,,,,,stimuli/images/PICTURE_750.png,POLICY,5d33ff76f665c6001ab9aa1e,19/04/1994,2020-07-08_18h53.29.406,proactive,2020.1.2,Win32,60,5f035e5afe130c270d6ae6dd,5f05ebd798000b0d6563a269,2,,,,,,kettle,,,,,,0,20,20,44,1,5,2,,,,,,,,,,,,,,,,,,,,,,,,,,,,,,,,,,,,,,,,,,,,,,,,,,,,,,,,,,,,,,,,,,,,,,,,,,,
,,,,,,,,,,stimuli/images/PICTURE_18.png,RIVER,5d33ff76f665c6001ab9aa1e,19/04/1994,2020-07-08_18h53.29.406,proactive,2020.1.2,Win32,60,5f035e5afe130c270d6ae6dd,5f05ebd798000b0d6563a269,2,,,,,,planet,,,,,,0,21,21,22,1,3,2,,,,,,,,,,,,,,,,,,,,,,,,,,,,,,,,,,,,,,,,,,,,,,,,,,,,,,,,,,,,,,,,,,,,,,,,,,,
,,,,,,,,,,stimuli/images/PICTURE_667.png,GLASS,5d33ff76f665c6001ab9aa1e,19/04/1994,2020-07-08_18h53.29.406,proactive,2020.1.2,Win32,60,5f035e5afe130c270d6ae6dd,5f05ebd798000b0d6563a269,2,,,,,,daisy,,,,,,0,22,22,27,1,3,2,,,,,,,,,,,,,,,,,,,,,,,,,,,,,,,,,,,,,,,,,,,,,,,,,,,,,,,,,,,,,,,,,,,,,,,,,,,
,,,,,,,,,,stimuli/images/PICTURE_33.png,COPS,5d33ff76f665c6001ab9aa1e,19/04/1994,2020-07-08_18h53.29.406,proactive,2020.1.2,Win32,60,5f035e5afe130c270d6ae6dd,5f05ebd798000b0d6563a269,2,,,,,,frame,,,,,,0,23,23,29,1,3,2,,,,,,,,,,,,,,,,,,,,,,,,,,,,,,,,,,,,,,,,,,,,,,,,,,,,,,,,,,,,,,,,,,,,,,,,,,,
,,,,,,,,,,stimuli/images/PICTURE_141.png,CLIENT,5d33ff76f665c6001ab9aa1e,19/04/1994,2020-07-08_18h53.29.406,proactive,2020.1.2,Win32,60,5f035e5afe130c270d6ae6dd,5f05ebd798000b0d6563a269,2,,,,,,sunflower,,,,,,0,24,24,30,1,4,2,,,,,,,,,,,,,,,,,,,,,,,,,,,,,,,,,,,,,,,,,,,,,,,,,,,,,,,,,,,,,,,,,,,,,,,,,,,
,,,,,,,,,,stimuli/images/PICTURE_285.png,WRITER,5d33ff76f665c6001ab9aa1e,19/04/1994,2020-07-08_18h53.29.406,proactive,2020.1.2,Win32,60,5f035e5afe130c270d6ae6dd,5f05ebd798000b0d6563a269,2,,,,,,carrot,,,,,,0,25,25,6,1,1,2,,,,,,,,,,,,,,,,,,,,,,,,,,,,,,,,,,,,,,,,,,,,,,,,,,,,,,,,,,,,,,,,,,,,,,,,,,,
,,,,,,,,,,stimuli/images/PICTURE_32.png,LETTER,5d33ff76f665c6001ab9aa1e,19/04/1994,2020-07-08_18h53.29.406,proactive,2020.1.2,Win32,60,5f035e5afe130c270d6ae6dd,5f05ebd798000b0d6563a269,2,,,,,,crown,,,,,,0,26,26,56,1,6,2,,,,,,,,,,,,,,,,,,,,,,,,,,,,,,,,,,,,,,,,,,,,,,,,,,,,,,,,,,,,,,,,,,,,,,,,,,,
,,,,,,,,,,stimuli/images/PICTURE_470.png,BEAUTY,5d33ff76f665c6001ab9aa1e,19/04/1994,2020-07-08_18h53.29.406,proactive,2020.1.2,Win32,60,5f035e5afe130c270d6ae6dd,5f05ebd798000b0d6563a269,2,,,,,,motorbike,,,,,,0,27,27,26,1,3,2,,,,,,,,,,,,,,,,,,,,,,,,,,,,,,,,,,,,,,,,,,,,,,,,,,,,,,,,,,,,,,,,,,,,,,,,,,,
,,,,,,,,,,stimuli/images/PICTURE_708.png,VALLEY,5d33ff76f665c6001ab9aa1e,19/04/1994,2020-07-08_18h53.29.406,proactive,2020.1.2,Win32,60,5f035e5afe130c270d6ae6dd,5f05ebd798000b0d6563a269,2,,,,,,monkey,,,,,,0,28,28,45,1,5,2,,,,,,,,,,,,,,,,,,,,,,,,,,,,,,,,,,,,,,,,,,,,,,,,,,,,,,,,,,,,,,,,,,,,,,,,,,,
,,,,,,,,,,stimuli/images/PICTURE_654.png,COPS,5d33ff76f665c6001ab9aa1e,19/04/1994,2020-07-08_18h53.29.406,proactive,2020.1.2,Win32,60,5f035e5afe130c270d6ae6dd,5f05ebd798000b0d6563a269,2,,,,,,pencil,,,,,,0,29,29,10,1,2,2,,,,,,,,,,,,,,,,,,,,,,,,,,,,,,,,,,,,,,,,,,,,,,,,,,,,,,,,,,,,,,,,,,,,,,,,,,,
,,,,,,,,,,stimuli/images/PICTURE_677.png,FAMILY,5d33ff76f665c6001ab9aa1e,19/04/1994,2020-07-08_18h53.29.406,proactive,2020.1.2,Win32,60,5f035e5afe130c270d6ae6dd,5f05ebd798000b0d6563a269,2,,,,,,map,,,,,,0,30,30,53,1,6,2,,,,,,,,,,,,,,,,,,,,,,,,,,,,,,,,,,,,,,,,,,,,,,,,,,,,,,,,,,,,,,,,,,,,,,,,,,,
,,,,,,,,,,stimuli/images/PICTURE_285.png,PRINCE,5d33ff76f665c6001ab9aa1e,19/04/1994,2020-07-08_18h53.29.406,proactive,2020.1.2,Win32,60,5f035e5afe130c270d6ae6dd,5f05ebd798000b0d6563a269,2,,,,,,carrot,,,,,,0,31,31,20,1,3,2,,,,,,,,,,,,,,,,,,,,,,,,,,,,,,,,,,,,,,,,,,,,,,,,,,,,,,,,,,,,,,,,,,,,,,,,,,,
,,,,,,,,,,stimuli/images/PICTURE_654.png,YEAR,5d33ff76f665c6001ab9aa1e,19/04/1994,2020-07-08_18h53.29.406,proactive,2020.1.2,Win32,60,5f035e5afe130c270d6ae6dd,5f05ebd798000b0d6563a269,2,,,,,,pencil,,,,,,0,32,32,41,1,5,2,,,,,,,,,,,,,,,,,,,,,,,,,,,,,,,,,,,,,,,,,,,,,,,,,,,,,,,,,,,,,,,,,,,,,,,,,,,
,,,,,,,,,,stimuli/images/PICTURE_470.png,MOMENT,5d33ff76f665c6001ab9aa1e,19/04/1994,2020-07-08_18h53.29.406,proactive,2020.1.2,Win32,60,5f035e5afe130c270d6ae6dd,5f05ebd798000b0d6563a269,2,,,,,,motorbike,,,,,,0,33,33,40,1,5,2,,,,,,,,,,,,,,,,,,,,,,,,,,,,,,,,,,,,,,,,,,,,,,,,,,,,,,,,,,,,,,,,,,,,,,,,,,,
,,,,,,,,,,stimuli/images/PICTURE_509.png,APPLE,5d33ff76f665c6001ab9aa1e,19/04/1994,2020-07-08_18h53.29.406,proactive,2020.1.2,Win32,60,5f035e5afe130c270d6ae6dd,5f05ebd798000b0d6563a269,2,,,,,,telephone,,,,,,0,34,34,38,1,4,2,,,,,,,,,,,,,,,,,,,,,,,,,,,,,,,,,,,,,,,,,,,,,,,,,,,,,,,,,,,,,,,,,,,,,,,,,,,
,,,,,,,,,,stimuli/images/PICTURE_160.png,HOTEL,5d33ff76f665c6001ab9aa1e,19/04/1994,2020-07-08_18h53.29.406,proactive,2020.1.2,Win32,60,5f035e5afe130c270d6ae6dd,5f05ebd798000b0d6563a269,2,,,,,,wheelbarrow,,,,,,0,35,35,16,1,2,2,,,,,,,,,,,,,,,,,,,,,,,,,,,,,,,,,,,,,,,,,,,,,,,,,,,,,,,,,,,,,,,,,,,,,,,,,,,
,,,,,,,,,,stimuli/images/PICTURE_297.png,BODY,5d33ff76f665c6001ab9aa1e,19/04/1994,2020-07-08_18h53.29.406,proactive,2020.1.2,Win32,60,5f035e5afe130c270d6ae6dd,5f05ebd798000b0d6563a269,2,,,,,,aeroplane,,,,,,0,36,36,51,1,6,2,,,,,,,,,,,,,,,,,,,,,,,,,,,,,,,,,,,,,,,,,,,,,,,,,,,,,,,,,,,,,,,,,,,,,,,,,,,
,,,,,,,,,,stimuli/images/PICTURE_215.png,FOOD,5d33ff76f665c6001ab9aa1e,19/04/1994,2020-07-08_18h53.29.406,proactive,2020.1.2,Win32,60,5f035e5afe130c270d6ae6dd,5f05ebd798000b0d6563a269,2,,,,,,boot,,,,,,0,37,37,5,1,1,2,,,,,,,,,,,,,,,,,,,,,,,,,,,,,,,,,,,,,,,,,,,,,,,,,,,,,,,,,,,,,,,,,,,,,,,,,,,
,,,,,,,,,,stimuli/images/PICTURE_68.png,KIND,5d33ff76f665c6001ab9aa1e,19/04/1994,2020-07-08_18h53.29.406,proactive,2020.1.2,Win32,60,5f035e5afe130c270d6ae6dd,5f05ebd798000b0d6563a269,2,,,,,,candle,,,,,,0,38,38,23,1,3,2,,,,,,,,,,,,,,,,,,,,,,,,,,,,,,,,,,,,,,,,,,,,,,,,,,,,,,,,,,,,,,,,,,,,,,,,,,,
,,,,,,,,,,stimuli/images/PICTURE_123.png,SALE,5d33ff76f665c6001ab9aa1e,19/04/1994,2020-07-08_18h53.29.406,proactive,2020.1.2,Win32,60,5f035e5afe130c270d6ae6dd,5f05ebd798000b0d6563a269,2,,,,,,dart,,,,,,0,39,39,8,1,1,2,,,,,,,,,,,,,,,,,,,,,,,,,,,,,,,,,,,,,,,,,,,,,,,,,,,,,,,,,,,,,,,,,,,,,,,,,,,
,,,,,,,,,,stimuli/images/PICTURE_296.png,CLOCK,5d33ff76f665c6001ab9aa1e,19/04/1994,2020-07-08_18h53.29.406,proactive,2020.1.2,Win32,60,5f035e5afe130c270d6ae6dd,5f05ebd798000b0d6563a269,2,,,,,,bolt,,,,,,0,40,40,18,1,2,2,,,,,,,,,,,,,,,,,,,,,,,,,,,,,,,,,,,,,,,,,,,,,,,,,,,,,,,,,,,,,,,,,,,,,,,,,,,
,,,,,,,,,,stimuli/images/PICTURE_2.png,YARD,5d33ff76f665c6001ab9aa1e,19/04/1994,2020-07-08_18h53.29.406,proactive,2020.1.2,Win32,60,5f035e5afe130c270d6ae6dd,5f05ebd798000b0d6563a269,2,,,,,,tyre,,,,,,0,41,41,55,1,6,2,,,,,,,,,,,,,,,,,,,,,,,,,,,,,,,,,,,,,,,,,,,,,,,,,,,,,,,,,,,,,,,,,,,,,,,,,,,
,,,,,,,,,,stimuli/images/PICTURE_452.png,COPS,5d33ff76f665c6001ab9aa1e,19/04/1994,2020-07-08_18h53.29.406,proactive,2020.1.2,Win32,60,5f035e5afe130c270d6ae6dd,5f05ebd798000b0d6563a269,2,,,,,,watch,,,,,,0,42,42,0,1,1,2,,,,,,,,,,,,,,,,,,,,,,,,,,,,,,,,,,,,,,,,,,,,,,,,,,,,,,,,,,,,,,,,,,,,,,,,,,,
,,,,,,,,,,stimuli/images/PICTURE_314.png,SPEECH,5d33ff76f665c6001ab9aa1e,19/04/1994,2020-07-08_18h53.29.406,proactive,2020.1.2,Win32,60,5f035e5afe130c270d6ae6dd,5f05ebd798000b0d6563a269,2,,,,,,perfume,,,,,,0,43,43,35,1,4,2,,,,,,,,,,,,,,,,,,,,,,,,,,,,,,,,,,,,,,,,,,,,,,,,,,,,,,,,,,,,,,,,,,,,,,,,,,,
,,,,,,,,,,stimuli/images/PICTURE_57.png,CANDY,5d33ff76f665c6001ab9aa1e,19/04/1994,2020-07-08_18h53.29.406,proactive,2020.1.2,Win32,60,5f035e5afe130c270d6ae6dd,5f05ebd798000b0d6563a269,2,,,,,,stamp,,,,,,0,44,44,52,1,6,2,,,,,,,,,,,,,,,,,,,,,,,,,,,,,,,,,,,,,,,,,,,,,,,,,,,,,,,,,,,,,,,,,,,,,,,,,,,
,,,,,,,,,,stimuli/images/PICTURE_2.png,AREA,5d33ff76f665c6001ab9aa1e,19/04/1994,2020-07-08_18h53.29.406,proactive,2020.1.2,Win32,60,5f035e5afe130c270d6ae6dd,5f05ebd798000b0d6563a269,2,,,,,,tyre,,,,,,0,45,45,32,1,4,2,,,,,,,,,,,,,,,,,,,,,,,,,,,,,,,,,,,,,,,,,,,,,,,,,,,,,,,,,,,,,,,,,,,,,,,,,,,
,,,,,,,,,,stimuli/images/PICTURE_93.png,GIRL,5d33ff76f665c6001ab9aa1e,19/04/1994,2020-07-08_18h53.29.406,proactive,2020.1.2,Win32,60,5f035e5afe130c270d6ae6dd,5f05ebd798000b0d6563a269,2,,,,,,skateboard,,,,,,0,46,46,31,1,4,2,,,,,,,,,,,,,,,,,,,,,,,,,,,,,,,,,,,,,,,,,,,,,,,,,,,,,,,,,,,,,,,,,,,,,,,,,,,
,,,,,,,,,,stimuli/images/PICTURE_147.png,LEADER,5d33ff76f665c6001ab9aa1e,19/04/1994,2020-07-08_18h53.29.406,proactive,2020.1.2,Win32,60,5f035e5afe130c270d6ae6dd,5f05ebd798000b0d6563a269,2,,,,,,hanger,,,,,,0,47,47,33,1,4,2,,,,,,,,,,,,,,,,,,,,,,,,,,,,,,,,,,,,,,,,,,,,,,,,,,,,,,,,,,,,,,,,,,,,,,,,,,,
,,,,,,,,,,stimuli/images/PICTURE_405.png,JUNGLE,5d33ff76f665c6001ab9aa1e,19/04/1994,2020-07-08_18h53.29.406,proactive,2020.1.2,Win32,60,5f035e5afe130c270d6ae6dd,5f05ebd798000b0d6563a269,2,,,,,,anchor,,,,,,0,48,48,58,1,6,2,,,,,,,,,,,,,,,,,,,,,,,,,,,,,,,,,,,,,,,,,,,,,,,,,,,,,,,,,,,,,,,,,,,,,,,,,,,
,,,,,,,,,,stimuli/images/PICTURE_405.png,HOUSE,5d33ff76f665c6001ab9aa1e,19/04/1994,2020-07-08_18h53.29.406,proactive,2020.1.2,Win32,60,5f035e5afe130c270d6ae6dd,5f05ebd798000b0d6563a269,2,,,,,,anchor,,,,,,0,49,49,2,1,1,2,,,,,,,,,,,,,,,,,,,,,,,,,,,,,,,,,,,,,,,,,,,,,,,,,,,,,,,,,,,,,,,,,,,,,,,,,,,
,,,,,,,,,,stimuli/images/PICTURE_215.png,LEADER,5d33ff76f665c6001ab9aa1e,19/04/1994,2020-07-08_18h53.29.406,proactive,2020.1.2,Win32,60,5f035e5afe130c270d6ae6dd,5f05ebd798000b0d6563a269,2,,,,,,boot,,,,,,0,50,50,43,1,5,2,,,,,,,,,,,,,,,,,,,,,,,,,,,,,,,,,,,,,,,,,,,,,,,,,,,,,,,,,,,,,,,,,,,,,,,,,,,
,,,,,,,,,,stimuli/images/PICTURE_255.png,PENNY,5d33ff76f665c6001ab9aa1e,19/04/1994,2020-07-08_18h53.29.406,proactive,2020.1.2,Win32,60,5f035e5afe130c270d6ae6dd,5f05ebd798000b0d6563a269,2,,,,,,shovel,,,,,,0,51,51,19,1,2,2,,,,,,,,,,,,,,,,,,,,,,,,,,,,,,,,,,,,,,,,,,,,,,,,,,,,,,,,,,,,,,,,,,,,,,,,,,,
,,,,,,,,,,stimuli/images/PICTURE_356.png,CANDY,5d33ff76f665c6001ab9aa1e,19/04/1994,2020-07-08_18h53.29.406,proactive,2020.1.2,Win32,60,5f035e5afe130c270d6ae6dd,5f05ebd798000b0d6563a269,2,,,,,,pawn,,,,,,0,52,52,46,1,5,2,,,,,,,,,,,,,,,,,,,,,,,,,,,,,,,,,,,,,,,,,,,,,,,,,,,,,,,,,,,,,,,,,,,,,,,,,,,
,,,,,,,,,,stimuli/images/PICTURE_677.png,PHOTO,5d33ff76f665c6001ab9aa1e,19/04/1994,2020-07-08_18h53.29.406,proactive,2020.1.2,Win32,60,5f035e5afe130c270d6ae6dd,5f05ebd798000b0d6563a269,2,,,,,,map,,,,,,0,53,53,14,1,2,2,,,,,,,,,,,,,,,,,,,,,,,,,,,,,,,,,,,,,,,,,,,,,,,,,,,,,,,,,,,,,,,,,,,,,,,,,,,
,,,,,,,,,,stimuli/images/PICTURE_177.png,HOUSE,5d33ff76f665c6001ab9aa1e,19/04/1994,2020-07-08_18h53.29.406,proactive,2020.1.2,Win32,60,5f035e5afe130c270d6ae6dd,5f05ebd798000b0d6563a269,2,,,,,,mushroom,,,,,,0,54,54,25,1,3,2,,,,,,,,,,,,,,,,,,,,,,,,,,,,,,,,,,,,,,,,,,,,,,,,,,,,,,,,,,,,,,,,,,,,,,,,,,,
,,,,,,,,,,stimuli/images/PICTURE_564.png,PLENTY,5d33ff76f665c6001ab9aa1e,19/04/1994,2020-07-08_18h53.29.406,proactive,2020.1.2,Win32,60,5f035e5afe130c270d6ae6dd,5f05ebd798000b0d6563a269,2,,,,,,spoon,,,,,,0,55,55,11,1,2,2,,,,,,,,,,,,,,,,,,,,,,,,,,,,,,,,,,,,,,,,,,,,,,,,,,,,,,,,,,,,,,,,,,,,,,,,,,,
,,,,,,,,,,stimuli/images/PICTURE_405.png,JUNGLE,5d33ff76f665c6001ab9aa1e,19/04/1994,2020-07-08_18h53.29.406,proactive,2020.1.2,Win32,60,5f035e5afe130c270d6ae6dd,5f05ebd798000b0d6563a269,2,,,,,,anchor,,,,,,0,56,56,13,1,2,2,,,,,,,,,,,,,,,,,,,,,,,,,,,,,,,,,,,,,,,,,,,,,,,,,,,,,,,,,,,,,,,,,,,,,,,,,,,
,,,,,,,,,,stimuli/images/PICTURE_688.png,CLOCK,5d33ff76f665c6001ab9aa1e,19/04/1994,2020-07-08_18h53.29.406,proactive,2020.1.2,Win32,60,5f035e5afe130c270d6ae6dd,5f05ebd798000b0d6563a269,2,,,,,,runner,,,,,,0,57,57,42,1,5,2,,,,,,,,,,,,,,,,,,,,,,,,,,,,,,,,,,,,,,,,,,,,,,,,,,,,,,,,,,,,,,,,,,,,,,,,,,,
,,,,,,,,,,stimuli/images/PICTURE_57.png,CASINO,5d33ff76f665c6001ab9aa1e,19/04/1994,2020-07-08_18h53.29.406,proactive,2020.1.2,Win32,60,5f035e5afe130c270d6ae6dd,5f05ebd798000b0d6563a269,2,,,,,,stamp,,,,,,0,58,58,12,1,2,2,,,,,,,,,,,,,,,,,,,,,,,,,,,,,,,,,,,,,,,,,,,,,,,,,,,,,,,,,,,,,,,,,,,,,,,,,,,
,,?,0.000845,0,,,,,,stimuli/images/PICTURE_215.png,FOOD,5d33ff76f665c6001ab9aa1e,19/04/1994,2020-07-08_18h53.29.406,proactive,2020.1.2,Win32,60,5f035e5afe130c270d6ae6dd,5f05ebd798000b0d6563a269,2,,,,,,boot,,,,,,,,,,,1,2,0,0,0,5,1,,,,,,,,,,,,,,,,,,,,,,,,,,,,,,,,,,,,,,,,,,,,,,,,,,,,,,,,,,,,,,,,,,,,,,
,,PENNY,10.00843,1,,,,,,stimuli/images/PICTURE_255.png,PENNY,5d33ff76f665c6001ab9aa1e,19/04/1994,2020-07-08_18h53.29.406,proactive,2020.1.2,Win32,60,5f035e5afe130c270d6ae6dd,5f05ebd798000b0d6563a269,2,,,,,,shovel,,,,,,,,,,,2,2,0,1,1,19,1,,,,,,,,,,,,,,,,,,,,,,,,,,,,,,,,,,,,,,,,,,,,,,,,,,,,,,,,,,,,,,,,,,,,,,
,,?,0.00124,0,,,,,,stimuli/images/PICTURE_285.png,PRINCE,5d33ff76f665c6001ab9aa1e,19/04/1994,2020-07-08_18h53.29.406,proactive,2020.1.2,Win32,60,5f035e5afe130c270d6ae6dd,5f05ebd798000b0d6563a269,2,,,,,,carrot,,,,,,,,,,,3,2,0,2,2,20,1,,,,,,,,,,,,,,,,,,,,,,,,,,,,,,,,,,,,,,,,,,,,,,,,,,,,,,,,,,,,,,,,,,,,,,
,,?,0.001045,0,,,,,,stimuli/images/PICTURE_655.png,SALE,5d33ff76f665c6001ab9aa1e,19/04/1994,2020-07-08_18h53.29.406,proactive,2020.1.2,Win32,60,5f035e5afe130c270d6ae6dd,5f05ebd798000b0d6563a269,2,,,,,,megaphone,,,,,,,,,,,6,2,0,3,3,57,1,,,,,,,,,,,,,,,,,,,,,,,,,,,,,,,,,,,,,,,,,,,,,,,,,,,,,,,,,,,,,,,,,,,,,,
,,?,0.001,0,,,,,,stimuli/images/PICTURE_93.png,GIRL,5d33ff76f665c6001ab9aa1e,19/04/1994,2020-07-08_18h53.29.406,proactive,2020.1.2,Win32,60,5f035e5afe130c270d6ae6dd,5f05ebd798000b0d6563a269,2,,,,,,skateboard,,,,,,,,,,,4,2,0,4,4,31,1,,,,,,,,,,,,,,,,,,,,,,,,,,,,,,,,,,,,,,,,,,,,,,,,,,,,,,,,,,,,,,,,,,,,,,
,,?,0.0017,0,,,,,,stimuli/images/PICTURE_215.png,BOYS,5d33ff76f665c6001ab9aa1e,19/04/1994,2020-07-08_18h53.29.406,proactive,2020.1.2,Win32,60,5f035e5afe130c270d6ae6dd,5f05ebd798000b0d6563a269,2,,,,,,boot,,,,,,,,,,,3,2,0,5,5,24,1,,,,,,,,,,,,,,,,,,,,,,,,,,,,,,,,,,,,,,,,,,,,,,,,,,,,,,,,,,,,,,,,,,,,,,
,,?,0.00102,0,,,,,,stimuli/images/PICTURE_504.png,HOUSE,5d33ff76f665c6001ab9aa1e,19/04/1994,2020-07-08_18h53.29.406,proactive,2020.1.2,Win32,60,5f035e5afe130c270d6ae6dd,5f05ebd798000b0d6563a269,2,,,,,,wheel,,,,,,,,,,,4,2,0,6,6,36,1,,,,,,,,,,,,,,,,,,,,,,,,,,,,,,,,,,,,,,,,,,,,,,,,,,,,,,,,,,,,,,,,,,,,,,
,,?,0.00142,0,,,,,,stimuli/images/PICTURE_57.png,NATION,5d33ff76f665c6001ab9aa1e,19/04/1994,2020-07-08_18h53.29.406,proactive,2020.1.2,Win32,60,5f035e5afe130c270d6ae6dd,5f05ebd798000b0d6563a269,2,,,,,,stamp,,,,,,,,,,,3,2,0,7,7,21,1,,,,,,,,,,,,,,,,,,,,,,,,,,,,,,,,,,,,,,,,,,,,,,,,,,,,,,,,,,,,,,,,,,,,,,
,,?,0.00103,0,,,,,,stimuli/images/PICTURE_750.png,POLICY,5d33ff76f665c6001ab9aa1e,19/04/1994,2020-07-08_18h53.29.406,proactive,2020.1.2,Win32,60,5f035e5afe130c270d6ae6dd,5f05ebd798000b0d6563a269,2,,,,,,kettle,,,,,,,,,,,5,2,0,8,8,44,1,,,,,,,,,,,,,,,,,,,,,,,,,,,,,,,,,,,,,,,,,,,,,,,,,,,,,,,,,,,,,,,,,,,,,,
,,?,0.001065,0,,,,,,stimuli/images/PICTURE_470.png,MOMENT,5d33ff76f665c6001ab9aa1e,19/04/1994,2020-07-08_18h53.29.406,proactive,2020.1.2,Win32,60,5f035e5afe130c270d6ae6dd,5f05ebd798000b0d6563a269,2,,,,,,motorbike,,,,,,,,,,,5,2,0,9,9,40,1,,,,,,,,,,,,,,,,,,,,,,,,,,,,,,,,,,,,,,,,,,,,,,,,,,,,,,,,,,,,,,,,,,,,,,
,,?,0.001075,0,,,,,,stimuli/images/PICTURE_215.png,LEADER,5d33ff76f665c6001ab9aa1e,19/04/1994,2020-07-08_18h53.29.406,proactive,2020.1.2,Win32,60,5f035e5afe130c270d6ae6dd,5f05ebd798000b0d6563a269,2,,,,,,boot,,,,,,,,,,,5,2,0,10,10,43,1,,,,,,,,,,,,,,,,,,,,,,,,,,,,,,,,,,,,,,,,,,,,,,,,,,,,,,,,,,,,,,,,,,,,,,
,,?,0.00111,0,,,,,,stimuli/images/PICTURE_141.png,CLIENT,5d33ff76f665c6001ab9aa1e,19/04/1994,2020-07-08_18h53.29.406,proactive,2020.1.2,Win32,60,5f035e5afe130c270d6ae6dd,5f05ebd798000b0d6563a269,2,,,,,,sunflower,,,,,,,,,,,4,2,0,11,11,30,1,,,,,,,,,,,,,,,,,,,,,,,,,,,,,,,,,,,,,,,,,,,,,,,,,,,,,,,,,,,,,,,,,,,,,,
,,?,0.00147,0,,,,,,stimuli/images/PICTURE_2.png,JUNGLE,5d33ff76f665c6001ab9aa1e,19/04/1994,2020-07-08_18h53.29.406,proactive,2020.1.2,Win32,60,5f035e5afe130c270d6ae6dd,5f05ebd798000b0d6563a269,2,,,,,,tyre,,,,,,,,,,,1,2,0,12,12,1,1,,,,,,,,,,,,,,,,,,,,,,,,,,,,,,,,,,,,,,,,,,,,,,,,,,,,,,,,,,,,,,,,,,,,,,
,,?,0.0007,0,,,,,,stimuli/images/PICTURE_297.png,BODY,5d33ff76f665c6001ab9aa1e,19/04/1994,2020-07-08_18h53.29.406,proactive,2020.1.2,Win32,60,5f035e5afe130c270d6ae6dd,5f05ebd798000b0d6563a269,2,,,,,,aeroplane,,,,,,,,,,,6,2,0,13,13,51,1,,,,,,,,,,,,,,,,,,,,,,,,,,,,,,,,,,,,,,,,,,,,,,,,,,,,,,,,,,,,,,,,,,,,,,
,,?,0.000635,0,,,,,,stimuli/images/PICTURE_708.png,VALLEY,5d33ff76f665c6001ab9aa1e,19/04/1994,2020-07-08_18h53.29.406,proactive,2020.1.2,Win32,60,5f035e5afe130c270d6ae6dd,5f05ebd798000b0d6563a269,2,,,,,,monkey,,,,,,,,,,,5,2,0,14,14,45,1,,,,,,,,,,,,,,,,,,,,,,,,,,,,,,,,,,,,,,,,,,,,,,,,,,,,,,,,,,,,,,,,,,,,,,
,,?,0.000615,0,,,,,,stimuli/images/PICTURE_403.png,FAMILY,5d33ff76f665c6001ab9aa1e,19/04/1994,2020-07-08_18h53.29.406,proactive,2020.1.2,Win32,60,5f035e5afe130c270d6ae6dd,5f05ebd798000b0d6563a269,2,,,,,,cathedral,,,,,,,,,,,1,2,0,15,15,9,1,,,,,,,,,,,,,,,,,,,,,,,,,,,,,,,,,,,,,,,,,,,,,,,,,,,,,,,,,,,,,,,,,,,,,,
,,?,0.000635,0,,,,,,stimuli/images/PICTURE_68.png,KIND,5d33ff76f665c6001ab9aa1e,19/04/1994,2020-07-08_18h53.29.406,proactive,2020.1.2,Win32,60,5f035e5afe130c270d6ae6dd,5f05ebd798000b0d6563a269,2,,,,,,candle,,,,,,,,,,,3,2,0,16,16,23,1,,,,,,,,,,,,,,,,,,,,,,,,,,,,,,,,,,,,,,,,,,,,,,,,,,,,,,,,,,,,,,,,,,,,,,
