consent_key.keys,consent_key.rt,recalled,recalled_rt,recall_acc,example_recall.thisRepN,example_recall.thisTrialN,example_recall.thisN,example_recall.thisIndex,example_recall.ran,file,word,participant,please enter your date of birth (dd/mm/yyyy),date,expName,psychopyVersion,OS,frameRate,STUDY_ID,SESSION_ID,list,prac_learn_study_loop.thisRepN,prac_learn_study_loop.thisTrialN,prac_learn_study_loop.thisN,prac_learn_study_loop.thisIndex,prac_learn_study_loop.ran,image,prac_learn_test_loop.thisRepN,prac_learn_test_loop.thisTrialN,prac_learn_test_loop.thisN,prac_learn_test_loop.thisIndex,prac_learn_test_loop.ran,learn_study_loop.thisRepN,learn_study_loop.thisTrialN,learn_study_loop.thisN,learn_study_loop.thisIndex,learn_study_loop.ran,list_no,block_no,learn_test_loop.thisRepN,learn_test_loop.thisTrialN,learn_test_loop.thisN,learn_test_loop.thisIndex,learn_test_loop.ran,learn_blocks.thisRepN,learn_blocks.thisTrialN,learn_blocks.thisN,learn_blocks.thisIndex,learn_blocks.ran,block_csv,key_resp_13.keys,key_resp_13.rt,learn_blocks_loop.thisRepN,learn_blocks_loop.thisTrialN,learn_blocks_loop.thisN,learn_blocks_loop.thisIndex,learn_blocks_loop.ran,final_learn_test.thisRepN,final_learn_test.thisTrialN,final_learn_test.thisN,final_learn_test.thisIndex,final_learn_test.ran,prac_wm_test_loop.thisRepN,prac_wm_test_loop.thisTrialN,prac_wm_test_loop.thisN,prac_wm_test_loop.thisIndex,prac_wm_test_loop.ran,wm_recalled1,wm_recall_rt1,wm_probed1,wm_recall_acc1,wm_recalled2,wm_recall_rt2,wm_probed2,wm_recall_acc2,wm_recalled3,wm_recall_rt3,wm_probed3,wm_recall_acc3,wm_recalled4,wm_recall_rt4,wm_probed4,wm_recall_acc4,prac_wm_trial_loop.thisRepN,prac_wm_trial_loop.thisTrialN,prac_wm_trial_loop.thisN,prac_wm_trial_loop.thisIndex,prac_wm_trial_loop.ran,word1,image1,file1,item_type1,word2,image2,file2,item_type2,word4,image4,file4,item_type4,word3,image3,file3,item_type3,wm_test_loop.thisRepN,wm_test_loop.thisTrialN,wm_test_loop.thisN,wm_test_loop.thisIndex,wm_test_loop.ran,wm_trial_loop.thisRepN,wm_trial_loop.thisTrialN,wm_trial_loop.thisN,wm_trial_loop.thisIndex,wm_trial_loop.ran
y,34.467085,BATH,5.727385,0,0,0,0,0,1,stimuli/images/PICTURE_747.png,TOUGH,5d4af58cf6cff50001f9cc0d,07/01/1990,2020-07-08_16h24.56.749,proactive,2020.1.2,MacIntel,60,5f035e5afe130c270d6ae6dd,5f05e4dd25ef0c0bf61fffa3,3,,,,,,,,,,,,,,,,,,,,,,,,,,,,,,,,,,,,,,,,,,,,,,,,,,,,,,,,,,,,,,,,,,,,,,,,,,,,,,,,,,,,,,,,,,,,,
,,,,,,,,,,stimuli/images/PICTURE_269.png,GENIUS,5d4af58cf6cff50001f9cc0d,07/01/1990,2020-07-08_16h24.56.749,proactive,2020.1.2,MacIntel,60,5f035e5afe130c270d6ae6dd,5f05e4dd25ef0c0bf61fffa3,3,0,0,0,0,1,chameleon,,,,,,,,,,,,,,,,,,,,,,,,,,,,,,,,,,,,,,,,,,,,,,,,,,,,,,,,,,,,,,,,,,,,,,,,,,,,,,,,,,,,,,,
,,,,,,,,,,stimuli/images/PICTURE_727.png,CELL,5d4af58cf6cff50001f9cc0d,07/01/1990,2020-07-08_16h24.56.749,proactive,2020.1.2,MacIntel,60,5f035e5afe130c270d6ae6dd,5f05e4dd25ef0c0bf61fffa3,3,0,1,1,1,1,hose,,,,,,,,,,,,,,,,,,,,,,,,,,,,,,,,,,,,,,,,,,,,,,,,,,,,,,,,,,,,,,,,,,,,,,,,,,,,,,,,,,,,,,,
,,,,,,,,,,stimuli/images/PICTURE_697.png,KILLER,5d4af58cf6cff50001f9cc0d,07/01/1990,2020-07-08_16h24.56.749,proactive,2020.1.2,MacIntel,60,5f035e5afe130c270d6ae6dd,5f05e4dd25ef0c0bf61fffa3,3,0,2,2,4,1,peach,,,,,,,,,,,,,,,,,,,,,,,,,,,,,,,,,,,,,,,,,,,,,,,,,,,,,,,,,,,,,,,,,,,,,,,,,,,,,,,,,,,,,,,
,,,,,,,,,,stimuli/images/PICTURE_658.png,DEVIL,5d4af58cf6cff50001f9cc0d,07/01/1990,2020-07-08_16h24.56.749,proactive,2020.1.2,MacIntel,60,5f035e5afe130c270d6ae6dd,5f05e4dd25ef0c0bf61fffa3,3,0,3,3,3,1,crow,,,,,,,,,,,,,,,,,,,,,,,,,,,,,,,,,,,,,,,,,,,,,,,,,,,,,,,,,,,,,,,,,,,,,,,,,,,,,,,,,,,,,,,
,,DEVIL,2.132495,1,,,,,,stimuli/images/PICTURE_658.png,DEVIL,5d4af58cf6cff50001f9cc0d,07/01/1990,2020-07-08_16h24.56.749,proactive,2020.1.2,MacIntel,60,5f035e5afe130c270d6ae6dd,5f05e4dd25ef0c0bf61fffa3,3,,,,,,crow,0,0,0,3,1,,,,,,,,,,,,,,,,,,,,,,,,,,,,,,,,,,,,,,,,,,,,,,,,,,,,,,,,,,,,,,,,,,,,,,,,,,,,,,,,,,
,,C,10.014695,0,,,,,,stimuli/images/PICTURE_727.png,CELL,5d4af58cf6cff50001f9cc0d,07/01/1990,2020-07-08_16h24.56.749,proactive,2020.1.2,MacIntel,60,5f035e5afe130c270d6ae6dd,5f05e4dd25ef0c0bf61fffa3,3,,,,,,hose,0,1,1,1,1,,,,,,,,,,,,,,,,,,,,,,,,,,,,,,,,,,,,,,,,,,,,,,,,,,,,,,,,,,,,,,,,,,,,,,,,,,,,,,,,,,
,,LOSS,1.472775,1,,,,,,stimuli/images/PICTURE_378.png,LOSS,5d4af58cf6cff50001f9cc0d,07/01/1990,2020-07-08_16h24.56.749,proactive,2020.1.2,MacIntel,60,5f035e5afe130c270d6ae6dd,5f05e4dd25ef0c0bf61fffa3,3,,,,,,lobster,0,2,2,2,1,,,,,,,,,,,,,,,,,,,,,,,,,,,,,,,,,,,,,,,,,,,,,,,,,,,,,,,,,,,,,,,,,,,,,,,,,,,,,,,,,,
,,KILLER,1.81847,1,,,,,,stimuli/images/PICTURE_697.png,KILLER,5d4af58cf6cff50001f9cc0d,07/01/1990,2020-07-08_16h24.56.749,proactive,2020.1.2,MacIntel,60,5f035e5afe130c270d6ae6dd,5f05e4dd25ef0c0bf61fffa3,3,,,,,,peach,0,3,3,4,1,,,,,,,,,,,,,,,,,,,,,,,,,,,,,,,,,,,,,,,,,,,,,,,,,,,,,,,,,,,,,,,,,,,,,,,,,,,,,,,,,,
,,GENIUS,1.83576,1,,,,,,stimuli/images/PICTURE_269.png,GENIUS,5d4af58cf6cff50001f9cc0d,07/01/1990,2020-07-08_16h24.56.749,proactive,2020.1.2,MacIntel,60,5f035e5afe130c270d6ae6dd,5f05e4dd25ef0c0bf61fffa3,3,,,,,,chameleon,0,4,4,0,1,,,,,,,,,,,,,,,,,,,,,,,,,,,,,,,,,,,,,,,,,,,,,,,,,,,,,,,,,,,,,,,,,,,,,,,,,,,,,,,,,,
,,,,,,,,,,stimuli/images/PICTURE_215.png,FOOD,5d4af58cf6cff50001f9cc0d,07/01/1990,2020-07-08_16h24.56.749,proactive,2020.1.2,MacIntel,60,5f035e5afe130c270d6ae6dd,5f05e4dd25ef0c0bf61fffa3,3,,,,,,boot,,,,,,0,0,0,5,1,1,2,,,,,,,,,,,,,,,,,,,,,,,,,,,,,,,,,,,,,,,,,,,,,,,,,,,,,,,,,,,,,,,,,,,,,,,,,,,
,,,,,,,,,,stimuli/images/PICTURE_285.png,WRITER,5d4af58cf6cff50001f9cc0d,07/01/1990,2020-07-08_16h24.56.749,proactive,2020.1.2,MacIntel,60,5f035e5afe130c270d6ae6dd,5f05e4dd25ef0c0bf61fffa3,3,,,,,,carrot,,,,,,0,1,1,6,1,1,2,,,,,,,,,,,,,,,,,,,,,,,,,,,,,,,,,,,,,,,,,,,,,,,,,,,,,,,,,,,,,,,,,,,,,,,,,,,
,,,,,,,,,,stimuli/images/PICTURE_654.png,YEAR,5d4af58cf6cff50001f9cc0d,07/01/1990,2020-07-08_16h24.56.749,proactive,2020.1.2,MacIntel,60,5f035e5afe130c270d6ae6dd,5f05e4dd25ef0c0bf61fffa3,3,,,,,,pencil,,,,,,0,2,2,41,1,5,2,,,,,,,,,,,,,,,,,,,,,,,,,,,,,,,,,,,,,,,,,,,,,,,,,,,,,,,,,,,,,,,,,,,,,,,,,,,
,,,,,,,,,,stimuli/images/PICTURE_491.png,SERIES,5d4af58cf6cff50001f9cc0d,07/01/1990,2020-07-08_16h24.56.749,proactive,2020.1.2,MacIntel,60,5f035e5afe130c270d6ae6dd,5f05e4dd25ef0c0bf61fffa3,3,,,,,,rug,,,,,,0,3,3,39,1,4,2,,,,,,,,,,,,,,,,,,,,,,,,,,,,,,,,,,,,,,,,,,,,,,,,,,,,,,,,,,,,,,,,,,,,,,,,,,,
,,,,,,,,,,stimuli/images/PICTURE_147.png,LEADER,5d4af58cf6cff50001f9cc0d,07/01/1990,2020-07-08_16h24.56.749,proactive,2020.1.2,MacIntel,60,5f035e5afe130c270d6ae6dd,5f05e4dd25ef0c0bf61fffa3,3,,,,,,hanger,,,,,,0,4,4,33,1,4,2,,,,,,,,,,,,,,,,,,,,,,,,,,,,,,,,,,,,,,,,,,,,,,,,,,,,,,,,,,,,,,,,,,,,,,,,,,,
,,,,,,,,,,stimuli/images/PICTURE_667.png,GLASS,5d4af58cf6cff50001f9cc0d,07/01/1990,2020-07-08_16h24.56.749,proactive,2020.1.2,MacIntel,60,5f035e5afe130c270d6ae6dd,5f05e4dd25ef0c0bf61fffa3,3,,,,,,daisy,,,,,,0,5,5,27,1,3,2,,,,,,,,,,,,,,,,,,,,,,,,,,,,,,,,,,,,,,,,,,,,,,,,,,,,,,,,,,,,,,,,,,,,,,,,,,,
,,,,,,,,,,stimuli/images/PICTURE_57.png,CASINO,5d4af58cf6cff50001f9cc0d,07/01/1990,2020-07-08_16h24.56.749,proactive,2020.1.2,MacIntel,60,5f035e5afe130c270d6ae6dd,5f05e4dd25ef0c0bf61fffa3,3,,,,,,stamp,,,,,,0,6,6,12,1,2,2,,,,,,,,,,,,,,,,,,,,,,,,,,,,,,,,,,,,,,,,,,,,,,,,,,,,,,,,,,,,,,,,,,,,,,,,,,,
,,,,,,,,,,stimuli/images/PICTURE_215.png,LEADER,5d4af58cf6cff50001f9cc0d,07/01/1990,2020-07-08_16h24.56.749,proactive,2020.1.2,MacIntel,60,5f035e5afe130c270d6ae6dd,5f05e4dd25ef0c0bf61fffa3,3,,,,,,boot,,,,,,0,7,7,43,1,5,2,,,,,,,,,,,,,,,,,,,,,,,,,,,,,,,,,,,,,,,,,,,,,,,,,,,,,,,,,,,,,,,,,,,,,,,,,,,
,,,,,,,,,,stimuli/images/PICTURE_296.png,CLOCK,5d4af58cf6cff50001f9cc0d,07/01/1990,2020-07-08_16h24.56.749,proactive,2020.1.2,MacIntel,60,5f035e5afe130c270d6ae6dd,5f05e4dd25ef0c0bf61fffa3,3,,,,,,bolt,,,,,,0,8,8,18,1,2,2,,,,,,,,,,,,,,,,,,,,,,,,,,,,,,,,,,,,,,,,,,,,,,,,,,,,,,,,,,,,,,,,,,,,,,,,,,,
,,,,,,,,,,stimuli/images/PICTURE_177.png,HOUSE,5d4af58cf6cff50001f9cc0d,07/01/1990,2020-07-08_16h24.56.749,proactive,2020.1.2,MacIntel,60,5f035e5afe130c270d6ae6dd,5f05e4dd25ef0c0bf61fffa3,3,,,,,,mushroom,,,,,,0,9,9,25,1,3,2,,,,,,,,,,,,,,,,,,,,,,,,,,,,,,,,,,,,,,,,,,,,,,,,,,,,,,,,,,,,,,,,,,,,,,,,,,,
,,,,,,,,,,stimuli/images/PICTURE_208.png,SPIRIT,5d4af58cf6cff50001f9cc0d,07/01/1990,2020-07-08_16h24.56.749,proactive,2020.1.2,MacIntel,60,5f035e5afe130c270d6ae6dd,5f05e4dd25ef0c0bf61fffa3,3,,,,,,microphone,,,,,,0,10,10,28,1,3,2,,,,,,,,,,,,,,,,,,,,,,,,,,,,,,,,,,,,,,,,,,,,,,,,,,,,,,,,,,,,,,,,,,,,,,,,,,,
,,,,,,,,,,stimuli/images/PICTURE_160.png,HOTEL,5d4af58cf6cff50001f9cc0d,07/01/1990,2020-07-08_16h24.56.749,proactive,2020.1.2,MacIntel,60,5f035e5afe130c270d6ae6dd,5f05e4dd25ef0c0bf61fffa3,3,,,,,,wheelbarrow,,,,,,0,11,11,16,1,2,2,,,,,,,,,,,,,,,,,,,,,,,,,,,,,,,,,,,,,,,,,,,,,,,,,,,,,,,,,,,,,,,,,,,,,,,,,,,
,,,,,,,,,,stimuli/images/PICTURE_297.png,BODY,5d4af58cf6cff50001f9cc0d,07/01/1990,2020-07-08_16h24.56.749,proactive,2020.1.2,MacIntel,60,5f035e5afe130c270d6ae6dd,5f05e4dd25ef0c0bf61fffa3,3,,,,,,aeroplane,,,,,,0,12,12,51,1,6,2,,,,,,,,,,,,,,,,,,,,,,,,,,,,,,,,,,,,,,,,,,,,,,,,,,,,,,,,,,,,,,,,,,,,,,,,,,,
,,,,,,,,,,stimuli/images/PICTURE_32.png,LETTER,5d4af58cf6cff50001f9cc0d,07/01/1990,2020-07-08_16h24.56.749,proactive,2020.1.2,MacIntel,60,5f035e5afe130c270d6ae6dd,5f05e4dd25ef0c0bf61fffa3,3,,,,,,crown,,,,,,0,13,13,56,1,6,2,,,,,,,,,,,,,,,,,,,,,,,,,,,,,,,,,,,,,,,,,,,,,,,,,,,,,,,,,,,,,,,,,,,,,,,,,,,
,,,,,,,,,,stimuli/images/PICTURE_509.png,APPLE,5d4af58cf6cff50001f9cc0d,07/01/1990,2020-07-08_16h24.56.749,proactive,2020.1.2,MacIntel,60,5f035e5afe130c270d6ae6dd,5f05e4dd25ef0c0bf61fffa3,3,,,,,,telephone,,,,,,0,14,14,38,1,4,2,,,,,,,,,,,,,,,,,,,,,,,,,,,,,,,,,,,,,,,,,,,,,,,,,,,,,,,,,,,,,,,,,,,,,,,,,,,
,,,,,,,,,,stimuli/images/PICTURE_348.png,DUDE,5d4af58cf6cff50001f9cc0d,07/01/1990,2020-07-08_16h24.56.749,proactive,2020.1.2,MacIntel,60,5f035e5afe130c270d6ae6dd,5f05e4dd25ef0c0bf61fffa3,3,,,,,,pepper,,,,,,0,15,15,59,1,6,2,,,,,,,,,,,,,,,,,,,,,,,,,,,,,,,,,,,,,,,,,,,,,,,,,,,,,,,,,,,,,,,,,,,,,,,,,,,
,,,,,,,,,,stimuli/images/PICTURE_453.png,FAMILY,5d4af58cf6cff50001f9cc0d,07/01/1990,2020-07-08_16h24.56.749,proactive,2020.1.2,MacIntel,60,5f035e5afe130c270d6ae6dd,5f05e4dd25ef0c0bf61fffa3,3,,,,,,scissors,,,,,,0,16,16,48,1,5,2,,,,,,,,,,,,,,,,,,,,,,,,,,,,,,,,,,,,,,,,,,,,,,,,,,,,,,,,,,,,,,,,,,,,,,,,,,,
,,,,,,,,,,stimuli/images/PICTURE_57.png,NATION,5d4af58cf6cff50001f9cc0d,07/01/1990,2020-07-08_16h24.56.749,proactive,2020.1.2,MacIntel,60,5f035e5afe130c270d6ae6dd,5f05e4dd25ef0c0bf61fffa3,3,,,,,,stamp,,,,,,0,17,17,21,1,3,2,,,,,,,,,,,,,,,,,,,,,,,,,,,,,,,,,,,,,,,,,,,,,,,,,,,,,,,,,,,,,,,,,,,,,,,,,,,
,,,,,,,,,,stimuli/images/PICTURE_487.png,POLICY,5d4af58cf6cff50001f9cc0d,07/01/1990,2020-07-08_16h24.56.749,proactive,2020.1.2,MacIntel,60,5f035e5afe130c270d6ae6dd,5f05e4dd25ef0c0bf61fffa3,3,,,,,,basket,,,,,,0,18,18,34,1,4,2,,,,,,,,,,,,,,,,,,,,,,,,,,,,,,,,,,,,,,,,,,,,,,,,,,,,,,,,,,,,,,,,,,,,,,,,,,,
,,,,,,,,,,stimuli/images/PICTURE_692.png,DUDE,5d4af58cf6cff50001f9cc0d,07/01/1990,2020-07-08_16h24.56.749,proactive,2020.1.2,MacIntel,60,5f035e5afe130c270d6ae6dd,5f05e4dd25ef0c0bf61fffa3,3,,,,,,cherry,,,,,,0,19,19,47,1,5,2,,,,,,,,,,,,,,,,,,,,,,,,,,,,,,,,,,,,,,,,,,,,,,,,,,,,,,,,,,,,,,,,,,,,,,,,,,,
,,,,,,,,,,stimuli/images/PICTURE_57.png,CANDY,5d4af58cf6cff50001f9cc0d,07/01/1990,2020-07-08_16h24.56.749,proactive,2020.1.2,MacIntel,60,5f035e5afe130c270d6ae6dd,5f05e4dd25ef0c0bf61fffa3,3,,,,,,stamp,,,,,,0,20,20,52,1,6,2,,,,,,,,,,,,,,,,,,,,,,,,,,,,,,,,,,,,,,,,,,,,,,,,,,,,,,,,,,,,,,,,,,,,,,,,,,,
,,,,,,,,,,stimuli/images/PICTURE_655.png,SALE,5d4af58cf6cff50001f9cc0d,07/01/1990,2020-07-08_16h24.56.749,proactive,2020.1.2,MacIntel,60,5f035e5afe130c270d6ae6dd,5f05e4dd25ef0c0bf61fffa3,3,,,,,,megaphone,,,,,,0,21,21,57,1,6,2,,,,,,,,,,,,,,,,,,,,,,,,,,,,,,,,,,,,,,,,,,,,,,,,,,,,,,,,,,,,,,,,,,,,,,,,,,,
,,,,,,,,,,stimuli/images/PICTURE_509.png,SHOTS,5d4af58cf6cff50001f9cc0d,07/01/1990,2020-07-08_16h24.56.749,proactive,2020.1.2,MacIntel,60,5f035e5afe130c270d6ae6dd,5f05e4dd25ef0c0bf61fffa3,3,,,,,,telephone,,,,,,0,22,22,7,1,1,2,,,,,,,,,,,,,,,,,,,,,,,,,,,,,,,,,,,,,,,,,,,,,,,,,,,,,,,,,,,,,,,,,,,,,,,,,,,
,,,,,,,,,,stimuli/images/PICTURE_255.png,PENNY,5d4af58cf6cff50001f9cc0d,07/01/1990,2020-07-08_16h24.56.749,proactive,2020.1.2,MacIntel,60,5f035e5afe130c270d6ae6dd,5f05e4dd25ef0c0bf61fffa3,3,,,,,,shovel,,,,,,0,23,23,19,1,2,2,,,,,,,,,,,,,,,,,,,,,,,,,,,,,,,,,,,,,,,,,,,,,,,,,,,,,,,,,,,,,,,,,,,,,,,,,,,
,,,,,,,,,,stimuli/images/PICTURE_403.png,FAMILY,5d4af58cf6cff50001f9cc0d,07/01/1990,2020-07-08_16h24.56.749,proactive,2020.1.2,MacIntel,60,5f035e5afe130c270d6ae6dd,5f05e4dd25ef0c0bf61fffa3,3,,,,,,cathedral,,,,,,0,24,24,9,1,1,2,,,,,,,,,,,,,,,,,,,,,,,,,,,,,,,,,,,,,,,,,,,,,,,,,,,,,,,,,,,,,,,,,,,,,,,,,,,
,,,,,,,,,,stimuli/images/PICTURE_750.png,POLICY,5d4af58cf6cff50001f9cc0d,07/01/1990,2020-07-08_16h24.56.749,proactive,2020.1.2,MacIntel,60,5f035e5afe130c270d6ae6dd,5f05e4dd25ef0c0bf61fffa3,3,,,,,,kettle,,,,,,0,25,25,44,1,5,2,,,,,,,,,,,,,,,,,,,,,,,,,,,,,,,,,,,,,,,,,,,,,,,,,,,,,,,,,,,,,,,,,,,,,,,,,,,
,,,,,,,,,,stimuli/images/PICTURE_95.png,NIGHT,5d4af58cf6cff50001f9cc0d,07/01/1990,2020-07-08_16h24.56.749,proactive,2020.1.2,MacIntel,60,5f035e5afe130c270d6ae6dd,5f05e4dd25ef0c0bf61fffa3,3,,,,,,suitcase,,,,,,0,26,26,37,1,4,2,,,,,,,,,,,,,,,,,,,,,,,,,,,,,,,,,,,,,,,,,,,,,,,,,,,,,,,,,,,,,,,,,,,,,,,,,,,
,,,,,,,,,,stimuli/images/PICTURE_405.png,JUNGLE,5d4af58cf6cff50001f9cc0d,07/01/1990,2020-07-08_16h24.56.749,proactive,2020.1.2,MacIntel,60,5f035e5afe130c270d6ae6dd,5f05e4dd25ef0c0bf61fffa3,3,,,,,,anchor,,,,,,0,27,27,13,1,2,2,,,,,,,,,,,,,,,,,,,,,,,,,,,,,,,,,,,,,,,,,,,,,,,,,,,,,,,,,,,,,,,,,,,,,,,,,,,
,,,,,,,,,,stimuli/images/PICTURE_487.png,ROOF,5d4af58cf6cff50001f9cc0d,07/01/1990,2020-07-08_16h24.56.749,proactive,2020.1.2,MacIntel,60,5f035e5afe130c270d6ae6dd,5f05e4dd25ef0c0bf61fffa3,3,,,,,,basket,,,,,,0,28,28,50,1,6,2,,,,,,,,,,,,,,,,,,,,,,,,,,,,,,,,,,,,,,,,,,,,,,,,,,,,,,,,,,,,,,,,,,,,,,,,,,,
,,,,,,,,,,stimuli/images/PICTURE_18.png,RIVER,5d4af58cf6cff50001f9cc0d,07/01/1990,2020-07-08_16h24.56.749,proactive,2020.1.2,MacIntel,60,5f035e5afe130c270d6ae6dd,5f05e4dd25ef0c0bf61fffa3,3,,,,,,planet,,,,,,0,29,29,22,1,3,2,,,,,,,,,,,,,,,,,,,,,,,,,,,,,,,,,,,,,,,,,,,,,,,,,,,,,,,,,,,,,,,,,,,,,,,,,,,
,,,,,,,,,,stimuli/images/PICTURE_509.png,MILLER,5d4af58cf6cff50001f9cc0d,07/01/1990,2020-07-08_16h24.56.749,proactive,2020.1.2,MacIntel,60,5f035e5afe130c270d6ae6dd,5f05e4dd25ef0c0bf61fffa3,3,,,,,,telephone,,,,,,0,30,30,49,1,5,2,,,,,,,,,,,,,,,,,,,,,,,,,,,,,,,,,,,,,,,,,,,,,,,,,,,,,,,,,,,,,,,,,,,,,,,,,,,
,,,,,,,,,,stimuli/images/PICTURE_348.png,TOILET,5d4af58cf6cff50001f9cc0d,07/01/1990,2020-07-08_16h24.56.749,proactive,2020.1.2,MacIntel,60,5f035e5afe130c270d6ae6dd,5f05e4dd25ef0c0bf61fffa3,3,,,,,,pepper,,,,,,0,31,31,4,1,1,2,,,,,,,,,,,,,,,,,,,,,,,,,,,,,,,,,,,,,,,,,,,,,,,,,,,,,,,,,,,,,,,,,,,,,,,,,,,
,,,,,,,,,,stimuli/images/PICTURE_123.png,SALE,5d4af58cf6cff50001f9cc0d,07/01/1990,2020-07-08_16h24.56.749,proactive,2020.1.2,MacIntel,60,5f035e5afe130c270d6ae6dd,5f05e4dd25ef0c0bf61fffa3,3,,,,,,dart,,,,,,0,32,32,8,1,1,2,,,,,,,,,,,,,,,,,,,,,,,,,,,,,,,,,,,,,,,,,,,,,,,,,,,,,,,,,,,,,,,,,,,,,,,,,,,
,,,,,,,,,,stimuli/images/PICTURE_2.png,YARD,5d4af58cf6cff50001f9cc0d,07/01/1990,2020-07-08_16h24.56.749,proactive,2020.1.2,MacIntel,60,5f035e5afe130c270d6ae6dd,5f05e4dd25ef0c0bf61fffa3,3,,,,,,tyre,,,,,,0,33,33,55,1,6,2,,,,,,,,,,,,,,,,,,,,,,,,,,,,,,,,,,,,,,,,,,,,,,,,,,,,,,,,,,,,,,,,,,,,,,,,,,,
,,,,,,,,,,stimuli/images/PICTURE_452.png,COPS,5d4af58cf6cff50001f9cc0d,07/01/1990,2020-07-08_16h24.56.749,proactive,2020.1.2,MacIntel,60,5f035e5afe130c270d6ae6dd,5f05e4dd25ef0c0bf61fffa3,3,,,,,,watch,,,,,,0,34,34,0,1,1,2,,,,,,,,,,,,,,,,,,,,,,,,,,,,,,,,,,,,,,,,,,,,,,,,,,,,,,,,,,,,,,,,,,,,,,,,,,,
,,,,,,,,,,stimuli/images/PICTURE_405.png,HOUSE,5d4af58cf6cff50001f9cc0d,07/01/1990,2020-07-08_16h24.56.749,proactive,2020.1.2,MacIntel,60,5f035e5afe130c270d6ae6dd,5f05e4dd25ef0c0bf61fffa3,3,,,,,,anchor,,,,,,0,35,35,2,1,1,2,,,,,,,,,,,,,,,,,,,,,,,,,,,,,,,,,,,,,,,,,,,,,,,,,,,,,,,,,,,,,,,,,,,,,,,,,,,
,,,,,,,,,,stimuli/images/PICTURE_215.png,BOYS,5d4af58cf6cff50001f9cc0d,07/01/1990,2020-07-08_16h24.56.749,proactive,2020.1.2,MacIntel,60,5f035e5afe130c270d6ae6dd,5f05e4dd25ef0c0bf61fffa3,3,,,,,,boot,,,,,,0,36,36,24,1,3,2,,,,,,,,,,,,,,,,,,,,,,,,,,,,,,,,,,,,,,,,,,,,,,,,,,,,,,,,,,,,,,,,,,,,,,,,,,,
,,,,,,,,,,stimuli/images/PICTURE_93.png,GIRL,5d4af58cf6cff50001f9cc0d,07/01/1990,2020-07-08_16h24.56.749,proactive,2020.1.2,MacIntel,60,5f035e5afe130c270d6ae6dd,5f05e4dd25ef0c0bf61fffa3,3,,,,,,skateboard,,,,,,0,37,37,31,1,4,2,,,,,,,,,,,,,,,,,,,,,,,,,,,,,,,,,,,,,,,,,,,,,,,,,,,,,,,,,,,,,,,,,,,,,,,,,,,
,,,,,,,,,,stimuli/images/PICTURE_356.png,CANDY,5d4af58cf6cff50001f9cc0d,07/01/1990,2020-07-08_16h24.56.749,proactive,2020.1.2,MacIntel,60,5f035e5afe130c270d6ae6dd,5f05e4dd25ef0c0bf61fffa3,3,,,,,,pawn,,,,,,0,38,38,46,1,5,2,,,,,,,,,,,,,,,,,,,,,,,,,,,,,,,,,,,,,,,,,,,,,,,,,,,,,,,,,,,,,,,,,,,,,,,,,,,
,,,,,,,,,,stimuli/images/PICTURE_311.png,TOILET,5d4af58cf6cff50001f9cc0d,07/01/1990,2020-07-08_16h24.56.749,proactive,2020.1.2,MacIntel,60,5f035e5afe130c270d6ae6dd,5f05e4dd25ef0c0bf61fffa3,3,,,,,,razor,,,,,,0,39,39,54,1,6,2,,,,,,,,,,,,,,,,,,,,,,,,,,,,,,,,,,,,,,,,,,,,,,,,,,,,,,,,,,,,,,,,,,,,,,,,,,,
,,,,,,,,,,stimuli/images/PICTURE_405.png,JUNGLE,5d4af58cf6cff50001f9cc0d,07/01/1990,2020-07-08_16h24.56.749,proactive,2020.1.2,MacIntel,60,5f035e5afe130c270d6ae6dd,5f05e4dd25ef0c0bf61fffa3,3,,,,,,anchor,,,,,,0,40,40,58,1,6,2,,,,,,,,,,,,,,,,,,,,,,,,,,,,,,,,,,,,,,,,,,,,,,,,,,,,,,,,,,,,,,,,,,,,,,,,,,,
,,,,,,,,,,stimuli/images/PICTURE_509.png,BATH,5d4af58cf6cff50001f9cc0d,07/01/1990,2020-07-08_16h24.56.749,proactive,2020.1.2,MacIntel,60,5f035e5afe130c270d6ae6dd,5f05e4dd25ef0c0bf61fffa3,3,,,,,,telephone,,,,,,0,41,41,15,1,2,2,,,,,,,,,,,,,,,,,,,,,,,,,,,,,,,,,,,,,,,,,,,,,,,,,,,,,,,,,,,,,,,,,,,,,,,,,,,
,,,,,,,,,,stimuli/images/PICTURE_677.png,PHOTO,5d4af58cf6cff50001f9cc0d,07/01/1990,2020-07-08_16h24.56.749,proactive,2020.1.2,MacIntel,60,5f035e5afe130c270d6ae6dd,5f05e4dd25ef0c0bf61fffa3,3,,,,,,map,,,,,,0,42,42,14,1,2,2,,,,,,,,,,,,,,,,,,,,,,,,,,,,,,,,,,,,,,,,,,,,,,,,,,,,,,,,,,,,,,,,,,,,,,,,,,,
,,,,,,,,,,stimuli/images/PICTURE_285.png,PRINCE,5d4af58cf6cff50001f9cc0d,07/01/1990,2020-07-08_16h24.56.749,proactive,2020.1.2,MacIntel,60,5f035e5afe130c270d6ae6dd,5f05e4dd25ef0c0bf61fffa3,3,,,,,,carrot,,,,,,0,43,43,20,1,3,2,,,,,,,,,,,,,,,,,,,,,,,,,,,,,,,,,,,,,,,,,,,,,,,,,,,,,,,,,,,,,,,,,,,,,,,,,,,
,,,,,,,,,,stimuli/images/PICTURE_677.png,FAMILY,5d4af58cf6cff50001f9cc0d,07/01/1990,2020-07-08_16h24.56.749,proactive,2020.1.2,MacIntel,60,5f035e5afe130c270d6ae6dd,5f05e4dd25ef0c0bf61fffa3,3,,,,,,map,,,,,,0,44,44,53,1,6,2,,,,,,,,,,,,,,,,,,,,,,,,,,,,,,,,,,,,,,,,,,,,,,,,,,,,,,,,,,,,,,,,,,,,,,,,,,,
,,,,,,,,,,stimuli/images/PICTURE_2.png,AREA,5d4af58cf6cff50001f9cc0d,07/01/1990,2020-07-08_16h24.56.749,proactive,2020.1.2,MacIntel,60,5f035e5afe130c270d6ae6dd,5f05e4dd25ef0c0bf61fffa3,3,,,,,,tyre,,,,,,0,45,45,32,1,4,2,,,,,,,,,,,,,,,,,,,,,,,,,,,,,,,,,,,,,,,,,,,,,,,,,,,,,,,,,,,,,,,,,,,,,,,,,,,
,,,,,,,,,,stimuli/images/PICTURE_68.png,KIND,5d4af58cf6cff50001f9cc0d,07/01/1990,2020-07-08_16h24.56.749,proactive,2020.1.2,MacIntel,60,5f035e5afe130c270d6ae6dd,5f05e4dd25ef0c0bf61fffa3,3,,,,,,candle,,,,,,0,46,46,23,1,3,2,,,,,,,,,,,,,,,,,,,,,,,,,,,,,,,,,,,,,,,,,,,,,,,,,,,,,,,,,,,,,,,,,,,,,,,,,,,
,,,,,,,,,,stimuli/images/PICTURE_708.png,VALLEY,5d4af58cf6cff50001f9cc0d,07/01/1990,2020-07-08_16h24.56.749,proactive,2020.1.2,MacIntel,60,5f035e5afe130c270d6ae6dd,5f05e4dd25ef0c0bf61fffa3,3,,,,,,monkey,,,,,,0,47,47,45,1,5,2,,,,,,,,,,,,,,,,,,,,,,,,,,,,,,,,,,,,,,,,,,,,,,,,,,,,,,,,,,,,,,,,,,,,,,,,,,,
,,,,,,,,,,stimuli/images/PICTURE_314.png,SPEECH,5d4af58cf6cff50001f9cc0d,07/01/1990,2020-07-08_16h24.56.749,proactive,2020.1.2,MacIntel,60,5f035e5afe130c270d6ae6dd,5f05e4dd25ef0c0bf61fffa3,3,,,,,,perfume,,,,,,0,48,48,35,1,4,2,,,,,,,,,,,,,,,,,,,,,,,,,,,,,,,,,,,,,,,,,,,,,,,,,,,,,,,,,,,,,,,,,,,,,,,,,,,
,,,,,,,,,,stimuli/images/PICTURE_327.png,LEADER,5d4af58cf6cff50001f9cc0d,07/01/1990,2020-07-08_16h24.56.749,proactive,2020.1.2,MacIntel,60,5f035e5afe130c270d6ae6dd,5f05e4dd25ef0c0bf61fffa3,3,,,,,,helmet,,,,,,0,49,49,17,1,2,2,,,,,,,,,,,,,,,,,,,,,,,,,,,,,,,,,,,,,,,,,,,,,,,,,,,,,,,,,,,,,,,,,,,,,,,,,,,
,,,,,,,,,,stimuli/images/PICTURE_2.png,JUNGLE,5d4af58cf6cff50001f9cc0d,07/01/1990,2020-07-08_16h24.56.749,proactive,2020.1.2,MacIntel,60,5f035e5afe130c270d6ae6dd,5f05e4dd25ef0c0bf61fffa3,3,,,,,,tyre,,,,,,0,50,50,1,1,1,2,,,,,,,,,,,,,,,,,,,,,,,,,,,,,,,,,,,,,,,,,,,,,,,,,,,,,,,,,,,,,,,,,,,,,,,,,,,
,,,,,,,,,,stimuli/images/PICTURE_470.png,BEAUTY,5d4af58cf6cff50001f9cc0d,07/01/1990,2020-07-08_16h24.56.749,proactive,2020.1.2,MacIntel,60,5f035e5afe130c270d6ae6dd,5f05e4dd25ef0c0bf61fffa3,3,,,,,,motorbike,,,,,,0,51,51,26,1,3,2,,,,,,,,,,,,,,,,,,,,,,,,,,,,,,,,,,,,,,,,,,,,,,,,,,,,,,,,,,,,,,,,,,,,,,,,,,,
,,,,,,,,,,stimuli/images/PICTURE_688.png,CLOCK,5d4af58cf6cff50001f9cc0d,07/01/1990,2020-07-08_16h24.56.749,proactive,2020.1.2,MacIntel,60,5f035e5afe130c270d6ae6dd,5f05e4dd25ef0c0bf61fffa3,3,,,,,,runner,,,,,,0,52,52,42,1,5,2,,,,,,,,,,,,,,,,,,,,,,,,,,,,,,,,,,,,,,,,,,,,,,,,,,,,,,,,,,,,,,,,,,,,,,,,,,,
,,,,,,,,,,stimuli/images/PICTURE_564.png,PLENTY,5d4af58cf6cff50001f9cc0d,07/01/1990,2020-07-08_16h24.56.749,proactive,2020.1.2,MacIntel,60,5f035e5afe130c270d6ae6dd,5f05e4dd25ef0c0bf61fffa3,3,,,,,,spoon,,,,,,0,53,53,11,1,2,2,,,,,,,,,,,,,,,,,,,,,,,,,,,,,,,,,,,,,,,,,,,,,,,,,,,,,,,,,,,,,,,,,,,,,,,,,,,
,,,,,,,,,,stimuli/images/PICTURE_654.png,COPS,5d4af58cf6cff50001f9cc0d,07/01/1990,2020-07-08_16h24.56.749,proactive,2020.1.2,MacIntel,60,5f035e5afe130c270d6ae6dd,5f05e4dd25ef0c0bf61fffa3,3,,,,,,pencil,,,,,,0,54,54,10,1,2,2,,,,,,,,,,,,,,,,,,,,,,,,,,,,,,,,,,,,,,,,,,,,,,,,,,,,,,,,,,,,,,,,,,,,,,,,,,,
,,,,,,,,,,stimuli/images/PICTURE_504.png,HOUSE,5d4af58cf6cff50001f9cc0d,07/01/1990,2020-07-08_16h24.56.749,proactive,2020.1.2,MacIntel,60,5f035e5afe130c270d6ae6dd,5f05e4dd25ef0c0bf61fffa3,3,,,,,,wheel,,,,,,0,55,55,36,1,4,2,,,,,,,,,,,,,,,,,,,,,,,,,,,,,,,,,,,,,,,,,,,,,,,,,,,,,,,,,,,,,,,,,,,,,,,,,,,
,,,,,,,,,,stimuli/images/PICTURE_141.png,CLIENT,5d4af58cf6cff50001f9cc0d,07/01/1990,2020-07-08_16h24.56.749,proactive,2020.1.2,MacIntel,60,5f035e5afe130c270d6ae6dd,5f05e4dd25ef0c0bf61fffa3,3,,,,,,sunflower,,,,,,0,56,56,30,1,4,2,,,,,,,,,,,,,,,,,,,,,,,,,,,,,,,,,,,,,,,,,,,,,,,,,,,,,,,,,,,,,,,,,,,,,,,,,,,
,,,,,,,,,,stimuli/images/PICTURE_470.png,MOMENT,5d4af58cf6cff50001f9cc0d,07/01/1990,2020-07-08_16h24.56.749,proactive,2020.1.2,MacIntel,60,5f035e5afe130c270d6ae6dd,5f05e4dd25ef0c0bf61fffa3,3,,,,,,motorbike,,,,,,0,57,57,40,1,5,2,,,,,,,,,,,,,,,,,,,,,,,,,,,,,,,,,,,,,,,,,,,,,,,,,,,,,,,,,,,,,,,,,,,,,,,,,,,
,,,,,,,,,,stimuli/images/PICTURE_311.png,FLESH,5d4af58cf6cff50001f9cc0d,07/01/1990,2020-07-08_16h24.56.749,proactive,2020.1.2,MacIntel,60,5f035e5afe130c270d6ae6dd,5f05e4dd25ef0c0bf61fffa3,3,,,,,,razor,,,,,,0,58,58,3,1,1,2,,,,,,,,,,,,,,,,,,,,,,,,,,,,,,,,,,,,,,,,,,,,,,,,,,,,,,,,,,,,,,,,,,,,,,,,,,,
,,COPS,1.74697,1,,,,,,stimuli/images/PICTURE_33.png,COPS,5d4af58cf6cff50001f9cc0d,07/01/1990,2020-07-08_16h24.56.749,proactive,2020.1.2,MacIntel,60,5f035e5afe130c270d6ae6dd,5f05e4dd25ef0c0bf61fffa3,3,,,,,,frame,,,,,,,,,,,3,2,0,0,0,29,1,,,,,,,,,,,,,,,,,,,,,,,,,,,,,,,,,,,,,,,,,,,,,,,,,,,,,,,,,,,,,,,,,,,,,,
,,?,0.000885,0,,,,,,stimuli/images/PICTURE_2.png,YARD,5d4af58cf6cff50001f9cc0d,07/01/1990,2020-07-08_16h24.56.749,proactive,2020.1.2,MacIntel,60,5f035e5afe130c270d6ae6dd,5f05e4dd25ef0c0bf61fffa3,3,,,,,,tyre,,,,,,,,,,,6,2,0,1,1,55,1,,,,,,,,,,,,,,,,,,,,,,,,,,,,,,,,,,,,,,,,,,,,,,,,,,,,,,,,,,,,,,,,,,,,,,
,,SPIRIT,2.85042,1,,,,,,stimuli/images/PICTURE_208.png,SPIRIT,5d4af58cf6cff50001f9cc0d,07/01/1990,2020-07-08_16h24.56.749,proactive,2020.1.2,MacIntel,60,5f035e5afe130c270d6ae6dd,5f05e4dd25ef0c0bf61fffa3,3,,,,,,microphone,,,,,,,,,,,3,2,0,2,2,28,1,,,,,,,,,,,,,,,,,,,,,,,,,,,,,,,,,,,,,,,,,,,,,,,,,,,,,,,,,,,,,,,,,,,,,,
,,?,0.001095,0,,,,,,stimuli/images/PICTURE_487.png,ROOF,5d4af58cf6cff50001f9cc0d,07/01/1990,2020-07-08_16h24.56.749,proactive,2020.1.2,MacIntel,60,5f035e5afe130c270d6ae6dd,5f05e4dd25ef0c0bf61fffa3,3,,,,,,basket,,,,,,,,,,,6,2,0,3,3,50,1,,,,,,,,,,,,,,,,,,,,,,,,,,,,,,,,,,,,,,,,,,,,,,,,,,,,,,,,,,,,,,,,,,,,,,
,,?,0.000555,0,,,,,,stimuli/images/PICTURE_405.png,HOUSE,5d4af58cf6cff50001f9cc0d,07/01/1990,2020-07-08_16h24.56.749,proactive,2020.1.2,MacIntel,60,5f035e5afe130c270d6ae6dd,5f05e4dd25ef0c0bf61fffa3,3,,,,,,anchor,,,,,,,,,,,1,2,0,4,4,2,1,,,,,,,,,,,,,,,,,,,,,,,,,,,,,,,,,,,,,,,,,,,,,,,,,,,,,,,,,,,,,,,,,,,,,,
,,?,0.0012,0,,,,,,stimuli/images/PICTURE_348.png,DUDE,5d4af58cf6cff50001f9cc0d,07/01/1990,2020-07-08_16h24.56.749,proactive,2020.1.2,MacIntel,60,5f035e5afe130c270d6ae6dd,5f05e4dd25ef0c0bf61fffa3,3,,,,,,pepper,,,,,,,,,,,6,2,0,5,5,59,1,,,,,,,,,,,,,,,,,,,,,,,,,,,,,,,,,,,,,,,,,,,,,,,,,,,,,,,,,,,,,,,,,,,,,,
,,?,0.000545,0,,,,,,stimuli/images/PICTURE_564.png,PLENTY,5d4af58cf6cff50001f9cc0d,07/01/1990,2020-07-08_16h24.56.749,proactive,2020.1.2,MacIntel,60,5f035e5afe130c270d6ae6dd,5f05e4dd25ef0c0bf61fffa3,3,,,,,,spoon,,,,,,,,,,,2,2,0,6,6,11,1,,,,,,,,,,,,,,,,,,,,,,,,,,,,,,,,,,,,,,,,,,,,,,,,,,,,,,,,,,,,,,,,,,,,,,
,,?,0.000575,0,,,,,,stimuli/images/PICTURE_356.png,CANDY,5d4af58cf6cff50001f9cc0d,07/01/1990,2020-07-08_16h24.56.749,proactive,2020.1.2,MacIntel,60,5f035e5afe130c270d6ae6dd,5f05e4dd25ef0c0bf61fffa3,3,,,,,,pawn,,,,,,,,,,,5,2,0,7,7,46,1,,,,,,,,,,,,,,,,,,,,,,,,,,,,,,,,,,,,,,,,,,,,,,,,,,,,,,,,,,,,,,,,,,,,,,
,,HOUSE,1.74126,1,,,,,,stimuli/images/PICTURE_177.png,HOUSE,5d4af58cf6cff50001f9cc0d,07/01/1990,2020-07-08_16h24.56.749,proactive,2020.1.2,MacIntel,60,5f035e5afe130c270d6ae6dd,5f05e4dd25ef0c0bf61fffa3,3,,,,,,mushroom,,,,,,,,,,,3,2,0,8,8,25,1,,,,,,,,,,,,,,,,,,,,,,,,,,,,,,,,,,,,,,,,,,,,,,,,,,,,,,,,,,,,,,,,,,,,,,
,,?,0.000795,0,,,,,,stimuli/images/PICTURE_93.png,GIRL,5d4af58cf6cff50001f9cc0d,07/01/1990,2020-07-08_16h24.56.749,proactive,2020.1.2,MacIntel,60,5f035e5afe130c270d6ae6dd,5f05e4dd25ef0c0bf61fffa3,3,,,,,,skateboard,,,,,,,,,,,4,2,0,9,9,31,1,,,,,,,,,,,,,,,,,,,,,,,,,,,,,,,,,,,,,,,,,,,,,,,,,,,,,,,,,,,,,,,,,,,,,,
,,?,0.000625,0,,,,,,stimuli/images/PICTURE_453.png,FAMILY,5d4af58cf6cff50001f9cc0d,07/01/1990,2020-07-08_16h24.56.749,proactive,2020.1.2,MacIntel,60,5f035e5afe130c270d6ae6dd,5f05e4dd25ef0c0bf61fffa3,3,,,,,,scissors,,,,,,,,,,,5,2,0,10,10,48,1,,,,,,,,,,,,,,,,,,,,,,,,,,,,,,,,,,,,,,,,,,,,,,,,,,,,,,,,,,,,,,,,,,,,,,
,,RIVER,1.763705,1,,,,,,stimuli/images/PICTURE_18.png,RIVER,5d4af58cf6cff50001f9cc0d,07/01/1990,2020-07-08_16h24.56.749,proactive,2020.1.2,MacIntel,60,5f035e5afe130c270d6ae6dd,5f05e4dd25ef0c0bf61fffa3,3,,,,,,planet,,,,,,,,,,,3,2,0,11,11,22,1,,,,,,,,,,,,,,,,,,,,,,,,,,,,,,,,,,,,,,,,,,,,,,,,,,,,,,,,,,,,,,,,,,,,,,
,,?,0.001905,0,,,,,,stimuli/images/PICTURE_314.png,SPEECH,5d4af58cf6cff50001f9cc0d,07/01/1990,2020-07-08_16h24.56.749,proactive,2020.1.2,MacIntel,60,5f035e5afe130c270d6ae6dd,5f05e4dd25ef0c0bf61fffa3,3,,,,,,perfume,,,,,,,,,,,4,2,0,12,12,35,1,,,,,,,,,,,,,,,,,,,,,,,,,,,,,,,,,,,,,,,,,,,,,,,,,,,,,,,,,,,,,,,,,,,,,,
,,?,0.00051,0,,,,,,stimuli/images/PICTURE_509.png,BATH,5d4af58cf6cff50001f9cc0d,07/01/1990,2020-07-08_16h24.56.749,proactive,2020.1.2,MacIntel,60,5f035e5afe130c270d6ae6dd,5f05e4dd25ef0c0bf61fffa3,3,,,,,,telephone,,,,,,,,,,,2,2,0,13,13,15,1,,,,,,,,,,,,,,,,,,,,,,,,,,,,,,,,,,,,,,,,,,,,,,,,,,,,,,,,,,,,,,,,,,,,,,
,,?,0.00053,0,,,,,,stimuli/images/PICTURE_215.png,FOOD,5d4af58cf6cff50001f9cc0d,07/01/1990,2020-07-08_16h24.56.749,proactive,2020.1.2,MacIntel,60,5f035e5afe130c270d6ae6dd,5f05e4dd25ef0c0bf61fffa3,3,,,,,,boot,,,,,,,,,,,1,2,0,14,14,5,1,,,,,,,,,,,,,,,,,,,,,,,,,,,,,,,,,,,,,,,,,,,,,,,,,,,,,,,,,,,,,,,,,,,,,,
,,?,0.000505,0,,,,,,stimuli/images/PICTURE_57.png,CANDY,5d4af58cf6cff50001f9cc0d,07/01/1990,2020-07-08_16h24.56.749,proactive,2020.1.2,MacIntel,60,5f035e5afe130c270d6ae6dd,5f05e4dd25ef0c0bf61fffa3,3,,,,,,stamp,,,,,,,,,,,6,2,0,15,15,52,1,,,,,,,,,,,,,,,,,,,,,,,,,,,,,,,,,,,,,,,,,,,,,,,,,,,,,,,,,,,,,,,,,,,,,,
,,?,0.000495,0,,,,,,stimuli/images/PICTURE_470.png,MOMENT,5d4af58cf6cff50001f9cc0d,07/01/1990,2020-07-08_16h24.56.749,proactive,2020.1.2,MacIntel,60,5f035e5afe130c270d6ae6dd,5f05e4dd25ef0c0bf61fffa3,3,,,,,,motorbike,,,,,,,,,,,5,2,0,16,16,40,1,,,,,,,,,,,,,,,,,,,,,,,,,,,,,,,,,,,,,,,,,,,,,,,,,,,,,,,,,,,,,,,,,,,,,,
,,?,0.000525,0,,,,,,stimuli/images/PICTURE_509.png,MILLER,5d4af58cf6cff50001f9cc0d,07/01/1990,2020-07-08_16h24.56.749,proactive,2020.1.2,MacIntel,60,5f035e5afe130c270d6ae6dd,5f05e4dd25ef0c0bf61fffa3,3,,,,,,telephone,,,,,,,,,,,5,2,0,17,17,49,1,,,,,,,,,,,,,,,,,,,,,,,,,,,,,,,,,,,,,,,,,,,,,,,,,,,,,,,,,,,,,,,,,,,,,,
,,?,0.00046,0,,,,,,stimuli/images/PICTURE_750.png,POLICY,5d4af58cf6cff50001f9cc0d,07/01/1990,2020-07-08_16h24.56.749,proactive,2020.1.2,MacIntel,60,5f035e5afe130c270d6ae6dd,5f05e4dd25ef0c0bf61fffa3,3,,,,,,kettle,,,,,,,,,,,5,2,0,18,18,44,1,,,,,,,,,,,,,,,,,,,,,,,,,,,,,,,,,,,,,,,,,,,,,,,,,,,,,,,,,,,,,,,,,,,,,,
,,?,0.000475,0,,,,,,stimuli/images/PICTURE_452.png,COPS,5d4af58cf6cff50001f9cc0d,07/01/1990,2020-07-08_16h24.56.749,proactive,2020.1.2,MacIntel,60,5f035e5afe130c270d6ae6dd,5f05e4dd25ef0c0bf61fffa3,3,,,,,,watch,,,,,,,,,,,1,2,0,19,19,0,1,,,,,,,,,,,,,,,,,,,,,,,,,,,,,,,,,,,,,,,,,,,,,,,,,,,,,,,,,,,,,,,,,,,,,,
,,?,0.000415,0,,,,,,stimuli/images/PICTURE_141.png,CLIENT,5d4af58cf6cff50001f9cc0d,07/01/1990,2020-07-08_16h24.56.749,proactive,2020.1.2,MacIntel,60,5f035e5afe130c270d6ae6dd,5f05e4dd25ef0c0bf61fffa3,3,,,,,,sunflower,,,,,,,,,,,4,2,0,20,20,30,1,,,,,,,,,,,,,,,,,,,,,,,,,,,,,,,,,,,,,,,,,,,,,,,,,,,,,,,,,,,,,,,,,,,,,,
,,?,0.00041,0,,,,,,stimuli/images/PICTURE_348.png,TOILET,5d4af58cf6cff50001f9cc0d,07/01/1990,2020-07-08_16h24.56.749,proactive,2020.1.2,MacIntel,60,5f035e5afe130c270d6ae6dd,5f05e4dd25ef0c0bf61fffa3,3,,,,,,pepper,,,,,,,,,,,1,2,0,21,21,4,1,,,,,,,,,,,,,,,,,,,,,,,,,,,,,,,,,,,,,,,,,,,,,,,,,,,,,,,,,,,,,,,,,,,,,,
,,GLASS,1.98786,1,,,,,,stimuli/images/PICTURE_667.png,GLASS,5d4af58cf6cff50001f9cc0d,07/01/1990,2020-07-08_16h24.56.749,proactive,2020.1.2,MacIntel,60,5f035e5afe130c270d6ae6dd,5f05e4dd25ef0c0bf61fffa3,3,,,,,,daisy,,,,,,,,,,,3,2,0,22,22,27,1,,,,,,,,,,,,,,,,,,,,,,,,,,,,,,,,,,,,,,,,,,,,,,,,,,,,,,,,,,,,,,,,,,,,,,
,,?,0.000805,0,,,,,,stimuli/images/PICTURE_403.png,FAMILY,5d4af58cf6cff50001f9cc0d,07/01/1990,2020-07-08_16h24.56.749,proactive,2020.1.2,MacIntel,60,5f035e5afe130c270d6ae6dd,5f05e4dd25ef0c0bf61fffa3,3,,,,,,cathedral,,,,,,,,,,,1,2,0,23,23,9,1,,,,,,,,,,,,,,,,,,,,,,,,,,,,,,,,,,,,,,,,,,,,,,,,,,,,,,,,,,,,,,,,,,,,,,
,,?,0.00068,0,,,,,,stimuli/images/PICTURE_57.png,CASINO,5d4af58cf6cff50001f9cc0d,07/01/1990,2020-07-08_16h24.56.749,proactive,2020.1.2,MacIntel,60,5f035e5afe130c270d6ae6dd,5f05e4dd25ef0c0bf61fffa3,3,,,,,,stamp,,,,,,,,,,,2,2,0,24,24,12,1,,,,,,,,,,,,,,,,,,,,,,,,,,,,,,,,,,,,,,,,,,,,,,,,,,,,,,,,,,,,,,,,,,,,,,
,,?,0.000515,0,,,,,,stimuli/images/PICTURE_677.png,FAMILY,5d4af58cf6cff50001f9cc0d,07/01/1990,2020-07-08_16h24.56.749,proactive,2020.1.2,MacIntel,60,5f035e5afe130c270d6ae6dd,5f05e4dd25ef0c0bf61fffa3,3,,,,,,map,,,,,,,,,,,6,2,0,25,25,53,1,,,,,,,,,,,,,,,,,,,,,,,,,,,,,,,,,,,,,,,,,,,,,,,,,,,,,,,,,,,,,,,,,,,,,,
,,?,0.00049,0,,,,,,stimuli/images/PICTURE_2.png,AREA,5d4af58cf6cff50001f9cc0d,07/01/1990,2020-07-08_16h24.56.749,proactive,2020.1.2,MacIntel,60,5f035e5afe130c270d6ae6dd,5f05e4dd25ef0c0bf61fffa3,3,,,,,,tyre,,,,,,,,,,,4,2,0,26,26,32,1,,,,,,,,,,,,,,,,,,,,,,,,,,,,,,,,,,,,,,,,,,,,,,,,,,,,,,,,,,,,,,,,,,,,,,
,,?,0.000505,0,,,,,,stimuli/images/PICTURE_405.png,JUNGLE,5d4af58cf6cff50001f9cc0d,07/01/1990,2020-07-08_16h24.56.749,proactive,2020.1.2,MacIntel,60,5f035e5afe130c270d6ae6dd,5f05e4dd25ef0c0bf61fffa3,3,,,,,,anchor,,,,,,,,,,,2,2,0,27,27,13,1,,,,,,,,,,,,,,,,,,,,,,,,,,,,,,,,,,,,,,,,,,,,,,,,,,,,,,,,,,,,,,,,,,,,,,
,,?,0.00049,0,,,,,,stimuli/images/PICTURE_311.png,TOILET,5d4af58cf6cff50001f9cc0d,07/01/1990,2020-07-08_16h24.56.749,proactive,2020.1.2,MacIntel,60,5f035e5afe130c270d6ae6dd,5f05e4dd25ef0c0bf61fffa3,3,,,,,,razor,,,,,,,,,,,6,2,0,28,28,54,1,,,,,,,,,,,,,,,,,,,,,,,,,,,,,,,,,,,,,,,,,,,,,,,,,,,,,,,,,,,,,,,,,,,,,,
,,?,0.00049,0,,,,,,stimuli/images/PICTURE_688.png,CLOCK,5d4af58cf6cff50001f9cc0d,07/01/1990,2020-07-08_16h24.56.749,proactive,2020.1.2,MacIntel,60,5f035e5afe130c270d6ae6dd,5f05e4dd25ef0c0bf61fffa3,3,,,,,,runner,,,,,,,,,,,5,2,0,29,29,42,1,,,,,,,,,,,,,,,,,,,,,,,,,,,,,,,,,,,,,,,,,,,,,,,,,,,,,,,,,,,,,,,,,,,,,,
,,?,0.000495,0,,,,,,stimuli/images/PICTURE_504.png,HOUSE,5d4af58cf6cff50001f9cc0d,07/01/1990,2020-07-08_16h24.56.749,proactive,2020.1.2,MacIntel,60,5f035e5afe130c270d6ae6dd,5f05e4dd25ef0c0bf61fffa3,3,,,,,,wheel,,,,,,,,,,,4,2,0,30,30,36,1,,,,,,,,,,,,,,,,,,,,,,,,,,,,,,,,,,,,,,,,,,,,,,,,,,,,,,,,,,,,,,,,,,,,,,
,,?,0.00039,0,,,,,,stimuli/images/PICTURE_509.png,APPLE,5d4af58cf6cff50001f9cc0d,07/01/1990,2020-07-08_16h24.56.749,proactive,2020.1.2,MacIntel,60,5f035e5afe130c270d6ae6dd,5f05e4dd25ef0c0bf61fffa3,3,,,,,,telephone,,,,,,,,,,,4,2,0,31,31,38,1,,,,,,,,,,,,,,,,,,,,,,,,,,,,,,,,,,,,,,,,,,,,,,,,,,,,,,,,,,,,,,,,,,,,,,
,,?,0.000415,0,,,,,,stimuli/images/PICTURE_509.png,SHOTS,5d4af58cf6cff50001f9cc0d,07/01/1990,2020-07-08_16h24.56.749,proactive,2020.1.2,MacIntel,60,5f035e5afe130c270d6ae6dd,5f05e4dd25ef0c0bf61fffa3,3,,,,,,telephone,,,,,,,,,,,1,2,0,32,32,7,1,,,,,,,,,,,,,,,,,,,,,,,,,,,,,,,,,,,,,,,,,,,,,,,,,,,,,,,,,,,,,,,,,,,,,,
,,BOYS,1.5213,1,,,,,,stimuli/images/PICTURE_215.png,BOYS,5d4af58cf6cff50001f9cc0d,07/01/1990,2020-07-08_16h24.56.749,proactive,2020.1.2,MacIntel,60,5f035e5afe130c270d6ae6dd,5f05e4dd25ef0c0bf61fffa3,3,,,,,,boot,,,,,,,,,,,3,2,0,33,33,24,1,,,,,,,,,,,,,,,,,,,,,,,,,,,,,,,,,,,,,,,,,,,,,,,,,,,,,,,,,,,,,,,,,,,,,,
,,?,0.00078,0,,,,,,stimuli/images/PICTURE_95.png,NIGHT,5d4af58cf6cff50001f9cc0d,07/01/1990,2020-07-08_16h24.56.749,proactive,2020.1.2,MacIntel,60,5f035e5afe130c270d6ae6dd,5f05e4dd25ef0c0bf61fffa3,3,,,,,,suitcase,,,,,,,,,,,4,2,0,34,34,37,1,,,,,,,,,,,,,,,,,,,,,,,,,,,,,,,,,,,,,,,,,,,,,,,,,,,,,,,,,,,,,,,,,,,,,,
,,BEAUTY,1.866095,1,,,,,,stimuli/images/PICTURE_470.png,BEAUTY,5d4af58cf6cff50001f9cc0d,07/01/1990,2020-07-08_16h24.56.749,proactive,2020.1.2,MacIntel,60,5f035e5afe130c270d6ae6dd,5f05e4dd25ef0c0bf61fffa3,3,,,,,,motorbike,,,,,,,,,,,3,2,0,35,35,26,1,,,,,,,,,,,,,,,,,,,,,,,,,,,,,,,,,,,,,,,,,,,,,,,,,,,,,,,,,,,,,,,,,,,,,,
,,NATION,1.94091,1,,,,,,stimuli/images/PICTURE_57.png,NATION,5d4af58cf6cff50001f9cc0d,07/01/1990,2020-07-08_16h24.56.749,proactive,2020.1.2,MacIntel,60,5f035e5afe130c270d6ae6dd,5f05e4dd25ef0c0bf61fffa3,3,,,,,,stamp,,,,,,,,,,,3,2,0,36,36,21,1,,,,,,,,,,,,,,,,,,,,,,,,,,,,,,,,,,,,,,,,,,,,,,,,,,,,,,,,,,,,,,,,,,,,,,
,,?,0.00076,0,,,,,,stimuli/images/PICTURE_311.png,FLESH,5d4af58cf6cff50001f9cc0d,07/01/1990,2020-07-08_16h24.56.749,proactive,2020.1.2,MacIntel,60,5f035e5afe130c270d6ae6dd,5f05e4dd25ef0c0bf61fffa3,3,,,,,,razor,,,,,,,,,,,1,2,0,37,37,3,1,,,,,,,,,,,,,,,,,,,,,,,,,,,,,,,,,,,,,,,,,,,,,,,,,,,,,,,,,,,,,,,,,,,,,,
,,?,0.0006,0,,,,,,stimuli/images/PICTURE_285.png,WRITER,5d4af58cf6cff50001f9cc0d,07/01/1990,2020-07-08_16h24.56.749,proactive,2020.1.2,MacIntel,60,5f035e5afe130c270d6ae6dd,5f05e4dd25ef0c0bf61fffa3,3,,,,,,carrot,,,,,,,,,,,1,2,0,38,38,6,1,,,,,,,,,,,,,,,,,,,,,,,,,,,,,,,,,,,,,,,,,,,,,,,,,,,,,,,,,,,,,,,,,,,,,,
,,?,0.000575,0,,,,,,stimuli/images/PICTURE_255.png,PENNY,5d4af58cf6cff50001f9cc0d,07/01/1990,2020-07-08_16h24.56.749,proactive,2020.1.2,MacIntel,60,5f035e5afe130c270d6ae6dd,5f05e4dd25ef0c0bf61fffa3,3,,,,,,shovel,,,,,,,,,,,2,2,0,39,39,19,1,,,,,,,,,,,,,,,,,,,,,,,,,,,,,,,,,,,,,,,,,,,,,,,,,,,,,,,,,,,,,,,,,,,,,,
,,KIND,1.99717,1,,,,,,stimuli/images/PICTURE_68.png,KIND,5d4af58cf6cff50001f9cc0d,07/01/1990,2020-07-08_16h24.56.749,proactive,2020.1.2,MacIntel,60,5f035e5afe130c270d6ae6dd,5f05e4dd25ef0c0bf61fffa3,3,,,,,,candle,,,,,,,,,,,3,2,0,40,40,23,1,,,,,,,,,,,,,,,,,,,,,,,,,,,,,,,,,,,,,,,,,,,,,,,,,,,,,,,,,,,,,,,,,,,,,,
,,?,0.00074,0,,,,,,stimuli/images/PICTURE_296.png,CLOCK,5d4af58cf6cff50001f9cc0d,07/01/1990,2020-07-08_16h24.56.749,proactive,2020.1.2,MacIntel,60,5f035e5afe130c270d6ae6dd,5f05e4dd25ef0c0bf61fffa3,3,,,,,,bolt,,,,,,,,,,,2,2,0,41,41,18,1,,,,,,,,,,,,,,,,,,,,,,,,,,,,,,,,,,,,,,,,,,,,,,,,,,,,,,,,,,,,,,,,,,,,,,
,,?,0.00058,0,,,,,,stimuli/images/PICTURE_708.png,VALLEY,5d4af58cf6cff50001f9cc0d,07/01/1990,2020-07-08_16h24.56.749,proactive,2020.1.2,MacIntel,60,5f035e5afe130c270d6ae6dd,5f05e4dd25ef0c0bf61fffa3,3,,,,,,monkey,,,,,,,,,,,5,2,0,42,42,45,1,,,,,,,,,,,,,,,,,,,,,,,,,,,,,,,,,,,,,,,,,,,,,,,,,,,,,,,,,,,,,,,,,,,,,,
,,?,0.000505,0,,,,,,stimuli/images/PICTURE_297.png,BODY,5d4af58cf6cff50001f9cc0d,07/01/1990,2020-07-08_16h24.56.749,proactive,2020.1.2,MacIntel,60,5f035e5afe130c270d6ae6dd,5f05e4dd25ef0c0bf61fffa3,3,,,,,,aeroplane,,,,,,,,,,,6,2,0,43,43,51,1,,,,,,,,,,,,,,,,,,,,,,,,,,,,,,,,,,,,,,,,,,,,,,,,,,,,,,,,,,,,,,,,,,,,,,
,,?,0.000525,0,,,,,,stimuli/images/PICTURE_147.png,LEADER,5d4af58cf6cff50001f9cc0d,07/01/1990,2020-07-08_16h24.56.749,proactive,2020.1.2,MacIntel,60,5f035e5afe130c270d6ae6dd,5f05e4dd25ef0c0bf61fffa3,3,,,,,,hanger,,,,,,,,,,,4,2,0,44,44,33,1,,,,,,,,,,,,,,,,,,,,,,,,,,,,,,,,,,,,,,,,,,,,,,,,,,,,,,,,,,,,,,,,,,,,,,
,,?,0.00054,0,,,,,,stimuli/images/PICTURE_677.png,PHOTO,5d4af58cf6cff50001f9cc0d,07/01/1990,2020-07-08_16h24.56.749,proactive,2020.1.2,MacIntel,60,5f035e5afe130c270d6ae6dd,5f05e4dd25ef0c0bf61fffa3,3,,,,,,map,,,,,,,,,,,2,2,0,45,45,14,1,,,,,,,,,,,,,,,,,,,,,,,,,,,,,,,,,,,,,,,,,,,,,,,,,,,,,,,,,,,,,,,,,,,,,,
,,?,0.000475,0,,,,,,stimuli/images/PICTURE_654.png,YEAR,5d4af58cf6cff50001f9cc0d,07/01/1990,2020-07-08_16h24.56.749,proactive,2020.1.2,MacIntel,60,5f035e5afe130c270d6ae6dd,5f05e4dd25ef0c0bf61fffa3,3,,,,,,pencil,,,,,,,,,,,5,2,0,46,46,41,1,,,,,,,,,,,,,,,,,,,,,,,,,,,,,,,,,,,,,,,,,,,,,,,,,,,,,,,,,,,,,,,,,,,,,,
,,?,0.001255,0,,,,,,stimuli/images/PICTURE_487.png,POLICY,5d4af58cf6cff50001f9cc0d,07/01/1990,2020-07-08_16h24.56.749,proactive,2020.1.2,MacIntel,60,5f035e5afe130c270d6ae6dd,5f05e4dd25ef0c0bf61fffa3,3,,,,,,basket,,,,,,,,,,,4,2,0,47,47,34,1,,,,,,,,,,,,,,,,,,,,,,,,,,,,,,,,,,,,,,,,,,,,,,,,,,,,,,,,,,,,,,,,,,,,,,
,,PRINCE,2.139795,1,,,,,,stimuli/images/PICTURE_285.png,PRINCE,5d4af58cf6cff50001f9cc0d,07/01/1990,2020-07-08_16h24.56.749,proactive,2020.1.2,MacIntel,60,5f035e5afe130c270d6ae6dd,5f05e4dd25ef0c0bf61fffa3,3,,,,,,carrot,,,,,,,,,,,3,2,0,48,48,20,1,,,,,,,,,,,,,,,,,,,,,,,,,,,,,,,,,,,,,,,,,,,,,,,,,,,,,,,,,,,,,,,,,,,,,,
,,?,0.00074,0,,,,,,stimuli/images/PICTURE_327.png,LEADER,5d4af58cf6cff50001f9cc0d,07/01/1990,2020-07-08_16h24.56.749,proactive,2020.1.2,MacIntel,60,5f035e5afe130c270d6ae6dd,5f05e4dd25ef0c0bf61fffa3,3,,,,,,helmet,,,,,,,,,,,2,2,0,49,49,17,1,,,,,,,,,,,,,,,,,,,,,,,,,,,,,,,,,,,,,,,,,,,,,,,,,,,,,,,,,,,,,,,,,,,,,,
,,?,0.000575,0,,,,,,stimuli/images/PICTURE_160.png,HOTEL,5d4af58cf6cff50001f9cc0d,07/01/1990,2020-07-08_16h24.56.749,proactive,2020.1.2,MacIntel,60,5f035e5afe130c270d6ae6dd,5f05e4dd25ef0c0bf61fffa3,3,,,,,,wheelbarrow,,,,,,,,,,,2,2,0,50,50,16,1,,,,,,,,,,,,,,,,,,,,,,,,,,,,,,,,,,,,,,,,,,,,,,,,,,,,,,,,,,,,,,,,,,,,,,
,,?,0.00061,0,,,,,,stimuli/images/PICTURE_405.png,JUNGLE,5d4af58cf6cff50001f9cc0d,07/01/1990,2020-07-08_16h24.56.749,proactive,2020.1.2,MacIntel,60,5f035e5afe130c270d6ae6dd,5f05e4dd25ef0c0bf61fffa3,3,,,,,,anchor,,,,,,,,,,,6,2,0,51,51,58,1,,,,,,,,,,,,,,,,,,,,,,,,,,,,,,,,,,,,,,,,,,,,,,,,,,,,,,,,,,,,,,,,,,,,,,
,,?,0.000535,0,,,,,,stimuli/images/PICTURE_491.png,SERIES,5d4af58cf6cff50001f9cc0d,07/01/1990,2020-07-08_16h24.56.749,proactive,2020.1.2,MacIntel,60,5f035e5afe130c270d6ae6dd,5f05e4dd25ef0c0bf61fffa3,3,,,,,,rug,,,,,,,,,,,4,2,0,52,52,39,1,,,,,,,,,,,,,,,,,,,,,,,,,,,,,,,,,,,,,,,,,,,,,,,,,,,,,,,,,,,,,,,,,,,,,,
,,?,0.000475,0,,,,,,stimuli/images/PICTURE_32.png,LETTER,5d4af58cf6cff50001f9cc0d,07/01/1990,2020-07-08_16h24.56.749,proactive,2020.1.2,MacIntel,60,5f035e5afe130c270d6ae6dd,5f05e4dd25ef0c0bf61fffa3,3,,,,,,crown,,,,,,,,,,,6,2,0,53,53,56,1,,,,,,,,,,,,,,,,,,,,,,,,,,,,,,,,,,,,,,,,,,,,,,,,,,,,,,,,,,,,,,,,,,,,,,
,,?,0.000475,0,,,,,,stimuli/images/PICTURE_692.png,DUDE,5d4af58cf6cff50001f9cc0d,07/01/1990,2020-07-08_16h24.56.749,proactive,2020.1.2,MacIntel,60,5f035e5afe130c270d6ae6dd,5f05e4dd25ef0c0bf61fffa3,3,,,,,,cherry,,,,,,,,,,,5,2,0,54,54,47,1,,,,,,,,,,,,,,,,,,,,,,,,,,,,,,,,,,,,,,,,,,,,,,,,,,,,,,,,,,,,,,,,,,,,,,
,,?,0.000535,0,,,,,,stimuli/images/PICTURE_654.png,COPS,5d4af58cf6cff50001f9cc0d,07/01/1990,2020-07-08_16h24.56.749,proactive,2020.1.2,MacIntel,60,5f035e5afe130c270d6ae6dd,5f05e4dd25ef0c0bf61fffa3,3,,,,,,pencil,,,,,,,,,,,2,2,0,55,55,10,1,,,,,,,,,,,,,,,,,,,,,,,,,,,,,,,,,,,,,,,,,,,,,,,,,,,,,,,,,,,,,,,,,,,,,,
,,?,0.000395,0,,,,,,stimuli/images/PICTURE_655.png,SALE,5d4af58cf6cff50001f9cc0d,07/01/1990,2020-07-08_16h24.56.749,proactive,2020.1.2,MacIntel,60,5f035e5afe130c270d6ae6dd,5f05e4dd25ef0c0bf61fffa3,3,,,,,,megaphone,,,,,,,,,,,6,2,0,56,56,57,1,,,,,,,,,,,,,,,,,,,,,,,,,,,,,,,,,,,,,,,,,,,,,,,,,,,,,,,,,,,,,,,,,,,,,,
,,?,0.00039,0,,,,,,stimuli/images/PICTURE_2.png,JUNGLE,5d4af58cf6cff50001f9cc0d,07/01/1990,2020-07-08_16h24.56.749,proactive,2020.1.2,MacIntel,60,5f035e5afe130c270d6ae6dd,5f05e4dd25ef0c0bf61fffa3,3,,,,,,tyre,,,,,,,,,,,1,2,0,57,57,1,1,,,,,,,,,,,,,,,,,,,,,,,,,,,,,,,,,,,,,,,,,,,,,,,,,,,,,,,,,,,,,,,,,,,,,,
,,?,0.000395,0,,,,,,stimuli/images/PICTURE_123.png,SALE,5d4af58cf6cff50001f9cc0d,07/01/1990,2020-07-08_16h24.56.749,proactive,2020.1.2,MacIntel,60,5f035e5afe130c270d6ae6dd,5f05e4dd25ef0c0bf61fffa3,3,,,,,,dart,,,,,,,,,,,1,2,0,58,58,8,1,,,,,,,,,,,,,,,,,,,,,,,,,,,,,,,,,,,,,,,,,,,,,,,,,,,,,,,,,,,,,,,,,,,,,,
,,?,0.000595,0,,,,,,stimuli/images/PICTURE_215.png,LEADER,5d4af58cf6cff50001f9cc0d,07/01/1990,2020-07-08_16h24.56.749,proactive,2020.1.2,MacIntel,60,5f035e5afe130c270d6ae6dd,5f05e4dd25ef0c0bf61fffa3,3,,,,,,boot,,,,,,,,,,,5,2,0,59,59,43,1,,,,,,,,,,,,,,,,,,,,,,,,,,,,,,,,,,,,,,,,,,,,,,,,,,,,,,,,,,,,,,,,,,,,,,
,,,,,,,,,,,,5d4af58cf6cff50001f9cc0d,07/01/1990,2020-07-08_16h24.56.749,proactive,2020.1.2,MacIntel,60,5f035e5afe130c270d6ae6dd,5f05e4dd25ef0c0bf61fffa3,3,,,,,,,,,,,,,,,,,,,,,,,,0,0,0,2,1,stimuli/learn-block3.csv,,,,,,,,,,,,,,,,,,,,,,,,,,,,,,,,,,,,,,,,,,,,,,,,,,,,,,,,,,,,,,,,
,,,,,,,,,,stimuli/images/PICTURE_123.png,ADVICE,5d4af58cf6cff50001f9cc0d,07/01/1990,2020-07-08_16h24.56.749,proactive,2020.1.2,MacIntel,60,5f035e5afe130c270d6ae6dd,5f05e4dd25ef0c0bf61fffa3,3,,,,,,dart,,,,,,0,0,0,50,1,6,0,,,,,,,,,,,,,,,,,,,,,,,,,,,,,,,,,,,,,,,,,,,,,,,,,,,,,,,,,,,,,,,,,,,,,,,,,,,
,,,,,,,,,,stimuli/images/PICTURE_85.png,THING,5d4af58cf6cff50001f9cc0d,07/01/1990,2020-07-08_16h24.56.749,proactive,2020.1.2,MacIntel,60,5f035e5afe130c270d6ae6dd,5f05e4dd25ef0c0bf61fffa3,3,,,,,,diamond,,,,,,0,1,1,15,1,2,0,,,,,,,,,,,,,,,,,,,,,,,,,,,,,,,,,,,,,,,,,,,,,,,,,,,,,,,,,,,,,,,,,,,,,,,,,,,
,,,,,,,,,,stimuli/images/PICTURE_509.png,PHOTO,5d4af58cf6cff50001f9cc0d,07/01/1990,2020-07-08_16h24.56.749,proactive,2020.1.2,MacIntel,60,5f035e5afe130c270d6ae6dd,5f05e4dd25ef0c0bf61fffa3,3,,,,,,telephone,,,,,,0,2,2,21,1,3,0,,,,,,,,,,,,,,,,,,,,,,,,,,,,,,,,,,,,,,,,,,,,,,,,,,,,,,,,,,,,,,,,,,,,,,,,,,,
,,,,,,,,,,stimuli/images/PICTURE_314.png,SAKE,5d4af58cf6cff50001f9cc0d,07/01/1990,2020-07-08_16h24.56.749,proactive,2020.1.2,MacIntel,60,5f035e5afe130c270d6ae6dd,5f05e4dd25ef0c0bf61fffa3,3,,,,,,perfume,,,,,,0,3,3,7,1,1,0,,,,,,,,,,,,,,,,,,,,,,,,,,,,,,,,,,,,,,,,,,,,,,,,,,,,,,,,,,,,,,,,,,,,,,,,,,,
,,,,,,,,,,stimuli/images/PICTURE_708.png,PENNY,5d4af58cf6cff50001f9cc0d,07/01/1990,2020-07-08_16h24.56.749,proactive,2020.1.2,MacIntel,60,5f035e5afe130c270d6ae6dd,5f05e4dd25ef0c0bf61fffa3,3,,,,,,monkey,,,,,,0,4,4,31,1,4,0,,,,,,,,,,,,,,,,,,,,,,,,,,,,,,,,,,,,,,,,,,,,,,,,,,,,,,,,,,,,,,,,,,,,,,,,,,,
,,,,,,,,,,stimuli/images/PICTURE_744.png,SAKE,5d4af58cf6cff50001f9cc0d,07/01/1990,2020-07-08_16h24.56.749,proactive,2020.1.2,MacIntel,60,5f035e5afe130c270d6ae6dd,5f05e4dd25ef0c0bf61fffa3,3,,,,,,ring,,,,,,0,5,5,17,1,2,0,,,,,,,,,,,,,,,,,,,,,,,,,,,,,,,,,,,,,,,,,,,,,,,,,,,,,,,,,,,,,,,,,,,,,,,,,,,
,,,,,,,,,,stimuli/images/PICTURE_208.png,MONTH,5d4af58cf6cff50001f9cc0d,07/01/1990,2020-07-08_16h24.56.749,proactive,2020.1.2,MacIntel,60,5f035e5afe130c270d6ae6dd,5f05e4dd25ef0c0bf61fffa3,3,,,,,,microphone,,,,,,0,6,6,53,1,6,0,,,,,,,,,,,,,,,,,,,,,,,,,,,,,,,,,,,,,,,,,,,,,,,,,,,,,,,,,,,,,,,,,,,,,,,,,,,
,,,,,,,,,,stimuli/images/PICTURE_654.png,VALLEY,5d4af58cf6cff50001f9cc0d,07/01/1990,2020-07-08_16h24.56.749,proactive,2020.1.2,MacIntel,60,5f035e5afe130c270d6ae6dd,5f05e4dd25ef0c0bf61fffa3,3,,,,,,pencil,,,,,,0,7,7,1,1,1,0,,,,,,,,,,,,,,,,,,,,,,,,,,,,,,,,,,,,,,,,,,,,,,,,,,,,,,,,,,,,,,,,,,,,,,,,,,,
,,,,,,,,,,stimuli/images/PICTURE_469.png,LETTER,5d4af58cf6cff50001f9cc0d,07/01/1990,2020-07-08_16h24.56.749,proactive,2020.1.2,MacIntel,60,5f035e5afe130c270d6ae6dd,5f05e4dd25ef0c0bf61fffa3,3,,,,,,stool,,,,,,0,8,8,42,1,5,0,,,,,,,,,,,,,,,,,,,,,,,,,,,,,,,,,,,,,,,,,,,,,,,,,,,,,,,,,,,,,,,,,,,,,,,,,,,
,,,,,,,,,,stimuli/images/PICTURE_308.png,ESTATE,5d4af58cf6cff50001f9cc0d,07/01/1990,2020-07-08_16h24.56.749,proactive,2020.1.2,MacIntel,60,5f035e5afe130c270d6ae6dd,5f05e4dd25ef0c0bf61fffa3,3,,,,,,dice,,,,,,0,9,9,46,1,5,0,,,,,,,,,,,,,,,,,,,,,,,,,,,,,,,,,,,,,,,,,,,,,,,,,,,,,,,,,,,,,,,,,,,,,,,,,,,
,,,,,,,,,,stimuli/images/PICTURE_688.png,CASINO,5d4af58cf6cff50001f9cc0d,07/01/1990,2020-07-08_16h24.56.749,proactive,2020.1.2,MacIntel,60,5f035e5afe130c270d6ae6dd,5f05e4dd25ef0c0bf61fffa3,3,,,,,,runner,,,,,,0,10,10,2,1,1,0,,,,,,,,,,,,,,,,,,,,,,,,,,,,,,,,,,,,,,,,,,,,,,,,,,,,,,,,,,,,,,,,,,,,,,,,,,,
,,,,,,,,,,stimuli/images/PICTURE_667.png,BATH,5d4af58cf6cff50001f9cc0d,07/01/1990,2020-07-08_16h24.56.749,proactive,2020.1.2,MacIntel,60,5f035e5afe130c270d6ae6dd,5f05e4dd25ef0c0bf61fffa3,3,,,,,,daisy,,,,,,0,11,11,4,1,1,0,,,,,,,,,,,,,,,,,,,,,,,,,,,,,,,,,,,,,,,,,,,,,,,,,,,,,,,,,,,,,,,,,,,,,,,,,,,
,,,,,,,,,,stimuli/images/PICTURE_311.png,BEAUTY,5d4af58cf6cff50001f9cc0d,07/01/1990,2020-07-08_16h24.56.749,proactive,2020.1.2,MacIntel,60,5f035e5afe130c270d6ae6dd,5f05e4dd25ef0c0bf61fffa3,3,,,,,,razor,,,,,,0,12,12,13,1,2,0,,,,,,,,,,,,,,,,,,,,,,,,,,,,,,,,,,,,,,,,,,,,,,,,,,,,,,,,,,,,,,,,,,,,,,,,,,,
,,,,,,,,,,stimuli/images/PICTURE_348.png,SPEECH,5d4af58cf6cff50001f9cc0d,07/01/1990,2020-07-08_16h24.56.749,proactive,2020.1.2,MacIntel,60,5f035e5afe130c270d6ae6dd,5f05e4dd25ef0c0bf61fffa3,3,,,,,,pepper,,,,,,0,13,13,20,1,3,0,,,,,,,,,,,,,,,,,,,,,,,,,,,,,,,,,,,,,,,,,,,,,,,,,,,,,,,,,,,,,,,,,,,,,,,,,,,
,,,,,,,,,,stimuli/images/PICTURE_467.png,DEMON,5d4af58cf6cff50001f9cc0d,07/01/1990,2020-07-08_16h24.56.749,proactive,2020.1.2,MacIntel,60,5f035e5afe130c270d6ae6dd,5f05e4dd25ef0c0bf61fffa3,3,,,,,,peg,,,,,,0,14,14,23,1,3,0,,,,,,,,,,,,,,,,,,,,,,,,,,,,,,,,,,,,,,,,,,,,,,,,,,,,,,,,,,,,,,,,,,,,,,,,,,,
,,,,,,,,,,stimuli/images/PICTURE_675.png,WEAPON,5d4af58cf6cff50001f9cc0d,07/01/1990,2020-07-08_16h24.56.749,proactive,2020.1.2,MacIntel,60,5f035e5afe130c270d6ae6dd,5f05e4dd25ef0c0bf61fffa3,3,,,,,,windmill,,,,,,0,15,15,32,1,4,0,,,,,,,,,,,,,,,,,,,,,,,,,,,,,,,,,,,,,,,,,,,,,,,,,,,,,,,,,,,,,,,,,,,,,,,,,,,
,,,,,,,,,,stimuli/images/PICTURE_449.png,THING,5d4af58cf6cff50001f9cc0d,07/01/1990,2020-07-08_16h24.56.749,proactive,2020.1.2,MacIntel,60,5f035e5afe130c270d6ae6dd,5f05e4dd25ef0c0bf61fffa3,3,,,,,,bench,,,,,,0,16,16,59,1,6,0,,,,,,,,,,,,,,,,,,,,,,,,,,,,,,,,,,,,,,,,,,,,,,,,,,,,,,,,,,,,,,,,,,,,,,,,,,,
,,,,,,,,,,stimuli/images/PICTURE_248.png,DOZEN,5d4af58cf6cff50001f9cc0d,07/01/1990,2020-07-08_16h24.56.749,proactive,2020.1.2,MacIntel,60,5f035e5afe130c270d6ae6dd,5f05e4dd25ef0c0bf61fffa3,3,,,,,,cart,,,,,,0,17,17,39,1,4,0,,,,,,,,,,,,,,,,,,,,,,,,,,,,,,,,,,,,,,,,,,,,,,,,,,,,,,,,,,,,,,,,,,,,,,,,,,,
,,,,,,,,,,stimuli/images/PICTURE_487.png,FLIGHT,5d4af58cf6cff50001f9cc0d,07/01/1990,2020-07-08_16h24.56.749,proactive,2020.1.2,MacIntel,60,5f035e5afe130c270d6ae6dd,5f05e4dd25ef0c0bf61fffa3,3,,,,,,basket,,,,,,0,18,18,9,1,1,0,,,,,,,,,,,,,,,,,,,,,,,,,,,,,,,,,,,,,,,,,,,,,,,,,,,,,,,,,,,,,,,,,,,,,,,,,,,
,,,,,,,,,,stimuli/images/PICTURE_688.png,WOMEN,5d4af58cf6cff50001f9cc0d,07/01/1990,2020-07-08_16h24.56.749,proactive,2020.1.2,MacIntel,60,5f035e5afe130c270d6ae6dd,5f05e4dd25ef0c0bf61fffa3,3,,,,,,runner,,,,,,0,19,19,14,1,2,0,,,,,,,,,,,,,,,,,,,,,,,,,,,,,,,,,,,,,,,,,,,,,,,,,,,,,,,,,,,,,,,,,,,,,,,,,,,
,,,,,,,,,,stimuli/images/PICTURE_233.png,WOMEN,5d4af58cf6cff50001f9cc0d,07/01/1990,2020-07-08_16h24.56.749,proactive,2020.1.2,MacIntel,60,5f035e5afe130c270d6ae6dd,5f05e4dd25ef0c0bf61fffa3,3,,,,,,salt,,,,,,0,20,20,38,1,4,0,,,,,,,,,,,,,,,,,,,,,,,,,,,,,,,,,,,,,,,,,,,,,,,,,,,,,,,,,,,,,,,,,,,,,,,,,,,
,,,,,,,,,,stimuli/images/PICTURE_285.png,ADVICE,5d4af58cf6cff50001f9cc0d,07/01/1990,2020-07-08_16h24.56.749,proactive,2020.1.2,MacIntel,60,5f035e5afe130c270d6ae6dd,5f05e4dd25ef0c0bf61fffa3,3,,,,,,carrot,,,,,,0,21,21,12,1,2,0,,,,,,,,,,,,,,,,,,,,,,,,,,,,,,,,,,,,,,,,,,,,,,,,,,,,,,,,,,,,,,,,,,,,,,,,,,,
,,,,,,,,,,stimuli/images/PICTURE_667.png,PLENTY,5d4af58cf6cff50001f9cc0d,07/01/1990,2020-07-08_16h24.56.749,proactive,2020.1.2,MacIntel,60,5f035e5afe130c270d6ae6dd,5f05e4dd25ef0c0bf61fffa3,3,,,,,,daisy,,,,,,0,22,22,41,1,5,0,,,,,,,,,,,,,,,,,,,,,,,,,,,,,,,,,,,,,,,,,,,,,,,,,,,,,,,,,,,,,,,,,,,,,,,,,,,
,,,,,,,,,,stimuli/images/PICTURE_203.png,ARTIST,5d4af58cf6cff50001f9cc0d,07/01/1990,2020-07-08_16h24.56.749,proactive,2020.1.2,MacIntel,60,5f035e5afe130c270d6ae6dd,5f05e4dd25ef0c0bf61fffa3,3,,,,,,cap,,,,,,0,23,23,26,1,3,0,,,,,,,,,,,,,,,,,,,,,,,,,,,,,,,,,,,,,,,,,,,,,,,,,,,,,,,,,,,,,,,,,,,,,,,,,,,
,,,,,,,,,,stimuli/images/PICTURE_311.png,FRIEND,5d4af58cf6cff50001f9cc0d,07/01/1990,2020-07-08_16h24.56.749,proactive,2020.1.2,MacIntel,60,5f035e5afe130c270d6ae6dd,5f05e4dd25ef0c0bf61fffa3,3,,,,,,razor,,,,,,0,24,24,34,1,4,0,,,,,,,,,,,,,,,,,,,,,,,,,,,,,,,,,,,,,,,,,,,,,,,,,,,,,,,,,,,,,,,,,,,,,,,,,,,
,,,,,,,,,,stimuli/images/PICTURE_177.png,CARS,5d4af58cf6cff50001f9cc0d,07/01/1990,2020-07-08_16h24.56.749,proactive,2020.1.2,MacIntel,60,5f035e5afe130c270d6ae6dd,5f05e4dd25ef0c0bf61fffa3,3,,,,,,mushroom,,,,,,0,25,25,35,1,4,0,,,,,,,,,,,,,,,,,,,,,,,,,,,,,,,,,,,,,,,,,,,,,,,,,,,,,,,,,,,,,,,,,,,,,,,,,,,
,,,,,,,,,,stimuli/images/PICTURE_380.png,DEATH,5d4af58cf6cff50001f9cc0d,07/01/1990,2020-07-08_16h24.56.749,proactive,2020.1.2,MacIntel,60,5f035e5afe130c270d6ae6dd,5f05e4dd25ef0c0bf61fffa3,3,,,,,,gorilla,,,,,,0,26,26,49,1,5,0,,,,,,,,,,,,,,,,,,,,,,,,,,,,,,,,,,,,,,,,,,,,,,,,,,,,,,,,,,,,,,,,,,,,,,,,,,,
,,,,,,,,,,stimuli/images/PICTURE_160.png,FEET,5d4af58cf6cff50001f9cc0d,07/01/1990,2020-07-08_16h24.56.749,proactive,2020.1.2,MacIntel,60,5f035e5afe130c270d6ae6dd,5f05e4dd25ef0c0bf61fffa3,3,,,,,,wheelbarrow,,,,,,0,27,27,58,1,6,0,,,,,,,,,,,,,,,,,,,,,,,,,,,,,,,,,,,,,,,,,,,,,,,,,,,,,,,,,,,,,,,,,,,,,,,,,,,
,,,,,,,,,,stimuli/images/PICTURE_677.png,MILE,5d4af58cf6cff50001f9cc0d,07/01/1990,2020-07-08_16h24.56.749,proactive,2020.1.2,MacIntel,60,5f035e5afe130c270d6ae6dd,5f05e4dd25ef0c0bf61fffa3,3,,,,,,map,,,,,,0,28,28,30,1,4,0,,,,,,,,,,,,,,,,,,,,,,,,,,,,,,,,,,,,,,,,,,,,,,,,,,,,,,,,,,,,,,,,,,,,,,,,,,,
,,,,,,,,,,stimuli/images/PICTURE_68.png,MILE,5d4af58cf6cff50001f9cc0d,07/01/1990,2020-07-08_16h24.56.749,proactive,2020.1.2,MacIntel,60,5f035e5afe130c270d6ae6dd,5f05e4dd25ef0c0bf61fffa3,3,,,,,,candle,,,,,,0,29,29,44,1,5,0,,,,,,,,,,,,,,,,,,,,,,,,,,,,,,,,,,,,,,,,,,,,,,,,,,,,,,,,,,,,,,,,,,,,,,,,,,,
,,,,,,,,,,stimuli/images/PICTURE_453.png,DUDE,5d4af58cf6cff50001f9cc0d,07/01/1990,2020-07-08_16h24.56.749,proactive,2020.1.2,MacIntel,60,5f035e5afe130c270d6ae6dd,5f05e4dd25ef0c0bf61fffa3,3,,,,,,scissors,,,,,,0,30,30,27,1,3,0,,,,,,,,,,,,,,,,,,,,,,,,,,,,,,,,,,,,,,,,,,,,,,,,,,,,,,,,,,,,,,,,,,,,,,,,,,,
,,,,,,,,,,stimuli/images/PICTURE_488.png,STYLE,5d4af58cf6cff50001f9cc0d,07/01/1990,2020-07-08_16h24.56.749,proactive,2020.1.2,MacIntel,60,5f035e5afe130c270d6ae6dd,5f05e4dd25ef0c0bf61fffa3,3,,,,,,sun,,,,,,0,31,31,33,1,4,0,,,,,,,,,,,,,,,,,,,,,,,,,,,,,,,,,,,,,,,,,,,,,,,,,,,,,,,,,,,,,,,,,,,,,,,,,,,
,,,,,,,,,,stimuli/images/PICTURE_160.png,LEADER,5d4af58cf6cff50001f9cc0d,07/01/1990,2020-07-08_16h24.56.749,proactive,2020.1.2,MacIntel,60,5f035e5afe130c270d6ae6dd,5f05e4dd25ef0c0bf61fffa3,3,,,,,,wheelbarrow,,,,,,0,32,32,3,1,1,0,,,,,,,,,,,,,,,,,,,,,,,,,,,,,,,,,,,,,,,,,,,,,,,,,,,,,,,,,,,,,,,,,,,,,,,,,,,
,,,,,,,,,,stimuli/images/PICTURE_123.png,ADVICE,5d4af58cf6cff50001f9cc0d,07/01/1990,2020-07-08_16h24.56.749,proactive,2020.1.2,MacIntel,60,5f035e5afe130c270d6ae6dd,5f05e4dd25ef0c0bf61fffa3,3,,,,,,dart,,,,,,0,33,33,40,1,5,0,,,,,,,,,,,,,,,,,,,,,,,,,,,,,,,,,,,,,,,,,,,,,,,,,,,,,,,,,,,,,,,,,,,,,,,,,,,
,,,,,,,,,,stimuli/images/PICTURE_233.png,IDEAS,5d4af58cf6cff50001f9cc0d,07/01/1990,2020-07-08_16h24.56.749,proactive,2020.1.2,MacIntel,60,5f035e5afe130c270d6ae6dd,5f05e4dd25ef0c0bf61fffa3,3,,,,,,salt,,,,,,0,34,34,28,1,3,0,,,,,,,,,,,,,,,,,,,,,,,,,,,,,,,,,,,,,,,,,,,,,,,,,,,,,,,,,,,,,,,,,,,,,,,,,,,
,,,,,,,,,,stimuli/images/PICTURE_32.png,JUNGLE,5d4af58cf6cff50001f9cc0d,07/01/1990,2020-07-08_16h24.56.749,proactive,2020.1.2,MacIntel,60,5f035e5afe130c270d6ae6dd,5f05e4dd25ef0c0bf61fffa3,3,,,,,,crown,,,,,,0,35,35,45,1,5,0,,,,,,,,,,,,,,,,,,,,,,,,,,,,,,,,,,,,,,,,,,,,,,,,,,,,,,,,,,,,,,,,,,,,,,,,,,,
,,,,,,,,,,stimuli/images/PICTURE_744.png,SYSTEM,5d4af58cf6cff50001f9cc0d,07/01/1990,2020-07-08_16h24.56.749,proactive,2020.1.2,MacIntel,60,5f035e5afe130c270d6ae6dd,5f05e4dd25ef0c0bf61fffa3,3,,,,,,ring,,,,,,0,36,36,43,1,5,0,,,,,,,,,,,,,,,,,,,,,,,,,,,,,,,,,,,,,,,,,,,,,,,,,,,,,,,,,,,,,,,,,,,,,,,,,,,
,,,,,,,,,,stimuli/images/PICTURE_208.png,THING,5d4af58cf6cff50001f9cc0d,07/01/1990,2020-07-08_16h24.56.749,proactive,2020.1.2,MacIntel,60,5f035e5afe130c270d6ae6dd,5f05e4dd25ef0c0bf61fffa3,3,,,,,,microphone,,,,,,0,37,37,47,1,5,0,,,,,,,,,,,,,,,,,,,,,,,,,,,,,,,,,,,,,,,,,,,,,,,,,,,,,,,,,,,,,,,,,,,,,,,,,,,
,,,,,,,,,,stimuli/images/PICTURE_147.png,MOMENT,5d4af58cf6cff50001f9cc0d,07/01/1990,2020-07-08_16h24.56.749,proactive,2020.1.2,MacIntel,60,5f035e5afe130c270d6ae6dd,5f05e4dd25ef0c0bf61fffa3,3,,,,,,hanger,,,,,,0,38,38,51,1,6,0,,,,,,,,,,,,,,,,,,,,,,,,,,,,,,,,,,,,,,,,,,,,,,,,,,,,,,,,,,,,,,,,,,,,,,,,,,,
,,,,,,,,,,stimuli/images/PICTURE_491.png,WRITER,5d4af58cf6cff50001f9cc0d,07/01/1990,2020-07-08_16h24.56.749,proactive,2020.1.2,MacIntel,60,5f035e5afe130c270d6ae6dd,5f05e4dd25ef0c0bf61fffa3,3,,,,,,rug,,,,,,0,39,39,57,1,6,0,,,,,,,,,,,,,,,,,,,,,,,,,,,,,,,,,,,,,,,,,,,,,,,,,,,,,,,,,,,,,,,,,,,,,,,,,,,
,,,,,,,,,,stimuli/images/PICTURE_314.png,GODS,5d4af58cf6cff50001f9cc0d,07/01/1990,2020-07-08_16h24.56.749,proactive,2020.1.2,MacIntel,60,5f035e5afe130c270d6ae6dd,5f05e4dd25ef0c0bf61fffa3,3,,,,,,perfume,,,,,,0,40,40,11,1,2,0,,,,,,,,,,,,,,,,,,,,,,,,,,,,,,,,,,,,,,,,,,,,,,,,,,,,,,,,,,,,,,,,,,,,,,,,,,,
,,,,,,,,,,stimuli/images/PICTURE_708.png,CLIENT,5d4af58cf6cff50001f9cc0d,07/01/1990,2020-07-08_16h24.56.749,proactive,2020.1.2,MacIntel,60,5f035e5afe130c270d6ae6dd,5f05e4dd25ef0c0bf61fffa3,3,,,,,,monkey,,,,,,0,41,41,5,1,1,0,,,,,,,,,,,,,,,,,,,,,,,,,,,,,,,,,,,,,,,,,,,,,,,,,,,,,,,,,,,,,,,,,,,,,,,,,,,
,,,,,,,,,,stimuli/images/PICTURE_469.png,ARTIST,5d4af58cf6cff50001f9cc0d,07/01/1990,2020-07-08_16h24.56.749,proactive,2020.1.2,MacIntel,60,5f035e5afe130c270d6ae6dd,5f05e4dd25ef0c0bf61fffa3,3,,,,,,stool,,,,,,0,42,42,6,1,1,0,,,,,,,,,,,,,,,,,,,,,,,,,,,,,,,,,,,,,,,,,,,,,,,,,,,,,,,,,,,,,,,,,,,,,,,,,,,
,,,,,,,,,,stimuli/images/PICTURE_327.png,BEAUTY,5d4af58cf6cff50001f9cc0d,07/01/1990,2020-07-08_16h24.56.749,proactive,2020.1.2,MacIntel,60,5f035e5afe130c270d6ae6dd,5f05e4dd25ef0c0bf61fffa3,3,,,,,,helmet,,,,,,0,43,43,48,1,5,0,,,,,,,,,,,,,,,,,,,,,,,,,,,,,,,,,,,,,,,,,,,,,,,,,,,,,,,,,,,,,,,,,,,,,,,,,,,
,,,,,,,,,,stimuli/images/PICTURE_692.png,MONTH,5d4af58cf6cff50001f9cc0d,07/01/1990,2020-07-08_16h24.56.749,proactive,2020.1.2,MacIntel,60,5f035e5afe130c270d6ae6dd,5f05e4dd25ef0c0bf61fffa3,3,,,,,,cherry,,,,,,0,44,44,16,1,2,0,,,,,,,,,,,,,,,,,,,,,,,,,,,,,,,,,,,,,,,,,,,,,,,,,,,,,,,,,,,,,,,,,,,,,,,,,,,
,,,,,,,,,,stimuli/images/PICTURE_308.png,KIND,5d4af58cf6cff50001f9cc0d,07/01/1990,2020-07-08_16h24.56.749,proactive,2020.1.2,MacIntel,60,5f035e5afe130c270d6ae6dd,5f05e4dd25ef0c0bf61fffa3,3,,,,,,dice,,,,,,0,45,45,54,1,6,0,,,,,,,,,,,,,,,,,,,,,,,,,,,,,,,,,,,,,,,,,,,,,,,,,,,,,,,,,,,,,,,,,,,,,,,,,,,
,,,,,,,,,,stimuli/images/PICTURE_151.png,GIRL,5d4af58cf6cff50001f9cc0d,07/01/1990,2020-07-08_16h24.56.749,proactive,2020.1.2,MacIntel,60,5f035e5afe130c270d6ae6dd,5f05e4dd25ef0c0bf61fffa3,3,,,,,,tray,,,,,,0,46,46,19,1,2,0,,,,,,,,,,,,,,,,,,,,,,,,,,,,,,,,,,,,,,,,,,,,,,,,,,,,,,,,,,,,,,,,,,,,,,,,,,,
,,,,,,,,,,stimuli/images/PICTURE_255.png,AREA,5d4af58cf6cff50001f9cc0d,07/01/1990,2020-07-08_16h24.56.749,proactive,2020.1.2,MacIntel,60,5f035e5afe130c270d6ae6dd,5f05e4dd25ef0c0bf61fffa3,3,,,,,,shovel,,,,,,0,47,47,22,1,3,0,,,,,,,,,,,,,,,,,,,,,,,,,,,,,,,,,,,,,,,,,,,,,,,,,,,,,,,,,,,,,,,,,,,,,,,,,,,
,,,,,,,,,,stimuli/images/PICTURE_453.png,PLENTY,5d4af58cf6cff50001f9cc0d,07/01/1990,2020-07-08_16h24.56.749,proactive,2020.1.2,MacIntel,60,5f035e5afe130c270d6ae6dd,5f05e4dd25ef0c0bf61fffa3,3,,,,,,scissors,,,,,,0,48,48,56,1,6,0,,,,,,,,,,,,,,,,,,,,,,,,,,,,,,,,,,,,,,,,,,,,,,,,,,,,,,,,,,,,,,,,,,,,,,,,,,,
,,,,,,,,,,stimuli/images/PICTURE_504.png,BODY,5d4af58cf6cff50001f9cc0d,07/01/1990,2020-07-08_16h24.56.749,proactive,2020.1.2,MacIntel,60,5f035e5afe130c270d6ae6dd,5f05e4dd25ef0c0bf61fffa3,3,,,,,,wheel,,,,,,0,49,49,8,1,1,0,,,,,,,,,,,,,,,,,,,,,,,,,,,,,,,,,,,,,,,,,,,,,,,,,,,,,,,,,,,,,,,,,,,,,,,,,,,
,,,,,,,,,,stimuli/images/PICTURE_95.png,STYLE,5d4af58cf6cff50001f9cc0d,07/01/1990,2020-07-08_16h24.56.749,proactive,2020.1.2,MacIntel,60,5f035e5afe130c270d6ae6dd,5f05e4dd25ef0c0bf61fffa3,3,,,,,,suitcase,,,,,,0,50,50,25,1,3,0,,,,,,,,,,,,,,,,,,,,,,,,,,,,,,,,,,,,,,,,,,,,,,,,,,,,,,,,,,,,,,,,,,,,,,,,,,,
,,,,,,,,,,stimuli/images/PICTURE_470.png,CASINO,5d4af58cf6cff50001f9cc0d,07/01/1990,2020-07-08_16h24.56.749,proactive,2020.1.2,MacIntel,60,5f035e5afe130c270d6ae6dd,5f05e4dd25ef0c0bf61fffa3,3,,,,,,motorbike,,,,,,0,51,51,36,1,4,0,,,,,,,,,,,,,,,,,,,,,,,,,,,,,,,,,,,,,,,,,,,,,,,,,,,,,,,,,,,,,,,,,,,,,,,,,,,
,,,,,,,,,,stimuli/images/PICTURE_708.png,YARD,5d4af58cf6cff50001f9cc0d,07/01/1990,2020-07-08_16h24.56.749,proactive,2020.1.2,MacIntel,60,5f035e5afe130c270d6ae6dd,5f05e4dd25ef0c0bf61fffa3,3,,,,,,monkey,,,,,,0,52,52,29,1,3,0,,,,,,,,,,,,,,,,,,,,,,,,,,,,,,,,,,,,,,,,,,,,,,,,,,,,,,,,,,,,,,,,,,,,,,,,,,,
,,,,,,,,,,stimuli/images/PICTURE_339.png,PLENTY,5d4af58cf6cff50001f9cc0d,07/01/1990,2020-07-08_16h24.56.749,proactive,2020.1.2,MacIntel,60,5f035e5afe130c270d6ae6dd,5f05e4dd25ef0c0bf61fffa3,3,,,,,,backpack,,,,,,0,53,53,0,1,1,0,,,,,,,,,,,,,,,,,,,,,,,,,,,,,,,,,,,,,,,,,,,,,,,,,,,,,,,,,,,,,,,,,,,,,,,,,,,
,,,,,,,,,,stimuli/images/PICTURE_491.png,ROOF,5d4af58cf6cff50001f9cc0d,07/01/1990,2020-07-08_16h24.56.749,proactive,2020.1.2,MacIntel,60,5f035e5afe130c270d6ae6dd,5f05e4dd25ef0c0bf61fffa3,3,,,,,,rug,,,,,,0,54,54,24,1,3,0,,,,,,,,,,,,,,,,,,,,,,,,,,,,,,,,,,,,,,,,,,,,,,,,,,,,,,,,,,,,,,,,,,,,,,,,,,,
,,,,,,,,,,stimuli/images/PICTURE_356.png,DANGER,5d4af58cf6cff50001f9cc0d,07/01/1990,2020-07-08_16h24.56.749,proactive,2020.1.2,MacIntel,60,5f035e5afe130c270d6ae6dd,5f05e4dd25ef0c0bf61fffa3,3,,,,,,pawn,,,,,,0,55,55,55,1,6,0,,,,,,,,,,,,,,,,,,,,,,,,,,,,,,,,,,,,,,,,,,,,,,,,,,,,,,,,,,,,,,,,,,,,,,,,,,,
,,,,,,,,,,stimuli/images/PICTURE_215.png,PLENTY,5d4af58cf6cff50001f9cc0d,07/01/1990,2020-07-08_16h24.56.749,proactive,2020.1.2,MacIntel,60,5f035e5afe130c270d6ae6dd,5f05e4dd25ef0c0bf61fffa3,3,,,,,,boot,,,,,,0,56,56,37,1,4,0,,,,,,,,,,,,,,,,,,,,,,,,,,,,,,,,,,,,,,,,,,,,,,,,,,,,,,,,,,,,,,,,,,,,,,,,,,,
,,,,,,,,,,stimuli/images/PICTURE_302.png,FAMILY,5d4af58cf6cff50001f9cc0d,07/01/1990,2020-07-08_16h24.56.749,proactive,2020.1.2,MacIntel,60,5f035e5afe130c270d6ae6dd,5f05e4dd25ef0c0bf61fffa3,3,,,,,,taxi,,,,,,0,57,57,18,1,2,0,,,,,,,,,,,,,,,,,,,,,,,,,,,,,,,,,,,,,,,,,,,,,,,,,,,,,,,,,,,,,,,,,,,,,,,,,,,
,,,,,,,,,,stimuli/images/PICTURE_208.png,LOTS,5d4af58cf6cff50001f9cc0d,07/01/1990,2020-07-08_16h24.56.749,proactive,2020.1.2,MacIntel,60,5f035e5afe130c270d6ae6dd,5f05e4dd25ef0c0bf61fffa3,3,,,,,,microphone,,,,,,0,58,58,10,1,2,0,,,,,,,,,,,,,,,,,,,,,,,,,,,,,,,,,,,,,,,,,,,,,,,,,,,,,,,,,,,,,,,,,,,,,,,,,,,
,,?,0.001255,0,,,,,,stimuli/images/PICTURE_667.png,PLENTY,5d4af58cf6cff50001f9cc0d,07/01/1990,2020-07-08_16h24.56.749,proactive,2020.1.2,MacIntel,60,5f035e5afe130c270d6ae6dd,5f05e4dd25ef0c0bf61fffa3,3,,,,,,daisy,,,,,,,,,,,5,0,0,0,0,41,1,,,,,,,,,,,,,,,,,,,,,,,,,,,,,,,,,,,,,,,,,,,,,,,,,,,,,,,,,,,,,,,,,,,,,,
,,?,0.000465,0,,,,,,stimuli/images/PICTURE_208.png,MONTH,5d4af58cf6cff50001f9cc0d,07/01/1990,2020-07-08_16h24.56.749,proactive,2020.1.2,MacIntel,60,5f035e5afe130c270d6ae6dd,5f05e4dd25ef0c0bf61fffa3,3,,,,,,microphone,,,,,,,,,,,6,0,0,1,1,53,1,,,,,,,,,,,,,,,,,,,,,,,,,,,,,,,,,,,,,,,,,,,,,,,,,,,,,,,,,,,,,,,,,,,,,,
,,?,0.000465,0,,,,,,stimuli/images/PICTURE_677.png,MILE,5d4af58cf6cff50001f9cc0d,07/01/1990,2020-07-08_16h24.56.749,proactive,2020.1.2,MacIntel,60,5f035e5afe130c270d6ae6dd,5f05e4dd25ef0c0bf61fffa3,3,,,,,,map,,,,,,,,,,,4,0,0,2,2,30,1,,,,,,,,,,,,,,,,,,,,,,,,,,,,,,,,,,,,,,,,,,,,,,,,,,,,,,,,,,,,,,,,,,,,,,
,,?,0.00037,0,,,,,,stimuli/images/PICTURE_248.png,DOZEN,5d4af58cf6cff50001f9cc0d,07/01/1990,2020-07-08_16h24.56.749,proactive,2020.1.2,MacIntel,60,5f035e5afe130c270d6ae6dd,5f05e4dd25ef0c0bf61fffa3,3,,,,,,cart,,,,,,,,,,,4,0,0,3,3,39,1,,,,,,,,,,,,,,,,,,,,,,,,,,,,,,,,,,,,,,,,,,,,,,,,,,,,,,,,,,,,,,,,,,,,,,
,,?,0.00036,0,,,,,,stimuli/images/PICTURE_177.png,CARS,5d4af58cf6cff50001f9cc0d,07/01/1990,2020-07-08_16h24.56.749,proactive,2020.1.2,MacIntel,60,5f035e5afe130c270d6ae6dd,5f05e4dd25ef0c0bf61fffa3,3,,,,,,mushroom,,,,,,,,,,,4,0,0,4,4,35,1,,,,,,,,,,,,,,,,,,,,,,,,,,,,,,,,,,,,,,,,,,,,,,,,,,,,,,,,,,,,,,,,,,,,,,
,,?,0.00055,0,,,,,,stimuli/images/PICTURE_314.png,GODS,5d4af58cf6cff50001f9cc0d,07/01/1990,2020-07-08_16h24.56.749,proactive,2020.1.2,MacIntel,60,5f035e5afe130c270d6ae6dd,5f05e4dd25ef0c0bf61fffa3,3,,,,,,perfume,,,,,,,,,,,2,0,0,5,5,11,1,,,,,,,,,,,,,,,,,,,,,,,,,,,,,,,,,,,,,,,,,,,,,,,,,,,,,,,,,,,,,,,,,,,,,,
,,?,0.000495,0,,,,,,stimuli/images/PICTURE_147.png,MOMENT,5d4af58cf6cff50001f9cc0d,07/01/1990,2020-07-08_16h24.56.749,proactive,2020.1.2,MacIntel,60,5f035e5afe130c270d6ae6dd,5f05e4dd25ef0c0bf61fffa3,3,,,,,,hanger,,,,,,,,,,,6,0,0,6,6,51,1,,,,,,,,,,,,,,,,,,,,,,,,,,,,,,,,,,,,,,,,,,,,,,,,,,,,,,,,,,,,,,,,,,,,,,
,,?,0.0005,0,,,,,,stimuli/images/PICTURE_688.png,WOMEN,5d4af58cf6cff50001f9cc0d,07/01/1990,2020-07-08_16h24.56.749,proactive,2020.1.2,MacIntel,60,5f035e5afe130c270d6ae6dd,5f05e4dd25ef0c0bf61fffa3,3,,,,,,runner,,,,,,,,,,,2,0,0,7,7,14,1,,,,,,,,,,,,,,,,,,,,,,,,,,,,,,,,,,,,,,,,,,,,,,,,,,,,,,,,,,,,,,,,,,,,,,
,,?,0.00041,0,,,,,,stimuli/images/PICTURE_233.png,WOMEN,5d4af58cf6cff50001f9cc0d,07/01/1990,2020-07-08_16h24.56.749,proactive,2020.1.2,MacIntel,60,5f035e5afe130c270d6ae6dd,5f05e4dd25ef0c0bf61fffa3,3,,,,,,salt,,,,,,,,,,,4,0,0,8,8,38,1,,,,,,,,,,,,,,,,,,,,,,,,,,,,,,,,,,,,,,,,,,,,,,,,,,,,,,,,,,,,,,,,,,,,,,
,,?,0.000365,0,,,,,,stimuli/images/PICTURE_692.png,MONTH,5d4af58cf6cff50001f9cc0d,07/01/1990,2020-07-08_16h24.56.749,proactive,2020.1.2,MacIntel,60,5f035e5afe130c270d6ae6dd,5f05e4dd25ef0c0bf61fffa3,3,,,,,,cherry,,,,,,,,,,,2,0,0,9,9,16,1,,,,,,,,,,,,,,,,,,,,,,,,,,,,,,,,,,,,,,,,,,,,,,,,,,,,,,,,,,,,,,,,,,,,,,
,,IDEAS,2.0829,1,,,,,,stimuli/images/PICTURE_233.png,IDEAS,5d4af58cf6cff50001f9cc0d,07/01/1990,2020-07-08_16h24.56.749,proactive,2020.1.2,MacIntel,60,5f035e5afe130c270d6ae6dd,5f05e4dd25ef0c0bf61fffa3,3,,,,,,salt,,,,,,,,,,,3,0,0,10,10,28,1,,,,,,,,,,,,,,,,,,,,,,,,,,,,,,,,,,,,,,,,,,,,,,,,,,,,,,,,,,,,,,,,,,,,,,
,,?,0.000855,0,,,,,,stimuli/images/PICTURE_32.png,JUNGLE,5d4af58cf6cff50001f9cc0d,07/01/1990,2020-07-08_16h24.56.749,proactive,2020.1.2,MacIntel,60,5f035e5afe130c270d6ae6dd,5f05e4dd25ef0c0bf61fffa3,3,,,,,,crown,,,,,,,,,,,5,0,0,11,11,45,1,,,,,,,,,,,,,,,,,,,,,,,,,,,,,,,,,,,,,,,,,,,,,,,,,,,,,,,,,,,,,,,,,,,,,,
,,PHOTO,3.585295,1,,,,,,stimuli/images/PICTURE_509.png,PHOTO,5d4af58cf6cff50001f9cc0d,07/01/1990,2020-07-08_16h24.56.749,proactive,2020.1.2,MacIntel,60,5f035e5afe130c270d6ae6dd,5f05e4dd25ef0c0bf61fffa3,3,,,,,,telephone,,,,,,,,,,,3,0,0,12,12,21,1,,,,,,,,,,,,,,,,,,,,,,,,,,,,,,,,,,,,,,,,,,,,,,,,,,,,,,,,,,,,,,,,,,,,,,
,,STYLE,2.535065,1,,,,,,stimuli/images/PICTURE_95.png,STYLE,5d4af58cf6cff50001f9cc0d,07/01/1990,2020-07-08_16h24.56.749,proactive,2020.1.2,MacIntel,60,5f035e5afe130c270d6ae6dd,5f05e4dd25ef0c0bf61fffa3,3,,,,,,suitcase,,,,,,,,,,,3,0,0,13,13,25,1,,,,,,,,,,,,,,,,,,,,,,,,,,,,,,,,,,,,,,,,,,,,,,,,,,,,,,,,,,,,,,,,,,,,,,
,,?,0.00071,0,,,,,,stimuli/images/PICTURE_688.png,CASINO,5d4af58cf6cff50001f9cc0d,07/01/1990,2020-07-08_16h24.56.749,proactive,2020.1.2,MacIntel,60,5f035e5afe130c270d6ae6dd,5f05e4dd25ef0c0bf61fffa3,3,,,,,,runner,,,,,,,,,,,1,0,0,14,14,2,1,,,,,,,,,,,,,,,,,,,,,,,,,,,,,,,,,,,,,,,,,,,,,,,,,,,,,,,,,,,,,,,,,,,,,,
,,ARTIST,3.756575,1,,,,,,stimuli/images/PICTURE_203.png,ARTIST,5d4af58cf6cff50001f9cc0d,07/01/1990,2020-07-08_16h24.56.749,proactive,2020.1.2,MacIntel,60,5f035e5afe130c270d6ae6dd,5f05e4dd25ef0c0bf61fffa3,3,,,,,,cap,,,,,,,,,,,3,0,0,15,15,26,1,,,,,,,,,,,,,,,,,,,,,,,,,,,,,,,,,,,,,,,,,,,,,,,,,,,,,,,,,,,,,,,,,,,,,,
,,?,0.00075,0,,,,,,stimuli/images/PICTURE_491.png,WRITER,5d4af58cf6cff50001f9cc0d,07/01/1990,2020-07-08_16h24.56.749,proactive,2020.1.2,MacIntel,60,5f035e5afe130c270d6ae6dd,5f05e4dd25ef0c0bf61fffa3,3,,,,,,rug,,,,,,,,,,,6,0,0,16,16,57,1,,,,,,,,,,,,,,,,,,,,,,,,,,,,,,,,,,,,,,,,,,,,,,,,,,,,,,,,,,,,,,,,,,,,,,
,,DEMON,3.56816,1,,,,,,stimuli/images/PICTURE_467.png,DEMON,5d4af58cf6cff50001f9cc0d,07/01/1990,2020-07-08_16h24.56.749,proactive,2020.1.2,MacIntel,60,5f035e5afe130c270d6ae6dd,5f05e4dd25ef0c0bf61fffa3,3,,,,,,peg,,,,,,,,,,,3,0,0,17,17,23,1,,,,,,,,,,,,,,,,,,,,,,,,,,,,,,,,,,,,,,,,,,,,,,,,,,,,,,,,,,,,,,,,,,,,,,
,,ROOF,1.490615,1,,,,,,stimuli/images/PICTURE_491.png,ROOF,5d4af58cf6cff50001f9cc0d,07/01/1990,2020-07-08_16h24.56.749,proactive,2020.1.2,MacIntel,60,5f035e5afe130c270d6ae6dd,5f05e4dd25ef0c0bf61fffa3,3,,,,,,rug,,,,,,,,,,,3,0,0,18,18,24,1,,,,,,,,,,,,,,,,,,,,,,,,,,,,,,,,,,,,,,,,,,,,,,,,,,,,,,,,,,,,,,,,,,,,,,
,,?,0.00083,0,,,,,,stimuli/images/PICTURE_708.png,CLIENT,5d4af58cf6cff50001f9cc0d,07/01/1990,2020-07-08_16h24.56.749,proactive,2020.1.2,MacIntel,60,5f035e5afe130c270d6ae6dd,5f05e4dd25ef0c0bf61fffa3,3,,,,,,monkey,,,,,,,,,,,1,0,0,19,19,5,1,,,,,,,,,,,,,,,,,,,,,,,,,,,,,,,,,,,,,,,,,,,,,,,,,,,,,,,,,,,,,,,,,,,,,,
,,?,0.000465,0,,,,,,stimuli/images/PICTURE_449.png,THING,5d4af58cf6cff50001f9cc0d,07/01/1990,2020-07-08_16h24.56.749,proactive,2020.1.2,MacIntel,60,5f035e5afe130c270d6ae6dd,5f05e4dd25ef0c0bf61fffa3,3,,,,,,bench,,,,,,,,,,,6,0,0,20,20,59,1,,,,,,,,,,,,,,,,,,,,,,,,,,,,,,,,,,,,,,,,,,,,,,,,,,,,,,,,,,,,,,,,,,,,,,
,,?,0.00046,0,,,,,,stimuli/images/PICTURE_339.png,PLENTY,5d4af58cf6cff50001f9cc0d,07/01/1990,2020-07-08_16h24.56.749,proactive,2020.1.2,MacIntel,60,5f035e5afe130c270d6ae6dd,5f05e4dd25ef0c0bf61fffa3,3,,,,,,backpack,,,,,,,,,,,1,0,0,21,21,0,1,,,,,,,,,,,,,,,,,,,,,,,,,,,,,,,,,,,,,,,,,,,,,,,,,,,,,,,,,,,,,,,,,,,,,,
,,?,0.000435,0,,,,,,stimuli/images/PICTURE_311.png,FRIEND,5d4af58cf6cff50001f9cc0d,07/01/1990,2020-07-08_16h24.56.749,proactive,2020.1.2,MacIntel,60,5f035e5afe130c270d6ae6dd,5f05e4dd25ef0c0bf61fffa3,3,,,,,,razor,,,,,,,,,,,4,0,0,22,22,34,1,,,,,,,,,,,,,,,,,,,,,,,,,,,,,,,,,,,,,,,,,,,,,,,,,,,,,,,,,,,,,,,,,,,,,,
,,?,0.00046,0,,,,,,stimuli/images/PICTURE_314.png,SAKE,5d4af58cf6cff50001f9cc0d,07/01/1990,2020-07-08_16h24.56.749,proactive,2020.1.2,MacIntel,60,5f035e5afe130c270d6ae6dd,5f05e4dd25ef0c0bf61fffa3,3,,,,,,perfume,,,,,,,,,,,1,0,0,23,23,7,1,,,,,,,,,,,,,,,,,,,,,,,,,,,,,,,,,,,,,,,,,,,,,,,,,,,,,,,,,,,,,,,,,,,,,,
,,?,0.00044,0,,,,,,stimuli/images/PICTURE_654.png,VALLEY,5d4af58cf6cff50001f9cc0d,07/01/1990,2020-07-08_16h24.56.749,proactive,2020.1.2,MacIntel,60,5f035e5afe130c270d6ae6dd,5f05e4dd25ef0c0bf61fffa3,3,,,,,,pencil,,,,,,,,,,,1,0,0,24,24,1,1,,,,,,,,,,,,,,,,,,,,,,,,,,,,,,,,,,,,,,,,,,,,,,,,,,,,,,,,,,,,,,,,,,,,,,
,,?,0.000445,0,,,,,,stimuli/images/PICTURE_160.png,FEET,5d4af58cf6cff50001f9cc0d,07/01/1990,2020-07-08_16h24.56.749,proactive,2020.1.2,MacIntel,60,5f035e5afe130c270d6ae6dd,5f05e4dd25ef0c0bf61fffa3,3,,,,,,wheelbarrow,,,,,,,,,,,6,0,0,25,25,58,1,,,,,,,,,,,,,,,,,,,,,,,,,,,,,,,,,,,,,,,,,,,,,,,,,,,,,,,,,,,,,,,,,,,,,,
,,KINGDOM,7.41453,0,,,,,,stimuli/images/PICTURE_708.png,YARD,5d4af58cf6cff50001f9cc0d,07/01/1990,2020-07-08_16h24.56.749,proactive,2020.1.2,MacIntel,60,5f035e5afe130c270d6ae6dd,5f05e4dd25ef0c0bf61fffa3,3,,,,,,monkey,,,,,,,,,,,3,0,0,26,26,29,1,,,,,,,,,,,,,,,,,,,,,,,,,,,,,,,,,,,,,,,,,,,,,,,,,,,,,,,,,,,,,,,,,,,,,,
,,?,0.000735,0,,,,,,stimuli/images/PICTURE_744.png,SYSTEM,5d4af58cf6cff50001f9cc0d,07/01/1990,2020-07-08_16h24.56.749,proactive,2020.1.2,MacIntel,60,5f035e5afe130c270d6ae6dd,5f05e4dd25ef0c0bf61fffa3,3,,,,,,ring,,,,,,,,,,,5,0,0,27,27,43,1,,,,,,,,,,,,,,,,,,,,,,,,,,,,,,,,,,,,,,,,,,,,,,,,,,,,,,,,,,,,,,,,,,,,,,
,,?,0.00053,0,,,,,,stimuli/images/PICTURE_208.png,THING,5d4af58cf6cff50001f9cc0d,07/01/1990,2020-07-08_16h24.56.749,proactive,2020.1.2,MacIntel,60,5f035e5afe130c270d6ae6dd,5f05e4dd25ef0c0bf61fffa3,3,,,,,,microphone,,,,,,,,,,,5,0,0,28,28,47,1,,,,,,,,,,,,,,,,,,,,,,,,,,,,,,,,,,,,,,,,,,,,,,,,,,,,,,,,,,,,,,,,,,,,,,
,,SPEECH,2.680335,1,,,,,,stimuli/images/PICTURE_348.png,SPEECH,5d4af58cf6cff50001f9cc0d,07/01/1990,2020-07-08_16h24.56.749,proactive,2020.1.2,MacIntel,60,5f035e5afe130c270d6ae6dd,5f05e4dd25ef0c0bf61fffa3,3,,,,,,pepper,,,,,,,,,,,3,0,0,29,29,20,1,,,,,,,,,,,,,,,,,,,,,,,,,,,,,,,,,,,,,,,,,,,,,,,,,,,,,,,,,,,,,,,,,,,,,,
,,?,0.00078,0,,,,,,stimuli/images/PICTURE_469.png,ARTIST,5d4af58cf6cff50001f9cc0d,07/01/1990,2020-07-08_16h24.56.749,proactive,2020.1.2,MacIntel,60,5f035e5afe130c270d6ae6dd,5f05e4dd25ef0c0bf61fffa3,3,,,,,,stool,,,,,,,,,,,1,0,0,30,30,6,1,,,,,,,,,,,,,,,,,,,,,,,,,,,,,,,,,,,,,,,,,,,,,,,,,,,,,,,,,,,,,,,,,,,,,,
,,?,0.000555,0,,,,,,stimuli/images/PICTURE_160.png,LEADER,5d4af58cf6cff50001f9cc0d,07/01/1990,2020-07-08_16h24.56.749,proactive,2020.1.2,MacIntel,60,5f035e5afe130c270d6ae6dd,5f05e4dd25ef0c0bf61fffa3,3,,,,,,wheelbarrow,,,,,,,,,,,1,0,0,31,31,3,1,,,,,,,,,,,,,,,,,,,,,,,,,,,,,,,,,,,,,,,,,,,,,,,,,,,,,,,,,,,,,,,,,,,,,,
,,?,0.000515,0,,,,,,stimuli/images/PICTURE_380.png,PHOTO,5d4af58cf6cff50001f9cc0d,07/01/1990,2020-07-08_16h24.56.749,proactive,2020.1.2,MacIntel,60,5f035e5afe130c270d6ae6dd,5f05e4dd25ef0c0bf61fffa3,3,,,,,,gorilla,,,,,,,,,,,6,0,0,32,32,52,1,,,,,,,,,,,,,,,,,,,,,,,,,,,,,,,,,,,,,,,,,,,,,,,,,,,,,,,,,,,,,,,,,,,,,,
,,?,0.00045,0,,,,,,stimuli/images/PICTURE_85.png,THING,5d4af58cf6cff50001f9cc0d,07/01/1990,2020-07-08_16h24.56.749,proactive,2020.1.2,MacIntel,60,5f035e5afe130c270d6ae6dd,5f05e4dd25ef0c0bf61fffa3,3,,,,,,diamond,,,,,,,,,,,2,0,0,33,33,15,1,,,,,,,,,,,,,,,,,,,,,,,,,,,,,,,,,,,,,,,,,,,,,,,,,,,,,,,,,,,,,,,,,,,,,,
,,DUDE,1.81378,1,,,,,,stimuli/images/PICTURE_453.png,DUDE,5d4af58cf6cff50001f9cc0d,07/01/1990,2020-07-08_16h24.56.749,proactive,2020.1.2,MacIntel,60,5f035e5afe130c270d6ae6dd,5f05e4dd25ef0c0bf61fffa3,3,,,,,,scissors,,,,,,,,,,,3,0,0,34,34,27,1,,,,,,,,,,,,,,,,,,,,,,,,,,,,,,,,,,,,,,,,,,,,,,,,,,,,,,,,,,,,,,,,,,,,,,
,,?,0.00079,0,,,,,,stimuli/images/PICTURE_311.png,BEAUTY,5d4af58cf6cff50001f9cc0d,07/01/1990,2020-07-08_16h24.56.749,proactive,2020.1.2,MacIntel,60,5f035e5afe130c270d6ae6dd,5f05e4dd25ef0c0bf61fffa3,3,,,,,,razor,,,,,,,,,,,2,0,0,35,35,13,1,,,,,,,,,,,,,,,,,,,,,,,,,,,,,,,,,,,,,,,,,,,,,,,,,,,,,,,,,,,,,,,,,,,,,,
,,?,0.00049,0,,,,,,stimuli/images/PICTURE_469.png,LETTER,5d4af58cf6cff50001f9cc0d,07/01/1990,2020-07-08_16h24.56.749,proactive,2020.1.2,MacIntel,60,5f035e5afe130c270d6ae6dd,5f05e4dd25ef0c0bf61fffa3,3,,,,,,stool,,,,,,,,,,,5,0,0,36,36,42,1,,,,,,,,,,,,,,,,,,,,,,,,,,,,,,,,,,,,,,,,,,,,,,,,,,,,,,,,,,,,,,,,,,,,,,
,,?,0.00047,0,,,,,,stimuli/images/PICTURE_151.png,GIRL,5d4af58cf6cff50001f9cc0d,07/01/1990,2020-07-08_16h24.56.749,proactive,2020.1.2,MacIntel,60,5f035e5afe130c270d6ae6dd,5f05e4dd25ef0c0bf61fffa3,3,,,,,,tray,,,,,,,,,,,2,0,0,37,37,19,1,,,,,,,,,,,,,,,,,,,,,,,,,,,,,,,,,,,,,,,,,,,,,,,,,,,,,,,,,,,,,,,,,,,,,,
,,?,0.00044,0,,,,,,stimuli/images/PICTURE_708.png,PENNY,5d4af58cf6cff50001f9cc0d,07/01/1990,2020-07-08_16h24.56.749,proactive,2020.1.2,MacIntel,60,5f035e5afe130c270d6ae6dd,5f05e4dd25ef0c0bf61fffa3,3,,,,,,monkey,,,,,,,,,,,4,0,0,38,38,31,1,,,,,,,,,,,,,,,,,,,,,,,,,,,,,,,,,,,,,,,,,,,,,,,,,,,,,,,,,,,,,,,,,,,,,,
,,?,0.00045,0,,,,,,stimuli/images/PICTURE_675.png,WEAPON,5d4af58cf6cff50001f9cc0d,07/01/1990,2020-07-08_16h24.56.749,proactive,2020.1.2,MacIntel,60,5f035e5afe130c270d6ae6dd,5f05e4dd25ef0c0bf61fffa3,3,,,,,,windmill,,,,,,,,,,,4,0,0,39,39,32,1,,,,,,,,,,,,,,,,,,,,,,,,,,,,,,,,,,,,,,,,,,,,,,,,,,,,,,,,,,,,,,,,,,,,,,
,,?,0.00046,0,,,,,,stimuli/images/PICTURE_215.png,PLENTY,5d4af58cf6cff50001f9cc0d,07/01/1990,2020-07-08_16h24.56.749,proactive,2020.1.2,MacIntel,60,5f035e5afe130c270d6ae6dd,5f05e4dd25ef0c0bf61fffa3,3,,,,,,boot,,,,,,,,,,,4,0,0,40,40,37,1,,,,,,,,,,,,,,,,,,,,,,,,,,,,,,,,,,,,,,,,,,,,,,,,,,,,,,,,,,,,,,,,,,,,,,
,,?,0.00045,0,,,,,,stimuli/images/PICTURE_327.png,BEAUTY,5d4af58cf6cff50001f9cc0d,07/01/1990,2020-07-08_16h24.56.749,proactive,2020.1.2,MacIntel,60,5f035e5afe130c270d6ae6dd,5f05e4dd25ef0c0bf61fffa3,3,,,,,,helmet,,,,,,,,,,,5,0,0,41,41,48,1,,,,,,,,,,,,,,,,,,,,,,,,,,,,,,,,,,,,,,,,,,,,,,,,,,,,,,,,,,,,,,,,,,,,,,
,,?,0.00037,0,,,,,,stimuli/images/PICTURE_488.png,STYLE,5d4af58cf6cff50001f9cc0d,07/01/1990,2020-07-08_16h24.56.749,proactive,2020.1.2,MacIntel,60,5f035e5afe130c270d6ae6dd,5f05e4dd25ef0c0bf61fffa3,3,,,,,,sun,,,,,,,,,,,4,0,0,42,42,33,1,,,,,,,,,,,,,,,,,,,,,,,,,,,,,,,,,,,,,,,,,,,,,,,,,,,,,,,,,,,,,,,,,,,,,,
,,?,0.000385,0,,,,,,stimuli/images/PICTURE_123.png,ADVICE,5d4af58cf6cff50001f9cc0d,07/01/1990,2020-07-08_16h24.56.749,proactive,2020.1.2,MacIntel,60,5f035e5afe130c270d6ae6dd,5f05e4dd25ef0c0bf61fffa3,3,,,,,,dart,,,,,,,,,,,6,0,0,43,43,50,1,,,,,,,,,,,,,,,,,,,,,,,,,,,,,,,,,,,,,,,,,,,,,,,,,,,,,,,,,,,,,,,,,,,,,,
,,?,0.0004,0,,,,,,stimuli/images/PICTURE_208.png,LOTS,5d4af58cf6cff50001f9cc0d,07/01/1990,2020-07-08_16h24.56.749,proactive,2020.1.2,MacIntel,60,5f035e5afe130c270d6ae6dd,5f05e4dd25ef0c0bf61fffa3,3,,,,,,microphone,,,,,,,,,,,2,0,0,44,44,10,1,,,,,,,,,,,,,,,,,,,,,,,,,,,,,,,,,,,,,,,,,,,,,,,,,,,,,,,,,,,,,,,,,,,,,,
,,?,0.00065,0,,,,,,stimuli/images/PICTURE_470.png,CASINO,5d4af58cf6cff50001f9cc0d,07/01/1990,2020-07-08_16h24.56.749,proactive,2020.1.2,MacIntel,60,5f035e5afe130c270d6ae6dd,5f05e4dd25ef0c0bf61fffa3,3,,,,,,motorbike,,,,,,,,,,,4,0,0,45,45,36,1,,,,,,,,,,,,,,,,,,,,,,,,,,,,,,,,,,,,,,,,,,,,,,,,,,,,,,,,,,,,,,,,,,,,,,
,,?,0.000475,0,,,,,,stimuli/images/PICTURE_356.png,DANGER,5d4af58cf6cff50001f9cc0d,07/01/1990,2020-07-08_16h24.56.749,proactive,2020.1.2,MacIntel,60,5f035e5afe130c270d6ae6dd,5f05e4dd25ef0c0bf61fffa3,3,,,,,,pawn,,,,,,,,,,,6,0,0,46,46,55,1,,,,,,,,,,,,,,,,,,,,,,,,,,,,,,,,,,,,,,,,,,,,,,,,,,,,,,,,,,,,,,,,,,,,,,
,,?,0.000495,0,,,,,,stimuli/images/PICTURE_744.png,SAKE,5d4af58cf6cff50001f9cc0d,07/01/1990,2020-07-08_16h24.56.749,proactive,2020.1.2,MacIntel,60,5f035e5afe130c270d6ae6dd,5f05e4dd25ef0c0bf61fffa3,3,,,,,,ring,,,,,,,,,,,2,0,0,47,47,17,1,,,,,,,,,,,,,,,,,,,,,,,,,,,,,,,,,,,,,,,,,,,,,,,,,,,,,,,,,,,,,,,,,,,,,,
,,?,0.000395,0,,,,,,stimuli/images/PICTURE_123.png,ADVICE,5d4af58cf6cff50001f9cc0d,07/01/1990,2020-07-08_16h24.56.749,proactive,2020.1.2,MacIntel,60,5f035e5afe130c270d6ae6dd,5f05e4dd25ef0c0bf61fffa3,3,,,,,,dart,,,,,,,,,,,5,0,0,48,48,40,1,,,,,,,,,,,,,,,,,,,,,,,,,,,,,,,,,,,,,,,,,,,,,,,,,,,,,,,,,,,,,,,,,,,,,,
,,?,0.00032,0,,,,,,stimuli/images/PICTURE_308.png,KIND,5d4af58cf6cff50001f9cc0d,07/01/1990,2020-07-08_16h24.56.749,proactive,2020.1.2,MacIntel,60,5f035e5afe130c270d6ae6dd,5f05e4dd25ef0c0bf61fffa3,3,,,,,,dice,,,,,,,,,,,6,0,0,49,49,54,1,,,,,,,,,,,,,,,,,,,,,,,,,,,,,,,,,,,,,,,,,,,,,,,,,,,,,,,,,,,,,,,,,,,,,,
,,?,0.00032,0,,,,,,stimuli/images/PICTURE_487.png,FLIGHT,5d4af58cf6cff50001f9cc0d,07/01/1990,2020-07-08_16h24.56.749,proactive,2020.1.2,MacIntel,60,5f035e5afe130c270d6ae6dd,5f05e4dd25ef0c0bf61fffa3,3,,,,,,basket,,,,,,,,,,,1,0,0,50,50,9,1,,,,,,,,,,,,,,,,,,,,,,,,,,,,,,,,,,,,,,,,,,,,,,,,,,,,,,,,,,,,,,,,,,,,,,
,,?,0.000325,0,,,,,,stimuli/images/PICTURE_68.png,MILE,5d4af58cf6cff50001f9cc0d,07/01/1990,2020-07-08_16h24.56.749,proactive,2020.1.2,MacIntel,60,5f035e5afe130c270d6ae6dd,5f05e4dd25ef0c0bf61fffa3,3,,,,,,candle,,,,,,,,,,,5,0,0,51,51,44,1,,,,,,,,,,,,,,,,,,,,,,,,,,,,,,,,,,,,,,,,,,,,,,,,,,,,,,,,,,,,,,,,,,,,,,
,,?,0.000315,0,,,,,,stimuli/images/PICTURE_667.png,BATH,5d4af58cf6cff50001f9cc0d,07/01/1990,2020-07-08_16h24.56.749,proactive,2020.1.2,MacIntel,60,5f035e5afe130c270d6ae6dd,5f05e4dd25ef0c0bf61fffa3,3,,,,,,daisy,,,,,,,,,,,1,0,0,52,52,4,1,,,,,,,,,,,,,,,,,,,,,,,,,,,,,,,,,,,,,,,,,,,,,,,,,,,,,,,,,,,,,,,,,,,,,,
,,?,0.000335,0,,,,,,stimuli/images/PICTURE_302.png,FAMILY,5d4af58cf6cff50001f9cc0d,07/01/1990,2020-07-08_16h24.56.749,proactive,2020.1.2,MacIntel,60,5f035e5afe130c270d6ae6dd,5f05e4dd25ef0c0bf61fffa3,3,,,,,,taxi,,,,,,,,,,,2,0,0,53,53,18,1,,,,,,,,,,,,,,,,,,,,,,,,,,,,,,,,,,,,,,,,,,,,,,,,,,,,,,,,,,,,,,,,,,,,,,
,,?,0.000465,0,,,,,,stimuli/images/PICTURE_308.png,ESTATE,5d4af58cf6cff50001f9cc0d,07/01/1990,2020-07-08_16h24.56.749,proactive,2020.1.2,MacIntel,60,5f035e5afe130c270d6ae6dd,5f05e4dd25ef0c0bf61fffa3,3,,,,,,dice,,,,,,,,,,,5,0,0,54,54,46,1,,,,,,,,,,,,,,,,,,,,,,,,,,,,,,,,,,,,,,,,,,,,,,,,,,,,,,,,,,,,,,,,,,,,,,
,,?,0.00039,0,,,,,,stimuli/images/PICTURE_453.png,PLENTY,5d4af58cf6cff50001f9cc0d,07/01/1990,2020-07-08_16h24.56.749,proactive,2020.1.2,MacIntel,60,5f035e5afe130c270d6ae6dd,5f05e4dd25ef0c0bf61fffa3,3,,,,,,scissors,,,,,,,,,,,6,0,0,55,55,56,1,,,,,,,,,,,,,,,,,,,,,,,,,,,,,,,,,,,,,,,,,,,,,,,,,,,,,,,,,,,,,,,,,,,,,,
,,?,0.000365,0,,,,,,stimuli/images/PICTURE_504.png,BODY,5d4af58cf6cff50001f9cc0d,07/01/1990,2020-07-08_16h24.56.749,proactive,2020.1.2,MacIntel,60,5f035e5afe130c270d6ae6dd,5f05e4dd25ef0c0bf61fffa3,3,,,,,,wheel,,,,,,,,,,,1,0,0,56,56,8,1,,,,,,,,,,,,,,,,,,,,,,,,,,,,,,,,,,,,,,,,,,,,,,,,,,,,,,,,,,,,,,,,,,,,,,
,,AREA,1.743095,1,,,,,,stimuli/images/PICTURE_255.png,AREA,5d4af58cf6cff50001f9cc0d,07/01/1990,2020-07-08_16h24.56.749,proactive,2020.1.2,MacIntel,60,5f035e5afe130c270d6ae6dd,5f05e4dd25ef0c0bf61fffa3,3,,,,,,shovel,,,,,,,,,,,3,0,0,57,57,22,1,,,,,,,,,,,,,,,,,,,,,,,,,,,,,,,,,,,,,,,,,,,,,,,,,,,,,,,,,,,,,,,,,,,,,,
,,?,0.00072,0,,,,,,stimuli/images/PICTURE_380.png,DEATH,5d4af58cf6cff50001f9cc0d,07/01/1990,2020-07-08_16h24.56.749,proactive,2020.1.2,MacIntel,60,5f035e5afe130c270d6ae6dd,5f05e4dd25ef0c0bf61fffa3,3,,,,,,gorilla,,,,,,,,,,,5,0,0,58,58,49,1,,,,,,,,,,,,,,,,,,,,,,,,,,,,,,,,,,,,,,,,,,,,,,,,,,,,,,,,,,,,,,,,,,,,,,
,,?,0.00055,0,,,,,,stimuli/images/PICTURE_285.png,ADVICE,5d4af58cf6cff50001f9cc0d,07/01/1990,2020-07-08_16h24.56.749,proactive,2020.1.2,MacIntel,60,5f035e5afe130c270d6ae6dd,5f05e4dd25ef0c0bf61fffa3,3,,,,,,carrot,,,,,,,,,,,2,0,0,59,59,12,1,,,,,,,,,,,,,,,,,,,,,,,,,,,,,,,,,,,,,,,,,,,,,,,,,,,,,,,,,,,,,,,,,,,,,,
,,,,,,,,,,,,5d4af58cf6cff50001f9cc0d,07/01/1990,2020-07-08_16h24.56.749,proactive,2020.1.2,MacIntel,60,5f035e5afe130c270d6ae6dd,5f05e4dd25ef0c0bf61fffa3,3,,,,,,,,,,,,,,,,,,,,,,,,0,1,1,0,1,stimuli/learn-block1.csv,,,,,,,,,,,,,,,,,,,,,,,,,,,,,,,,,,,,,,,,,,,,,,,,,,,,,,,,,,,,,,,,
,,,,,,,,,,stimuli/images/PICTURE_68.png,MILE,5d4af58cf6cff50001f9cc0d,07/01/1990,2020-07-08_16h24.56.749,proactive,2020.1.2,MacIntel,60,5f035e5afe130c270d6ae6dd,5f05e4dd25ef0c0bf61fffa3,3,,,,,,candle,,,,,,0,0,0,51,1,6,1,,,,,,,,,,,,,,,,,,,,,,,,,,,,,,,,,,,,,,,,,,,,,,,,,,,,,,,,,,,,,,,,,,,,,,,,,,,
,,,,,,,,,,stimuli/images/PICTURE_297.png,RIVER,5d4af58cf6cff50001f9cc0d,07/01/1990,2020-07-08_16h24.56.749,proactive,2020.1.2,MacIntel,60,5f035e5afe130c270d6ae6dd,5f05e4dd25ef0c0bf61fffa3,3,,,,,,aeroplane,,,,,,0,1,1,39,1,4,1,,,,,,,,,,,,,,,,,,,,,,,,,,,,,,,,,,,,,,,,,,,,,,,,,,,,,,,,,,,,,,,,,,,,,,,,,,,
,,,,,,,,,,stimuli/images/PICTURE_327.png,CASINO,5d4af58cf6cff50001f9cc0d,07/01/1990,2020-07-08_16h24.56.749,proactive,2020.1.2,MacIntel,60,5f035e5afe130c270d6ae6dd,5f05e4dd25ef0c0bf61fffa3,3,,,,,,helmet,,,,,,0,2,2,20,1,3,1,,,,,,,,,,,,,,,,,,,,,,,,,,,,,,,,,,,,,,,,,,,,,,,,,,,,,,,,,,,,,,,,,,,,,,,,,,,
,,,,,,,,,,stimuli/images/PICTURE_203.png,GODS,5d4af58cf6cff50001f9cc0d,07/01/1990,2020-07-08_16h24.56.749,proactive,2020.1.2,MacIntel,60,5f035e5afe130c270d6ae6dd,5f05e4dd25ef0c0bf61fffa3,3,,,,,,cap,,,,,,0,3,3,30,1,4,1,,,,,,,,,,,,,,,,,,,,,,,,,,,,,,,,,,,,,,,,,,,,,,,,,,,,,,,,,,,,,,,,,,,,,,,,,,,
,,,,,,,,,,stimuli/images/PICTURE_491.png,RIVER,5d4af58cf6cff50001f9cc0d,07/01/1990,2020-07-08_16h24.56.749,proactive,2020.1.2,MacIntel,60,5f035e5afe130c270d6ae6dd,5f05e4dd25ef0c0bf61fffa3,3,,,,,,rug,,,,,,0,4,4,6,1,1,1,,,,,,,,,,,,,,,,,,,,,,,,,,,,,,,,,,,,,,,,,,,,,,,,,,,,,,,,,,,,,,,,,,,,,,,,,,,
,,,,,,,,,,stimuli/images/PICTURE_750.png,HOTEL,5d4af58cf6cff50001f9cc0d,07/01/1990,2020-07-08_16h24.56.749,proactive,2020.1.2,MacIntel,60,5f035e5afe130c270d6ae6dd,5f05e4dd25ef0c0bf61fffa3,3,,,,,,kettle,,,,,,0,5,5,27,1,3,1,,,,,,,,,,,,,,,,,,,,,,,,,,,,,,,,,,,,,,,,,,,,,,,,,,,,,,,,,,,,,,,,,,,,,,,,,,,
,,,,,,,,,,stimuli/images/PICTURE_32.png,PILLS,5d4af58cf6cff50001f9cc0d,07/01/1990,2020-07-08_16h24.56.749,proactive,2020.1.2,MacIntel,60,5f035e5afe130c270d6ae6dd,5f05e4dd25ef0c0bf61fffa3,3,,,,,,crown,,,,,,0,6,6,18,1,2,1,,,,,,,,,,,,,,,,,,,,,,,,,,,,,,,,,,,,,,,,,,,,,,,,,,,,,,,,,,,,,,,,,,,,,,,,,,,
,,,,,,,,,,stimuli/images/PICTURE_667.png,RIVER,5d4af58cf6cff50001f9cc0d,07/01/1990,2020-07-08_16h24.56.749,proactive,2020.1.2,MacIntel,60,5f035e5afe130c270d6ae6dd,5f05e4dd25ef0c0bf61fffa3,3,,,,,,daisy,,,,,,0,7,7,10,1,2,1,,,,,,,,,,,,,,,,,,,,,,,,,,,,,,,,,,,,,,,,,,,,,,,,,,,,,,,,,,,,,,,,,,,,,,,,,,,
,,,,,,,,,,stimuli/images/PICTURE_147.png,WOMEN,5d4af58cf6cff50001f9cc0d,07/01/1990,2020-07-08_16h24.56.749,proactive,2020.1.2,MacIntel,60,5f035e5afe130c270d6ae6dd,5f05e4dd25ef0c0bf61fffa3,3,,,,,,hanger,,,,,,0,8,8,7,1,1,1,,,,,,,,,,,,,,,,,,,,,,,,,,,,,,,,,,,,,,,,,,,,,,,,,,,,,,,,,,,,,,,,,,,,,,,,,,,
,,,,,,,,,,stimuli/images/PICTURE_208.png,SYSTEM,5d4af58cf6cff50001f9cc0d,07/01/1990,2020-07-08_16h24.56.749,proactive,2020.1.2,MacIntel,60,5f035e5afe130c270d6ae6dd,5f05e4dd25ef0c0bf61fffa3,3,,,,,,microphone,,,,,,0,9,9,32,1,4,1,,,,,,,,,,,,,,,,,,,,,,,,,,,,,,,,,,,,,,,,,,,,,,,,,,,,,,,,,,,,,,,,,,,,,,,,,,,
,,,,,,,,,,stimuli/images/PICTURE_285.png,LIFE,5d4af58cf6cff50001f9cc0d,07/01/1990,2020-07-08_16h24.56.749,proactive,2020.1.2,MacIntel,60,5f035e5afe130c270d6ae6dd,5f05e4dd25ef0c0bf61fffa3,3,,,,,,carrot,,,,,,0,10,10,33,1,4,1,,,,,,,,,,,,,,,,,,,,,,,,,,,,,,,,,,,,,,,,,,,,,,,,,,,,,,,,,,,,,,,,,,,,,,,,,,,
,,,,,,,,,,stimuli/images/PICTURE_487.png,GIRL,5d4af58cf6cff50001f9cc0d,07/01/1990,2020-07-08_16h24.56.749,proactive,2020.1.2,MacIntel,60,5f035e5afe130c270d6ae6dd,5f05e4dd25ef0c0bf61fffa3,3,,,,,,basket,,,,,,0,11,11,45,1,5,1,,,,,,,,,,,,,,,,,,,,,,,,,,,,,,,,,,,,,,,,,,,,,,,,,,,,,,,,,,,,,,,,,,,,,,,,,,,
,,,,,,,,,,stimuli/images/PICTURE_33.png,FRIEND,5d4af58cf6cff50001f9cc0d,07/01/1990,2020-07-08_16h24.56.749,proactive,2020.1.2,MacIntel,60,5f035e5afe130c270d6ae6dd,5f05e4dd25ef0c0bf61fffa3,3,,,,,,frame,,,,,,0,12,12,8,1,1,1,,,,,,,,,,,,,,,,,,,,,,,,,,,,,,,,,,,,,,,,,,,,,,,,,,,,,,,,,,,,,,,,,,,,,,,,,,,
,,,,,,,,,,stimuli/images/PICTURE_327.png,SERIES,5d4af58cf6cff50001f9cc0d,07/01/1990,2020-07-08_16h24.56.749,proactive,2020.1.2,MacIntel,60,5f035e5afe130c270d6ae6dd,5f05e4dd25ef0c0bf61fffa3,3,,,,,,helmet,,,,,,0,13,13,3,1,1,1,,,,,,,,,,,,,,,,,,,,,,,,,,,,,,,,,,,,,,,,,,,,,,,,,,,,,,,,,,,,,,,,,,,,,,,,,,,
,,,,,,,,,,stimuli/images/PICTURE_405.png,YEAR,5d4af58cf6cff50001f9cc0d,07/01/1990,2020-07-08_16h24.56.749,proactive,2020.1.2,MacIntel,60,5f035e5afe130c270d6ae6dd,5f05e4dd25ef0c0bf61fffa3,3,,,,,,anchor,,,,,,0,14,14,34,1,4,1,,,,,,,,,,,,,,,,,,,,,,,,,,,,,,,,,,,,,,,,,,,,,,,,,,,,,,,,,,,,,,,,,,,,,,,,,,,
,,,,,,,,,,stimuli/images/PICTURE_654.png,MONTH,5d4af58cf6cff50001f9cc0d,07/01/1990,2020-07-08_16h24.56.749,proactive,2020.1.2,MacIntel,60,5f035e5afe130c270d6ae6dd,5f05e4dd25ef0c0bf61fffa3,3,,,,,,pencil,,,,,,0,15,15,29,1,3,1,,,,,,,,,,,,,,,,,,,,,,,,,,,,,,,,,,,,,,,,,,,,,,,,,,,,,,,,,,,,,,,,,,,,,,,,,,,
,,,,,,,,,,stimuli/images/PICTURE_85.png,NATION,5d4af58cf6cff50001f9cc0d,07/01/1990,2020-07-08_16h24.56.749,proactive,2020.1.2,MacIntel,60,5f035e5afe130c270d6ae6dd,5f05e4dd25ef0c0bf61fffa3,3,,,,,,diamond,,,,,,0,16,16,5,1,1,1,,,,,,,,,,,,,,,,,,,,,,,,,,,,,,,,,,,,,,,,,,,,,,,,,,,,,,,,,,,,,,,,,,,,,,,,,,,
,,,,,,,,,,stimuli/images/PICTURE_177.png,WRITER,5d4af58cf6cff50001f9cc0d,07/01/1990,2020-07-08_16h24.56.749,proactive,2020.1.2,MacIntel,60,5f035e5afe130c270d6ae6dd,5f05e4dd25ef0c0bf61fffa3,3,,,,,,mushroom,,,,,,0,17,17,41,1,5,1,,,,,,,,,,,,,,,,,,,,,,,,,,,,,,,,,,,,,,,,,,,,,,,,,,,,,,,,,,,,,,,,,,,,,,,,,,,
,,,,,,,,,,stimuli/images/PICTURE_108.png,FLIGHT,5d4af58cf6cff50001f9cc0d,07/01/1990,2020-07-08_16h24.56.749,proactive,2020.1.2,MacIntel,60,5f035e5afe130c270d6ae6dd,5f05e4dd25ef0c0bf61fffa3,3,,,,,,calendar,,,,,,0,18,18,59,1,6,1,,,,,,,,,,,,,,,,,,,,,,,,,,,,,,,,,,,,,,,,,,,,,,,,,,,,,,,,,,,,,,,,,,,,,,,,,,,
,,,,,,,,,,stimuli/images/PICTURE_296.png,LIFE,5d4af58cf6cff50001f9cc0d,07/01/1990,2020-07-08_16h24.56.749,proactive,2020.1.2,MacIntel,60,5f035e5afe130c270d6ae6dd,5f05e4dd25ef0c0bf61fffa3,3,,,,,,bolt,,,,,,0,19,19,57,1,6,1,,,,,,,,,,,,,,,,,,,,,,,,,,,,,,,,,,,,,,,,,,,,,,,,,,,,,,,,,,,,,,,,,,,,,,,,,,,
,,,,,,,,,,stimuli/images/PICTURE_469.png,AGENT,5d4af58cf6cff50001f9cc0d,07/01/1990,2020-07-08_16h24.56.749,proactive,2020.1.2,MacIntel,60,5f035e5afe130c270d6ae6dd,5f05e4dd25ef0c0bf61fffa3,3,,,,,,stool,,,,,,0,20,20,16,1,2,1,,,,,,,,,,,,,,,,,,,,,,,,,,,,,,,,,,,,,,,,,,,,,,,,,,,,,,,,,,,,,,,,,,,,,,,,,,,
,,,,,,,,,,stimuli/images/PICTURE_296.png,LOTS,5d4af58cf6cff50001f9cc0d,07/01/1990,2020-07-08_16h24.56.749,proactive,2020.1.2,MacIntel,60,5f035e5afe130c270d6ae6dd,5f05e4dd25ef0c0bf61fffa3,3,,,,,,bolt,,,,,,0,21,21,9,1,1,1,,,,,,,,,,,,,,,,,,,,,,,,,,,,,,,,,,,,,,,,,,,,,,,,,,,,,,,,,,,,,,,,,,,,,,,,,,,
,,,,,,,,,,stimuli/images/PICTURE_677.png,APPLE,5d4af58cf6cff50001f9cc0d,07/01/1990,2020-07-08_16h24.56.749,proactive,2020.1.2,MacIntel,60,5f035e5afe130c270d6ae6dd,5f05e4dd25ef0c0bf61fffa3,3,,,,,,map,,,,,,0,22,22,43,1,5,1,,,,,,,,,,,,,,,,,,,,,,,,,,,,,,,,,,,,,,,,,,,,,,,,,,,,,,,,,,,,,,,,,,,,,,,,,,,
,,,,,,,,,,stimuli/images/PICTURE_504.png,YEAR,5d4af58cf6cff50001f9cc0d,07/01/1990,2020-07-08_16h24.56.749,proactive,2020.1.2,MacIntel,60,5f035e5afe130c270d6ae6dd,5f05e4dd25ef0c0bf61fffa3,3,,,,,,wheel,,,,,,0,23,23,13,1,2,1,,,,,,,,,,,,,,,,,,,,,,,,,,,,,,,,,,,,,,,,,,,,,,,,,,,,,,,,,,,,,,,,,,,,,,,,,,,
,,,,,,,,,,stimuli/images/PICTURE_655.png,TOILET,5d4af58cf6cff50001f9cc0d,07/01/1990,2020-07-08_16h24.56.749,proactive,2020.1.2,MacIntel,60,5f035e5afe130c270d6ae6dd,5f05e4dd25ef0c0bf61fffa3,3,,,,,,megaphone,,,,,,0,24,24,12,1,2,1,,,,,,,,,,,,,,,,,,,,,,,,,,,,,,,,,,,,,,,,,,,,,,,,,,,,,,,,,,,,,,,,,,,,,,,,,,,
,,,,,,,,,,stimuli/images/PICTURE_403.png,WRITER,5d4af58cf6cff50001f9cc0d,07/01/1990,2020-07-08_16h24.56.749,proactive,2020.1.2,MacIntel,60,5f035e5afe130c270d6ae6dd,5f05e4dd25ef0c0bf61fffa3,3,,,,,,cathedral,,,,,,0,25,25,31,1,4,1,,,,,,,,,,,,,,,,,,,,,,,,,,,,,,,,,,,,,,,,,,,,,,,,,,,,,,,,,,,,,,,,,,,,,,,,,,,
,,,,,,,,,,stimuli/images/PICTURE_449.png,DUDE,5d4af58cf6cff50001f9cc0d,07/01/1990,2020-07-08_16h24.56.749,proactive,2020.1.2,MacIntel,60,5f035e5afe130c270d6ae6dd,5f05e4dd25ef0c0bf61fffa3,3,,,,,,bench,,,,,,0,26,26,17,1,2,1,,,,,,,,,,,,,,,,,,,,,,,,,,,,,,,,,,,,,,,,,,,,,,,,,,,,,,,,,,,,,,,,,,,,,,,,,,,
,,,,,,,,,,stimuli/images/PICTURE_467.png,POLICY,5d4af58cf6cff50001f9cc0d,07/01/1990,2020-07-08_16h24.56.749,proactive,2020.1.2,MacIntel,60,5f035e5afe130c270d6ae6dd,5f05e4dd25ef0c0bf61fffa3,3,,,,,,peg,,,,,,0,27,27,53,1,6,1,,,,,,,,,,,,,,,,,,,,,,,,,,,,,,,,,,,,,,,,,,,,,,,,,,,,,,,,,,,,,,,,,,,,,,,,,,,
,,,,,,,,,,stimuli/images/PICTURE_491.png,GLASS,5d4af58cf6cff50001f9cc0d,07/01/1990,2020-07-08_16h24.56.749,proactive,2020.1.2,MacIntel,60,5f035e5afe130c270d6ae6dd,5f05e4dd25ef0c0bf61fffa3,3,,,,,,rug,,,,,,0,28,28,14,1,2,1,,,,,,,,,,,,,,,,,,,,,,,,,,,,,,,,,,,,,,,,,,,,,,,,,,,,,,,,,,,,,,,,,,,,,,,,,,,
,,,,,,,,,,stimuli/images/PICTURE_675.png,SALE,5d4af58cf6cff50001f9cc0d,07/01/1990,2020-07-08_16h24.56.749,proactive,2020.1.2,MacIntel,60,5f035e5afe130c270d6ae6dd,5f05e4dd25ef0c0bf61fffa3,3,,,,,,windmill,,,,,,0,29,29,47,1,5,1,,,,,,,,,,,,,,,,,,,,,,,,,,,,,,,,,,,,,,,,,,,,,,,,,,,,,,,,,,,,,,,,,,,,,,,,,,,
,,,,,,,,,,stimuli/images/PICTURE_42.png,BOYS,5d4af58cf6cff50001f9cc0d,07/01/1990,2020-07-08_16h24.56.749,proactive,2020.1.2,MacIntel,60,5f035e5afe130c270d6ae6dd,5f05e4dd25ef0c0bf61fffa3,3,,,,,,pear,,,,,,0,30,30,55,1,6,1,,,,,,,,,,,,,,,,,,,,,,,,,,,,,,,,,,,,,,,,,,,,,,,,,,,,,,,,,,,,,,,,,,,,,,,,,,,
,,,,,,,,,,stimuli/images/PICTURE_380.png,HONEY,5d4af58cf6cff50001f9cc0d,07/01/1990,2020-07-08_16h24.56.749,proactive,2020.1.2,MacIntel,60,5f035e5afe130c270d6ae6dd,5f05e4dd25ef0c0bf61fffa3,3,,,,,,gorilla,,,,,,0,31,31,19,1,2,1,,,,,,,,,,,,,,,,,,,,,,,,,,,,,,,,,,,,,,,,,,,,,,,,,,,,,,,,,,,,,,,,,,,,,,,,,,,
,,,,,,,,,,stimuli/images/PICTURE_147.png,YEAR,5d4af58cf6cff50001f9cc0d,07/01/1990,2020-07-08_16h24.56.749,proactive,2020.1.2,MacIntel,60,5f035e5afe130c270d6ae6dd,5f05e4dd25ef0c0bf61fffa3,3,,,,,,hanger,,,,,,0,32,32,21,1,3,1,,,,,,,,,,,,,,,,,,,,,,,,,,,,,,,,,,,,,,,,,,,,,,,,,,,,,,,,,,,,,,,,,,,,,,,,,,,
,,,,,,,,,,stimuli/images/PICTURE_380.png,CANDY,5d4af58cf6cff50001f9cc0d,07/01/1990,2020-07-08_16h24.56.749,proactive,2020.1.2,MacIntel,60,5f035e5afe130c270d6ae6dd,5f05e4dd25ef0c0bf61fffa3,3,,,,,,gorilla,,,,,,0,33,33,0,1,1,1,,,,,,,,,,,,,,,,,,,,,,,,,,,,,,,,,,,,,,,,,,,,,,,,,,,,,,,,,,,,,,,,,,,,,,,,,,,
,,,,,,,,,,stimuli/images/PICTURE_95.png,BOYS,5d4af58cf6cff50001f9cc0d,07/01/1990,2020-07-08_16h24.56.749,proactive,2020.1.2,MacIntel,60,5f035e5afe130c270d6ae6dd,5f05e4dd25ef0c0bf61fffa3,3,,,,,,suitcase,,,,,,0,34,34,1,1,1,1,,,,,,,,,,,,,,,,,,,,,,,,,,,,,,,,,,,,,,,,,,,,,,,,,,,,,,,,,,,,,,,,,,,,,,,,,,,
,,,,,,,,,,stimuli/images/PICTURE_339.png,CLIENT,5d4af58cf6cff50001f9cc0d,07/01/1990,2020-07-08_16h24.56.749,proactive,2020.1.2,MacIntel,60,5f035e5afe130c270d6ae6dd,5f05e4dd25ef0c0bf61fffa3,3,,,,,,backpack,,,,,,0,35,35,11,1,2,1,,,,,,,,,,,,,,,,,,,,,,,,,,,,,,,,,,,,,,,,,,,,,,,,,,,,,,,,,,,,,,,,,,,,,,,,,,,
,,,,,,,,,,stimuli/images/PICTURE_383.png,WRITER,5d4af58cf6cff50001f9cc0d,07/01/1990,2020-07-08_16h24.56.749,proactive,2020.1.2,MacIntel,60,5f035e5afe130c270d6ae6dd,5f05e4dd25ef0c0bf61fffa3,3,,,,,,coin,,,,,,0,36,36,28,1,3,1,,,,,,,,,,,,,,,,,,,,,,,,,,,,,,,,,,,,,,,,,,,,,,,,,,,,,,,,,,,,,,,,,,,,,,,,,,,
,,,,,,,,,,stimuli/images/PICTURE_744.png,WEAPON,5d4af58cf6cff50001f9cc0d,07/01/1990,2020-07-08_16h24.56.749,proactive,2020.1.2,MacIntel,60,5f035e5afe130c270d6ae6dd,5f05e4dd25ef0c0bf61fffa3,3,,,,,,ring,,,,,,0,37,37,50,1,6,1,,,,,,,,,,,,,,,,,,,,,,,,,,,,,,,,,,,,,,,,,,,,,,,,,,,,,,,,,,,,,,,,,,,,,,,,,,,
,,,,,,,,,,stimuli/images/PICTURE_708.png,RECORD,5d4af58cf6cff50001f9cc0d,07/01/1990,2020-07-08_16h24.56.749,proactive,2020.1.2,MacIntel,60,5f035e5afe130c270d6ae6dd,5f05e4dd25ef0c0bf61fffa3,3,,,,,,monkey,,,,,,0,38,38,58,1,6,1,,,,,,,,,,,,,,,,,,,,,,,,,,,,,,,,,,,,,,,,,,,,,,,,,,,,,,,,,,,,,,,,,,,,,,,,,,,
,,,,,,,,,,stimuli/images/PICTURE_95.png,MILLER,5d4af58cf6cff50001f9cc0d,07/01/1990,2020-07-08_16h24.56.749,proactive,2020.1.2,MacIntel,60,5f035e5afe130c270d6ae6dd,5f05e4dd25ef0c0bf61fffa3,3,,,,,,suitcase,,,,,,0,39,39,56,1,6,1,,,,,,,,,,,,,,,,,,,,,,,,,,,,,,,,,,,,,,,,,,,,,,,,,,,,,,,,,,,,,,,,,,,,,,,,,,,
,,,,,,,,,,stimuli/images/PICTURE_405.png,PLENTY,5d4af58cf6cff50001f9cc0d,07/01/1990,2020-07-08_16h24.56.749,proactive,2020.1.2,MacIntel,60,5f035e5afe130c270d6ae6dd,5f05e4dd25ef0c0bf61fffa3,3,,,,,,anchor,,,,,,0,40,40,23,1,3,1,,,,,,,,,,,,,,,,,,,,,,,,,,,,,,,,,,,,,,,,,,,,,,,,,,,,,,,,,,,,,,,,,,,,,,,,,,,
,,,,,,,,,,stimuli/images/PICTURE_68.png,ROOF,5d4af58cf6cff50001f9cc0d,07/01/1990,2020-07-08_16h24.56.749,proactive,2020.1.2,MacIntel,60,5f035e5afe130c270d6ae6dd,5f05e4dd25ef0c0bf61fffa3,3,,,,,,candle,,,,,,0,41,41,38,1,4,1,,,,,,,,,,,,,,,,,,,,,,,,,,,,,,,,,,,,,,,,,,,,,,,,,,,,,,,,,,,,,,,,,,,,,,,,,,,
,,,,,,,,,,stimuli/images/PICTURE_340.png,LETTER,5d4af58cf6cff50001f9cc0d,07/01/1990,2020-07-08_16h24.56.749,proactive,2020.1.2,MacIntel,60,5f035e5afe130c270d6ae6dd,5f05e4dd25ef0c0bf61fffa3,3,,,,,,mirror,,,,,,0,42,42,24,1,3,1,,,,,,,,,,,,,,,,,,,,,,,,,,,,,,,,,,,,,,,,,,,,,,,,,,,,,,,,,,,,,,,,,,,,,,,,,,,
,,,,,,,,,,stimuli/images/PICTURE_340.png,VALLEY,5d4af58cf6cff50001f9cc0d,07/01/1990,2020-07-08_16h24.56.749,proactive,2020.1.2,MacIntel,60,5f035e5afe130c270d6ae6dd,5f05e4dd25ef0c0bf61fffa3,3,,,,,,mirror,,,,,,0,43,43,54,1,6,1,,,,,,,,,,,,,,,,,,,,,,,,,,,,,,,,,,,,,,,,,,,,,,,,,,,,,,,,,,,,,,,,,,,,,,,,,,,
,,,,,,,,,,stimuli/images/PICTURE_203.png,NIGHT,5d4af58cf6cff50001f9cc0d,07/01/1990,2020-07-08_16h24.56.749,proactive,2020.1.2,MacIntel,60,5f035e5afe130c270d6ae6dd,5f05e4dd25ef0c0bf61fffa3,3,,,,,,cap,,,,,,0,44,44,2,1,1,1,,,,,,,,,,,,,,,,,,,,,,,,,,,,,,,,,,,,,,,,,,,,,,,,,,,,,,,,,,,,,,,,,,,,,,,,,,,
,,,,,,,,,,stimuli/images/PICTURE_383.png,SERIES,5d4af58cf6cff50001f9cc0d,07/01/1990,2020-07-08_16h24.56.749,proactive,2020.1.2,MacIntel,60,5f035e5afe130c270d6ae6dd,5f05e4dd25ef0c0bf61fffa3,3,,,,,,coin,,,,,,0,45,45,46,1,5,1,,,,,,,,,,,,,,,,,,,,,,,,,,,,,,,,,,,,,,,,,,,,,,,,,,,,,,,,,,,,,,,,,,,,,,,,,,,
,,,,,,,,,,stimuli/images/PICTURE_57.png,MOMENT,5d4af58cf6cff50001f9cc0d,07/01/1990,2020-07-08_16h24.56.749,proactive,2020.1.2,MacIntel,60,5f035e5afe130c270d6ae6dd,5f05e4dd25ef0c0bf61fffa3,3,,,,,,stamp,,,,,,0,46,46,37,1,4,1,,,,,,,,,,,,,,,,,,,,,,,,,,,,,,,,,,,,,,,,,,,,,,,,,,,,,,,,,,,,,,,,,,,,,,,,,,,
,,,,,,,,,,stimuli/images/PICTURE_504.png,ARTIST,5d4af58cf6cff50001f9cc0d,07/01/1990,2020-07-08_16h24.56.749,proactive,2020.1.2,MacIntel,60,5f035e5afe130c270d6ae6dd,5f05e4dd25ef0c0bf61fffa3,3,,,,,,wheel,,,,,,0,47,47,49,1,5,1,,,,,,,,,,,,,,,,,,,,,,,,,,,,,,,,,,,,,,,,,,,,,,,,,,,,,,,,,,,,,,,,,,,,,,,,,,,
,,,,,,,,,,stimuli/images/PICTURE_504.png,COPS,5d4af58cf6cff50001f9cc0d,07/01/1990,2020-07-08_16h24.56.749,proactive,2020.1.2,MacIntel,60,5f035e5afe130c270d6ae6dd,5f05e4dd25ef0c0bf61fffa3,3,,,,,,wheel,,,,,,0,48,48,52,1,6,1,,,,,,,,,,,,,,,,,,,,,,,,,,,,,,,,,,,,,,,,,,,,,,,,,,,,,,,,,,,,,,,,,,,,,,,,,,,
,,,,,,,,,,stimuli/images/PICTURE_308.png,FAMILY,5d4af58cf6cff50001f9cc0d,07/01/1990,2020-07-08_16h24.56.749,proactive,2020.1.2,MacIntel,60,5f035e5afe130c270d6ae6dd,5f05e4dd25ef0c0bf61fffa3,3,,,,,,dice,,,,,,0,49,49,36,1,4,1,,,,,,,,,,,,,,,,,,,,,,,,,,,,,,,,,,,,,,,,,,,,,,,,,,,,,,,,,,,,,,,,,,,,,,,,,,,
,,,,,,,,,,stimuli/images/PICTURE_95.png,HONEY,5d4af58cf6cff50001f9cc0d,07/01/1990,2020-07-08_16h24.56.749,proactive,2020.1.2,MacIntel,60,5f035e5afe130c270d6ae6dd,5f05e4dd25ef0c0bf61fffa3,3,,,,,,suitcase,,,,,,0,50,50,44,1,5,1,,,,,,,,,,,,,,,,,,,,,,,,,,,,,,,,,,,,,,,,,,,,,,,,,,,,,,,,,,,,,,,,,,,,,,,,,,,
,,,,,,,,,,stimuli/images/PICTURE_403.png,RIVER,5d4af58cf6cff50001f9cc0d,07/01/1990,2020-07-08_16h24.56.749,proactive,2020.1.2,MacIntel,60,5f035e5afe130c270d6ae6dd,5f05e4dd25ef0c0bf61fffa3,3,,,,,,cathedral,,,,,,0,51,51,40,1,5,1,,,,,,,,,,,,,,,,,,,,,,,,,,,,,,,,,,,,,,,,,,,,,,,,,,,,,,,,,,,,,,,,,,,,,,,,,,,
,,,,,,,,,,stimuli/images/PICTURE_2.png,FLIGHT,5d4af58cf6cff50001f9cc0d,07/01/1990,2020-07-08_16h24.56.749,proactive,2020.1.2,MacIntel,60,5f035e5afe130c270d6ae6dd,5f05e4dd25ef0c0bf61fffa3,3,,,,,,tyre,,,,,,0,52,52,15,1,2,1,,,,,,,,,,,,,,,,,,,,,,,,,,,,,,,,,,,,,,,,,,,,,,,,,,,,,,,,,,,,,,,,,,,,,,,,,,,
,,,,,,,,,,stimuli/images/PICTURE_403.png,TOILET,5d4af58cf6cff50001f9cc0d,07/01/1990,2020-07-08_16h24.56.749,proactive,2020.1.2,MacIntel,60,5f035e5afe130c270d6ae6dd,5f05e4dd25ef0c0bf61fffa3,3,,,,,,cathedral,,,,,,0,53,53,25,1,3,1,,,,,,,,,,,,,,,,,,,,,,,,,,,,,,,,,,,,,,,,,,,,,,,,,,,,,,,,,,,,,,,,,,,,,,,,,,,
,,,,,,,,,,stimuli/images/PICTURE_32.png,KIND,5d4af58cf6cff50001f9cc0d,07/01/1990,2020-07-08_16h24.56.749,proactive,2020.1.2,MacIntel,60,5f035e5afe130c270d6ae6dd,5f05e4dd25ef0c0bf61fffa3,3,,,,,,crown,,,,,,0,54,54,35,1,4,1,,,,,,,,,,,,,,,,,,,,,,,,,,,,,,,,,,,,,,,,,,,,,,,,,,,,,,,,,,,,,,,,,,,,,,,,,,,
,,,,,,,,,,stimuli/images/PICTURE_108.png,POLICY,5d4af58cf6cff50001f9cc0d,07/01/1990,2020-07-08_16h24.56.749,proactive,2020.1.2,MacIntel,60,5f035e5afe130c270d6ae6dd,5f05e4dd25ef0c0bf61fffa3,3,,,,,,calendar,,,,,,0,55,55,22,1,3,1,,,,,,,,,,,,,,,,,,,,,,,,,,,,,,,,,,,,,,,,,,,,,,,,,,,,,,,,,,,,,,,,,,,,,,,,,,,
,,,,,,,,,,stimuli/images/PICTURE_233.png,LOTS,5d4af58cf6cff50001f9cc0d,07/01/1990,2020-07-08_16h24.56.749,proactive,2020.1.2,MacIntel,60,5f035e5afe130c270d6ae6dd,5f05e4dd25ef0c0bf61fffa3,3,,,,,,salt,,,,,,0,56,56,42,1,5,1,,,,,,,,,,,,,,,,,,,,,,,,,,,,,,,,,,,,,,,,,,,,,,,,,,,,,,,,,,,,,,,,,,,,,,,,,,,
,,,,,,,,,,stimuli/images/PICTURE_685.png,PENNY,5d4af58cf6cff50001f9cc0d,07/01/1990,2020-07-08_16h24.56.749,proactive,2020.1.2,MacIntel,60,5f035e5afe130c270d6ae6dd,5f05e4dd25ef0c0bf61fffa3,3,,,,,,goose,,,,,,0,57,57,4,1,1,1,,,,,,,,,,,,,,,,,,,,,,,,,,,,,,,,,,,,,,,,,,,,,,,,,,,,,,,,,,,,,,,,,,,,,,,,,,,
,,,,,,,,,,stimuli/images/PICTURE_85.png,TOILET,5d4af58cf6cff50001f9cc0d,07/01/1990,2020-07-08_16h24.56.749,proactive,2020.1.2,MacIntel,60,5f035e5afe130c270d6ae6dd,5f05e4dd25ef0c0bf61fffa3,3,,,,,,diamond,,,,,,0,58,58,48,1,5,1,,,,,,,,,,,,,,,,,,,,,,,,,,,,,,,,,,,,,,,,,,,,,,,,,,,,,,,,,,,,,,,,,,,,,,,,,,,
,,?,0.000655,0,,,,,,stimuli/images/PICTURE_177.png,WRITER,5d4af58cf6cff50001f9cc0d,07/01/1990,2020-07-08_16h24.56.749,proactive,2020.1.2,MacIntel,60,5f035e5afe130c270d6ae6dd,5f05e4dd25ef0c0bf61fffa3,3,,,,,,mushroom,,,,,,,,,,,5,1,0,0,0,41,1,,,,,,,,,,,,,,,,,,,,,,,,,,,,,,,,,,,,,,,,,,,,,,,,,,,,,,,,,,,,,,,,,,,,,,
,,WRITER,3.21309,1,,,,,,stimuli/images/PICTURE_383.png,WRITER,5d4af58cf6cff50001f9cc0d,07/01/1990,2020-07-08_16h24.56.749,proactive,2020.1.2,MacIntel,60,5f035e5afe130c270d6ae6dd,5f05e4dd25ef0c0bf61fffa3,3,,,,,,coin,,,,,,,,,,,3,1,0,1,1,28,1,,,,,,,,,,,,,,,,,,,,,,,,,,,,,,,,,,,,,,,,,,,,,,,,,,,,,,,,,,,,,,,,,,,,,,
,,?,0.00071,0,,,,,,stimuli/images/PICTURE_85.png,TOILET,5d4af58cf6cff50001f9cc0d,07/01/1990,2020-07-08_16h24.56.749,proactive,2020.1.2,MacIntel,60,5f035e5afe130c270d6ae6dd,5f05e4dd25ef0c0bf61fffa3,3,,,,,,diamond,,,,,,,,,,,5,1,0,2,2,48,1,,,,,,,,,,,,,,,,,,,,,,,,,,,,,,,,,,,,,,,,,,,,,,,,,,,,,,,,,,,,,,,,,,,,,,
,,?,0.00054,0,,,,,,stimuli/images/PICTURE_85.png,NATION,5d4af58cf6cff50001f9cc0d,07/01/1990,2020-07-08_16h24.56.749,proactive,2020.1.2,MacIntel,60,5f035e5afe130c270d6ae6dd,5f05e4dd25ef0c0bf61fffa3,3,,,,,,diamond,,,,,,,,,,,1,1,0,3,3,5,1,,,,,,,,,,,,,,,,,,,,,,,,,,,,,,,,,,,,,,,,,,,,,,,,,,,,,,,,,,,,,,,,,,,,,,
,,?,0.0005,0,,,,,,stimuli/images/PICTURE_68.png,ROOF,5d4af58cf6cff50001f9cc0d,07/01/1990,2020-07-08_16h24.56.749,proactive,2020.1.2,MacIntel,60,5f035e5afe130c270d6ae6dd,5f05e4dd25ef0c0bf61fffa3,3,,,,,,candle,,,,,,,,,,,4,1,0,4,4,38,1,,,,,,,,,,,,,,,,,,,,,,,,,,,,,,,,,,,,,,,,,,,,,,,,,,,,,,,,,,,,,,,,,,,,,,
,,?,0.00044,0,,,,,,stimuli/images/PICTURE_203.png,GODS,5d4af58cf6cff50001f9cc0d,07/01/1990,2020-07-08_16h24.56.749,proactive,2020.1.2,MacIntel,60,5f035e5afe130c270d6ae6dd,5f05e4dd25ef0c0bf61fffa3,3,,,,,,cap,,,,,,,,,,,4,1,0,5,5,30,1,,,,,,,,,,,,,,,,,,,,,,,,,,,,,,,,,,,,,,,,,,,,,,,,,,,,,,,,,,,,,,,,,,,,,,
,,?,0.00044,0,,,,,,stimuli/images/PICTURE_203.png,NIGHT,5d4af58cf6cff50001f9cc0d,07/01/1990,2020-07-08_16h24.56.749,proactive,2020.1.2,MacIntel,60,5f035e5afe130c270d6ae6dd,5f05e4dd25ef0c0bf61fffa3,3,,,,,,cap,,,,,,,,,,,1,1,0,6,6,2,1,,,,,,,,,,,,,,,,,,,,,,,,,,,,,,,,,,,,,,,,,,,,,,,,,,,,,,,,,,,,,,,,,,,,,,
,,YEAR,1.69313,1,,,,,,stimuli/images/PICTURE_147.png,YEAR,5d4af58cf6cff50001f9cc0d,07/01/1990,2020-07-08_16h24.56.749,proactive,2020.1.2,MacIntel,60,5f035e5afe130c270d6ae6dd,5f05e4dd25ef0c0bf61fffa3,3,,,,,,hanger,,,,,,,,,,,3,1,0,7,7,21,1,,,,,,,,,,,,,,,,,,,,,,,,,,,,,,,,,,,,,,,,,,,,,,,,,,,,,,,,,,,,,,,,,,,,,,
,,?,0.000785,0,,,,,,stimuli/images/PICTURE_285.png,LIFE,5d4af58cf6cff50001f9cc0d,07/01/1990,2020-07-08_16h24.56.749,proactive,2020.1.2,MacIntel,60,5f035e5afe130c270d6ae6dd,5f05e4dd25ef0c0bf61fffa3,3,,,,,,carrot,,,,,,,,,,,4,1,0,8,8,33,1,,,,,,,,,,,,,,,,,,,,,,,,,,,,,,,,,,,,,,,,,,,,,,,,,,,,,,,,,,,,,,,,,,,,,,
,,?,0.000535,0,,,,,,stimuli/images/PICTURE_491.png,RIVER,5d4af58cf6cff50001f9cc0d,07/01/1990,2020-07-08_16h24.56.749,proactive,2020.1.2,MacIntel,60,5f035e5afe130c270d6ae6dd,5f05e4dd25ef0c0bf61fffa3,3,,,,,,rug,,,,,,,,,,,1,1,0,9,9,6,1,,,,,,,,,,,,,,,,,,,,,,,,,,,,,,,,,,,,,,,,,,,,,,,,,,,,,,,,,,,,,,,,,,,,,,
,,?,0.00044,0,,,,,,stimuli/images/PICTURE_108.png,FLIGHT,5d4af58cf6cff50001f9cc0d,07/01/1990,2020-07-08_16h24.56.749,proactive,2020.1.2,MacIntel,60,5f035e5afe130c270d6ae6dd,5f05e4dd25ef0c0bf61fffa3,3,,,,,,calendar,,,,,,,,,,,6,1,0,10,10,59,1,,,,,,,,,,,,,,,,,,,,,,,,,,,,,,,,,,,,,,,,,,,,,,,,,,,,,,,,,,,,,,,,,,,,,,
,,?,0.000595,0,,,,,,stimuli/images/PICTURE_68.png,MILE,5d4af58cf6cff50001f9cc0d,07/01/1990,2020-07-08_16h24.56.749,proactive,2020.1.2,MacIntel,60,5f035e5afe130c270d6ae6dd,5f05e4dd25ef0c0bf61fffa3,3,,,,,,candle,,,,,,,,,,,6,1,0,11,11,51,1,,,,,,,,,,,,,,,,,,,,,,,,,,,,,,,,,,,,,,,,,,,,,,,,,,,,,,,,,,,,,,,,,,,,,,
,,?,0.00048,0,,,,,,stimuli/images/PICTURE_677.png,APPLE,5d4af58cf6cff50001f9cc0d,07/01/1990,2020-07-08_16h24.56.749,proactive,2020.1.2,MacIntel,60,5f035e5afe130c270d6ae6dd,5f05e4dd25ef0c0bf61fffa3,3,,,,,,map,,,,,,,,,,,5,1,0,12,12,43,1,,,,,,,,,,,,,,,,,,,,,,,,,,,,,,,,,,,,,,,,,,,,,,,,,,,,,,,,,,,,,,,,,,,,,,
,,?,0.00043,0,,,,,,stimuli/images/PICTURE_655.png,TOILET,5d4af58cf6cff50001f9cc0d,07/01/1990,2020-07-08_16h24.56.749,proactive,2020.1.2,MacIntel,60,5f035e5afe130c270d6ae6dd,5f05e4dd25ef0c0bf61fffa3,3,,,,,,megaphone,,,,,,,,,,,2,1,0,13,13,12,1,,,,,,,,,,,,,,,,,,,,,,,,,,,,,,,,,,,,,,,,,,,,,,,,,,,,,,,,,,,,,,,,,,,,,,
