consent_key.keys,consent_key.rt,recalled,recalled_rt,recall_acc,example_recall.thisRepN,example_recall.thisTrialN,example_recall.thisN,example_recall.thisIndex,example_recall.ran,file,word,participant,please enter your date of birth (dd/mm/yyyy),date,expName,psychopyVersion,OS,frameRate,STUDY_ID,SESSION_ID,list,prac_learn_study_loop.thisRepN,prac_learn_study_loop.thisTrialN,prac_learn_study_loop.thisN,prac_learn_study_loop.thisIndex,prac_learn_study_loop.ran,image,prac_learn_test_loop.thisRepN,prac_learn_test_loop.thisTrialN,prac_learn_test_loop.thisN,prac_learn_test_loop.thisIndex,prac_learn_test_loop.ran,learn_study_loop.thisRepN,learn_study_loop.thisTrialN,learn_study_loop.thisN,learn_study_loop.thisIndex,learn_study_loop.ran,list_no,block_no,learn_test_loop.thisRepN,learn_test_loop.thisTrialN,learn_test_loop.thisN,learn_test_loop.thisIndex,learn_test_loop.ran,learn_blocks.thisRepN,learn_blocks.thisTrialN,learn_blocks.thisN,learn_blocks.thisIndex,learn_blocks.ran,block_csv,key_resp_13.keys,key_resp_13.rt,learn_blocks_loop.thisRepN,learn_blocks_loop.thisTrialN,learn_blocks_loop.thisN,learn_blocks_loop.thisIndex,learn_blocks_loop.ran,final_learn_test.thisRepN,final_learn_test.thisTrialN,final_learn_test.thisN,final_learn_test.thisIndex,final_learn_test.ran,prac_wm_test_loop.thisRepN,prac_wm_test_loop.thisTrialN,prac_wm_test_loop.thisN,prac_wm_test_loop.thisIndex,prac_wm_test_loop.ran,wm_recalled1,wm_recall_rt1,wm_probed1,wm_recall_acc1,wm_recalled2,wm_recall_rt2,wm_probed2,wm_recall_acc2,wm_recalled3,wm_recall_rt3,wm_probed3,wm_recall_acc3,wm_recalled4,wm_recall_rt4,wm_probed4,wm_recall_acc4,prac_wm_trial_loop.thisRepN,prac_wm_trial_loop.thisTrialN,prac_wm_trial_loop.thisN,prac_wm_trial_loop.thisIndex,prac_wm_trial_loop.ran,word1,image1,file1,item_type1,word2,image2,file2,item_type2,word4,image4,file4,item_type4,word3,image3,file3,item_type3,wm_test_loop.thisRepN,wm_test_loop.thisTrialN,wm_test_loop.thisN,wm_test_loop.thisIndex,wm_test_loop.ran,wm_trial_loop.thisRepN,wm_trial_loop.thisTrialN,wm_trial_loop.thisN,wm_trial_loop.thisIndex,wm_trial_loop.ran
y,12.266,TOUGH,4.21,1,0,0,0,0,1,stimuli/images/PICTURE_747.png,TOUGH,5d75af57bcfd5b001b192708,07/23/1954,2020-07-09_16h17.51.718,proactive,2020.1.2,Win32,60,5f073de81c76c3308c0e4fb3,5f077a727c4fe639a3d03808,1,,,,,,,,,,,,,,,,,,,,,,,,,,,,,,,,,,,,,,,,,,,,,,,,,,,,,,,,,,,,,,,,,,,,,,,,,,,,,,,,,,,,,,,,,,,,,
,,,,,,,,,,stimuli/images/PICTURE_697.png,KILLER,5d75af57bcfd5b001b192708,07/23/1954,2020-07-09_16h17.51.718,proactive,2020.1.2,Win32,60,5f073de81c76c3308c0e4fb3,5f077a727c4fe639a3d03808,1,0,0,0,4,1,peach,,,,,,,,,,,,,,,,,,,,,,,,,,,,,,,,,,,,,,,,,,,,,,,,,,,,,,,,,,,,,,,,,,,,,,,,,,,,,,,,,,,,,,,
,,,,,,,,,,stimuli/images/PICTURE_658.png,DEVIL,5d75af57bcfd5b001b192708,07/23/1954,2020-07-09_16h17.51.718,proactive,2020.1.2,Win32,60,5f073de81c76c3308c0e4fb3,5f077a727c4fe639a3d03808,1,0,1,1,3,1,crow,,,,,,,,,,,,,,,,,,,,,,,,,,,,,,,,,,,,,,,,,,,,,,,,,,,,,,,,,,,,,,,,,,,,,,,,,,,,,,,,,,,,,,,
,,,,,,,,,,stimuli/images/PICTURE_727.png,CELL,5d75af57bcfd5b001b192708,07/23/1954,2020-07-09_16h17.51.718,proactive,2020.1.2,Win32,60,5f073de81c76c3308c0e4fb3,5f077a727c4fe639a3d03808,1,0,2,2,1,1,hose,,,,,,,,,,,,,,,,,,,,,,,,,,,,,,,,,,,,,,,,,,,,,,,,,,,,,,,,,,,,,,,,,,,,,,,,,,,,,,,,,,,,,,,
,,,,,,,,,,stimuli/images/PICTURE_269.png,GENIUS,5d75af57bcfd5b001b192708,07/23/1954,2020-07-09_16h17.51.718,proactive,2020.1.2,Win32,60,5f073de81c76c3308c0e4fb3,5f077a727c4fe639a3d03808,1,0,3,3,0,1,chameleon,,,,,,,,,,,,,,,,,,,,,,,,,,,,,,,,,,,,,,,,,,,,,,,,,,,,,,,,,,,,,,,,,,,,,,,,,,,,,,,,,,,,,,,
,,LOSS,3.876,1,,,,,,stimuli/images/PICTURE_378.png,LOSS,5d75af57bcfd5b001b192708,07/23/1954,2020-07-09_16h17.51.718,proactive,2020.1.2,Win32,60,5f073de81c76c3308c0e4fb3,5f077a727c4fe639a3d03808,1,,,,,,lobster,0,0,0,2,1,,,,,,,,,,,,,,,,,,,,,,,,,,,,,,,,,,,,,,,,,,,,,,,,,,,,,,,,,,,,,,,,,,,,,,,,,,,,,,,,,,
,,GENIUS,4.18,1,,,,,,stimuli/images/PICTURE_269.png,GENIUS,5d75af57bcfd5b001b192708,07/23/1954,2020-07-09_16h17.51.718,proactive,2020.1.2,Win32,60,5f073de81c76c3308c0e4fb3,5f077a727c4fe639a3d03808,1,,,,,,chameleon,0,1,1,0,1,,,,,,,,,,,,,,,,,,,,,,,,,,,,,,,,,,,,,,,,,,,,,,,,,,,,,,,,,,,,,,,,,,,,,,,,,,,,,,,,,,
,,DEVIL,3.431,1,,,,,,stimuli/images/PICTURE_658.png,DEVIL,5d75af57bcfd5b001b192708,07/23/1954,2020-07-09_16h17.51.718,proactive,2020.1.2,Win32,60,5f073de81c76c3308c0e4fb3,5f077a727c4fe639a3d03808,1,,,,,,crow,0,2,2,3,1,,,,,,,,,,,,,,,,,,,,,,,,,,,,,,,,,,,,,,,,,,,,,,,,,,,,,,,,,,,,,,,,,,,,,,,,,,,,,,,,,,
,,KILLER,2.931,1,,,,,,stimuli/images/PICTURE_697.png,KILLER,5d75af57bcfd5b001b192708,07/23/1954,2020-07-09_16h17.51.718,proactive,2020.1.2,Win32,60,5f073de81c76c3308c0e4fb3,5f077a727c4fe639a3d03808,1,,,,,,peach,0,3,3,4,1,,,,,,,,,,,,,,,,,,,,,,,,,,,,,,,,,,,,,,,,,,,,,,,,,,,,,,,,,,,,,,,,,,,,,,,,,,,,,,,,,,
,,CELL,3.181,1,,,,,,stimuli/images/PICTURE_727.png,CELL,5d75af57bcfd5b001b192708,07/23/1954,2020-07-09_16h17.51.718,proactive,2020.1.2,Win32,60,5f073de81c76c3308c0e4fb3,5f077a727c4fe639a3d03808,1,,,,,,hose,0,4,4,1,1,,,,,,,,,,,,,,,,,,,,,,,,,,,,,,,,,,,,,,,,,,,,,,,,,,,,,,,,,,,,,,,,,,,,,,,,,,,,,,,,,,
,,,,,,,,,,stimuli/images/PICTURE_453.png,DUDE,5d75af57bcfd5b001b192708,07/23/1954,2020-07-09_16h17.51.718,proactive,2020.1.2,Win32,60,5f073de81c76c3308c0e4fb3,5f077a727c4fe639a3d03808,1,,,,,,scissors,,,,,,0,0,0,27,1,3,0,,,,,,,,,,,,,,,,,,,,,,,,,,,,,,,,,,,,,,,,,,,,,,,,,,,,,,,,,,,,,,,,,,,,,,,,,,,
,,,,,,,,,,stimuli/images/PICTURE_488.png,STYLE,5d75af57bcfd5b001b192708,07/23/1954,2020-07-09_16h17.51.718,proactive,2020.1.2,Win32,60,5f073de81c76c3308c0e4fb3,5f077a727c4fe639a3d03808,1,,,,,,sun,,,,,,0,1,1,33,1,4,0,,,,,,,,,,,,,,,,,,,,,,,,,,,,,,,,,,,,,,,,,,,,,,,,,,,,,,,,,,,,,,,,,,,,,,,,,,,
,,,,,,,,,,stimuli/images/PICTURE_311.png,BEAUTY,5d75af57bcfd5b001b192708,07/23/1954,2020-07-09_16h17.51.718,proactive,2020.1.2,Win32,60,5f073de81c76c3308c0e4fb3,5f077a727c4fe639a3d03808,1,,,,,,razor,,,,,,0,2,2,13,1,2,0,,,,,,,,,,,,,,,,,,,,,,,,,,,,,,,,,,,,,,,,,,,,,,,,,,,,,,,,,,,,,,,,,,,,,,,,,,,
,,,,,,,,,,stimuli/images/PICTURE_160.png,LEADER,5d75af57bcfd5b001b192708,07/23/1954,2020-07-09_16h17.51.718,proactive,2020.1.2,Win32,60,5f073de81c76c3308c0e4fb3,5f077a727c4fe639a3d03808,1,,,,,,wheelbarrow,,,,,,0,3,3,3,1,1,0,,,,,,,,,,,,,,,,,,,,,,,,,,,,,,,,,,,,,,,,,,,,,,,,,,,,,,,,,,,,,,,,,,,,,,,,,,,
,,,,,,,,,,stimuli/images/PICTURE_302.png,FAMILY,5d75af57bcfd5b001b192708,07/23/1954,2020-07-09_16h17.51.718,proactive,2020.1.2,Win32,60,5f073de81c76c3308c0e4fb3,5f077a727c4fe639a3d03808,1,,,,,,taxi,,,,,,0,4,4,18,1,2,0,,,,,,,,,,,,,,,,,,,,,,,,,,,,,,,,,,,,,,,,,,,,,,,,,,,,,,,,,,,,,,,,,,,,,,,,,,,
,,,,,,,,,,stimuli/images/PICTURE_233.png,IDEAS,5d75af57bcfd5b001b192708,07/23/1954,2020-07-09_16h17.51.718,proactive,2020.1.2,Win32,60,5f073de81c76c3308c0e4fb3,5f077a727c4fe639a3d03808,1,,,,,,salt,,,,,,0,5,5,28,1,3,0,,,,,,,,,,,,,,,,,,,,,,,,,,,,,,,,,,,,,,,,,,,,,,,,,,,,,,,,,,,,,,,,,,,,,,,,,,,
,,,,,,,,,,stimuli/images/PICTURE_744.png,SAKE,5d75af57bcfd5b001b192708,07/23/1954,2020-07-09_16h17.51.718,proactive,2020.1.2,Win32,60,5f073de81c76c3308c0e4fb3,5f077a727c4fe639a3d03808,1,,,,,,ring,,,,,,0,6,6,17,1,2,0,,,,,,,,,,,,,,,,,,,,,,,,,,,,,,,,,,,,,,,,,,,,,,,,,,,,,,,,,,,,,,,,,,,,,,,,,,,
,,,,,,,,,,stimuli/images/PICTURE_32.png,JUNGLE,5d75af57bcfd5b001b192708,07/23/1954,2020-07-09_16h17.51.718,proactive,2020.1.2,Win32,60,5f073de81c76c3308c0e4fb3,5f077a727c4fe639a3d03808,1,,,,,,crown,,,,,,0,7,7,45,1,5,0,,,,,,,,,,,,,,,,,,,,,,,,,,,,,,,,,,,,,,,,,,,,,,,,,,,,,,,,,,,,,,,,,,,,,,,,,,,
,,,,,,,,,,stimuli/images/PICTURE_203.png,ARTIST,5d75af57bcfd5b001b192708,07/23/1954,2020-07-09_16h17.51.718,proactive,2020.1.2,Win32,60,5f073de81c76c3308c0e4fb3,5f077a727c4fe639a3d03808,1,,,,,,cap,,,,,,0,8,8,26,1,3,0,,,,,,,,,,,,,,,,,,,,,,,,,,,,,,,,,,,,,,,,,,,,,,,,,,,,,,,,,,,,,,,,,,,,,,,,,,,
,,,,,,,,,,stimuli/images/PICTURE_356.png,DANGER,5d75af57bcfd5b001b192708,07/23/1954,2020-07-09_16h17.51.718,proactive,2020.1.2,Win32,60,5f073de81c76c3308c0e4fb3,5f077a727c4fe639a3d03808,1,,,,,,pawn,,,,,,0,9,9,55,1,6,0,,,,,,,,,,,,,,,,,,,,,,,,,,,,,,,,,,,,,,,,,,,,,,,,,,,,,,,,,,,,,,,,,,,,,,,,,,,
,,,,,,,,,,stimuli/images/PICTURE_147.png,MOMENT,5d75af57bcfd5b001b192708,07/23/1954,2020-07-09_16h17.51.718,proactive,2020.1.2,Win32,60,5f073de81c76c3308c0e4fb3,5f077a727c4fe639a3d03808,1,,,,,,hanger,,,,,,0,10,10,51,1,6,0,,,,,,,,,,,,,,,,,,,,,,,,,,,,,,,,,,,,,,,,,,,,,,,,,,,,,,,,,,,,,,,,,,,,,,,,,,,
,,,,,,,,,,stimuli/images/PICTURE_491.png,WRITER,5d75af57bcfd5b001b192708,07/23/1954,2020-07-09_16h17.51.718,proactive,2020.1.2,Win32,60,5f073de81c76c3308c0e4fb3,5f077a727c4fe639a3d03808,1,,,,,,rug,,,,,,0,11,11,57,1,6,0,,,,,,,,,,,,,,,,,,,,,,,,,,,,,,,,,,,,,,,,,,,,,,,,,,,,,,,,,,,,,,,,,,,,,,,,,,,
,,,,,,,,,,stimuli/images/PICTURE_308.png,ESTATE,5d75af57bcfd5b001b192708,07/23/1954,2020-07-09_16h17.51.718,proactive,2020.1.2,Win32,60,5f073de81c76c3308c0e4fb3,5f077a727c4fe639a3d03808,1,,,,,,dice,,,,,,0,12,12,46,1,5,0,,,,,,,,,,,,,,,,,,,,,,,,,,,,,,,,,,,,,,,,,,,,,,,,,,,,,,,,,,,,,,,,,,,,,,,,,,,
,,,,,,,,,,stimuli/images/PICTURE_692.png,MONTH,5d75af57bcfd5b001b192708,07/23/1954,2020-07-09_16h17.51.718,proactive,2020.1.2,Win32,60,5f073de81c76c3308c0e4fb3,5f077a727c4fe639a3d03808,1,,,,,,cherry,,,,,,0,13,13,16,1,2,0,,,,,,,,,,,,,,,,,,,,,,,,,,,,,,,,,,,,,,,,,,,,,,,,,,,,,,,,,,,,,,,,,,,,,,,,,,,
,,,,,,,,,,stimuli/images/PICTURE_208.png,MONTH,5d75af57bcfd5b001b192708,07/23/1954,2020-07-09_16h17.51.718,proactive,2020.1.2,Win32,60,5f073de81c76c3308c0e4fb3,5f077a727c4fe639a3d03808,1,,,,,,microphone,,,,,,0,14,14,53,1,6,0,,,,,,,,,,,,,,,,,,,,,,,,,,,,,,,,,,,,,,,,,,,,,,,,,,,,,,,,,,,,,,,,,,,,,,,,,,,
,,,,,,,,,,stimuli/images/PICTURE_255.png,AREA,5d75af57bcfd5b001b192708,07/23/1954,2020-07-09_16h17.51.718,proactive,2020.1.2,Win32,60,5f073de81c76c3308c0e4fb3,5f077a727c4fe639a3d03808,1,,,,,,shovel,,,,,,0,15,15,22,1,3,0,,,,,,,,,,,,,,,,,,,,,,,,,,,,,,,,,,,,,,,,,,,,,,,,,,,,,,,,,,,,,,,,,,,,,,,,,,,
,,,,,,,,,,stimuli/images/PICTURE_208.png,LOTS,5d75af57bcfd5b001b192708,07/23/1954,2020-07-09_16h17.51.718,proactive,2020.1.2,Win32,60,5f073de81c76c3308c0e4fb3,5f077a727c4fe639a3d03808,1,,,,,,microphone,,,,,,0,16,16,10,1,2,0,,,,,,,,,,,,,,,,,,,,,,,,,,,,,,,,,,,,,,,,,,,,,,,,,,,,,,,,,,,,,,,,,,,,,,,,,,,
,,,,,,,,,,stimuli/images/PICTURE_708.png,YARD,5d75af57bcfd5b001b192708,07/23/1954,2020-07-09_16h17.51.718,proactive,2020.1.2,Win32,60,5f073de81c76c3308c0e4fb3,5f077a727c4fe639a3d03808,1,,,,,,monkey,,,,,,0,17,17,29,1,3,0,,,,,,,,,,,,,,,,,,,,,,,,,,,,,,,,,,,,,,,,,,,,,,,,,,,,,,,,,,,,,,,,,,,,,,,,,,,
,,,,,,,,,,stimuli/images/PICTURE_470.png,CASINO,5d75af57bcfd5b001b192708,07/23/1954,2020-07-09_16h17.51.718,proactive,2020.1.2,Win32,60,5f073de81c76c3308c0e4fb3,5f077a727c4fe639a3d03808,1,,,,,,motorbike,,,,,,0,18,18,36,1,4,0,,,,,,,,,,,,,,,,,,,,,,,,,,,,,,,,,,,,,,,,,,,,,,,,,,,,,,,,,,,,,,,,,,,,,,,,,,,
,,,,,,,,,,stimuli/images/PICTURE_467.png,DEMON,5d75af57bcfd5b001b192708,07/23/1954,2020-07-09_16h17.51.718,proactive,2020.1.2,Win32,60,5f073de81c76c3308c0e4fb3,5f077a727c4fe639a3d03808,1,,,,,,peg,,,,,,0,19,19,23,1,3,0,,,,,,,,,,,,,,,,,,,,,,,,,,,,,,,,,,,,,,,,,,,,,,,,,,,,,,,,,,,,,,,,,,,,,,,,,,,
,,,,,,,,,,stimuli/images/PICTURE_285.png,ADVICE,5d75af57bcfd5b001b192708,07/23/1954,2020-07-09_16h17.51.718,proactive,2020.1.2,Win32,60,5f073de81c76c3308c0e4fb3,5f077a727c4fe639a3d03808,1,,,,,,carrot,,,,,,0,20,20,12,1,2,0,,,,,,,,,,,,,,,,,,,,,,,,,,,,,,,,,,,,,,,,,,,,,,,,,,,,,,,,,,,,,,,,,,,,,,,,,,,
,,,,,,,,,,stimuli/images/PICTURE_469.png,LETTER,5d75af57bcfd5b001b192708,07/23/1954,2020-07-09_16h17.51.718,proactive,2020.1.2,Win32,60,5f073de81c76c3308c0e4fb3,5f077a727c4fe639a3d03808,1,,,,,,stool,,,,,,0,21,21,42,1,5,0,,,,,,,,,,,,,,,,,,,,,,,,,,,,,,,,,,,,,,,,,,,,,,,,,,,,,,,,,,,,,,,,,,,,,,,,,,,
,,,,,,,,,,stimuli/images/PICTURE_688.png,WOMEN,5d75af57bcfd5b001b192708,07/23/1954,2020-07-09_16h17.51.718,proactive,2020.1.2,Win32,60,5f073de81c76c3308c0e4fb3,5f077a727c4fe639a3d03808,1,,,,,,runner,,,,,,0,22,22,14,1,2,0,,,,,,,,,,,,,,,,,,,,,,,,,,,,,,,,,,,,,,,,,,,,,,,,,,,,,,,,,,,,,,,,,,,,,,,,,,,
,,,,,,,,,,stimuli/images/PICTURE_177.png,CARS,5d75af57bcfd5b001b192708,07/23/1954,2020-07-09_16h17.51.718,proactive,2020.1.2,Win32,60,5f073de81c76c3308c0e4fb3,5f077a727c4fe639a3d03808,1,,,,,,mushroom,,,,,,0,23,23,35,1,4,0,,,,,,,,,,,,,,,,,,,,,,,,,,,,,,,,,,,,,,,,,,,,,,,,,,,,,,,,,,,,,,,,,,,,,,,,,,,
,,,,,,,,,,stimuli/images/PICTURE_123.png,ADVICE,5d75af57bcfd5b001b192708,07/23/1954,2020-07-09_16h17.51.718,proactive,2020.1.2,Win32,60,5f073de81c76c3308c0e4fb3,5f077a727c4fe639a3d03808,1,,,,,,dart,,,,,,0,24,24,40,1,5,0,,,,,,,,,,,,,,,,,,,,,,,,,,,,,,,,,,,,,,,,,,,,,,,,,,,,,,,,,,,,,,,,,,,,,,,,,,,
,,,,,,,,,,stimuli/images/PICTURE_68.png,MILE,5d75af57bcfd5b001b192708,07/23/1954,2020-07-09_16h17.51.718,proactive,2020.1.2,Win32,60,5f073de81c76c3308c0e4fb3,5f077a727c4fe639a3d03808,1,,,,,,candle,,,,,,0,25,25,44,1,5,0,,,,,,,,,,,,,,,,,,,,,,,,,,,,,,,,,,,,,,,,,,,,,,,,,,,,,,,,,,,,,,,,,,,,,,,,,,,
,,,,,,,,,,stimuli/images/PICTURE_469.png,ARTIST,5d75af57bcfd5b001b192708,07/23/1954,2020-07-09_16h17.51.718,proactive,2020.1.2,Win32,60,5f073de81c76c3308c0e4fb3,5f077a727c4fe639a3d03808,1,,,,,,stool,,,,,,0,26,26,6,1,1,0,,,,,,,,,,,,,,,,,,,,,,,,,,,,,,,,,,,,,,,,,,,,,,,,,,,,,,,,,,,,,,,,,,,,,,,,,,,
,,,,,,,,,,stimuli/images/PICTURE_708.png,CLIENT,5d75af57bcfd5b001b192708,07/23/1954,2020-07-09_16h17.51.718,proactive,2020.1.2,Win32,60,5f073de81c76c3308c0e4fb3,5f077a727c4fe639a3d03808,1,,,,,,monkey,,,,,,0,27,27,5,1,1,0,,,,,,,,,,,,,,,,,,,,,,,,,,,,,,,,,,,,,,,,,,,,,,,,,,,,,,,,,,,,,,,,,,,,,,,,,,,
,,,,,,,,,,stimuli/images/PICTURE_667.png,BATH,5d75af57bcfd5b001b192708,07/23/1954,2020-07-09_16h17.51.718,proactive,2020.1.2,Win32,60,5f073de81c76c3308c0e4fb3,5f077a727c4fe639a3d03808,1,,,,,,daisy,,,,,,0,28,28,4,1,1,0,,,,,,,,,,,,,,,,,,,,,,,,,,,,,,,,,,,,,,,,,,,,,,,,,,,,,,,,,,,,,,,,,,,,,,,,,,,
,,,,,,,,,,stimuli/images/PICTURE_667.png,PLENTY,5d75af57bcfd5b001b192708,07/23/1954,2020-07-09_16h17.51.718,proactive,2020.1.2,Win32,60,5f073de81c76c3308c0e4fb3,5f077a727c4fe639a3d03808,1,,,,,,daisy,,,,,,0,29,29,41,1,5,0,,,,,,,,,,,,,,,,,,,,,,,,,,,,,,,,,,,,,,,,,,,,,,,,,,,,,,,,,,,,,,,,,,,,,,,,,,,
,,,,,,,,,,stimuli/images/PICTURE_708.png,PENNY,5d75af57bcfd5b001b192708,07/23/1954,2020-07-09_16h17.51.718,proactive,2020.1.2,Win32,60,5f073de81c76c3308c0e4fb3,5f077a727c4fe639a3d03808,1,,,,,,monkey,,,,,,0,30,30,31,1,4,0,,,,,,,,,,,,,,,,,,,,,,,,,,,,,,,,,,,,,,,,,,,,,,,,,,,,,,,,,,,,,,,,,,,,,,,,,,,
,,,,,,,,,,stimuli/images/PICTURE_85.png,THING,5d75af57bcfd5b001b192708,07/23/1954,2020-07-09_16h17.51.718,proactive,2020.1.2,Win32,60,5f073de81c76c3308c0e4fb3,5f077a727c4fe639a3d03808,1,,,,,,diamond,,,,,,0,31,31,15,1,2,0,,,,,,,,,,,,,,,,,,,,,,,,,,,,,,,,,,,,,,,,,,,,,,,,,,,,,,,,,,,,,,,,,,,,,,,,,,,
,,,,,,,,,,stimuli/images/PICTURE_491.png,ROOF,5d75af57bcfd5b001b192708,07/23/1954,2020-07-09_16h17.51.718,proactive,2020.1.2,Win32,60,5f073de81c76c3308c0e4fb3,5f077a727c4fe639a3d03808,1,,,,,,rug,,,,,,0,32,32,24,1,3,0,,,,,,,,,,,,,,,,,,,,,,,,,,,,,,,,,,,,,,,,,,,,,,,,,,,,,,,,,,,,,,,,,,,,,,,,,,,
,,,,,,,,,,stimuli/images/PICTURE_248.png,DOZEN,5d75af57bcfd5b001b192708,07/23/1954,2020-07-09_16h17.51.718,proactive,2020.1.2,Win32,60,5f073de81c76c3308c0e4fb3,5f077a727c4fe639a3d03808,1,,,,,,cart,,,,,,0,33,33,39,1,4,0,,,,,,,,,,,,,,,,,,,,,,,,,,,,,,,,,,,,,,,,,,,,,,,,,,,,,,,,,,,,,,,,,,,,,,,,,,,
,,,,,,,,,,stimuli/images/PICTURE_380.png,PHOTO,5d75af57bcfd5b001b192708,07/23/1954,2020-07-09_16h17.51.718,proactive,2020.1.2,Win32,60,5f073de81c76c3308c0e4fb3,5f077a727c4fe639a3d03808,1,,,,,,gorilla,,,,,,0,34,34,52,1,6,0,,,,,,,,,,,,,,,,,,,,,,,,,,,,,,,,,,,,,,,,,,,,,,,,,,,,,,,,,,,,,,,,,,,,,,,,,,,
,,,,,,,,,,stimuli/images/PICTURE_314.png,SAKE,5d75af57bcfd5b001b192708,07/23/1954,2020-07-09_16h17.51.718,proactive,2020.1.2,Win32,60,5f073de81c76c3308c0e4fb3,5f077a727c4fe639a3d03808,1,,,,,,perfume,,,,,,0,35,35,7,1,1,0,,,,,,,,,,,,,,,,,,,,,,,,,,,,,,,,,,,,,,,,,,,,,,,,,,,,,,,,,,,,,,,,,,,,,,,,,,,
,,,,,,,,,,stimuli/images/PICTURE_348.png,SPEECH,5d75af57bcfd5b001b192708,07/23/1954,2020-07-09_16h17.51.718,proactive,2020.1.2,Win32,60,5f073de81c76c3308c0e4fb3,5f077a727c4fe639a3d03808,1,,,,,,pepper,,,,,,0,36,36,20,1,3,0,,,,,,,,,,,,,,,,,,,,,,,,,,,,,,,,,,,,,,,,,,,,,,,,,,,,,,,,,,,,,,,,,,,,,,,,,,,
,,,,,,,,,,stimuli/images/PICTURE_95.png,STYLE,5d75af57bcfd5b001b192708,07/23/1954,2020-07-09_16h17.51.718,proactive,2020.1.2,Win32,60,5f073de81c76c3308c0e4fb3,5f077a727c4fe639a3d03808,1,,,,,,suitcase,,,,,,0,37,37,25,1,3,0,,,,,,,,,,,,,,,,,,,,,,,,,,,,,,,,,,,,,,,,,,,,,,,,,,,,,,,,,,,,,,,,,,,,,,,,,,,
,,,,,,,,,,stimuli/images/PICTURE_311.png,FRIEND,5d75af57bcfd5b001b192708,07/23/1954,2020-07-09_16h17.51.718,proactive,2020.1.2,Win32,60,5f073de81c76c3308c0e4fb3,5f077a727c4fe639a3d03808,1,,,,,,razor,,,,,,0,38,38,34,1,4,0,,,,,,,,,,,,,,,,,,,,,,,,,,,,,,,,,,,,,,,,,,,,,,,,,,,,,,,,,,,,,,,,,,,,,,,,,,,
,,,,,,,,,,stimuli/images/PICTURE_504.png,BODY,5d75af57bcfd5b001b192708,07/23/1954,2020-07-09_16h17.51.718,proactive,2020.1.2,Win32,60,5f073de81c76c3308c0e4fb3,5f077a727c4fe639a3d03808,1,,,,,,wheel,,,,,,0,39,39,8,1,1,0,,,,,,,,,,,,,,,,,,,,,,,,,,,,,,,,,,,,,,,,,,,,,,,,,,,,,,,,,,,,,,,,,,,,,,,,,,,
,,,,,,,,,,stimuli/images/PICTURE_449.png,THING,5d75af57bcfd5b001b192708,07/23/1954,2020-07-09_16h17.51.718,proactive,2020.1.2,Win32,60,5f073de81c76c3308c0e4fb3,5f077a727c4fe639a3d03808,1,,,,,,bench,,,,,,0,40,40,59,1,6,0,,,,,,,,,,,,,,,,,,,,,,,,,,,,,,,,,,,,,,,,,,,,,,,,,,,,,,,,,,,,,,,,,,,,,,,,,,,
,,,,,,,,,,stimuli/images/PICTURE_453.png,PLENTY,5d75af57bcfd5b001b192708,07/23/1954,2020-07-09_16h17.51.718,proactive,2020.1.2,Win32,60,5f073de81c76c3308c0e4fb3,5f077a727c4fe639a3d03808,1,,,,,,scissors,,,,,,0,41,41,56,1,6,0,,,,,,,,,,,,,,,,,,,,,,,,,,,,,,,,,,,,,,,,,,,,,,,,,,,,,,,,,,,,,,,,,,,,,,,,,,,
,,,,,,,,,,stimuli/images/PICTURE_233.png,WOMEN,5d75af57bcfd5b001b192708,07/23/1954,2020-07-09_16h17.51.718,proactive,2020.1.2,Win32,60,5f073de81c76c3308c0e4fb3,5f077a727c4fe639a3d03808,1,,,,,,salt,,,,,,0,42,42,38,1,4,0,,,,,,,,,,,,,,,,,,,,,,,,,,,,,,,,,,,,,,,,,,,,,,,,,,,,,,,,,,,,,,,,,,,,,,,,,,,
,,,,,,,,,,stimuli/images/PICTURE_487.png,FLIGHT,5d75af57bcfd5b001b192708,07/23/1954,2020-07-09_16h17.51.718,proactive,2020.1.2,Win32,60,5f073de81c76c3308c0e4fb3,5f077a727c4fe639a3d03808,1,,,,,,basket,,,,,,0,43,43,9,1,1,0,,,,,,,,,,,,,,,,,,,,,,,,,,,,,,,,,,,,,,,,,,,,,,,,,,,,,,,,,,,,,,,,,,,,,,,,,,,
,,,,,,,,,,stimuli/images/PICTURE_151.png,GIRL,5d75af57bcfd5b001b192708,07/23/1954,2020-07-09_16h17.51.718,proactive,2020.1.2,Win32,60,5f073de81c76c3308c0e4fb3,5f077a727c4fe639a3d03808,1,,,,,,tray,,,,,,0,44,44,19,1,2,0,,,,,,,,,,,,,,,,,,,,,,,,,,,,,,,,,,,,,,,,,,,,,,,,,,,,,,,,,,,,,,,,,,,,,,,,,,,
,,,,,,,,,,stimuli/images/PICTURE_339.png,PLENTY,5d75af57bcfd5b001b192708,07/23/1954,2020-07-09_16h17.51.718,proactive,2020.1.2,Win32,60,5f073de81c76c3308c0e4fb3,5f077a727c4fe639a3d03808,1,,,,,,backpack,,,,,,0,45,45,0,1,1,0,,,,,,,,,,,,,,,,,,,,,,,,,,,,,,,,,,,,,,,,,,,,,,,,,,,,,,,,,,,,,,,,,,,,,,,,,,,
,,,,,,,,,,stimuli/images/PICTURE_744.png,SYSTEM,5d75af57bcfd5b001b192708,07/23/1954,2020-07-09_16h17.51.718,proactive,2020.1.2,Win32,60,5f073de81c76c3308c0e4fb3,5f077a727c4fe639a3d03808,1,,,,,,ring,,,,,,0,46,46,43,1,5,0,,,,,,,,,,,,,,,,,,,,,,,,,,,,,,,,,,,,,,,,,,,,,,,,,,,,,,,,,,,,,,,,,,,,,,,,,,,
,,,,,,,,,,stimuli/images/PICTURE_509.png,PHOTO,5d75af57bcfd5b001b192708,07/23/1954,2020-07-09_16h17.51.718,proactive,2020.1.2,Win32,60,5f073de81c76c3308c0e4fb3,5f077a727c4fe639a3d03808,1,,,,,,telephone,,,,,,0,47,47,21,1,3,0,,,,,,,,,,,,,,,,,,,,,,,,,,,,,,,,,,,,,,,,,,,,,,,,,,,,,,,,,,,,,,,,,,,,,,,,,,,
,,,,,,,,,,stimuli/images/PICTURE_215.png,PLENTY,5d75af57bcfd5b001b192708,07/23/1954,2020-07-09_16h17.51.718,proactive,2020.1.2,Win32,60,5f073de81c76c3308c0e4fb3,5f077a727c4fe639a3d03808,1,,,,,,boot,,,,,,0,48,48,37,1,4,0,,,,,,,,,,,,,,,,,,,,,,,,,,,,,,,,,,,,,,,,,,,,,,,,,,,,,,,,,,,,,,,,,,,,,,,,,,,
,,,,,,,,,,stimuli/images/PICTURE_675.png,WEAPON,5d75af57bcfd5b001b192708,07/23/1954,2020-07-09_16h17.51.718,proactive,2020.1.2,Win32,60,5f073de81c76c3308c0e4fb3,5f077a727c4fe639a3d03808,1,,,,,,windmill,,,,,,0,49,49,32,1,4,0,,,,,,,,,,,,,,,,,,,,,,,,,,,,,,,,,,,,,,,,,,,,,,,,,,,,,,,,,,,,,,,,,,,,,,,,,,,
,,,,,,,,,,stimuli/images/PICTURE_327.png,BEAUTY,5d75af57bcfd5b001b192708,07/23/1954,2020-07-09_16h17.51.718,proactive,2020.1.2,Win32,60,5f073de81c76c3308c0e4fb3,5f077a727c4fe639a3d03808,1,,,,,,helmet,,,,,,0,50,50,48,1,5,0,,,,,,,,,,,,,,,,,,,,,,,,,,,,,,,,,,,,,,,,,,,,,,,,,,,,,,,,,,,,,,,,,,,,,,,,,,,
,,,,,,,,,,stimuli/images/PICTURE_688.png,CASINO,5d75af57bcfd5b001b192708,07/23/1954,2020-07-09_16h17.51.718,proactive,2020.1.2,Win32,60,5f073de81c76c3308c0e4fb3,5f077a727c4fe639a3d03808,1,,,,,,runner,,,,,,0,51,51,2,1,1,0,,,,,,,,,,,,,,,,,,,,,,,,,,,,,,,,,,,,,,,,,,,,,,,,,,,,,,,,,,,,,,,,,,,,,,,,,,,
,,,,,,,,,,stimuli/images/PICTURE_380.png,DEATH,5d75af57bcfd5b001b192708,07/23/1954,2020-07-09_16h17.51.718,proactive,2020.1.2,Win32,60,5f073de81c76c3308c0e4fb3,5f077a727c4fe639a3d03808,1,,,,,,gorilla,,,,,,0,52,52,49,1,5,0,,,,,,,,,,,,,,,,,,,,,,,,,,,,,,,,,,,,,,,,,,,,,,,,,,,,,,,,,,,,,,,,,,,,,,,,,,,
,,,,,,,,,,stimuli/images/PICTURE_308.png,KIND,5d75af57bcfd5b001b192708,07/23/1954,2020-07-09_16h17.51.718,proactive,2020.1.2,Win32,60,5f073de81c76c3308c0e4fb3,5f077a727c4fe639a3d03808,1,,,,,,dice,,,,,,0,53,53,54,1,6,0,,,,,,,,,,,,,,,,,,,,,,,,,,,,,,,,,,,,,,,,,,,,,,,,,,,,,,,,,,,,,,,,,,,,,,,,,,,
,,,,,,,,,,stimuli/images/PICTURE_208.png,THING,5d75af57bcfd5b001b192708,07/23/1954,2020-07-09_16h17.51.718,proactive,2020.1.2,Win32,60,5f073de81c76c3308c0e4fb3,5f077a727c4fe639a3d03808,1,,,,,,microphone,,,,,,0,54,54,47,1,5,0,,,,,,,,,,,,,,,,,,,,,,,,,,,,,,,,,,,,,,,,,,,,,,,,,,,,,,,,,,,,,,,,,,,,,,,,,,,
,,,,,,,,,,stimuli/images/PICTURE_160.png,FEET,5d75af57bcfd5b001b192708,07/23/1954,2020-07-09_16h17.51.718,proactive,2020.1.2,Win32,60,5f073de81c76c3308c0e4fb3,5f077a727c4fe639a3d03808,1,,,,,,wheelbarrow,,,,,,0,55,55,58,1,6,0,,,,,,,,,,,,,,,,,,,,,,,,,,,,,,,,,,,,,,,,,,,,,,,,,,,,,,,,,,,,,,,,,,,,,,,,,,,
,,,,,,,,,,stimuli/images/PICTURE_123.png,ADVICE,5d75af57bcfd5b001b192708,07/23/1954,2020-07-09_16h17.51.718,proactive,2020.1.2,Win32,60,5f073de81c76c3308c0e4fb3,5f077a727c4fe639a3d03808,1,,,,,,dart,,,,,,0,56,56,50,1,6,0,,,,,,,,,,,,,,,,,,,,,,,,,,,,,,,,,,,,,,,,,,,,,,,,,,,,,,,,,,,,,,,,,,,,,,,,,,,
,,,,,,,,,,stimuli/images/PICTURE_654.png,VALLEY,5d75af57bcfd5b001b192708,07/23/1954,2020-07-09_16h17.51.718,proactive,2020.1.2,Win32,60,5f073de81c76c3308c0e4fb3,5f077a727c4fe639a3d03808,1,,,,,,pencil,,,,,,0,57,57,1,1,1,0,,,,,,,,,,,,,,,,,,,,,,,,,,,,,,,,,,,,,,,,,,,,,,,,,,,,,,,,,,,,,,,,,,,,,,,,,,,
,,,,,,,,,,stimuli/images/PICTURE_677.png,MILE,5d75af57bcfd5b001b192708,07/23/1954,2020-07-09_16h17.51.718,proactive,2020.1.2,Win32,60,5f073de81c76c3308c0e4fb3,5f077a727c4fe639a3d03808,1,,,,,,map,,,,,,0,58,58,30,1,4,0,,,,,,,,,,,,,,,,,,,,,,,,,,,,,,,,,,,,,,,,,,,,,,,,,,,,,,,,,,,,,,,,,,,,,,,,,,,
,,PLENTY,3.677,1,,,,,,stimuli/images/PICTURE_339.png,PLENTY,5d75af57bcfd5b001b192708,07/23/1954,2020-07-09_16h17.51.718,proactive,2020.1.2,Win32,60,5f073de81c76c3308c0e4fb3,5f077a727c4fe639a3d03808,1,,,,,,backpack,,,,,,,,,,,1,0,0,0,0,0,1,,,,,,,,,,,,,,,,,,,,,,,,,,,,,,,,,,,,,,,,,,,,,,,,,,,,,,,,,,,,,,,,,,,,,,
,,?,0.003,0,,,,,,stimuli/images/PICTURE_311.png,FRIEND,5d75af57bcfd5b001b192708,07/23/1954,2020-07-09_16h17.51.718,proactive,2020.1.2,Win32,60,5f073de81c76c3308c0e4fb3,5f077a727c4fe639a3d03808,1,,,,,,razor,,,,,,,,,,,4,0,0,1,1,34,1,,,,,,,,,,,,,,,,,,,,,,,,,,,,,,,,,,,,,,,,,,,,,,,,,,,,,,,,,,,,,,,,,,,,,,
,,?,0.001,0,,,,,,stimuli/images/PICTURE_453.png,PLENTY,5d75af57bcfd5b001b192708,07/23/1954,2020-07-09_16h17.51.718,proactive,2020.1.2,Win32,60,5f073de81c76c3308c0e4fb3,5f077a727c4fe639a3d03808,1,,,,,,scissors,,,,,,,,,,,6,0,0,2,2,56,1,,,,,,,,,,,,,,,,,,,,,,,,,,,,,,,,,,,,,,,,,,,,,,,,,,,,,,,,,,,,,,,,,,,,,,
,,?,0.002,0,,,,,,stimuli/images/PICTURE_667.png,PLENTY,5d75af57bcfd5b001b192708,07/23/1954,2020-07-09_16h17.51.718,proactive,2020.1.2,Win32,60,5f073de81c76c3308c0e4fb3,5f077a727c4fe639a3d03808,1,,,,,,daisy,,,,,,,,,,,5,0,0,3,3,41,1,,,,,,,,,,,,,,,,,,,,,,,,,,,,,,,,,,,,,,,,,,,,,,,,,,,,,,,,,,,,,,,,,,,,,,
,,?,0.001,0,,,,,,stimuli/images/PICTURE_688.png,WOMEN,5d75af57bcfd5b001b192708,07/23/1954,2020-07-09_16h17.51.718,proactive,2020.1.2,Win32,60,5f073de81c76c3308c0e4fb3,5f077a727c4fe639a3d03808,1,,,,,,runner,,,,,,,,,,,2,0,0,4,4,14,1,,,,,,,,,,,,,,,,,,,,,,,,,,,,,,,,,,,,,,,,,,,,,,,,,,,,,,,,,,,,,,,,,,,,,,
,,?,0.002,0,,,,,,stimuli/images/PICTURE_85.png,THING,5d75af57bcfd5b001b192708,07/23/1954,2020-07-09_16h17.51.718,proactive,2020.1.2,Win32,60,5f073de81c76c3308c0e4fb3,5f077a727c4fe639a3d03808,1,,,,,,diamond,,,,,,,,,,,2,0,0,5,5,15,1,,,,,,,,,,,,,,,,,,,,,,,,,,,,,,,,,,,,,,,,,,,,,,,,,,,,,,,,,,,,,,,,,,,,,,
,,?,0.001,0,,,,,,stimuli/images/PICTURE_208.png,LOTS,5d75af57bcfd5b001b192708,07/23/1954,2020-07-09_16h17.51.718,proactive,2020.1.2,Win32,60,5f073de81c76c3308c0e4fb3,5f077a727c4fe639a3d03808,1,,,,,,microphone,,,,,,,,,,,2,0,0,6,6,10,1,,,,,,,,,,,,,,,,,,,,,,,,,,,,,,,,,,,,,,,,,,,,,,,,,,,,,,,,,,,,,,,,,,,,,,
,,?,0.002,0,,,,,,stimuli/images/PICTURE_285.png,ADVICE,5d75af57bcfd5b001b192708,07/23/1954,2020-07-09_16h17.51.718,proactive,2020.1.2,Win32,60,5f073de81c76c3308c0e4fb3,5f077a727c4fe639a3d03808,1,,,,,,carrot,,,,,,,,,,,2,0,0,7,7,12,1,,,,,,,,,,,,,,,,,,,,,,,,,,,,,,,,,,,,,,,,,,,,,,,,,,,,,,,,,,,,,,,,,,,,,,
,,?,0.002,0,,,,,,stimuli/images/PICTURE_744.png,SAKE,5d75af57bcfd5b001b192708,07/23/1954,2020-07-09_16h17.51.718,proactive,2020.1.2,Win32,60,5f073de81c76c3308c0e4fb3,5f077a727c4fe639a3d03808,1,,,,,,ring,,,,,,,,,,,2,0,0,8,8,17,1,,,,,,,,,,,,,,,,,,,,,,,,,,,,,,,,,,,,,,,,,,,,,,,,,,,,,,,,,,,,,,,,,,,,,,
,,?,0.001,0,,,,,,stimuli/images/PICTURE_491.png,ROOF,5d75af57bcfd5b001b192708,07/23/1954,2020-07-09_16h17.51.718,proactive,2020.1.2,Win32,60,5f073de81c76c3308c0e4fb3,5f077a727c4fe639a3d03808,1,,,,,,rug,,,,,,,,,,,3,0,0,9,9,24,1,,,,,,,,,,,,,,,,,,,,,,,,,,,,,,,,,,,,,,,,,,,,,,,,,,,,,,,,,,,,,,,,,,,,,,
,,BATH,8.498,1,,,,,,stimuli/images/PICTURE_667.png,BATH,5d75af57bcfd5b001b192708,07/23/1954,2020-07-09_16h17.51.718,proactive,2020.1.2,Win32,60,5f073de81c76c3308c0e4fb3,5f077a727c4fe639a3d03808,1,,,,,,daisy,,,,,,,,,,,1,0,0,10,10,4,1,,,,,,,,,,,,,,,,,,,,,,,,,,,,,,,,,,,,,,,,,,,,,,,,,,,,,,,,,,,,,,,,,,,,,,
,,?,0.003,0,,,,,,stimuli/images/PICTURE_467.png,DEMON,5d75af57bcfd5b001b192708,07/23/1954,2020-07-09_16h17.51.718,proactive,2020.1.2,Win32,60,5f073de81c76c3308c0e4fb3,5f077a727c4fe639a3d03808,1,,,,,,peg,,,,,,,,,,,3,0,0,11,11,23,1,,,,,,,,,,,,,,,,,,,,,,,,,,,,,,,,,,,,,,,,,,,,,,,,,,,,,,,,,,,,,,,,,,,,,,
,,ARTIST,4.609,1,,,,,,stimuli/images/PICTURE_469.png,ARTIST,5d75af57bcfd5b001b192708,07/23/1954,2020-07-09_16h17.51.718,proactive,2020.1.2,Win32,60,5f073de81c76c3308c0e4fb3,5f077a727c4fe639a3d03808,1,,,,,,stool,,,,,,,,,,,1,0,0,12,12,6,1,,,,,,,,,,,,,,,,,,,,,,,,,,,,,,,,,,,,,,,,,,,,,,,,,,,,,,,,,,,,,,,,,,,,,,
,,?,0.002,0,,,,,,stimuli/images/PICTURE_491.png,WRITER,5d75af57bcfd5b001b192708,07/23/1954,2020-07-09_16h17.51.718,proactive,2020.1.2,Win32,60,5f073de81c76c3308c0e4fb3,5f077a727c4fe639a3d03808,1,,,,,,rug,,,,,,,,,,,6,0,0,13,13,57,1,,,,,,,,,,,,,,,,,,,,,,,,,,,,,,,,,,,,,,,,,,,,,,,,,,,,,,,,,,,,,,,,,,,,,,
,,?,0.001,0,,,,,,stimuli/images/PICTURE_308.png,ESTATE,5d75af57bcfd5b001b192708,07/23/1954,2020-07-09_16h17.51.718,proactive,2020.1.2,Win32,60,5f073de81c76c3308c0e4fb3,5f077a727c4fe639a3d03808,1,,,,,,dice,,,,,,,,,,,5,0,0,14,14,46,1,,,,,,,,,,,,,,,,,,,,,,,,,,,,,,,,,,,,,,,,,,,,,,,,,,,,,,,,,,,,,,,,,,,,,,
,,?,0.001,0,,,,,,stimuli/images/PICTURE_692.png,MONTH,5d75af57bcfd5b001b192708,07/23/1954,2020-07-09_16h17.51.718,proactive,2020.1.2,Win32,60,5f073de81c76c3308c0e4fb3,5f077a727c4fe639a3d03808,1,,,,,,cherry,,,,,,,,,,,2,0,0,15,15,16,1,,,,,,,,,,,,,,,,,,,,,,,,,,,,,,,,,,,,,,,,,,,,,,,,,,,,,,,,,,,,,,,,,,,,,,
,,CLIENT,3.84,1,,,,,,stimuli/images/PICTURE_708.png,CLIENT,5d75af57bcfd5b001b192708,07/23/1954,2020-07-09_16h17.51.718,proactive,2020.1.2,Win32,60,5f073de81c76c3308c0e4fb3,5f077a727c4fe639a3d03808,1,,,,,,monkey,,,,,,,,,,,1,0,0,16,16,5,1,,,,,,,,,,,,,,,,,,,,,,,,,,,,,,,,,,,,,,,,,,,,,,,,,,,,,,,,,,,,,,,,,,,,,,
,,?,0.002,0,,,,,,stimuli/images/PICTURE_449.png,THING,5d75af57bcfd5b001b192708,07/23/1954,2020-07-09_16h17.51.718,proactive,2020.1.2,Win32,60,5f073de81c76c3308c0e4fb3,5f077a727c4fe639a3d03808,1,,,,,,bench,,,,,,,,,,,6,0,0,17,17,59,1,,,,,,,,,,,,,,,,,,,,,,,,,,,,,,,,,,,,,,,,,,,,,,,,,,,,,,,,,,,,,,,,,,,,,,
,,?,0.002,0,,,,,,stimuli/images/PICTURE_311.png,BEAUTY,5d75af57bcfd5b001b192708,07/23/1954,2020-07-09_16h17.51.718,proactive,2020.1.2,Win32,60,5f073de81c76c3308c0e4fb3,5f077a727c4fe639a3d03808,1,,,,,,razor,,,,,,,,,,,2,0,0,18,18,13,1,,,,,,,,,,,,,,,,,,,,,,,,,,,,,,,,,,,,,,,,,,,,,,,,,,,,,,,,,,,,,,,,,,,,,,
,,?,0.001,0,,,,,,stimuli/images/PICTURE_255.png,AREA,5d75af57bcfd5b001b192708,07/23/1954,2020-07-09_16h17.51.718,proactive,2020.1.2,Win32,60,5f073de81c76c3308c0e4fb3,5f077a727c4fe639a3d03808,1,,,,,,shovel,,,,,,,,,,,3,0,0,19,19,22,1,,,,,,,,,,,,,,,,,,,,,,,,,,,,,,,,,,,,,,,,,,,,,,,,,,,,,,,,,,,,,,,,,,,,,,
,,?,0,0,,,,,,stimuli/images/PICTURE_177.png,CARS,5d75af57bcfd5b001b192708,07/23/1954,2020-07-09_16h17.51.718,proactive,2020.1.2,Win32,60,5f073de81c76c3308c0e4fb3,5f077a727c4fe639a3d03808,1,,,,,,mushroom,,,,,,,,,,,4,0,0,20,20,35,1,,,,,,,,,,,,,,,,,,,,,,,,,,,,,,,,,,,,,,,,,,,,,,,,,,,,,,,,,,,,,,,,,,,,,,
,,?,0.002,0,,,,,,stimuli/images/PICTURE_151.png,GIRL,5d75af57bcfd5b001b192708,07/23/1954,2020-07-09_16h17.51.718,proactive,2020.1.2,Win32,60,5f073de81c76c3308c0e4fb3,5f077a727c4fe639a3d03808,1,,,,,,tray,,,,,,,,,,,2,0,0,21,21,19,1,,,,,,,,,,,,,,,,,,,,,,,,,,,,,,,,,,,,,,,,,,,,,,,,,,,,,,,,,,,,,,,,,,,,,,
,,?,0.001,0,,,,,,stimuli/images/PICTURE_453.png,DUDE,5d75af57bcfd5b001b192708,07/23/1954,2020-07-09_16h17.51.718,proactive,2020.1.2,Win32,60,5f073de81c76c3308c0e4fb3,5f077a727c4fe639a3d03808,1,,,,,,scissors,,,,,,,,,,,3,0,0,22,22,27,1,,,,,,,,,,,,,,,,,,,,,,,,,,,,,,,,,,,,,,,,,,,,,,,,,,,,,,,,,,,,,,,,,,,,,,
,,?,0.001,0,,,,,,stimuli/images/PICTURE_470.png,CASINO,5d75af57bcfd5b001b192708,07/23/1954,2020-07-09_16h17.51.718,proactive,2020.1.2,Win32,60,5f073de81c76c3308c0e4fb3,5f077a727c4fe639a3d03808,1,,,,,,motorbike,,,,,,,,,,,4,0,0,23,23,36,1,,,,,,,,,,,,,,,,,,,,,,,,,,,,,,,,,,,,,,,,,,,,,,,,,,,,,,,,,,,,,,,,,,,,,,
,,SAKE,3.61,1,,,,,,stimuli/images/PICTURE_314.png,SAKE,5d75af57bcfd5b001b192708,07/23/1954,2020-07-09_16h17.51.718,proactive,2020.1.2,Win32,60,5f073de81c76c3308c0e4fb3,5f077a727c4fe639a3d03808,1,,,,,,perfume,,,,,,,,,,,1,0,0,24,24,7,1,,,,,,,,,,,,,,,,,,,,,,,,,,,,,,,,,,,,,,,,,,,,,,,,,,,,,,,,,,,,,,,,,,,,,,
,,?,0.002,0,,,,,,stimuli/images/PICTURE_123.png,ADVICE,5d75af57bcfd5b001b192708,07/23/1954,2020-07-09_16h17.51.718,proactive,2020.1.2,Win32,60,5f073de81c76c3308c0e4fb3,5f077a727c4fe639a3d03808,1,,,,,,dart,,,,,,,,,,,5,0,0,25,25,40,1,,,,,,,,,,,,,,,,,,,,,,,,,,,,,,,,,,,,,,,,,,,,,,,,,,,,,,,,,,,,,,,,,,,,,,
,,?,0,0,,,,,,stimuli/images/PICTURE_32.png,JUNGLE,5d75af57bcfd5b001b192708,07/23/1954,2020-07-09_16h17.51.718,proactive,2020.1.2,Win32,60,5f073de81c76c3308c0e4fb3,5f077a727c4fe639a3d03808,1,,,,,,crown,,,,,,,,,,,5,0,0,26,26,45,1,,,,,,,,,,,,,,,,,,,,,,,,,,,,,,,,,,,,,,,,,,,,,,,,,,,,,,,,,,,,,,,,,,,,,,
,,?,0.001,0,,,,,,stimuli/images/PICTURE_160.png,FEET,5d75af57bcfd5b001b192708,07/23/1954,2020-07-09_16h17.51.718,proactive,2020.1.2,Win32,60,5f073de81c76c3308c0e4fb3,5f077a727c4fe639a3d03808,1,,,,,,wheelbarrow,,,,,,,,,,,6,0,0,27,27,58,1,,,,,,,,,,,,,,,,,,,,,,,,,,,,,,,,,,,,,,,,,,,,,,,,,,,,,,,,,,,,,,,,,,,,,,
,,?,0.001,0,,,,,,stimuli/images/PICTURE_509.png,PHOTO,5d75af57bcfd5b001b192708,07/23/1954,2020-07-09_16h17.51.718,proactive,2020.1.2,Win32,60,5f073de81c76c3308c0e4fb3,5f077a727c4fe639a3d03808,1,,,,,,telephone,,,,,,,,,,,3,0,0,28,28,21,1,,,,,,,,,,,,,,,,,,,,,,,,,,,,,,,,,,,,,,,,,,,,,,,,,,,,,,,,,,,,,,,,,,,,,,
,,?,0.001,0,,,,,,stimuli/images/PICTURE_208.png,MONTH,5d75af57bcfd5b001b192708,07/23/1954,2020-07-09_16h17.51.718,proactive,2020.1.2,Win32,60,5f073de81c76c3308c0e4fb3,5f077a727c4fe639a3d03808,1,,,,,,microphone,,,,,,,,,,,6,0,0,29,29,53,1,,,,,,,,,,,,,,,,,,,,,,,,,,,,,,,,,,,,,,,,,,,,,,,,,,,,,,,,,,,,,,,,,,,,,,
,,?,0.002,0,,,,,,stimuli/images/PICTURE_469.png,LETTER,5d75af57bcfd5b001b192708,07/23/1954,2020-07-09_16h17.51.718,proactive,2020.1.2,Win32,60,5f073de81c76c3308c0e4fb3,5f077a727c4fe639a3d03808,1,,,,,,stool,,,,,,,,,,,5,0,0,30,30,42,1,,,,,,,,,,,,,,,,,,,,,,,,,,,,,,,,,,,,,,,,,,,,,,,,,,,,,,,,,,,,,,,,,,,,,,
,,?,0,0,,,,,,stimuli/images/PICTURE_68.png,MILE,5d75af57bcfd5b001b192708,07/23/1954,2020-07-09_16h17.51.718,proactive,2020.1.2,Win32,60,5f073de81c76c3308c0e4fb3,5f077a727c4fe639a3d03808,1,,,,,,candle,,,,,,,,,,,5,0,0,31,31,44,1,,,,,,,,,,,,,,,,,,,,,,,,,,,,,,,,,,,,,,,,,,,,,,,,,,,,,,,,,,,,,,,,,,,,,,
,,?,0.002,0,,,,,,stimuli/images/PICTURE_302.png,FAMILY,5d75af57bcfd5b001b192708,07/23/1954,2020-07-09_16h17.51.718,proactive,2020.1.2,Win32,60,5f073de81c76c3308c0e4fb3,5f077a727c4fe639a3d03808,1,,,,,,taxi,,,,,,,,,,,2,0,0,32,32,18,1,,,,,,,,,,,,,,,,,,,,,,,,,,,,,,,,,,,,,,,,,,,,,,,,,,,,,,,,,,,,,,,,,,,,,,
,,?,0.001,0,,,,,,stimuli/images/PICTURE_327.png,BEAUTY,5d75af57bcfd5b001b192708,07/23/1954,2020-07-09_16h17.51.718,proactive,2020.1.2,Win32,60,5f073de81c76c3308c0e4fb3,5f077a727c4fe639a3d03808,1,,,,,,helmet,,,,,,,,,,,5,0,0,33,33,48,1,,,,,,,,,,,,,,,,,,,,,,,,,,,,,,,,,,,,,,,,,,,,,,,,,,,,,,,,,,,,,,,,,,,,,,
,,?,0.001,0,,,,,,stimuli/images/PICTURE_708.png,YARD,5d75af57bcfd5b001b192708,07/23/1954,2020-07-09_16h17.51.718,proactive,2020.1.2,Win32,60,5f073de81c76c3308c0e4fb3,5f077a727c4fe639a3d03808,1,,,,,,monkey,,,,,,,,,,,3,0,0,34,34,29,1,,,,,,,,,,,,,,,,,,,,,,,,,,,,,,,,,,,,,,,,,,,,,,,,,,,,,,,,,,,,,,,,,,,,,,
,,CASINO,4.738,1,,,,,,stimuli/images/PICTURE_688.png,CASINO,5d75af57bcfd5b001b192708,07/23/1954,2020-07-09_16h17.51.718,proactive,2020.1.2,Win32,60,5f073de81c76c3308c0e4fb3,5f077a727c4fe639a3d03808,1,,,,,,runner,,,,,,,,,,,1,0,0,35,35,2,1,,,,,,,,,,,,,,,,,,,,,,,,,,,,,,,,,,,,,,,,,,,,,,,,,,,,,,,,,,,,,,,,,,,,,,
,,BODY,4.198,1,,,,,,stimuli/images/PICTURE_504.png,BODY,5d75af57bcfd5b001b192708,07/23/1954,2020-07-09_16h17.51.718,proactive,2020.1.2,Win32,60,5f073de81c76c3308c0e4fb3,5f077a727c4fe639a3d03808,1,,,,,,wheel,,,,,,,,,,,1,0,0,36,36,8,1,,,,,,,,,,,,,,,,,,,,,,,,,,,,,,,,,,,,,,,,,,,,,,,,,,,,,,,,,,,,,,,,,,,,,,
,,?,0.002,0,,,,,,stimuli/images/PICTURE_708.png,PENNY,5d75af57bcfd5b001b192708,07/23/1954,2020-07-09_16h17.51.718,proactive,2020.1.2,Win32,60,5f073de81c76c3308c0e4fb3,5f077a727c4fe639a3d03808,1,,,,,,monkey,,,,,,,,,,,4,0,0,37,37,31,1,,,,,,,,,,,,,,,,,,,,,,,,,,,,,,,,,,,,,,,,,,,,,,,,,,,,,,,,,,,,,,,,,,,,,,
,,FLIGHT,4.01,1,,,,,,stimuli/images/PICTURE_487.png,FLIGHT,5d75af57bcfd5b001b192708,07/23/1954,2020-07-09_16h17.51.718,proactive,2020.1.2,Win32,60,5f073de81c76c3308c0e4fb3,5f077a727c4fe639a3d03808,1,,,,,,basket,,,,,,,,,,,1,0,0,38,38,9,1,,,,,,,,,,,,,,,,,,,,,,,,,,,,,,,,,,,,,,,,,,,,,,,,,,,,,,,,,,,,,,,,,,,,,,
,,?,0.001,0,,,,,,stimuli/images/PICTURE_380.png,DEATH,5d75af57bcfd5b001b192708,07/23/1954,2020-07-09_16h17.51.718,proactive,2020.1.2,Win32,60,5f073de81c76c3308c0e4fb3,5f077a727c4fe639a3d03808,1,,,,,,gorilla,,,,,,,,,,,5,0,0,39,39,49,1,,,,,,,,,,,,,,,,,,,,,,,,,,,,,,,,,,,,,,,,,,,,,,,,,,,,,,,,,,,,,,,,,,,,,,
,,?,0,0,,,,,,stimuli/images/PICTURE_248.png,DOZEN,5d75af57bcfd5b001b192708,07/23/1954,2020-07-09_16h17.51.718,proactive,2020.1.2,Win32,60,5f073de81c76c3308c0e4fb3,5f077a727c4fe639a3d03808,1,,,,,,cart,,,,,,,,,,,4,0,0,40,40,39,1,,,,,,,,,,,,,,,,,,,,,,,,,,,,,,,,,,,,,,,,,,,,,,,,,,,,,,,,,,,,,,,,,,,,,,
,,?,0,0,,,,,,stimuli/images/PICTURE_356.png,DANGER,5d75af57bcfd5b001b192708,07/23/1954,2020-07-09_16h17.51.718,proactive,2020.1.2,Win32,60,5f073de81c76c3308c0e4fb3,5f077a727c4fe639a3d03808,1,,,,,,pawn,,,,,,,,,,,6,0,0,41,41,55,1,,,,,,,,,,,,,,,,,,,,,,,,,,,,,,,,,,,,,,,,,,,,,,,,,,,,,,,,,,,,,,,,,,,,,,
,,?,0.001,0,,,,,,stimuli/images/PICTURE_744.png,SYSTEM,5d75af57bcfd5b001b192708,07/23/1954,2020-07-09_16h17.51.718,proactive,2020.1.2,Win32,60,5f073de81c76c3308c0e4fb3,5f077a727c4fe639a3d03808,1,,,,,,ring,,,,,,,,,,,5,0,0,42,42,43,1,,,,,,,,,,,,,,,,,,,,,,,,,,,,,,,,,,,,,,,,,,,,,,,,,,,,,,,,,,,,,,,,,,,,,,
,,?,0,0,,,,,,stimuli/images/PICTURE_677.png,MILE,5d75af57bcfd5b001b192708,07/23/1954,2020-07-09_16h17.51.718,proactive,2020.1.2,Win32,60,5f073de81c76c3308c0e4fb3,5f077a727c4fe639a3d03808,1,,,,,,map,,,,,,,,,,,4,0,0,43,43,30,1,,,,,,,,,,,,,,,,,,,,,,,,,,,,,,,,,,,,,,,,,,,,,,,,,,,,,,,,,,,,,,,,,,,,,,
,,?,0.001,0,,,,,,stimuli/images/PICTURE_675.png,WEAPON,5d75af57bcfd5b001b192708,07/23/1954,2020-07-09_16h17.51.718,proactive,2020.1.2,Win32,60,5f073de81c76c3308c0e4fb3,5f077a727c4fe639a3d03808,1,,,,,,windmill,,,,,,,,,,,4,0,0,44,44,32,1,,,,,,,,,,,,,,,,,,,,,,,,,,,,,,,,,,,,,,,,,,,,,,,,,,,,,,,,,,,,,,,,,,,,,,
,,?,0.001,0,,,,,,stimuli/images/PICTURE_215.png,PLENTY,5d75af57bcfd5b001b192708,07/23/1954,2020-07-09_16h17.51.718,proactive,2020.1.2,Win32,60,5f073de81c76c3308c0e4fb3,5f077a727c4fe639a3d03808,1,,,,,,boot,,,,,,,,,,,4,0,0,45,45,37,1,,,,,,,,,,,,,,,,,,,,,,,,,,,,,,,,,,,,,,,,,,,,,,,,,,,,,,,,,,,,,,,,,,,,,,
,,?,0.001,0,,,,,,stimuli/images/PICTURE_203.png,ARTIST,5d75af57bcfd5b001b192708,07/23/1954,2020-07-09_16h17.51.718,proactive,2020.1.2,Win32,60,5f073de81c76c3308c0e4fb3,5f077a727c4fe639a3d03808,1,,,,,,cap,,,,,,,,,,,3,0,0,46,46,26,1,,,,,,,,,,,,,,,,,,,,,,,,,,,,,,,,,,,,,,,,,,,,,,,,,,,,,,,,,,,,,,,,,,,,,,
,,?,0,0,,,,,,stimuli/images/PICTURE_308.png,KIND,5d75af57bcfd5b001b192708,07/23/1954,2020-07-09_16h17.51.718,proactive,2020.1.2,Win32,60,5f073de81c76c3308c0e4fb3,5f077a727c4fe639a3d03808,1,,,,,,dice,,,,,,,,,,,6,0,0,47,47,54,1,,,,,,,,,,,,,,,,,,,,,,,,,,,,,,,,,,,,,,,,,,,,,,,,,,,,,,,,,,,,,,,,,,,,,,
,,?,0.001,0,,,,,,stimuli/images/PICTURE_314.png,GODS,5d75af57bcfd5b001b192708,07/23/1954,2020-07-09_16h17.51.718,proactive,2020.1.2,Win32,60,5f073de81c76c3308c0e4fb3,5f077a727c4fe639a3d03808,1,,,,,,perfume,,,,,,,,,,,2,0,0,48,48,11,1,,,,,,,,,,,,,,,,,,,,,,,,,,,,,,,,,,,,,,,,,,,,,,,,,,,,,,,,,,,,,,,,,,,,,,
,,?,0.001,0,,,,,,stimuli/images/PICTURE_233.png,WOMEN,5d75af57bcfd5b001b192708,07/23/1954,2020-07-09_16h17.51.718,proactive,2020.1.2,Win32,60,5f073de81c76c3308c0e4fb3,5f077a727c4fe639a3d03808,1,,,,,,salt,,,,,,,,,,,4,0,0,49,49,38,1,,,,,,,,,,,,,,,,,,,,,,,,,,,,,,,,,,,,,,,,,,,,,,,,,,,,,,,,,,,,,,,,,,,,,,
,,?,0.001,0,,,,,,stimuli/images/PICTURE_95.png,STYLE,5d75af57bcfd5b001b192708,07/23/1954,2020-07-09_16h17.51.718,proactive,2020.1.2,Win32,60,5f073de81c76c3308c0e4fb3,5f077a727c4fe639a3d03808,1,,,,,,suitcase,,,,,,,,,,,3,0,0,50,50,25,1,,,,,,,,,,,,,,,,,,,,,,,,,,,,,,,,,,,,,,,,,,,,,,,,,,,,,,,,,,,,,,,,,,,,,,
,,?,0.001,0,,,,,,stimuli/images/PICTURE_348.png,SPEECH,5d75af57bcfd5b001b192708,07/23/1954,2020-07-09_16h17.51.718,proactive,2020.1.2,Win32,60,5f073de81c76c3308c0e4fb3,5f077a727c4fe639a3d03808,1,,,,,,pepper,,,,,,,,,,,3,0,0,51,51,20,1,,,,,,,,,,,,,,,,,,,,,,,,,,,,,,,,,,,,,,,,,,,,,,,,,,,,,,,,,,,,,,,,,,,,,,
,,?,0,0,,,,,,stimuli/images/PICTURE_123.png,ADVICE,5d75af57bcfd5b001b192708,07/23/1954,2020-07-09_16h17.51.718,proactive,2020.1.2,Win32,60,5f073de81c76c3308c0e4fb3,5f077a727c4fe639a3d03808,1,,,,,,dart,,,,,,,,,,,6,0,0,52,52,50,1,,,,,,,,,,,,,,,,,,,,,,,,,,,,,,,,,,,,,,,,,,,,,,,,,,,,,,,,,,,,,,,,,,,,,,
,,?,0,0,,,,,,stimuli/images/PICTURE_208.png,THING,5d75af57bcfd5b001b192708,07/23/1954,2020-07-09_16h17.51.718,proactive,2020.1.2,Win32,60,5f073de81c76c3308c0e4fb3,5f077a727c4fe639a3d03808,1,,,,,,microphone,,,,,,,,,,,5,0,0,53,53,47,1,,,,,,,,,,,,,,,,,,,,,,,,,,,,,,,,,,,,,,,,,,,,,,,,,,,,,,,,,,,,,,,,,,,,,,
,,?,0.001,0,,,,,,stimuli/images/PICTURE_233.png,IDEAS,5d75af57bcfd5b001b192708,07/23/1954,2020-07-09_16h17.51.718,proactive,2020.1.2,Win32,60,5f073de81c76c3308c0e4fb3,5f077a727c4fe639a3d03808,1,,,,,,salt,,,,,,,,,,,3,0,0,54,54,28,1,,,,,,,,,,,,,,,,,,,,,,,,,,,,,,,,,,,,,,,,,,,,,,,,,,,,,,,,,,,,,,,,,,,,,,
,,?,0,0,,,,,,stimuli/images/PICTURE_147.png,MOMENT,5d75af57bcfd5b001b192708,07/23/1954,2020-07-09_16h17.51.718,proactive,2020.1.2,Win32,60,5f073de81c76c3308c0e4fb3,5f077a727c4fe639a3d03808,1,,,,,,hanger,,,,,,,,,,,6,0,0,55,55,51,1,,,,,,,,,,,,,,,,,,,,,,,,,,,,,,,,,,,,,,,,,,,,,,,,,,,,,,,,,,,,,,,,,,,,,,
,,BARROW,12.639,0,,,,,,stimuli/images/PICTURE_160.png,LEADER,5d75af57bcfd5b001b192708,07/23/1954,2020-07-09_16h17.51.718,proactive,2020.1.2,Win32,60,5f073de81c76c3308c0e4fb3,5f077a727c4fe639a3d03808,1,,,,,,wheelbarrow,,,,,,,,,,,1,0,0,56,56,3,1,,,,,,,,,,,,,,,,,,,,,,,,,,,,,,,,,,,,,,,,,,,,,,,,,,,,,,,,,,,,,,,,,,,,,,
,,VALLEY,4.08,1,,,,,,stimuli/images/PICTURE_654.png,VALLEY,5d75af57bcfd5b001b192708,07/23/1954,2020-07-09_16h17.51.718,proactive,2020.1.2,Win32,60,5f073de81c76c3308c0e4fb3,5f077a727c4fe639a3d03808,1,,,,,,pencil,,,,,,,,,,,1,0,0,57,57,1,1,,,,,,,,,,,,,,,,,,,,,,,,,,,,,,,,,,,,,,,,,,,,,,,,,,,,,,,,,,,,,,,,,,,,,,
,,?,0.002,0,,,,,,stimuli/images/PICTURE_380.png,PHOTO,5d75af57bcfd5b001b192708,07/23/1954,2020-07-09_16h17.51.718,proactive,2020.1.2,Win32,60,5f073de81c76c3308c0e4fb3,5f077a727c4fe639a3d03808,1,,,,,,gorilla,,,,,,,,,,,6,0,0,58,58,52,1,,,,,,,,,,,,,,,,,,,,,,,,,,,,,,,,,,,,,,,,,,,,,,,,,,,,,,,,,,,,,,,,,,,,,,
,,?,0.002,0,,,,,,stimuli/images/PICTURE_488.png,STYLE,5d75af57bcfd5b001b192708,07/23/1954,2020-07-09_16h17.51.718,proactive,2020.1.2,Win32,60,5f073de81c76c3308c0e4fb3,5f077a727c4fe639a3d03808,1,,,,,,sun,,,,,,,,,,,4,0,0,59,59,33,1,,,,,,,,,,,,,,,,,,,,,,,,,,,,,,,,,,,,,,,,,,,,,,,,,,,,,,,,,,,,,,,,,,,,,,
,,,,,,,,,,,,5d75af57bcfd5b001b192708,07/23/1954,2020-07-09_16h17.51.718,proactive,2020.1.2,Win32,60,5f073de81c76c3308c0e4fb3,5f077a727c4fe639a3d03808,1,,,,,,,,,,,,,,,,,,,,,,,,0,0,0,0,1,stimuli/learn-block1.csv,,,,,,,,,,,,,,,,,,,,,,,,,,,,,,,,,,,,,,,,,,,,,,,,,,,,,,,,,,,,,,,,
,,,,,,,,,,stimuli/images/PICTURE_750.png,POLICY,5d75af57bcfd5b001b192708,07/23/1954,2020-07-09_16h17.51.718,proactive,2020.1.2,Win32,60,5f073de81c76c3308c0e4fb3,5f077a727c4fe639a3d03808,1,,,,,,kettle,,,,,,0,0,0,44,1,5,2,,,,,,,,,,,,,,,,,,,,,,,,,,,,,,,,,,,,,,,,,,,,,,,,,,,,,,,,,,,,,,,,,,,,,,,,,,,
,,,,,,,,,,stimuli/images/PICTURE_504.png,HOUSE,5d75af57bcfd5b001b192708,07/23/1954,2020-07-09_16h17.51.718,proactive,2020.1.2,Win32,60,5f073de81c76c3308c0e4fb3,5f077a727c4fe639a3d03808,1,,,,,,wheel,,,,,,0,1,1,36,1,4,2,,,,,,,,,,,,,,,,,,,,,,,,,,,,,,,,,,,,,,,,,,,,,,,,,,,,,,,,,,,,,,,,,,,,,,,,,,,
,,,,,,,,,,stimuli/images/PICTURE_18.png,RIVER,5d75af57bcfd5b001b192708,07/23/1954,2020-07-09_16h17.51.718,proactive,2020.1.2,Win32,60,5f073de81c76c3308c0e4fb3,5f077a727c4fe639a3d03808,1,,,,,,planet,,,,,,0,2,2,22,1,3,2,,,,,,,,,,,,,,,,,,,,,,,,,,,,,,,,,,,,,,,,,,,,,,,,,,,,,,,,,,,,,,,,,,,,,,,,,,,
,,,,,,,,,,stimuli/images/PICTURE_348.png,TOILET,5d75af57bcfd5b001b192708,07/23/1954,2020-07-09_16h17.51.718,proactive,2020.1.2,Win32,60,5f073de81c76c3308c0e4fb3,5f077a727c4fe639a3d03808,1,,,,,,pepper,,,,,,0,3,3,4,1,1,2,,,,,,,,,,,,,,,,,,,,,,,,,,,,,,,,,,,,,,,,,,,,,,,,,,,,,,,,,,,,,,,,,,,,,,,,,,,
,,,,,,,,,,stimuli/images/PICTURE_491.png,SERIES,5d75af57bcfd5b001b192708,07/23/1954,2020-07-09_16h17.51.718,proactive,2020.1.2,Win32,60,5f073de81c76c3308c0e4fb3,5f077a727c4fe639a3d03808,1,,,,,,rug,,,,,,0,4,4,39,1,4,2,,,,,,,,,,,,,,,,,,,,,,,,,,,,,,,,,,,,,,,,,,,,,,,,,,,,,,,,,,,,,,,,,,,,,,,,,,,
,,,,,,,,,,stimuli/images/PICTURE_215.png,BOYS,5d75af57bcfd5b001b192708,07/23/1954,2020-07-09_16h17.51.718,proactive,2020.1.2,Win32,60,5f073de81c76c3308c0e4fb3,5f077a727c4fe639a3d03808,1,,,,,,boot,,,,,,0,5,5,24,1,3,2,,,,,,,,,,,,,,,,,,,,,,,,,,,,,,,,,,,,,,,,,,,,,,,,,,,,,,,,,,,,,,,,,,,,,,,,,,,
,,,,,,,,,,stimuli/images/PICTURE_177.png,HOUSE,5d75af57bcfd5b001b192708,07/23/1954,2020-07-09_16h17.51.718,proactive,2020.1.2,Win32,60,5f073de81c76c3308c0e4fb3,5f077a727c4fe639a3d03808,1,,,,,,mushroom,,,,,,0,6,6,25,1,3,2,,,,,,,,,,,,,,,,,,,,,,,,,,,,,,,,,,,,,,,,,,,,,,,,,,,,,,,,,,,,,,,,,,,,,,,,,,,
,,,,,,,,,,stimuli/images/PICTURE_314.png,SPEECH,5d75af57bcfd5b001b192708,07/23/1954,2020-07-09_16h17.51.718,proactive,2020.1.2,Win32,60,5f073de81c76c3308c0e4fb3,5f077a727c4fe639a3d03808,1,,,,,,perfume,,,,,,0,7,7,35,1,4,2,,,,,,,,,,,,,,,,,,,,,,,,,,,,,,,,,,,,,,,,,,,,,,,,,,,,,,,,,,,,,,,,,,,,,,,,,,,
,,,,,,,,,,stimuli/images/PICTURE_509.png,MILLER,5d75af57bcfd5b001b192708,07/23/1954,2020-07-09_16h17.51.718,proactive,2020.1.2,Win32,60,5f073de81c76c3308c0e4fb3,5f077a727c4fe639a3d03808,1,,,,,,telephone,,,,,,0,8,8,49,1,5,2,,,,,,,,,,,,,,,,,,,,,,,,,,,,,,,,,,,,,,,,,,,,,,,,,,,,,,,,,,,,,,,,,,,,,,,,,,,
,,,,,,,,,,stimuli/images/PICTURE_453.png,FAMILY,5d75af57bcfd5b001b192708,07/23/1954,2020-07-09_16h17.51.718,proactive,2020.1.2,Win32,60,5f073de81c76c3308c0e4fb3,5f077a727c4fe639a3d03808,1,,,,,,scissors,,,,,,0,9,9,48,1,5,2,,,,,,,,,,,,,,,,,,,,,,,,,,,,,,,,,,,,,,,,,,,,,,,,,,,,,,,,,,,,,,,,,,,,,,,,,,,
,,,,,,,,,,stimuli/images/PICTURE_296.png,CLOCK,5d75af57bcfd5b001b192708,07/23/1954,2020-07-09_16h17.51.718,proactive,2020.1.2,Win32,60,5f073de81c76c3308c0e4fb3,5f077a727c4fe639a3d03808,1,,,,,,bolt,,,,,,0,10,10,18,1,2,2,,,,,,,,,,,,,,,,,,,,,,,,,,,,,,,,,,,,,,,,,,,,,,,,,,,,,,,,,,,,,,,,,,,,,,,,,,,
,,,,,,,,,,stimuli/images/PICTURE_215.png,FOOD,5d75af57bcfd5b001b192708,07/23/1954,2020-07-09_16h17.51.718,proactive,2020.1.2,Win32,60,5f073de81c76c3308c0e4fb3,5f077a727c4fe639a3d03808,1,,,,,,boot,,,,,,0,11,11,5,1,1,2,,,,,,,,,,,,,,,,,,,,,,,,,,,,,,,,,,,,,,,,,,,,,,,,,,,,,,,,,,,,,,,,,,,,,,,,,,,
,,,,,,,,,,stimuli/images/PICTURE_2.png,AREA,5d75af57bcfd5b001b192708,07/23/1954,2020-07-09_16h17.51.718,proactive,2020.1.2,Win32,60,5f073de81c76c3308c0e4fb3,5f077a727c4fe639a3d03808,1,,,,,,tyre,,,,,,0,12,12,32,1,4,2,,,,,,,,,,,,,,,,,,,,,,,,,,,,,,,,,,,,,,,,,,,,,,,,,,,,,,,,,,,,,,,,,,,,,,,,,,,
,,,,,,,,,,stimuli/images/PICTURE_708.png,VALLEY,5d75af57bcfd5b001b192708,07/23/1954,2020-07-09_16h17.51.718,proactive,2020.1.2,Win32,60,5f073de81c76c3308c0e4fb3,5f077a727c4fe639a3d03808,1,,,,,,monkey,,,,,,0,13,13,45,1,5,2,,,,,,,,,,,,,,,,,,,,,,,,,,,,,,,,,,,,,,,,,,,,,,,,,,,,,,,,,,,,,,,,,,,,,,,,,,,
,,,,,,,,,,stimuli/images/PICTURE_255.png,PENNY,5d75af57bcfd5b001b192708,07/23/1954,2020-07-09_16h17.51.718,proactive,2020.1.2,Win32,60,5f073de81c76c3308c0e4fb3,5f077a727c4fe639a3d03808,1,,,,,,shovel,,,,,,0,14,14,19,1,2,2,,,,,,,,,,,,,,,,,,,,,,,,,,,,,,,,,,,,,,,,,,,,,,,,,,,,,,,,,,,,,,,,,,,,,,,,,,,
,,,,,,,,,,stimuli/images/PICTURE_470.png,MOMENT,5d75af57bcfd5b001b192708,07/23/1954,2020-07-09_16h17.51.718,proactive,2020.1.2,Win32,60,5f073de81c76c3308c0e4fb3,5f077a727c4fe639a3d03808,1,,,,,,motorbike,,,,,,0,15,15,40,1,5,2,,,,,,,,,,,,,,,,,,,,,,,,,,,,,,,,,,,,,,,,,,,,,,,,,,,,,,,,,,,,,,,,,,,,,,,,,,,
,,,,,,,,,,stimuli/images/PICTURE_677.png,PHOTO,5d75af57bcfd5b001b192708,07/23/1954,2020-07-09_16h17.51.718,proactive,2020.1.2,Win32,60,5f073de81c76c3308c0e4fb3,5f077a727c4fe639a3d03808,1,,,,,,map,,,,,,0,16,16,14,1,2,2,,,,,,,,,,,,,,,,,,,,,,,,,,,,,,,,,,,,,,,,,,,,,,,,,,,,,,,,,,,,,,,,,,,,,,,,,,,
,,,,,,,,,,stimuli/images/PICTURE_311.png,FLESH,5d75af57bcfd5b001b192708,07/23/1954,2020-07-09_16h17.51.718,proactive,2020.1.2,Win32,60,5f073de81c76c3308c0e4fb3,5f077a727c4fe639a3d03808,1,,,,,,razor,,,,,,0,17,17,3,1,1,2,,,,,,,,,,,,,,,,,,,,,,,,,,,,,,,,,,,,,,,,,,,,,,,,,,,,,,,,,,,,,,,,,,,,,,,,,,,
,,,,,,,,,,stimuli/images/PICTURE_123.png,SALE,5d75af57bcfd5b001b192708,07/23/1954,2020-07-09_16h17.51.718,proactive,2020.1.2,Win32,60,5f073de81c76c3308c0e4fb3,5f077a727c4fe639a3d03808,1,,,,,,dart,,,,,,0,18,18,8,1,1,2,,,,,,,,,,,,,,,,,,,,,,,,,,,,,,,,,,,,,,,,,,,,,,,,,,,,,,,,,,,,,,,,,,,,,,,,,,,
,,,,,,,,,,stimuli/images/PICTURE_509.png,BATH,5d75af57bcfd5b001b192708,07/23/1954,2020-07-09_16h17.51.718,proactive,2020.1.2,Win32,60,5f073de81c76c3308c0e4fb3,5f077a727c4fe639a3d03808,1,,,,,,telephone,,,,,,0,19,19,15,1,2,2,,,,,,,,,,,,,,,,,,,,,,,,,,,,,,,,,,,,,,,,,,,,,,,,,,,,,,,,,,,,,,,,,,,,,,,,,,,
,,,,,,,,,,stimuli/images/PICTURE_208.png,SPIRIT,5d75af57bcfd5b001b192708,07/23/1954,2020-07-09_16h17.51.718,proactive,2020.1.2,Win32,60,5f073de81c76c3308c0e4fb3,5f077a727c4fe639a3d03808,1,,,,,,microphone,,,,,,0,20,20,28,1,3,2,,,,,,,,,,,,,,,,,,,,,,,,,,,,,,,,,,,,,,,,,,,,,,,,,,,,,,,,,,,,,,,,,,,,,,,,,,,
,,,,,,,,,,stimuli/images/PICTURE_405.png,HOUSE,5d75af57bcfd5b001b192708,07/23/1954,2020-07-09_16h17.51.718,proactive,2020.1.2,Win32,60,5f073de81c76c3308c0e4fb3,5f077a727c4fe639a3d03808,1,,,,,,anchor,,,,,,0,21,21,2,1,1,2,,,,,,,,,,,,,,,,,,,,,,,,,,,,,,,,,,,,,,,,,,,,,,,,,,,,,,,,,,,,,,,,,,,,,,,,,,,
,,,,,,,,,,stimuli/images/PICTURE_487.png,POLICY,5d75af57bcfd5b001b192708,07/23/1954,2020-07-09_16h17.51.718,proactive,2020.1.2,Win32,60,5f073de81c76c3308c0e4fb3,5f077a727c4fe639a3d03808,1,,,,,,basket,,,,,,0,22,22,34,1,4,2,,,,,,,,,,,,,,,,,,,,,,,,,,,,,,,,,,,,,,,,,,,,,,,,,,,,,,,,,,,,,,,,,,,,,,,,,,,
,,,,,,,,,,stimuli/images/PICTURE_667.png,GLASS,5d75af57bcfd5b001b192708,07/23/1954,2020-07-09_16h17.51.718,proactive,2020.1.2,Win32,60,5f073de81c76c3308c0e4fb3,5f077a727c4fe639a3d03808,1,,,,,,daisy,,,,,,0,23,23,27,1,3,2,,,,,,,,,,,,,,,,,,,,,,,,,,,,,,,,,,,,,,,,,,,,,,,,,,,,,,,,,,,,,,,,,,,,,,,,,,,
,,,,,,,,,,stimuli/images/PICTURE_57.png,CASINO,5d75af57bcfd5b001b192708,07/23/1954,2020-07-09_16h17.51.718,proactive,2020.1.2,Win32,60,5f073de81c76c3308c0e4fb3,5f077a727c4fe639a3d03808,1,,,,,,stamp,,,,,,0,24,24,12,1,2,2,,,,,,,,,,,,,,,,,,,,,,,,,,,,,,,,,,,,,,,,,,,,,,,,,,,,,,,,,,,,,,,,,,,,,,,,,,,
,,,,,,,,,,stimuli/images/PICTURE_655.png,SALE,5d75af57bcfd5b001b192708,07/23/1954,2020-07-09_16h17.51.718,proactive,2020.1.2,Win32,60,5f073de81c76c3308c0e4fb3,5f077a727c4fe639a3d03808,1,,,,,,megaphone,,,,,,0,25,25,57,1,6,2,,,,,,,,,,,,,,,,,,,,,,,,,,,,,,,,,,,,,,,,,,,,,,,,,,,,,,,,,,,,,,,,,,,,,,,,,,,
,,,,,,,,,,stimuli/images/PICTURE_215.png,LEADER,5d75af57bcfd5b001b192708,07/23/1954,2020-07-09_16h17.51.718,proactive,2020.1.2,Win32,60,5f073de81c76c3308c0e4fb3,5f077a727c4fe639a3d03808,1,,,,,,boot,,,,,,0,26,26,43,1,5,2,,,,,,,,,,,,,,,,,,,,,,,,,,,,,,,,,,,,,,,,,,,,,,,,,,,,,,,,,,,,,,,,,,,,,,,,,,,
,,,,,,,,,,stimuli/images/PICTURE_95.png,NIGHT,5d75af57bcfd5b001b192708,07/23/1954,2020-07-09_16h17.51.718,proactive,2020.1.2,Win32,60,5f073de81c76c3308c0e4fb3,5f077a727c4fe639a3d03808,1,,,,,,suitcase,,,,,,0,27,27,37,1,4,2,,,,,,,,,,,,,,,,,,,,,,,,,,,,,,,,,,,,,,,,,,,,,,,,,,,,,,,,,,,,,,,,,,,,,,,,,,,
,,,,,,,,,,stimuli/images/PICTURE_297.png,BODY,5d75af57bcfd5b001b192708,07/23/1954,2020-07-09_16h17.51.718,proactive,2020.1.2,Win32,60,5f073de81c76c3308c0e4fb3,5f077a727c4fe639a3d03808,1,,,,,,aeroplane,,,,,,0,28,28,51,1,6,2,,,,,,,,,,,,,,,,,,,,,,,,,,,,,,,,,,,,,,,,,,,,,,,,,,,,,,,,,,,,,,,,,,,,,,,,,,,
,,,,,,,,,,stimuli/images/PICTURE_403.png,FAMILY,5d75af57bcfd5b001b192708,07/23/1954,2020-07-09_16h17.51.718,proactive,2020.1.2,Win32,60,5f073de81c76c3308c0e4fb3,5f077a727c4fe639a3d03808,1,,,,,,cathedral,,,,,,0,29,29,9,1,1,2,,,,,,,,,,,,,,,,,,,,,,,,,,,,,,,,,,,,,,,,,,,,,,,,,,,,,,,,,,,,,,,,,,,,,,,,,,,
,,,,,,,,,,stimuli/images/PICTURE_692.png,DUDE,5d75af57bcfd5b001b192708,07/23/1954,2020-07-09_16h17.51.718,proactive,2020.1.2,Win32,60,5f073de81c76c3308c0e4fb3,5f077a727c4fe639a3d03808,1,,,,,,cherry,,,,,,0,30,30,47,1,5,2,,,,,,,,,,,,,,,,,,,,,,,,,,,,,,,,,,,,,,,,,,,,,,,,,,,,,,,,,,,,,,,,,,,,,,,,,,,
,,,,,,,,,,stimuli/images/PICTURE_2.png,YARD,5d75af57bcfd5b001b192708,07/23/1954,2020-07-09_16h17.51.718,proactive,2020.1.2,Win32,60,5f073de81c76c3308c0e4fb3,5f077a727c4fe639a3d03808,1,,,,,,tyre,,,,,,0,31,31,55,1,6,2,,,,,,,,,,,,,,,,,,,,,,,,,,,,,,,,,,,,,,,,,,,,,,,,,,,,,,,,,,,,,,,,,,,,,,,,,,,
,,,,,,,,,,stimuli/images/PICTURE_285.png,WRITER,5d75af57bcfd5b001b192708,07/23/1954,2020-07-09_16h17.51.718,proactive,2020.1.2,Win32,60,5f073de81c76c3308c0e4fb3,5f077a727c4fe639a3d03808,1,,,,,,carrot,,,,,,0,32,32,6,1,1,2,,,,,,,,,,,,,,,,,,,,,,,,,,,,,,,,,,,,,,,,,,,,,,,,,,,,,,,,,,,,,,,,,,,,,,,,,,,
,,,,,,,,,,stimuli/images/PICTURE_470.png,BEAUTY,5d75af57bcfd5b001b192708,07/23/1954,2020-07-09_16h17.51.718,proactive,2020.1.2,Win32,60,5f073de81c76c3308c0e4fb3,5f077a727c4fe639a3d03808,1,,,,,,motorbike,,,,,,0,33,33,26,1,3,2,,,,,,,,,,,,,,,,,,,,,,,,,,,,,,,,,,,,,,,,,,,,,,,,,,,,,,,,,,,,,,,,,,,,,,,,,,,
,,,,,,,,,,stimuli/images/PICTURE_405.png,JUNGLE,5d75af57bcfd5b001b192708,07/23/1954,2020-07-09_16h17.51.718,proactive,2020.1.2,Win32,60,5f073de81c76c3308c0e4fb3,5f077a727c4fe639a3d03808,1,,,,,,anchor,,,,,,0,34,34,13,1,2,2,,,,,,,,,,,,,,,,,,,,,,,,,,,,,,,,,,,,,,,,,,,,,,,,,,,,,,,,,,,,,,,,,,,,,,,,,,,
,,,,,,,,,,stimuli/images/PICTURE_452.png,COPS,5d75af57bcfd5b001b192708,07/23/1954,2020-07-09_16h17.51.718,proactive,2020.1.2,Win32,60,5f073de81c76c3308c0e4fb3,5f077a727c4fe639a3d03808,1,,,,,,watch,,,,,,0,35,35,0,1,1,2,,,,,,,,,,,,,,,,,,,,,,,,,,,,,,,,,,,,,,,,,,,,,,,,,,,,,,,,,,,,,,,,,,,,,,,,,,,
,,,,,,,,,,stimuli/images/PICTURE_57.png,NATION,5d75af57bcfd5b001b192708,07/23/1954,2020-07-09_16h17.51.718,proactive,2020.1.2,Win32,60,5f073de81c76c3308c0e4fb3,5f077a727c4fe639a3d03808,1,,,,,,stamp,,,,,,0,36,36,21,1,3,2,,,,,,,,,,,,,,,,,,,,,,,,,,,,,,,,,,,,,,,,,,,,,,,,,,,,,,,,,,,,,,,,,,,,,,,,,,,
,,,,,,,,,,stimuli/images/PICTURE_677.png,FAMILY,5d75af57bcfd5b001b192708,07/23/1954,2020-07-09_16h17.51.718,proactive,2020.1.2,Win32,60,5f073de81c76c3308c0e4fb3,5f077a727c4fe639a3d03808,1,,,,,,map,,,,,,0,37,37,53,1,6,2,,,,,,,,,,,,,,,,,,,,,,,,,,,,,,,,,,,,,,,,,,,,,,,,,,,,,,,,,,,,,,,,,,,,,,,,,,,
,,,,,,,,,,stimuli/images/PICTURE_160.png,HOTEL,5d75af57bcfd5b001b192708,07/23/1954,2020-07-09_16h17.51.718,proactive,2020.1.2,Win32,60,5f073de81c76c3308c0e4fb3,5f077a727c4fe639a3d03808,1,,,,,,wheelbarrow,,,,,,0,38,38,16,1,2,2,,,,,,,,,,,,,,,,,,,,,,,,,,,,,,,,,,,,,,,,,,,,,,,,,,,,,,,,,,,,,,,,,,,,,,,,,,,
,,,,,,,,,,stimuli/images/PICTURE_327.png,LEADER,5d75af57bcfd5b001b192708,07/23/1954,2020-07-09_16h17.51.718,proactive,2020.1.2,Win32,60,5f073de81c76c3308c0e4fb3,5f077a727c4fe639a3d03808,1,,,,,,helmet,,,,,,0,39,39,17,1,2,2,,,,,,,,,,,,,,,,,,,,,,,,,,,,,,,,,,,,,,,,,,,,,,,,,,,,,,,,,,,,,,,,,,,,,,,,,,,
,,,,,,,,,,stimuli/images/PICTURE_688.png,CLOCK,5d75af57bcfd5b001b192708,07/23/1954,2020-07-09_16h17.51.718,proactive,2020.1.2,Win32,60,5f073de81c76c3308c0e4fb3,5f077a727c4fe639a3d03808,1,,,,,,runner,,,,,,0,40,40,42,1,5,2,,,,,,,,,,,,,,,,,,,,,,,,,,,,,,,,,,,,,,,,,,,,,,,,,,,,,,,,,,,,,,,,,,,,,,,,,,,
,,,,,,,,,,stimuli/images/PICTURE_93.png,GIRL,5d75af57bcfd5b001b192708,07/23/1954,2020-07-09_16h17.51.718,proactive,2020.1.2,Win32,60,5f073de81c76c3308c0e4fb3,5f077a727c4fe639a3d03808,1,,,,,,skateboard,,,,,,0,41,41,31,1,4,2,,,,,,,,,,,,,,,,,,,,,,,,,,,,,,,,,,,,,,,,,,,,,,,,,,,,,,,,,,,,,,,,,,,,,,,,,,,
,,,,,,,,,,stimuli/images/PICTURE_509.png,SHOTS,5d75af57bcfd5b001b192708,07/23/1954,2020-07-09_16h17.51.718,proactive,2020.1.2,Win32,60,5f073de81c76c3308c0e4fb3,5f077a727c4fe639a3d03808,1,,,,,,telephone,,,,,,0,42,42,7,1,1,2,,,,,,,,,,,,,,,,,,,,,,,,,,,,,,,,,,,,,,,,,,,,,,,,,,,,,,,,,,,,,,,,,,,,,,,,,,,
,,,,,,,,,,stimuli/images/PICTURE_141.png,CLIENT,5d75af57bcfd5b001b192708,07/23/1954,2020-07-09_16h17.51.718,proactive,2020.1.2,Win32,60,5f073de81c76c3308c0e4fb3,5f077a727c4fe639a3d03808,1,,,,,,sunflower,,,,,,0,43,43,30,1,4,2,,,,,,,,,,,,,,,,,,,,,,,,,,,,,,,,,,,,,,,,,,,,,,,,,,,,,,,,,,,,,,,,,,,,,,,,,,,
,,,,,,,,,,stimuli/images/PICTURE_509.png,APPLE,5d75af57bcfd5b001b192708,07/23/1954,2020-07-09_16h17.51.718,proactive,2020.1.2,Win32,60,5f073de81c76c3308c0e4fb3,5f077a727c4fe639a3d03808,1,,,,,,telephone,,,,,,0,44,44,38,1,4,2,,,,,,,,,,,,,,,,,,,,,,,,,,,,,,,,,,,,,,,,,,,,,,,,,,,,,,,,,,,,,,,,,,,,,,,,,,,
,,,,,,,,,,stimuli/images/PICTURE_311.png,TOILET,5d75af57bcfd5b001b192708,07/23/1954,2020-07-09_16h17.51.718,proactive,2020.1.2,Win32,60,5f073de81c76c3308c0e4fb3,5f077a727c4fe639a3d03808,1,,,,,,razor,,,,,,0,45,45,54,1,6,2,,,,,,,,,,,,,,,,,,,,,,,,,,,,,,,,,,,,,,,,,,,,,,,,,,,,,,,,,,,,,,,,,,,,,,,,,,,
,,,,,,,,,,stimuli/images/PICTURE_356.png,CANDY,5d75af57bcfd5b001b192708,07/23/1954,2020-07-09_16h17.51.718,proactive,2020.1.2,Win32,60,5f073de81c76c3308c0e4fb3,5f077a727c4fe639a3d03808,1,,,,,,pawn,,,,,,0,46,46,46,1,5,2,,,,,,,,,,,,,,,,,,,,,,,,,,,,,,,,,,,,,,,,,,,,,,,,,,,,,,,,,,,,,,,,,,,,,,,,,,,
,,,,,,,,,,stimuli/images/PICTURE_564.png,PLENTY,5d75af57bcfd5b001b192708,07/23/1954,2020-07-09_16h17.51.718,proactive,2020.1.2,Win32,60,5f073de81c76c3308c0e4fb3,5f077a727c4fe639a3d03808,1,,,,,,spoon,,,,,,0,47,47,11,1,2,2,,,,,,,,,,,,,,,,,,,,,,,,,,,,,,,,,,,,,,,,,,,,,,,,,,,,,,,,,,,,,,,,,,,,,,,,,,,
,,,,,,,,,,stimuli/images/PICTURE_285.png,PRINCE,5d75af57bcfd5b001b192708,07/23/1954,2020-07-09_16h17.51.718,proactive,2020.1.2,Win32,60,5f073de81c76c3308c0e4fb3,5f077a727c4fe639a3d03808,1,,,,,,carrot,,,,,,0,48,48,20,1,3,2,,,,,,,,,,,,,,,,,,,,,,,,,,,,,,,,,,,,,,,,,,,,,,,,,,,,,,,,,,,,,,,,,,,,,,,,,,,
,,,,,,,,,,stimuli/images/PICTURE_654.png,COPS,5d75af57bcfd5b001b192708,07/23/1954,2020-07-09_16h17.51.718,proactive,2020.1.2,Win32,60,5f073de81c76c3308c0e4fb3,5f077a727c4fe639a3d03808,1,,,,,,pencil,,,,,,0,49,49,10,1,2,2,,,,,,,,,,,,,,,,,,,,,,,,,,,,,,,,,,,,,,,,,,,,,,,,,,,,,,,,,,,,,,,,,,,,,,,,,,,
,,,,,,,,,,stimuli/images/PICTURE_487.png,ROOF,5d75af57bcfd5b001b192708,07/23/1954,2020-07-09_16h17.51.718,proactive,2020.1.2,Win32,60,5f073de81c76c3308c0e4fb3,5f077a727c4fe639a3d03808,1,,,,,,basket,,,,,,0,50,50,50,1,6,2,,,,,,,,,,,,,,,,,,,,,,,,,,,,,,,,,,,,,,,,,,,,,,,,,,,,,,,,,,,,,,,,,,,,,,,,,,,
,,,,,,,,,,stimuli/images/PICTURE_2.png,JUNGLE,5d75af57bcfd5b001b192708,07/23/1954,2020-07-09_16h17.51.718,proactive,2020.1.2,Win32,60,5f073de81c76c3308c0e4fb3,5f077a727c4fe639a3d03808,1,,,,,,tyre,,,,,,0,51,51,1,1,1,2,,,,,,,,,,,,,,,,,,,,,,,,,,,,,,,,,,,,,,,,,,,,,,,,,,,,,,,,,,,,,,,,,,,,,,,,,,,
,,,,,,,,,,stimuli/images/PICTURE_33.png,COPS,5d75af57bcfd5b001b192708,07/23/1954,2020-07-09_16h17.51.718,proactive,2020.1.2,Win32,60,5f073de81c76c3308c0e4fb3,5f077a727c4fe639a3d03808,1,,,,,,frame,,,,,,0,52,52,29,1,3,2,,,,,,,,,,,,,,,,,,,,,,,,,,,,,,,,,,,,,,,,,,,,,,,,,,,,,,,,,,,,,,,,,,,,,,,,,,,
,,,,,,,,,,stimuli/images/PICTURE_405.png,JUNGLE,5d75af57bcfd5b001b192708,07/23/1954,2020-07-09_16h17.51.718,proactive,2020.1.2,Win32,60,5f073de81c76c3308c0e4fb3,5f077a727c4fe639a3d03808,1,,,,,,anchor,,,,,,0,53,53,58,1,6,2,,,,,,,,,,,,,,,,,,,,,,,,,,,,,,,,,,,,,,,,,,,,,,,,,,,,,,,,,,,,,,,,,,,,,,,,,,,
,,,,,,,,,,stimuli/images/PICTURE_147.png,LEADER,5d75af57bcfd5b001b192708,07/23/1954,2020-07-09_16h17.51.718,proactive,2020.1.2,Win32,60,5f073de81c76c3308c0e4fb3,5f077a727c4fe639a3d03808,1,,,,,,hanger,,,,,,0,54,54,33,1,4,2,,,,,,,,,,,,,,,,,,,,,,,,,,,,,,,,,,,,,,,,,,,,,,,,,,,,,,,,,,,,,,,,,,,,,,,,,,,
,,,,,,,,,,stimuli/images/PICTURE_57.png,CANDY,5d75af57bcfd5b001b192708,07/23/1954,2020-07-09_16h17.51.718,proactive,2020.1.2,Win32,60,5f073de81c76c3308c0e4fb3,5f077a727c4fe639a3d03808,1,,,,,,stamp,,,,,,0,55,55,52,1,6,2,,,,,,,,,,,,,,,,,,,,,,,,,,,,,,,,,,,,,,,,,,,,,,,,,,,,,,,,,,,,,,,,,,,,,,,,,,,
,,,,,,,,,,stimuli/images/PICTURE_32.png,LETTER,5d75af57bcfd5b001b192708,07/23/1954,2020-07-09_16h17.51.718,proactive,2020.1.2,Win32,60,5f073de81c76c3308c0e4fb3,5f077a727c4fe639a3d03808,1,,,,,,crown,,,,,,0,56,56,56,1,6,2,,,,,,,,,,,,,,,,,,,,,,,,,,,,,,,,,,,,,,,,,,,,,,,,,,,,,,,,,,,,,,,,,,,,,,,,,,,
,,,,,,,,,,stimuli/images/PICTURE_654.png,YEAR,5d75af57bcfd5b001b192708,07/23/1954,2020-07-09_16h17.51.718,proactive,2020.1.2,Win32,60,5f073de81c76c3308c0e4fb3,5f077a727c4fe639a3d03808,1,,,,,,pencil,,,,,,0,57,57,41,1,5,2,,,,,,,,,,,,,,,,,,,,,,,,,,,,,,,,,,,,,,,,,,,,,,,,,,,,,,,,,,,,,,,,,,,,,,,,,,,
,,,,,,,,,,stimuli/images/PICTURE_68.png,KIND,5d75af57bcfd5b001b192708,07/23/1954,2020-07-09_16h17.51.718,proactive,2020.1.2,Win32,60,5f073de81c76c3308c0e4fb3,5f077a727c4fe639a3d03808,1,,,,,,candle,,,,,,0,58,58,23,1,3,2,,,,,,,,,,,,,,,,,,,,,,,,,,,,,,,,,,,,,,,,,,,,,,,,,,,,,,,,,,,,,,,,,,,,,,,,,,,
,,?,0.002,0,,,,,,stimuli/images/PICTURE_18.png,RIVER,5d75af57bcfd5b001b192708,07/23/1954,2020-07-09_16h17.51.718,proactive,2020.1.2,Win32,60,5f073de81c76c3308c0e4fb3,5f077a727c4fe639a3d03808,1,,,,,,planet,,,,,,,,,,,3,2,0,0,0,22,1,,,,,,,,,,,,,,,,,,,,,,,,,,,,,,,,,,,,,,,,,,,,,,,,,,,,,,,,,,,,,,,,,,,,,,
,,?,0.002,0,,,,,,stimuli/images/PICTURE_688.png,CLOCK,5d75af57bcfd5b001b192708,07/23/1954,2020-07-09_16h17.51.718,proactive,2020.1.2,Win32,60,5f073de81c76c3308c0e4fb3,5f077a727c4fe639a3d03808,1,,,,,,runner,,,,,,,,,,,5,2,0,1,1,42,1,,,,,,,,,,,,,,,,,,,,,,,,,,,,,,,,,,,,,,,,,,,,,,,,,,,,,,,,,,,,,,,,,,,,,,
,,?,0,0,,,,,,stimuli/images/PICTURE_33.png,COPS,5d75af57bcfd5b001b192708,07/23/1954,2020-07-09_16h17.51.718,proactive,2020.1.2,Win32,60,5f073de81c76c3308c0e4fb3,5f077a727c4fe639a3d03808,1,,,,,,frame,,,,,,,,,,,3,2,0,2,2,29,1,,,,,,,,,,,,,,,,,,,,,,,,,,,,,,,,,,,,,,,,,,,,,,,,,,,,,,,,,,,,,,,,,,,,,,
,,?,0.001,0,,,,,,stimuli/images/PICTURE_2.png,AREA,5d75af57bcfd5b001b192708,07/23/1954,2020-07-09_16h17.51.718,proactive,2020.1.2,Win32,60,5f073de81c76c3308c0e4fb3,5f077a727c4fe639a3d03808,1,,,,,,tyre,,,,,,,,,,,4,2,0,3,3,32,1,,,,,,,,,,,,,,,,,,,,,,,,,,,,,,,,,,,,,,,,,,,,,,,,,,,,,,,,,,,,,,,,,,,,,,
,,FLESH,4.093,1,,,,,,stimuli/images/PICTURE_311.png,FLESH,5d75af57bcfd5b001b192708,07/23/1954,2020-07-09_16h17.51.718,proactive,2020.1.2,Win32,60,5f073de81c76c3308c0e4fb3,5f077a727c4fe639a3d03808,1,,,,,,razor,,,,,,,,,,,1,2,0,4,4,3,1,,,,,,,,,,,,,,,,,,,,,,,,,,,,,,,,,,,,,,,,,,,,,,,,,,,,,,,,,,,,,,,,,,,,,,
,,?,0.003,0,,,,,,stimuli/images/PICTURE_677.png,PHOTO,5d75af57bcfd5b001b192708,07/23/1954,2020-07-09_16h17.51.718,proactive,2020.1.2,Win32,60,5f073de81c76c3308c0e4fb3,5f077a727c4fe639a3d03808,1,,,,,,map,,,,,,,,,,,2,2,0,5,5,14,1,,,,,,,,,,,,,,,,,,,,,,,,,,,,,,,,,,,,,,,,,,,,,,,,,,,,,,,,,,,,,,,,,,,,,,
,,COPS,3.494,1,,,,,,stimuli/images/PICTURE_452.png,COPS,5d75af57bcfd5b001b192708,07/23/1954,2020-07-09_16h17.51.718,proactive,2020.1.2,Win32,60,5f073de81c76c3308c0e4fb3,5f077a727c4fe639a3d03808,1,,,,,,watch,,,,,,,,,,,1,2,0,6,6,0,1,,,,,,,,,,,,,,,,,,,,,,,,,,,,,,,,,,,,,,,,,,,,,,,,,,,,,,,,,,,,,,,,,,,,,,
,,?,0.002,0,,,,,,stimuli/images/PICTURE_453.png,FAMILY,5d75af57bcfd5b001b192708,07/23/1954,2020-07-09_16h17.51.718,proactive,2020.1.2,Win32,60,5f073de81c76c3308c0e4fb3,5f077a727c4fe639a3d03808,1,,,,,,scissors,,,,,,,,,,,5,2,0,7,7,48,1,,,,,,,,,,,,,,,,,,,,,,,,,,,,,,,,,,,,,,,,,,,,,,,,,,,,,,,,,,,,,,,,,,,,,,
,,?,0.001,0,,,,,,stimuli/images/PICTURE_509.png,APPLE,5d75af57bcfd5b001b192708,07/23/1954,2020-07-09_16h17.51.718,proactive,2020.1.2,Win32,60,5f073de81c76c3308c0e4fb3,5f077a727c4fe639a3d03808,1,,,,,,telephone,,,,,,,,,,,4,2,0,8,8,38,1,,,,,,,,,,,,,,,,,,,,,,,,,,,,,,,,,,,,,,,,,,,,,,,,,,,,,,,,,,,,,,,,,,,,,,
,,SHOT,7.793,0,,,,,,stimuli/images/PICTURE_123.png,SALE,5d75af57bcfd5b001b192708,07/23/1954,2020-07-09_16h17.51.718,proactive,2020.1.2,Win32,60,5f073de81c76c3308c0e4fb3,5f077a727c4fe639a3d03808,1,,,,,,dart,,,,,,,,,,,1,2,0,9,9,8,1,,,,,,,,,,,,,,,,,,,,,,,,,,,,,,,,,,,,,,,,,,,,,,,,,,,,,,,,,,,,,,,,,,,,,,
,,?,0.001,0,,,,,,stimuli/images/PICTURE_177.png,HOUSE,5d75af57bcfd5b001b192708,07/23/1954,2020-07-09_16h17.51.718,proactive,2020.1.2,Win32,60,5f073de81c76c3308c0e4fb3,5f077a727c4fe639a3d03808,1,,,,,,mushroom,,,,,,,,,,,3,2,0,10,10,25,1,,,,,,,,,,,,,,,,,,,,,,,,,,,,,,,,,,,,,,,,,,,,,,,,,,,,,,,,,,,,,,,,,,,,,,
,,?,0.001,0,,,,,,stimuli/images/PICTURE_509.png,MILLER,5d75af57bcfd5b001b192708,07/23/1954,2020-07-09_16h17.51.718,proactive,2020.1.2,Win32,60,5f073de81c76c3308c0e4fb3,5f077a727c4fe639a3d03808,1,,,,,,telephone,,,,,,,,,,,5,2,0,11,11,49,1,,,,,,,,,,,,,,,,,,,,,,,,,,,,,,,,,,,,,,,,,,,,,,,,,,,,,,,,,,,,,,,,,,,,,,
,,?,0.002,0,,,,,,stimuli/images/PICTURE_470.png,MOMENT,5d75af57bcfd5b001b192708,07/23/1954,2020-07-09_16h17.51.718,proactive,2020.1.2,Win32,60,5f073de81c76c3308c0e4fb3,5f077a727c4fe639a3d03808,1,,,,,,motorbike,,,,,,,,,,,5,2,0,12,12,40,1,,,,,,,,,,,,,,,,,,,,,,,,,,,,,,,,,,,,,,,,,,,,,,,,,,,,,,,,,,,,,,,,,,,,,,
,,TOILET,4.12,1,,,,,,stimuli/images/PICTURE_348.png,TOILET,5d75af57bcfd5b001b192708,07/23/1954,2020-07-09_16h17.51.718,proactive,2020.1.2,Win32,60,5f073de81c76c3308c0e4fb3,5f077a727c4fe639a3d03808,1,,,,,,pepper,,,,,,,,,,,1,2,0,13,13,4,1,,,,,,,,,,,,,,,,,,,,,,,,,,,,,,,,,,,,,,,,,,,,,,,,,,,,,,,,,,,,,,,,,,,,,,
,,FAMILY,4.731,1,,,,,,stimuli/images/PICTURE_403.png,FAMILY,5d75af57bcfd5b001b192708,07/23/1954,2020-07-09_16h17.51.718,proactive,2020.1.2,Win32,60,5f073de81c76c3308c0e4fb3,5f077a727c4fe639a3d03808,1,,,,,,cathedral,,,,,,,,,,,1,2,0,14,14,9,1,,,,,,,,,,,,,,,,,,,,,,,,,,,,,,,,,,,,,,,,,,,,,,,,,,,,,,,,,,,,,,,,,,,,,,
,,?,0.002,0,,,,,,stimuli/images/PICTURE_215.png,LEADER,5d75af57bcfd5b001b192708,07/23/1954,2020-07-09_16h17.51.718,proactive,2020.1.2,Win32,60,5f073de81c76c3308c0e4fb3,5f077a727c4fe639a3d03808,1,,,,,,boot,,,,,,,,,,,5,2,0,15,15,43,1,,,,,,,,,,,,,,,,,,,,,,,,,,,,,,,,,,,,,,,,,,,,,,,,,,,,,,,,,,,,,,,,,,,,,,
,,?,0.002,0,,,,,,stimuli/images/PICTURE_470.png,BEAUTY,5d75af57bcfd5b001b192708,07/23/1954,2020-07-09_16h17.51.718,proactive,2020.1.2,Win32,60,5f073de81c76c3308c0e4fb3,5f077a727c4fe639a3d03808,1,,,,,,motorbike,,,,,,,,,,,3,2,0,16,16,26,1,,,,,,,,,,,,,,,,,,,,,,,,,,,,,,,,,,,,,,,,,,,,,,,,,,,,,,,,,,,,,,,,,,,,,,
,,SHOT,4.907,0,,,,,,stimuli/images/PICTURE_509.png,SHOTS,5d75af57bcfd5b001b192708,07/23/1954,2020-07-09_16h17.51.718,proactive,2020.1.2,Win32,60,5f073de81c76c3308c0e4fb3,5f077a727c4fe639a3d03808,1,,,,,,telephone,,,,,,,,,,,1,2,0,17,17,7,1,,,,,,,,,,,,,,,,,,,,,,,,,,,,,,,,,,,,,,,,,,,,,,,,,,,,,,,,,,,,,,,,,,,,,,
,,?,0.003,0,,,,,,stimuli/images/PICTURE_487.png,ROOF,5d75af57bcfd5b001b192708,07/23/1954,2020-07-09_16h17.51.718,proactive,2020.1.2,Win32,60,5f073de81c76c3308c0e4fb3,5f077a727c4fe639a3d03808,1,,,,,,basket,,,,,,,,,,,6,2,0,18,18,50,1,,,,,,,,,,,,,,,,,,,,,,,,,,,,,,,,,,,,,,,,,,,,,,,,,,,,,,,,,,,,,,,,,,,,,,
,,?,0.001,0,,,,,,stimuli/images/PICTURE_297.png,BODY,5d75af57bcfd5b001b192708,07/23/1954,2020-07-09_16h17.51.718,proactive,2020.1.2,Win32,60,5f073de81c76c3308c0e4fb3,5f077a727c4fe639a3d03808,1,,,,,,aeroplane,,,,,,,,,,,6,2,0,19,19,51,1,,,,,,,,,,,,,,,,,,,,,,,,,,,,,,,,,,,,,,,,,,,,,,,,,,,,,,,,,,,,,,,,,,,,,,
,,?,0.001,0,,,,,,stimuli/images/PICTURE_57.png,CASINO,5d75af57bcfd5b001b192708,07/23/1954,2020-07-09_16h17.51.718,proactive,2020.1.2,Win32,60,5f073de81c76c3308c0e4fb3,5f077a727c4fe639a3d03808,1,,,,,,stamp,,,,,,,,,,,2,2,0,20,20,12,1,,,,,,,,,,,,,,,,,,,,,,,,,,,,,,,,,,,,,,,,,,,,,,,,,,,,,,,,,,,,,,,,,,,,,,
,,?,0.001,0,,,,,,stimuli/images/PICTURE_327.png,LEADER,5d75af57bcfd5b001b192708,07/23/1954,2020-07-09_16h17.51.718,proactive,2020.1.2,Win32,60,5f073de81c76c3308c0e4fb3,5f077a727c4fe639a3d03808,1,,,,,,helmet,,,,,,,,,,,2,2,0,21,21,17,1,,,,,,,,,,,,,,,,,,,,,,,,,,,,,,,,,,,,,,,,,,,,,,,,,,,,,,,,,,,,,,,,,,,,,,
,,?,0,0,,,,,,stimuli/images/PICTURE_160.png,HOTEL,5d75af57bcfd5b001b192708,07/23/1954,2020-07-09_16h17.51.718,proactive,2020.1.2,Win32,60,5f073de81c76c3308c0e4fb3,5f077a727c4fe639a3d03808,1,,,,,,wheelbarrow,,,,,,,,,,,2,2,0,22,22,16,1,,,,,,,,,,,,,,,,,,,,,,,,,,,,,,,,,,,,,,,,,,,,,,,,,,,,,,,,,,,,,,,,,,,,,,
,,?,0.001,0,,,,,,stimuli/images/PICTURE_255.png,PENNY,5d75af57bcfd5b001b192708,07/23/1954,2020-07-09_16h17.51.718,proactive,2020.1.2,Win32,60,5f073de81c76c3308c0e4fb3,5f077a727c4fe639a3d03808,1,,,,,,shovel,,,,,,,,,,,2,2,0,23,23,19,1,,,,,,,,,,,,,,,,,,,,,,,,,,,,,,,,,,,,,,,,,,,,,,,,,,,,,,,,,,,,,,,,,,,,,,
,,?,0.002,0,,,,,,stimuli/images/PICTURE_93.png,GIRL,5d75af57bcfd5b001b192708,07/23/1954,2020-07-09_16h17.51.718,proactive,2020.1.2,Win32,60,5f073de81c76c3308c0e4fb3,5f077a727c4fe639a3d03808,1,,,,,,skateboard,,,,,,,,,,,4,2,0,24,24,31,1,,,,,,,,,,,,,,,,,,,,,,,,,,,,,,,,,,,,,,,,,,,,,,,,,,,,,,,,,,,,,,,,,,,,,,
,,?,0.001,0,,,,,,stimuli/images/PICTURE_509.png,BATH,5d75af57bcfd5b001b192708,07/23/1954,2020-07-09_16h17.51.718,proactive,2020.1.2,Win32,60,5f073de81c76c3308c0e4fb3,5f077a727c4fe639a3d03808,1,,,,,,telephone,,,,,,,,,,,2,2,0,25,25,15,1,,,,,,,,,,,,,,,,,,,,,,,,,,,,,,,,,,,,,,,,,,,,,,,,,,,,,,,,,,,,,,,,,,,,,,
,,HOME,6.83,0,,,,,,stimuli/images/PICTURE_405.png,HOUSE,5d75af57bcfd5b001b192708,07/23/1954,2020-07-09_16h17.51.718,proactive,2020.1.2,Win32,60,5f073de81c76c3308c0e4fb3,5f077a727c4fe639a3d03808,1,,,,,,anchor,,,,,,,,,,,1,2,0,26,26,2,1,,,,,,,,,,,,,,,,,,,,,,,,,,,,,,,,,,,,,,,,,,,,,,,,,,,,,,,,,,,,,,,,,,,,,,
,,?,0.003,0,,,,,,stimuli/images/PICTURE_491.png,SERIES,5d75af57bcfd5b001b192708,07/23/1954,2020-07-09_16h17.51.718,proactive,2020.1.2,Win32,60,5f073de81c76c3308c0e4fb3,5f077a727c4fe639a3d03808,1,,,,,,rug,,,,,,,,,,,4,2,0,27,27,39,1,,,,,,,,,,,,,,,,,,,,,,,,,,,,,,,,,,,,,,,,,,,,,,,,,,,,,,,,,,,,,,,,,,,,,,
,,?,0.001,0,,,,,,stimuli/images/PICTURE_57.png,CANDY,5d75af57bcfd5b001b192708,07/23/1954,2020-07-09_16h17.51.718,proactive,2020.1.2,Win32,60,5f073de81c76c3308c0e4fb3,5f077a727c4fe639a3d03808,1,,,,,,stamp,,,,,,,,,,,6,2,0,28,28,52,1,,,,,,,,,,,,,,,,,,,,,,,,,,,,,,,,,,,,,,,,,,,,,,,,,,,,,,,,,,,,,,,,,,,,,,
,,?,0.002,0,,,,,,stimuli/images/PICTURE_504.png,HOUSE,5d75af57bcfd5b001b192708,07/23/1954,2020-07-09_16h17.51.718,proactive,2020.1.2,Win32,60,5f073de81c76c3308c0e4fb3,5f077a727c4fe639a3d03808,1,,,,,,wheel,,,,,,,,,,,4,2,0,29,29,36,1,,,,,,,,,,,,,,,,,,,,,,,,,,,,,,,,,,,,,,,,,,,,,,,,,,,,,,,,,,,,,,,,,,,,,,
,,?,0.002,0,,,,,,stimuli/images/PICTURE_750.png,POLICY,5d75af57bcfd5b001b192708,07/23/1954,2020-07-09_16h17.51.718,proactive,2020.1.2,Win32,60,5f073de81c76c3308c0e4fb3,5f077a727c4fe639a3d03808,1,,,,,,kettle,,,,,,,,,,,5,2,0,30,30,44,1,,,,,,,,,,,,,,,,,,,,,,,,,,,,,,,,,,,,,,,,,,,,,,,,,,,,,,,,,,,,,,,,,,,,,,
,,?,0.001,0,,,,,,stimuli/images/PICTURE_654.png,COPS,5d75af57bcfd5b001b192708,07/23/1954,2020-07-09_16h17.51.718,proactive,2020.1.2,Win32,60,5f073de81c76c3308c0e4fb3,5f077a727c4fe639a3d03808,1,,,,,,pencil,,,,,,,,,,,2,2,0,31,31,10,1,,,,,,,,,,,,,,,,,,,,,,,,,,,,,,,,,,,,,,,,,,,,,,,,,,,,,,,,,,,,,,,,,,,,,,
,,?,0.001,0,,,,,,stimuli/images/PICTURE_692.png,DUDE,5d75af57bcfd5b001b192708,07/23/1954,2020-07-09_16h17.51.718,proactive,2020.1.2,Win32,60,5f073de81c76c3308c0e4fb3,5f077a727c4fe639a3d03808,1,,,,,,cherry,,,,,,,,,,,5,2,0,32,32,47,1,,,,,,,,,,,,,,,,,,,,,,,,,,,,,,,,,,,,,,,,,,,,,,,,,,,,,,,,,,,,,,,,,,,,,,
,,?,0.002,0,,,,,,stimuli/images/PICTURE_655.png,SALE,5d75af57bcfd5b001b192708,07/23/1954,2020-07-09_16h17.51.718,proactive,2020.1.2,Win32,60,5f073de81c76c3308c0e4fb3,5f077a727c4fe639a3d03808,1,,,,,,megaphone,,,,,,,,,,,6,2,0,33,33,57,1,,,,,,,,,,,,,,,,,,,,,,,,,,,,,,,,,,,,,,,,,,,,,,,,,,,,,,,,,,,,,,,,,,,,,,
,,?,0.001,0,,,,,,stimuli/images/PICTURE_708.png,VALLEY,5d75af57bcfd5b001b192708,07/23/1954,2020-07-09_16h17.51.718,proactive,2020.1.2,Win32,60,5f073de81c76c3308c0e4fb3,5f077a727c4fe639a3d03808,1,,,,,,monkey,,,,,,,,,,,5,2,0,34,34,45,1,,,,,,,,,,,,,,,,,,,,,,,,,,,,,,,,,,,,,,,,,,,,,,,,,,,,,,,,,,,,,,,,,,,,,,
,,?,0.001,0,,,,,,stimuli/images/PICTURE_2.png,YARD,5d75af57bcfd5b001b192708,07/23/1954,2020-07-09_16h17.51.718,proactive,2020.1.2,Win32,60,5f073de81c76c3308c0e4fb3,5f077a727c4fe639a3d03808,1,,,,,,tyre,,,,,,,,,,,6,2,0,35,35,55,1,,,,,,,,,,,,,,,,,,,,,,,,,,,,,,,,,,,,,,,,,,,,,,,,,,,,,,,,,,,,,,,,,,,,,,
,,?,0,0,,,,,,stimuli/images/PICTURE_487.png,POLICY,5d75af57bcfd5b001b192708,07/23/1954,2020-07-09_16h17.51.718,proactive,2020.1.2,Win32,60,5f073de81c76c3308c0e4fb3,5f077a727c4fe639a3d03808,1,,,,,,basket,,,,,,,,,,,4,2,0,36,36,34,1,,,,,,,,,,,,,,,,,,,,,,,,,,,,,,,,,,,,,,,,,,,,,,,,,,,,,,,,,,,,,,,,,,,,,,
,,?,0.001,0,,,,,,stimuli/images/PICTURE_654.png,YEAR,5d75af57bcfd5b001b192708,07/23/1954,2020-07-09_16h17.51.718,proactive,2020.1.2,Win32,60,5f073de81c76c3308c0e4fb3,5f077a727c4fe639a3d03808,1,,,,,,pencil,,,,,,,,,,,5,2,0,37,37,41,1,,,,,,,,,,,,,,,,,,,,,,,,,,,,,,,,,,,,,,,,,,,,,,,,,,,,,,,,,,,,,,,,,,,,,,
,,?,0,0,,,,,,stimuli/images/PICTURE_405.png,JUNGLE,5d75af57bcfd5b001b192708,07/23/1954,2020-07-09_16h17.51.718,proactive,2020.1.2,Win32,60,5f073de81c76c3308c0e4fb3,5f077a727c4fe639a3d03808,1,,,,,,anchor,,,,,,,,,,,2,2,0,38,38,13,1,,,,,,,,,,,,,,,,,,,,,,,,,,,,,,,,,,,,,,,,,,,,,,,,,,,,,,,,,,,,,,,,,,,,,,
,,?,0.001,0,,,,,,stimuli/images/PICTURE_296.png,CLOCK,5d75af57bcfd5b001b192708,07/23/1954,2020-07-09_16h17.51.718,proactive,2020.1.2,Win32,60,5f073de81c76c3308c0e4fb3,5f077a727c4fe639a3d03808,1,,,,,,bolt,,,,,,,,,,,2,2,0,39,39,18,1,,,,,,,,,,,,,,,,,,,,,,,,,,,,,,,,,,,,,,,,,,,,,,,,,,,,,,,,,,,,,,,,,,,,,,
,,?,0,0,,,,,,stimuli/images/PICTURE_667.png,GLASS,5d75af57bcfd5b001b192708,07/23/1954,2020-07-09_16h17.51.718,proactive,2020.1.2,Win32,60,5f073de81c76c3308c0e4fb3,5f077a727c4fe639a3d03808,1,,,,,,daisy,,,,,,,,,,,3,2,0,40,40,27,1,,,,,,,,,,,,,,,,,,,,,,,,,,,,,,,,,,,,,,,,,,,,,,,,,,,,,,,,,,,,,,,,,,,,,,
,,FOD,2.818,0,,,,,,stimuli/images/PICTURE_215.png,FOOD,5d75af57bcfd5b001b192708,07/23/1954,2020-07-09_16h17.51.718,proactive,2020.1.2,Win32,60,5f073de81c76c3308c0e4fb3,5f077a727c4fe639a3d03808,1,,,,,,boot,,,,,,,,,,,1,2,0,41,41,5,1,,,,,,,,,,,,,,,,,,,,,,,,,,,,,,,,,,,,,,,,,,,,,,,,,,,,,,,,,,,,,,,,,,,,,,
,,?,0.003,0,,,,,,stimuli/images/PICTURE_95.png,NIGHT,5d75af57bcfd5b001b192708,07/23/1954,2020-07-09_16h17.51.718,proactive,2020.1.2,Win32,60,5f073de81c76c3308c0e4fb3,5f077a727c4fe639a3d03808,1,,,,,,suitcase,,,,,,,,,,,4,2,0,42,42,37,1,,,,,,,,,,,,,,,,,,,,,,,,,,,,,,,,,,,,,,,,,,,,,,,,,,,,,,,,,,,,,,,,,,,,,,
,,?,0.001,0,,,,,,stimuli/images/PICTURE_405.png,JUNGLE,5d75af57bcfd5b001b192708,07/23/1954,2020-07-09_16h17.51.718,proactive,2020.1.2,Win32,60,5f073de81c76c3308c0e4fb3,5f077a727c4fe639a3d03808,1,,,,,,anchor,,,,,,,,,,,6,2,0,43,43,58,1,,,,,,,,,,,,,,,,,,,,,,,,,,,,,,,,,,,,,,,,,,,,,,,,,,,,,,,,,,,,,,,,,,,,,,
,,?,0.001,0,,,,,,stimuli/images/PICTURE_57.png,NATION,5d75af57bcfd5b001b192708,07/23/1954,2020-07-09_16h17.51.718,proactive,2020.1.2,Win32,60,5f073de81c76c3308c0e4fb3,5f077a727c4fe639a3d03808,1,,,,,,stamp,,,,,,,,,,,3,2,0,44,44,21,1,,,,,,,,,,,,,,,,,,,,,,,,,,,,,,,,,,,,,,,,,,,,,,,,,,,,,,,,,,,,,,,,,,,,,,
,,?,0.002,0,,,,,,stimuli/images/PICTURE_141.png,CLIENT,5d75af57bcfd5b001b192708,07/23/1954,2020-07-09_16h17.51.718,proactive,2020.1.2,Win32,60,5f073de81c76c3308c0e4fb3,5f077a727c4fe639a3d03808,1,,,,,,sunflower,,,,,,,,,,,4,2,0,45,45,30,1,,,,,,,,,,,,,,,,,,,,,,,,,,,,,,,,,,,,,,,,,,,,,,,,,,,,,,,,,,,,,,,,,,,,,,
,,?,0.001,0,,,,,,stimuli/images/PICTURE_32.png,LETTER,5d75af57bcfd5b001b192708,07/23/1954,2020-07-09_16h17.51.718,proactive,2020.1.2,Win32,60,5f073de81c76c3308c0e4fb3,5f077a727c4fe639a3d03808,1,,,,,,crown,,,,,,,,,,,6,2,0,46,46,56,1,,,,,,,,,,,,,,,,,,,,,,,,,,,,,,,,,,,,,,,,,,,,,,,,,,,,,,,,,,,,,,,,,,,,,,
,,?,0.002,0,,,,,,stimuli/images/PICTURE_314.png,SPEECH,5d75af57bcfd5b001b192708,07/23/1954,2020-07-09_16h17.51.718,proactive,2020.1.2,Win32,60,5f073de81c76c3308c0e4fb3,5f077a727c4fe639a3d03808,1,,,,,,perfume,,,,,,,,,,,4,2,0,47,47,35,1,,,,,,,,,,,,,,,,,,,,,,,,,,,,,,,,,,,,,,,,,,,,,,,,,,,,,,,,,,,,,,,,,,,,,,
,,?,0,0,,,,,,stimuli/images/PICTURE_147.png,LEADER,5d75af57bcfd5b001b192708,07/23/1954,2020-07-09_16h17.51.718,proactive,2020.1.2,Win32,60,5f073de81c76c3308c0e4fb3,5f077a727c4fe639a3d03808,1,,,,,,hanger,,,,,,,,,,,4,2,0,48,48,33,1,,,,,,,,,,,,,,,,,,,,,,,,,,,,,,,,,,,,,,,,,,,,,,,,,,,,,,,,,,,,,,,,,,,,,,
,,?,0.001,0,,,,,,stimuli/images/PICTURE_677.png,FAMILY,5d75af57bcfd5b001b192708,07/23/1954,2020-07-09_16h17.51.718,proactive,2020.1.2,Win32,60,5f073de81c76c3308c0e4fb3,5f077a727c4fe639a3d03808,1,,,,,,map,,,,,,,,,,,6,2,0,49,49,53,1,,,,,,,,,,,,,,,,,,,,,,,,,,,,,,,,,,,,,,,,,,,,,,,,,,,,,,,,,,,,,,,,,,,,,,
,,JUNGLE,4.224,1,,,,,,stimuli/images/PICTURE_2.png,JUNGLE,5d75af57bcfd5b001b192708,07/23/1954,2020-07-09_16h17.51.718,proactive,2020.1.2,Win32,60,5f073de81c76c3308c0e4fb3,5f077a727c4fe639a3d03808,1,,,,,,tyre,,,,,,,,,,,1,2,0,50,50,1,1,,,,,,,,,,,,,,,,,,,,,,,,,,,,,,,,,,,,,,,,,,,,,,,,,,,,,,,,,,,,,,,,,,,,,,
,,?,0.001,0,,,,,,stimuli/images/PICTURE_208.png,SPIRIT,5d75af57bcfd5b001b192708,07/23/1954,2020-07-09_16h17.51.718,proactive,2020.1.2,Win32,60,5f073de81c76c3308c0e4fb3,5f077a727c4fe639a3d03808,1,,,,,,microphone,,,,,,,,,,,3,2,0,51,51,28,1,,,,,,,,,,,,,,,,,,,,,,,,,,,,,,,,,,,,,,,,,,,,,,,,,,,,,,,,,,,,,,,,,,,,,,
,,?,0.001,0,,,,,,stimuli/images/PICTURE_285.png,PRINCE,5d75af57bcfd5b001b192708,07/23/1954,2020-07-09_16h17.51.718,proactive,2020.1.2,Win32,60,5f073de81c76c3308c0e4fb3,5f077a727c4fe639a3d03808,1,,,,,,carrot,,,,,,,,,,,3,2,0,52,52,20,1,,,,,,,,,,,,,,,,,,,,,,,,,,,,,,,,,,,,,,,,,,,,,,,,,,,,,,,,,,,,,,,,,,,,,,
,,?,0.002,0,,,,,,stimuli/images/PICTURE_564.png,PLENTY,5d75af57bcfd5b001b192708,07/23/1954,2020-07-09_16h17.51.718,proactive,2020.1.2,Win32,60,5f073de81c76c3308c0e4fb3,5f077a727c4fe639a3d03808,1,,,,,,spoon,,,,,,,,,,,2,2,0,53,53,11,1,,,,,,,,,,,,,,,,,,,,,,,,,,,,,,,,,,,,,,,,,,,,,,,,,,,,,,,,,,,,,,,,,,,,,,
,,?,0.002,0,,,,,,stimuli/images/PICTURE_215.png,BOYS,5d75af57bcfd5b001b192708,07/23/1954,2020-07-09_16h17.51.718,proactive,2020.1.2,Win32,60,5f073de81c76c3308c0e4fb3,5f077a727c4fe639a3d03808,1,,,,,,boot,,,,,,,,,,,3,2,0,54,54,24,1,,,,,,,,,,,,,,,,,,,,,,,,,,,,,,,,,,,,,,,,,,,,,,,,,,,,,,,,,,,,,,,,,,,,,,
,,?,0.001,0,,,,,,stimuli/images/PICTURE_356.png,CANDY,5d75af57bcfd5b001b192708,07/23/1954,2020-07-09_16h17.51.718,proactive,2020.1.2,Win32,60,5f073de81c76c3308c0e4fb3,5f077a727c4fe639a3d03808,1,,,,,,pawn,,,,,,,,,,,5,2,0,55,55,46,1,,,,,,,,,,,,,,,,,,,,,,,,,,,,,,,,,,,,,,,,,,,,,,,,,,,,,,,,,,,,,,,,,,,,,,
,,?,0.001,0,,,,,,stimuli/images/PICTURE_68.png,KIND,5d75af57bcfd5b001b192708,07/23/1954,2020-07-09_16h17.51.718,proactive,2020.1.2,Win32,60,5f073de81c76c3308c0e4fb3,5f077a727c4fe639a3d03808,1,,,,,,candle,,,,,,,,,,,3,2,0,56,56,23,1,,,,,,,,,,,,,,,,,,,,,,,,,,,,,,,,,,,,,,,,,,,,,,,,,,,,,,,,,,,,,,,,,,,,,,
,,?,0.001,0,,,,,,stimuli/images/PICTURE_311.png,TOILET,5d75af57bcfd5b001b192708,07/23/1954,2020-07-09_16h17.51.718,proactive,2020.1.2,Win32,60,5f073de81c76c3308c0e4fb3,5f077a727c4fe639a3d03808,1,,,,,,razor,,,,,,,,,,,6,2,0,57,57,54,1,,,,,,,,,,,,,,,,,,,,,,,,,,,,,,,,,,,,,,,,,,,,,,,,,,,,,,,,,,,,,,,,,,,,,,
,,WRITER,4.146,1,,,,,,stimuli/images/PICTURE_285.png,WRITER,5d75af57bcfd5b001b192708,07/23/1954,2020-07-09_16h17.51.718,proactive,2020.1.2,Win32,60,5f073de81c76c3308c0e4fb3,5f077a727c4fe639a3d03808,1,,,,,,carrot,,,,,,,,,,,1,2,0,58,58,6,1,,,,,,,,,,,,,,,,,,,,,,,,,,,,,,,,,,,,,,,,,,,,,,,,,,,,,,,,,,,,,,,,,,,,,,
,,?,0.001,0,,,,,,stimuli/images/PICTURE_348.png,DUDE,5d75af57bcfd5b001b192708,07/23/1954,2020-07-09_16h17.51.718,proactive,2020.1.2,Win32,60,5f073de81c76c3308c0e4fb3,5f077a727c4fe639a3d03808,1,,,,,,pepper,,,,,,,,,,,6,2,0,59,59,59,1,,,,,,,,,,,,,,,,,,,,,,,,,,,,,,,,,,,,,,,,,,,,,,,,,,,,,,,,,,,,,,,,,,,,,,
,,,,,,,,,,,,5d75af57bcfd5b001b192708,07/23/1954,2020-07-09_16h17.51.718,proactive,2020.1.2,Win32,60,5f073de81c76c3308c0e4fb3,5f077a727c4fe639a3d03808,1,,,,,,,,,,,,,,,,,,,,,,,,0,1,1,2,1,stimuli/learn-block3.csv,,,,,,,,,,,,,,,,,,,,,,,,,,,,,,,,,,,,,,,,,,,,,,,,,,,,,,,,,,,,,,,,
,,,,,,,,,,stimuli/images/PICTURE_208.png,SYSTEM,5d75af57bcfd5b001b192708,07/23/1954,2020-07-09_16h17.51.718,proactive,2020.1.2,Win32,60,5f073de81c76c3308c0e4fb3,5f077a727c4fe639a3d03808,1,,,,,,microphone,,,,,,0,0,0,32,1,4,1,,,,,,,,,,,,,,,,,,,,,,,,,,,,,,,,,,,,,,,,,,,,,,,,,,,,,,,,,,,,,,,,,,,,,,,,,,,
,,,,,,,,,,stimuli/images/PICTURE_108.png,POLICY,5d75af57bcfd5b001b192708,07/23/1954,2020-07-09_16h17.51.718,proactive,2020.1.2,Win32,60,5f073de81c76c3308c0e4fb3,5f077a727c4fe639a3d03808,1,,,,,,calendar,,,,,,0,1,1,22,1,3,1,,,,,,,,,,,,,,,,,,,,,,,,,,,,,,,,,,,,,,,,,,,,,,,,,,,,,,,,,,,,,,,,,,,,,,,,,,,
,,,,,,,,,,stimuli/images/PICTURE_327.png,CASINO,5d75af57bcfd5b001b192708,07/23/1954,2020-07-09_16h17.51.718,proactive,2020.1.2,Win32,60,5f073de81c76c3308c0e4fb3,5f077a727c4fe639a3d03808,1,,,,,,helmet,,,,,,0,2,2,20,1,3,1,,,,,,,,,,,,,,,,,,,,,,,,,,,,,,,,,,,,,,,,,,,,,,,,,,,,,,,,,,,,,,,,,,,,,,,,,,,
,,,,,,,,,,stimuli/images/PICTURE_403.png,WRITER,5d75af57bcfd5b001b192708,07/23/1954,2020-07-09_16h17.51.718,proactive,2020.1.2,Win32,60,5f073de81c76c3308c0e4fb3,5f077a727c4fe639a3d03808,1,,,,,,cathedral,,,,,,0,3,3,31,1,4,1,,,,,,,,,,,,,,,,,,,,,,,,,,,,,,,,,,,,,,,,,,,,,,,,,,,,,,,,,,,,,,,,,,,,,,,,,,,
,,,,,,,,,,stimuli/images/PICTURE_380.png,HONEY,5d75af57bcfd5b001b192708,07/23/1954,2020-07-09_16h17.51.718,proactive,2020.1.2,Win32,60,5f073de81c76c3308c0e4fb3,5f077a727c4fe639a3d03808,1,,,,,,gorilla,,,,,,0,4,4,19,1,2,1,,,,,,,,,,,,,,,,,,,,,,,,,,,,,,,,,,,,,,,,,,,,,,,,,,,,,,,,,,,,,,,,,,,,,,,,,,,
,,,,,,,,,,stimuli/images/PICTURE_675.png,SALE,5d75af57bcfd5b001b192708,07/23/1954,2020-07-09_16h17.51.718,proactive,2020.1.2,Win32,60,5f073de81c76c3308c0e4fb3,5f077a727c4fe639a3d03808,1,,,,,,windmill,,,,,,0,5,5,47,1,5,1,,,,,,,,,,,,,,,,,,,,,,,,,,,,,,,,,,,,,,,,,,,,,,,,,,,,,,,,,,,,,,,,,,,,,,,,,,,
,,,,,,,,,,stimuli/images/PICTURE_68.png,MILE,5d75af57bcfd5b001b192708,07/23/1954,2020-07-09_16h17.51.718,proactive,2020.1.2,Win32,60,5f073de81c76c3308c0e4fb3,5f077a727c4fe639a3d03808,1,,,,,,candle,,,,,,0,6,6,51,1,6,1,,,,,,,,,,,,,,,,,,,,,,,,,,,,,,,,,,,,,,,,,,,,,,,,,,,,,,,,,,,,,,,,,,,,,,,,,,,
,,,,,,,,,,stimuli/images/PICTURE_403.png,TOILET,5d75af57bcfd5b001b192708,07/23/1954,2020-07-09_16h17.51.718,proactive,2020.1.2,Win32,60,5f073de81c76c3308c0e4fb3,5f077a727c4fe639a3d03808,1,,,,,,cathedral,,,,,,0,7,7,25,1,3,1,,,,,,,,,,,,,,,,,,,,,,,,,,,,,,,,,,,,,,,,,,,,,,,,,,,,,,,,,,,,,,,,,,,,,,,,,,,
,,,,,,,,,,stimuli/images/PICTURE_32.png,KIND,5d75af57bcfd5b001b192708,07/23/1954,2020-07-09_16h17.51.718,proactive,2020.1.2,Win32,60,5f073de81c76c3308c0e4fb3,5f077a727c4fe639a3d03808,1,,,,,,crown,,,,,,0,8,8,35,1,4,1,,,,,,,,,,,,,,,,,,,,,,,,,,,,,,,,,,,,,,,,,,,,,,,,,,,,,,,,,,,,,,,,,,,,,,,,,,,
,,,,,,,,,,stimuli/images/PICTURE_750.png,HOTEL,5d75af57bcfd5b001b192708,07/23/1954,2020-07-09_16h17.51.718,proactive,2020.1.2,Win32,60,5f073de81c76c3308c0e4fb3,5f077a727c4fe639a3d03808,1,,,,,,kettle,,,,,,0,9,9,27,1,3,1,,,,,,,,,,,,,,,,,,,,,,,,,,,,,,,,,,,,,,,,,,,,,,,,,,,,,,,,,,,,,,,,,,,,,,,,,,,
,,,,,,,,,,stimuli/images/PICTURE_491.png,GLASS,5d75af57bcfd5b001b192708,07/23/1954,2020-07-09_16h17.51.718,proactive,2020.1.2,Win32,60,5f073de81c76c3308c0e4fb3,5f077a727c4fe639a3d03808,1,,,,,,rug,,,,,,0,10,10,14,1,2,1,,,,,,,,,,,,,,,,,,,,,,,,,,,,,,,,,,,,,,,,,,,,,,,,,,,,,,,,,,,,,,,,,,,,,,,,,,,
,,,,,,,,,,stimuli/images/PICTURE_233.png,LOTS,5d75af57bcfd5b001b192708,07/23/1954,2020-07-09_16h17.51.718,proactive,2020.1.2,Win32,60,5f073de81c76c3308c0e4fb3,5f077a727c4fe639a3d03808,1,,,,,,salt,,,,,,0,11,11,42,1,5,1,,,,,,,,,,,,,,,,,,,,,,,,,,,,,,,,,,,,,,,,,,,,,,,,,,,,,,,,,,,,,,,,,,,,,,,,,,,
,,,,,,,,,,stimuli/images/PICTURE_42.png,BOYS,5d75af57bcfd5b001b192708,07/23/1954,2020-07-09_16h17.51.718,proactive,2020.1.2,Win32,60,5f073de81c76c3308c0e4fb3,5f077a727c4fe639a3d03808,1,,,,,,pear,,,,,,0,12,12,55,1,6,1,,,,,,,,,,,,,,,,,,,,,,,,,,,,,,,,,,,,,,,,,,,,,,,,,,,,,,,,,,,,,,,,,,,,,,,,,,,
,,,,,,,,,,stimuli/images/PICTURE_95.png,BOYS,5d75af57bcfd5b001b192708,07/23/1954,2020-07-09_16h17.51.718,proactive,2020.1.2,Win32,60,5f073de81c76c3308c0e4fb3,5f077a727c4fe639a3d03808,1,,,,,,suitcase,,,,,,0,13,13,1,1,1,1,,,,,,,,,,,,,,,,,,,,,,,,,,,,,,,,,,,,,,,,,,,,,,,,,,,,,,,,,,,,,,,,,,,,,,,,,,,
,,,,,,,,,,stimuli/images/PICTURE_564.png,BATH,5d75af57bcfd5b001b192708,07/23/1954,2020-07-09_16h17.51.718,proactive,2020.1.2,Win32,60,5f073de81c76c3308c0e4fb3,5f077a727c4fe639a3d03808,1,,,,,,spoon,,,,,,0,14,14,26,1,3,1,,,,,,,,,,,,,,,,,,,,,,,,,,,,,,,,,,,,,,,,,,,,,,,,,,,,,,,,,,,,,,,,,,,,,,,,,,,
,,,,,,,,,,stimuli/images/PICTURE_449.png,DUDE,5d75af57bcfd5b001b192708,07/23/1954,2020-07-09_16h17.51.718,proactive,2020.1.2,Win32,60,5f073de81c76c3308c0e4fb3,5f077a727c4fe639a3d03808,1,,,,,,bench,,,,,,0,15,15,17,1,2,1,,,,,,,,,,,,,,,,,,,,,,,,,,,,,,,,,,,,,,,,,,,,,,,,,,,,,,,,,,,,,,,,,,,,,,,,,,,
,,,,,,,,,,stimuli/images/PICTURE_296.png,LIFE,5d75af57bcfd5b001b192708,07/23/1954,2020-07-09_16h17.51.718,proactive,2020.1.2,Win32,60,5f073de81c76c3308c0e4fb3,5f077a727c4fe639a3d03808,1,,,,,,bolt,,,,,,0,16,16,57,1,6,1,,,,,,,,,,,,,,,,,,,,,,,,,,,,,,,,,,,,,,,,,,,,,,,,,,,,,,,,,,,,,,,,,,,,,,,,,,,
,,,,,,,,,,stimuli/images/PICTURE_147.png,YEAR,5d75af57bcfd5b001b192708,07/23/1954,2020-07-09_16h17.51.718,proactive,2020.1.2,Win32,60,5f073de81c76c3308c0e4fb3,5f077a727c4fe639a3d03808,1,,,,,,hanger,,,,,,0,17,17,21,1,3,1,,,,,,,,,,,,,,,,,,,,,,,,,,,,,,,,,,,,,,,,,,,,,,,,,,,,,,,,,,,,,,,,,,,,,,,,,,,
,,,,,,,,,,stimuli/images/PICTURE_340.png,VALLEY,5d75af57bcfd5b001b192708,07/23/1954,2020-07-09_16h17.51.718,proactive,2020.1.2,Win32,60,5f073de81c76c3308c0e4fb3,5f077a727c4fe639a3d03808,1,,,,,,mirror,,,,,,0,18,18,54,1,6,1,,,,,,,,,,,,,,,,,,,,,,,,,,,,,,,,,,,,,,,,,,,,,,,,,,,,,,,,,,,,,,,,,,,,,,,,,,,
,,,,,,,,,,stimuli/images/PICTURE_487.png,GIRL,5d75af57bcfd5b001b192708,07/23/1954,2020-07-09_16h17.51.718,proactive,2020.1.2,Win32,60,5f073de81c76c3308c0e4fb3,5f077a727c4fe639a3d03808,1,,,,,,basket,,,,,,0,19,19,45,1,5,1,,,,,,,,,,,,,,,,,,,,,,,,,,,,,,,,,,,,,,,,,,,,,,,,,,,,,,,,,,,,,,,,,,,,,,,,,,,
,,,,,,,,,,stimuli/images/PICTURE_2.png,FLIGHT,5d75af57bcfd5b001b192708,07/23/1954,2020-07-09_16h17.51.718,proactive,2020.1.2,Win32,60,5f073de81c76c3308c0e4fb3,5f077a727c4fe639a3d03808,1,,,,,,tyre,,,,,,0,20,20,15,1,2,1,,,,,,,,,,,,,,,,,,,,,,,,,,,,,,,,,,,,,,,,,,,,,,,,,,,,,,,,,,,,,,,,,,,,,,,,,,,
,,,,,,,,,,stimuli/images/PICTURE_85.png,TOILET,5d75af57bcfd5b001b192708,07/23/1954,2020-07-09_16h17.51.718,proactive,2020.1.2,Win32,60,5f073de81c76c3308c0e4fb3,5f077a727c4fe639a3d03808,1,,,,,,diamond,,,,,,0,21,21,48,1,5,1,,,,,,,,,,,,,,,,,,,,,,,,,,,,,,,,,,,,,,,,,,,,,,,,,,,,,,,,,,,,,,,,,,,,,,,,,,,
,,,,,,,,,,stimuli/images/PICTURE_308.png,FAMILY,5d75af57bcfd5b001b192708,07/23/1954,2020-07-09_16h17.51.718,proactive,2020.1.2,Win32,60,5f073de81c76c3308c0e4fb3,5f077a727c4fe639a3d03808,1,,,,,,dice,,,,,,0,22,22,36,1,4,1,,,,,,,,,,,,,,,,,,,,,,,,,,,,,,,,,,,,,,,,,,,,,,,,,,,,,,,,,,,,,,,,,,,,,,,,,,,
,,,,,,,,,,stimuli/images/PICTURE_85.png,NATION,5d75af57bcfd5b001b192708,07/23/1954,2020-07-09_16h17.51.718,proactive,2020.1.2,Win32,60,5f073de81c76c3308c0e4fb3,5f077a727c4fe639a3d03808,1,,,,,,diamond,,,,,,0,23,23,5,1,1,1,,,,,,,,,,,,,,,,,,,,,,,,,,,,,,,,,,,,,,,,,,,,,,,,,,,,,,,,,,,,,,,,,,,,,,,,,,,
,,,,,,,,,,stimuli/images/PICTURE_147.png,WOMEN,5d75af57bcfd5b001b192708,07/23/1954,2020-07-09_16h17.51.718,proactive,2020.1.2,Win32,60,5f073de81c76c3308c0e4fb3,5f077a727c4fe639a3d03808,1,,,,,,hanger,,,,,,0,24,24,7,1,1,1,,,,,,,,,,,,,,,,,,,,,,,,,,,,,,,,,,,,,,,,,,,,,,,,,,,,,,,,,,,,,,,,,,,,,,,,,,,
,,,,,,,,,,stimuli/images/PICTURE_469.png,AGENT,5d75af57bcfd5b001b192708,07/23/1954,2020-07-09_16h17.51.718,proactive,2020.1.2,Win32,60,5f073de81c76c3308c0e4fb3,5f077a727c4fe639a3d03808,1,,,,,,stool,,,,,,0,25,25,16,1,2,1,,,,,,,,,,,,,,,,,,,,,,,,,,,,,,,,,,,,,,,,,,,,,,,,,,,,,,,,,,,,,,,,,,,,,,,,,,,
,,,,,,,,,,stimuli/images/PICTURE_339.png,CLIENT,5d75af57bcfd5b001b192708,07/23/1954,2020-07-09_16h17.51.718,proactive,2020.1.2,Win32,60,5f073de81c76c3308c0e4fb3,5f077a727c4fe639a3d03808,1,,,,,,backpack,,,,,,0,26,26,11,1,2,1,,,,,,,,,,,,,,,,,,,,,,,,,,,,,,,,,,,,,,,,,,,,,,,,,,,,,,,,,,,,,,,,,,,,,,,,,,,
,,,,,,,,,,stimuli/images/PICTURE_405.png,PLENTY,5d75af57bcfd5b001b192708,07/23/1954,2020-07-09_16h17.51.718,proactive,2020.1.2,Win32,60,5f073de81c76c3308c0e4fb3,5f077a727c4fe639a3d03808,1,,,,,,anchor,,,,,,0,27,27,23,1,3,1,,,,,,,,,,,,,,,,,,,,,,,,,,,,,,,,,,,,,,,,,,,,,,,,,,,,,,,,,,,,,,,,,,,,,,,,,,,
,,,,,,,,,,stimuli/images/PICTURE_68.png,ROOF,5d75af57bcfd5b001b192708,07/23/1954,2020-07-09_16h17.51.718,proactive,2020.1.2,Win32,60,5f073de81c76c3308c0e4fb3,5f077a727c4fe639a3d03808,1,,,,,,candle,,,,,,0,28,28,38,1,4,1,,,,,,,,,,,,,,,,,,,,,,,,,,,,,,,,,,,,,,,,,,,,,,,,,,,,,,,,,,,,,,,,,,,,,,,,,,,
,,,,,,,,,,stimuli/images/PICTURE_285.png,LIFE,5d75af57bcfd5b001b192708,07/23/1954,2020-07-09_16h17.51.718,proactive,2020.1.2,Win32,60,5f073de81c76c3308c0e4fb3,5f077a727c4fe639a3d03808,1,,,,,,carrot,,,,,,0,29,29,33,1,4,1,,,,,,,,,,,,,,,,,,,,,,,,,,,,,,,,,,,,,,,,,,,,,,,,,,,,,,,,,,,,,,,,,,,,,,,,,,,
,,,,,,,,,,stimuli/images/PICTURE_108.png,FLIGHT,5d75af57bcfd5b001b192708,07/23/1954,2020-07-09_16h17.51.718,proactive,2020.1.2,Win32,60,5f073de81c76c3308c0e4fb3,5f077a727c4fe639a3d03808,1,,,,,,calendar,,,,,,0,30,30,59,1,6,1,,,,,,,,,,,,,,,,,,,,,,,,,,,,,,,,,,,,,,,,,,,,,,,,,,,,,,,,,,,,,,,,,,,,,,,,,,,
,,,,,,,,,,stimuli/images/PICTURE_504.png,YEAR,5d75af57bcfd5b001b192708,07/23/1954,2020-07-09_16h17.51.718,proactive,2020.1.2,Win32,60,5f073de81c76c3308c0e4fb3,5f077a727c4fe639a3d03808,1,,,,,,wheel,,,,,,0,31,31,13,1,2,1,,,,,,,,,,,,,,,,,,,,,,,,,,,,,,,,,,,,,,,,,,,,,,,,,,,,,,,,,,,,,,,,,,,,,,,,,,,
,,,,,,,,,,stimuli/images/PICTURE_57.png,MOMENT,5d75af57bcfd5b001b192708,07/23/1954,2020-07-09_16h17.51.718,proactive,2020.1.2,Win32,60,5f073de81c76c3308c0e4fb3,5f077a727c4fe639a3d03808,1,,,,,,stamp,,,,,,0,32,32,37,1,4,1,,,,,,,,,,,,,,,,,,,,,,,,,,,,,,,,,,,,,,,,,,,,,,,,,,,,,,,,,,,,,,,,,,,,,,,,,,,
,,,,,,,,,,stimuli/images/PICTURE_654.png,MONTH,5d75af57bcfd5b001b192708,07/23/1954,2020-07-09_16h17.51.718,proactive,2020.1.2,Win32,60,5f073de81c76c3308c0e4fb3,5f077a727c4fe639a3d03808,1,,,,,,pencil,,,,,,0,33,33,29,1,3,1,,,,,,,,,,,,,,,,,,,,,,,,,,,,,,,,,,,,,,,,,,,,,,,,,,,,,,,,,,,,,,,,,,,,,,,,,,,
,,,,,,,,,,stimuli/images/PICTURE_32.png,PILLS,5d75af57bcfd5b001b192708,07/23/1954,2020-07-09_16h17.51.718,proactive,2020.1.2,Win32,60,5f073de81c76c3308c0e4fb3,5f077a727c4fe639a3d03808,1,,,,,,crown,,,,,,0,34,34,18,1,2,1,,,,,,,,,,,,,,,,,,,,,,,,,,,,,,,,,,,,,,,,,,,,,,,,,,,,,,,,,,,,,,,,,,,,,,,,,,,
,,,,,,,,,,stimuli/images/PICTURE_403.png,RIVER,5d75af57bcfd5b001b192708,07/23/1954,2020-07-09_16h17.51.718,proactive,2020.1.2,Win32,60,5f073de81c76c3308c0e4fb3,5f077a727c4fe639a3d03808,1,,,,,,cathedral,,,,,,0,35,35,40,1,5,1,,,,,,,,,,,,,,,,,,,,,,,,,,,,,,,,,,,,,,,,,,,,,,,,,,,,,,,,,,,,,,,,,,,,,,,,,,,
,,,,,,,,,,stimuli/images/PICTURE_708.png,RECORD,5d75af57bcfd5b001b192708,07/23/1954,2020-07-09_16h17.51.718,proactive,2020.1.2,Win32,60,5f073de81c76c3308c0e4fb3,5f077a727c4fe639a3d03808,1,,,,,,monkey,,,,,,0,36,36,58,1,6,1,,,,,,,,,,,,,,,,,,,,,,,,,,,,,,,,,,,,,,,,,,,,,,,,,,,,,,,,,,,,,,,,,,,,,,,,,,,
,,,,,,,,,,stimuli/images/PICTURE_677.png,APPLE,5d75af57bcfd5b001b192708,07/23/1954,2020-07-09_16h17.51.718,proactive,2020.1.2,Win32,60,5f073de81c76c3308c0e4fb3,5f077a727c4fe639a3d03808,1,,,,,,map,,,,,,0,37,37,43,1,5,1,,,,,,,,,,,,,,,,,,,,,,,,,,,,,,,,,,,,,,,,,,,,,,,,,,,,,,,,,,,,,,,,,,,,,,,,,,,
,,,,,,,,,,stimuli/images/PICTURE_177.png,WRITER,5d75af57bcfd5b001b192708,07/23/1954,2020-07-09_16h17.51.718,proactive,2020.1.2,Win32,60,5f073de81c76c3308c0e4fb3,5f077a727c4fe639a3d03808,1,,,,,,mushroom,,,,,,0,38,38,41,1,5,1,,,,,,,,,,,,,,,,,,,,,,,,,,,,,,,,,,,,,,,,,,,,,,,,,,,,,,,,,,,,,,,,,,,,,,,,,,,
,,,,,,,,,,stimuli/images/PICTURE_296.png,LOTS,5d75af57bcfd5b001b192708,07/23/1954,2020-07-09_16h17.51.718,proactive,2020.1.2,Win32,60,5f073de81c76c3308c0e4fb3,5f077a727c4fe639a3d03808,1,,,,,,bolt,,,,,,0,39,39,9,1,1,1,,,,,,,,,,,,,,,,,,,,,,,,,,,,,,,,,,,,,,,,,,,,,,,,,,,,,,,,,,,,,,,,,,,,,,,,,,,
,,,,,,,,,,stimuli/images/PICTURE_340.png,LETTER,5d75af57bcfd5b001b192708,07/23/1954,2020-07-09_16h17.51.718,proactive,2020.1.2,Win32,60,5f073de81c76c3308c0e4fb3,5f077a727c4fe639a3d03808,1,,,,,,mirror,,,,,,0,40,40,24,1,3,1,,,,,,,,,,,,,,,,,,,,,,,,,,,,,,,,,,,,,,,,,,,,,,,,,,,,,,,,,,,,,,,,,,,,,,,,,,,
,,,,,,,,,,stimuli/images/PICTURE_685.png,PENNY,5d75af57bcfd5b001b192708,07/23/1954,2020-07-09_16h17.51.718,proactive,2020.1.2,Win32,60,5f073de81c76c3308c0e4fb3,5f077a727c4fe639a3d03808,1,,,,,,goose,,,,,,0,41,41,4,1,1,1,,,,,,,,,,,,,,,,,,,,,,,,,,,,,,,,,,,,,,,,,,,,,,,,,,,,,,,,,,,,,,,,,,,,,,,,,,,
,,,,,,,,,,stimuli/images/PICTURE_380.png,CANDY,5d75af57bcfd5b001b192708,07/23/1954,2020-07-09_16h17.51.718,proactive,2020.1.2,Win32,60,5f073de81c76c3308c0e4fb3,5f077a727c4fe639a3d03808,1,,,,,,gorilla,,,,,,0,42,42,0,1,1,1,,,,,,,,,,,,,,,,,,,,,,,,,,,,,,,,,,,,,,,,,,,,,,,,,,,,,,,,,,,,,,,,,,,,,,,,,,,
,,,,,,,,,,stimuli/images/PICTURE_33.png,FRIEND,5d75af57bcfd5b001b192708,07/23/1954,2020-07-09_16h17.51.718,proactive,2020.1.2,Win32,60,5f073de81c76c3308c0e4fb3,5f077a727c4fe639a3d03808,1,,,,,,frame,,,,,,0,43,43,8,1,1,1,,,,,,,,,,,,,,,,,,,,,,,,,,,,,,,,,,,,,,,,,,,,,,,,,,,,,,,,,,,,,,,,,,,,,,,,,,,
,,,,,,,,,,stimuli/images/PICTURE_467.png,POLICY,5d75af57bcfd5b001b192708,07/23/1954,2020-07-09_16h17.51.718,proactive,2020.1.2,Win32,60,5f073de81c76c3308c0e4fb3,5f077a727c4fe639a3d03808,1,,,,,,peg,,,,,,0,44,44,53,1,6,1,,,,,,,,,,,,,,,,,,,,,,,,,,,,,,,,,,,,,,,,,,,,,,,,,,,,,,,,,,,,,,,,,,,,,,,,,,,
,,,,,,,,,,stimuli/images/PICTURE_667.png,RIVER,5d75af57bcfd5b001b192708,07/23/1954,2020-07-09_16h17.51.718,proactive,2020.1.2,Win32,60,5f073de81c76c3308c0e4fb3,5f077a727c4fe639a3d03808,1,,,,,,daisy,,,,,,0,45,45,10,1,2,1,,,,,,,,,,,,,,,,,,,,,,,,,,,,,,,,,,,,,,,,,,,,,,,,,,,,,,,,,,,,,,,,,,,,,,,,,,,
,,,,,,,,,,stimuli/images/PICTURE_383.png,WRITER,5d75af57bcfd5b001b192708,07/23/1954,2020-07-09_16h17.51.718,proactive,2020.1.2,Win32,60,5f073de81c76c3308c0e4fb3,5f077a727c4fe639a3d03808,1,,,,,,coin,,,,,,0,46,46,28,1,3,1,,,,,,,,,,,,,,,,,,,,,,,,,,,,,,,,,,,,,,,,,,,,,,,,,,,,,,,,,,,,,,,,,,,,,,,,,,,
,,,,,,,,,,stimuli/images/PICTURE_95.png,HONEY,5d75af57bcfd5b001b192708,07/23/1954,2020-07-09_16h17.51.718,proactive,2020.1.2,Win32,60,5f073de81c76c3308c0e4fb3,5f077a727c4fe639a3d03808,1,,,,,,suitcase,,,,,,0,47,47,44,1,5,1,,,,,,,,,,,,,,,,,,,,,,,,,,,,,,,,,,,,,,,,,,,,,,,,,,,,,,,,,,,,,,,,,,,,,,,,,,,
,,,,,,,,,,stimuli/images/PICTURE_327.png,SERIES,5d75af57bcfd5b001b192708,07/23/1954,2020-07-09_16h17.51.718,proactive,2020.1.2,Win32,60,5f073de81c76c3308c0e4fb3,5f077a727c4fe639a3d03808,1,,,,,,helmet,,,,,,0,48,48,3,1,1,1,,,,,,,,,,,,,,,,,,,,,,,,,,,,,,,,,,,,,,,,,,,,,,,,,,,,,,,,,,,,,,,,,,,,,,,,,,,
,,,,,,,,,,stimuli/images/PICTURE_504.png,ARTIST,5d75af57bcfd5b001b192708,07/23/1954,2020-07-09_16h17.51.718,proactive,2020.1.2,Win32,60,5f073de81c76c3308c0e4fb3,5f077a727c4fe639a3d03808,1,,,,,,wheel,,,,,,0,49,49,49,1,5,1,,,,,,,,,,,,,,,,,,,,,,,,,,,,,,,,,,,,,,,,,,,,,,,,,,,,,,,,,,,,,,,,,,,,,,,,,,,
,,,,,,,,,,stimuli/images/PICTURE_744.png,WEAPON,5d75af57bcfd5b001b192708,07/23/1954,2020-07-09_16h17.51.718,proactive,2020.1.2,Win32,60,5f073de81c76c3308c0e4fb3,5f077a727c4fe639a3d03808,1,,,,,,ring,,,,,,0,50,50,50,1,6,1,,,,,,,,,,,,,,,,,,,,,,,,,,,,,,,,,,,,,,,,,,,,,,,,,,,,,,,,,,,,,,,,,,,,,,,,,,,
,,,,,,,,,,stimuli/images/PICTURE_655.png,TOILET,5d75af57bcfd5b001b192708,07/23/1954,2020-07-09_16h17.51.718,proactive,2020.1.2,Win32,60,5f073de81c76c3308c0e4fb3,5f077a727c4fe639a3d03808,1,,,,,,megaphone,,,,,,0,51,51,12,1,2,1,,,,,,,,,,,,,,,,,,,,,,,,,,,,,,,,,,,,,,,,,,,,,,,,,,,,,,,,,,,,,,,,,,,,,,,,,,,
,,,,,,,,,,stimuli/images/PICTURE_203.png,GODS,5d75af57bcfd5b001b192708,07/23/1954,2020-07-09_16h17.51.718,proactive,2020.1.2,Win32,60,5f073de81c76c3308c0e4fb3,5f077a727c4fe639a3d03808,1,,,,,,cap,,,,,,0,52,52,30,1,4,1,,,,,,,,,,,,,,,,,,,,,,,,,,,,,,,,,,,,,,,,,,,,,,,,,,,,,,,,,,,,,,,,,,,,,,,,,,,
,,,,,,,,,,stimuli/images/PICTURE_383.png,SERIES,5d75af57bcfd5b001b192708,07/23/1954,2020-07-09_16h17.51.718,proactive,2020.1.2,Win32,60,5f073de81c76c3308c0e4fb3,5f077a727c4fe639a3d03808,1,,,,,,coin,,,,,,0,53,53,46,1,5,1,,,,,,,,,,,,,,,,,,,,,,,,,,,,,,,,,,,,,,,,,,,,,,,,,,,,,,,,,,,,,,,,,,,,,,,,,,,
,,,,,,,,,,stimuli/images/PICTURE_95.png,MILLER,5d75af57bcfd5b001b192708,07/23/1954,2020-07-09_16h17.51.718,proactive,2020.1.2,Win32,60,5f073de81c76c3308c0e4fb3,5f077a727c4fe639a3d03808,1,,,,,,suitcase,,,,,,0,54,54,56,1,6,1,,,,,,,,,,,,,,,,,,,,,,,,,,,,,,,,,,,,,,,,,,,,,,,,,,,,,,,,,,,,,,,,,,,,,,,,,,,
,,,,,,,,,,stimuli/images/PICTURE_297.png,RIVER,5d75af57bcfd5b001b192708,07/23/1954,2020-07-09_16h17.51.718,proactive,2020.1.2,Win32,60,5f073de81c76c3308c0e4fb3,5f077a727c4fe639a3d03808,1,,,,,,aeroplane,,,,,,0,55,55,39,1,4,1,,,,,,,,,,,,,,,,,,,,,,,,,,,,,,,,,,,,,,,,,,,,,,,,,,,,,,,,,,,,,,,,,,,,,,,,,,,
,,,,,,,,,,stimuli/images/PICTURE_504.png,COPS,5d75af57bcfd5b001b192708,07/23/1954,2020-07-09_16h17.51.718,proactive,2020.1.2,Win32,60,5f073de81c76c3308c0e4fb3,5f077a727c4fe639a3d03808,1,,,,,,wheel,,,,,,0,56,56,52,1,6,1,,,,,,,,,,,,,,,,,,,,,,,,,,,,,,,,,,,,,,,,,,,,,,,,,,,,,,,,,,,,,,,,,,,,,,,,,,,
,,,,,,,,,,stimuli/images/PICTURE_405.png,YEAR,5d75af57bcfd5b001b192708,07/23/1954,2020-07-09_16h17.51.718,proactive,2020.1.2,Win32,60,5f073de81c76c3308c0e4fb3,5f077a727c4fe639a3d03808,1,,,,,,anchor,,,,,,0,57,57,34,1,4,1,,,,,,,,,,,,,,,,,,,,,,,,,,,,,,,,,,,,,,,,,,,,,,,,,,,,,,,,,,,,,,,,,,,,,,,,,,,
,,,,,,,,,,stimuli/images/PICTURE_491.png,RIVER,5d75af57bcfd5b001b192708,07/23/1954,2020-07-09_16h17.51.718,proactive,2020.1.2,Win32,60,5f073de81c76c3308c0e4fb3,5f077a727c4fe639a3d03808,1,,,,,,rug,,,,,,0,58,58,6,1,1,1,,,,,,,,,,,,,,,,,,,,,,,,,,,,,,,,,,,,,,,,,,,,,,,,,,,,,,,,,,,,,,,,,,,,,,,,,,,
,,PENNY,3.922,1,,,,,,stimuli/images/PICTURE_685.png,PENNY,5d75af57bcfd5b001b192708,07/23/1954,2020-07-09_16h17.51.718,proactive,2020.1.2,Win32,60,5f073de81c76c3308c0e4fb3,5f077a727c4fe639a3d03808,1,,,,,,goose,,,,,,,,,,,1,1,0,0,0,4,1,,,,,,,,,,,,,,,,,,,,,,,,,,,,,,,,,,,,,,,,,,,,,,,,,,,,,,,,,,,,,,,,,,,,,,
,,?,0.001,0,,,,,,stimuli/images/PICTURE_467.png,POLICY,5d75af57bcfd5b001b192708,07/23/1954,2020-07-09_16h17.51.718,proactive,2020.1.2,Win32,60,5f073de81c76c3308c0e4fb3,5f077a727c4fe639a3d03808,1,,,,,,peg,,,,,,,,,,,6,1,0,1,1,53,1,,,,,,,,,,,,,,,,,,,,,,,,,,,,,,,,,,,,,,,,,,,,,,,,,,,,,,,,,,,,,,,,,,,,,,
,,SERIES,3.513,1,,,,,,stimuli/images/PICTURE_327.png,SERIES,5d75af57bcfd5b001b192708,07/23/1954,2020-07-09_16h17.51.718,proactive,2020.1.2,Win32,60,5f073de81c76c3308c0e4fb3,5f077a727c4fe639a3d03808,1,,,,,,helmet,,,,,,,,,,,1,1,0,2,2,3,1,,,,,,,,,,,,,,,,,,,,,,,,,,,,,,,,,,,,,,,,,,,,,,,,,,,,,,,,,,,,,,,,,,,,,,
,,CANDY,3.465,1,,,,,,stimuli/images/PICTURE_380.png,CANDY,5d75af57bcfd5b001b192708,07/23/1954,2020-07-09_16h17.51.718,proactive,2020.1.2,Win32,60,5f073de81c76c3308c0e4fb3,5f077a727c4fe639a3d03808,1,,,,,,gorilla,,,,,,,,,,,1,1,0,3,3,0,1,,,,,,,,,,,,,,,,,,,,,,,,,,,,,,,,,,,,,,,,,,,,,,,,,,,,,,,,,,,,,,,,,,,,,,
,,?,0,0,,,,,,stimuli/images/PICTURE_504.png,COPS,5d75af57bcfd5b001b192708,07/23/1954,2020-07-09_16h17.51.718,proactive,2020.1.2,Win32,60,5f073de81c76c3308c0e4fb3,5f077a727c4fe639a3d03808,1,,,,,,wheel,,,,,,,,,,,6,1,0,4,4,52,1,,,,,,,,,,,,,,,,,,,,,,,,,,,,,,,,,,,,,,,,,,,,,,,,,,,,,,,,,,,,,,,,,,,,,,
,,?,0.001,0,,,,,,stimuli/images/PICTURE_57.png,MOMENT,5d75af57bcfd5b001b192708,07/23/1954,2020-07-09_16h17.51.718,proactive,2020.1.2,Win32,60,5f073de81c76c3308c0e4fb3,5f077a727c4fe639a3d03808,1,,,,,,stamp,,,,,,,,,,,4,1,0,5,5,37,1,,,,,,,,,,,,,,,,,,,,,,,,,,,,,,,,,,,,,,,,,,,,,,,,,,,,,,,,,,,,,,,,,,,,,,
,,?,0.001,0,,,,,,stimuli/images/PICTURE_339.png,CLIENT,5d75af57bcfd5b001b192708,07/23/1954,2020-07-09_16h17.51.718,proactive,2020.1.2,Win32,60,5f073de81c76c3308c0e4fb3,5f077a727c4fe639a3d03808,1,,,,,,backpack,,,,,,,,,,,2,1,0,6,6,11,1,,,,,,,,,,,,,,,,,,,,,,,,,,,,,,,,,,,,,,,,,,,,,,,,,,,,,,,,,,,,,,,,,,,,,,
,,?,0,0,,,,,,stimuli/images/PICTURE_750.png,HOTEL,5d75af57bcfd5b001b192708,07/23/1954,2020-07-09_16h17.51.718,proactive,2020.1.2,Win32,60,5f073de81c76c3308c0e4fb3,5f077a727c4fe639a3d03808,1,,,,,,kettle,,,,,,,,,,,3,1,0,7,7,27,1,,,,,,,,,,,,,,,,,,,,,,,,,,,,,,,,,,,,,,,,,,,,,,,,,,,,,,,,,,,,,,,,,,,,,,
,,?,0.001,0,,,,,,stimuli/images/PICTURE_233.png,LOTS,5d75af57bcfd5b001b192708,07/23/1954,2020-07-09_16h17.51.718,proactive,2020.1.2,Win32,60,5f073de81c76c3308c0e4fb3,5f077a727c4fe639a3d03808,1,,,,,,salt,,,,,,,,,,,5,1,0,8,8,42,1,,,,,,,,,,,,,,,,,,,,,,,,,,,,,,,,,,,,,,,,,,,,,,,,,,,,,,,,,,,,,,,,,,,,,,
,,?,0,0,,,,,,stimuli/images/PICTURE_708.png,RECORD,5d75af57bcfd5b001b192708,07/23/1954,2020-07-09_16h17.51.718,proactive,2020.1.2,Win32,60,5f073de81c76c3308c0e4fb3,5f077a727c4fe639a3d03808,1,,,,,,monkey,,,,,,,,,,,6,1,0,9,9,58,1,,,,,,,,,,,,,,,,,,,,,,,,,,,,,,,,,,,,,,,,,,,,,,,,,,,,,,,,,,,,,,,,,,,,,,
,,?,0,0,,,,,,stimuli/images/PICTURE_108.png,FLIGHT,5d75af57bcfd5b001b192708,07/23/1954,2020-07-09_16h17.51.718,proactive,2020.1.2,Win32,60,5f073de81c76c3308c0e4fb3,5f077a727c4fe639a3d03808,1,,,,,,calendar,,,,,,,,,,,6,1,0,10,10,59,1,,,,,,,,,,,,,,,,,,,,,,,,,,,,,,,,,,,,,,,,,,,,,,,,,,,,,,,,,,,,,,,,,,,,,,
,,?,0.001,0,,,,,,stimuli/images/PICTURE_42.png,BOYS,5d75af57bcfd5b001b192708,07/23/1954,2020-07-09_16h17.51.718,proactive,2020.1.2,Win32,60,5f073de81c76c3308c0e4fb3,5f077a727c4fe639a3d03808,1,,,,,,pear,,,,,,,,,,,6,1,0,11,11,55,1,,,,,,,,,,,,,,,,,,,,,,,,,,,,,,,,,,,,,,,,,,,,,,,,,,,,,,,,,,,,,,,,,,,,,,
,,?,0,0,,,,,,stimuli/images/PICTURE_108.png,POLICY,5d75af57bcfd5b001b192708,07/23/1954,2020-07-09_16h17.51.718,proactive,2020.1.2,Win32,60,5f073de81c76c3308c0e4fb3,5f077a727c4fe639a3d03808,1,,,,,,calendar,,,,,,,,,,,3,1,0,12,12,22,1,,,,,,,,,,,,,,,,,,,,,,,,,,,,,,,,,,,,,,,,,,,,,,,,,,,,,,,,,,,,,,,,,,,,,,
,,?,0,0,,,,,,stimuli/images/PICTURE_297.png,RIVER,5d75af57bcfd5b001b192708,07/23/1954,2020-07-09_16h17.51.718,proactive,2020.1.2,Win32,60,5f073de81c76c3308c0e4fb3,5f077a727c4fe639a3d03808,1,,,,,,aeroplane,,,,,,,,,,,4,1,0,13,13,39,1,,,,,,,,,,,,,,,,,,,,,,,,,,,,,,,,,,,,,,,,,,,,,,,,,,,,,,,,,,,,,,,,,,,,,,
,,?,0,0,,,,,,stimuli/images/PICTURE_327.png,CASINO,5d75af57bcfd5b001b192708,07/23/1954,2020-07-09_16h17.51.718,proactive,2020.1.2,Win32,60,5f073de81c76c3308c0e4fb3,5f077a727c4fe639a3d03808,1,,,,,,helmet,,,,,,,,,,,3,1,0,14,14,20,1,,,,,,,,,,,,,,,,,,,,,,,,,,,,,,,,,,,,,,,,,,,,,,,,,,,,,,,,,,,,,,,,,,,,,,
,,?,0,0,,,,,,stimuli/images/PICTURE_340.png,VALLEY,5d75af57bcfd5b001b192708,07/23/1954,2020-07-09_16h17.51.718,proactive,2020.1.2,Win32,60,5f073de81c76c3308c0e4fb3,5f077a727c4fe639a3d03808,1,,,,,,mirror,,,,,,,,,,,6,1,0,15,15,54,1,,,,,,,,,,,,,,,,,,,,,,,,,,,,,,,,,,,,,,,,,,,,,,,,,,,,,,,,,,,,,,,,,,,,,,
,,?,0.001,0,,,,,,stimuli/images/PICTURE_95.png,MILLER,5d75af57bcfd5b001b192708,07/23/1954,2020-07-09_16h17.51.718,proactive,2020.1.2,Win32,60,5f073de81c76c3308c0e4fb3,5f077a727c4fe639a3d03808,1,,,,,,suitcase,,,,,,,,,,,6,1,0,16,16,56,1,,,,,,,,,,,,,,,,,,,,,,,,,,,,,,,,,,,,,,,,,,,,,,,,,,,,,,,,,,,,,,,,,,,,,,
,,?,0.001,0,,,,,,stimuli/images/PICTURE_491.png,GLASS,5d75af57bcfd5b001b192708,07/23/1954,2020-07-09_16h17.51.718,proactive,2020.1.2,Win32,60,5f073de81c76c3308c0e4fb3,5f077a727c4fe639a3d03808,1,,,,,,rug,,,,,,,,,,,2,1,0,17,17,14,1,,,,,,,,,,,,,,,,,,,,,,,,,,,,,,,,,,,,,,,,,,,,,,,,,,,,,,,,,,,,,,,,,,,,,,
,,BOYS,3.212,1,,,,,,stimuli/images/PICTURE_95.png,BOYS,5d75af57bcfd5b001b192708,07/23/1954,2020-07-09_16h17.51.718,proactive,2020.1.2,Win32,60,5f073de81c76c3308c0e4fb3,5f077a727c4fe639a3d03808,1,,,,,,suitcase,,,,,,,,,,,1,1,0,18,18,1,1,,,,,,,,,,,,,,,,,,,,,,,,,,,,,,,,,,,,,,,,,,,,,,,,,,,,,,,,,,,,,,,,,,,,,,
