consent_key.keys,consent_key.rt,recalled,recalled_rt,recall_acc,example_recall.thisRepN,example_recall.thisTrialN,example_recall.thisN,example_recall.thisIndex,example_recall.ran,file,word,participant,please enter your date of birth (dd/mm/yyyy),date,expName,psychopyVersion,OS,frameRate,STUDY_ID,SESSION_ID,list,prac_learn_study_loop.thisRepN,prac_learn_study_loop.thisTrialN,prac_learn_study_loop.thisN,prac_learn_study_loop.thisIndex,prac_learn_study_loop.ran,image,prac_learn_test_loop.thisRepN,prac_learn_test_loop.thisTrialN,prac_learn_test_loop.thisN,prac_learn_test_loop.thisIndex,prac_learn_test_loop.ran,learn_study_loop.thisRepN,learn_study_loop.thisTrialN,learn_study_loop.thisN,learn_study_loop.thisIndex,learn_study_loop.ran,list_no,block_no,learn_test_loop.thisRepN,learn_test_loop.thisTrialN,learn_test_loop.thisN,learn_test_loop.thisIndex,learn_test_loop.ran,learn_blocks.thisRepN,learn_blocks.thisTrialN,learn_blocks.thisN,learn_blocks.thisIndex,learn_blocks.ran,block_csv,key_resp_13.keys,key_resp_13.rt,learn_blocks_loop.thisRepN,learn_blocks_loop.thisTrialN,learn_blocks_loop.thisN,learn_blocks_loop.thisIndex,learn_blocks_loop.ran,final_learn_test.thisRepN,final_learn_test.thisTrialN,final_learn_test.thisN,final_learn_test.thisIndex,final_learn_test.ran,prac_wm_test_loop.thisRepN,prac_wm_test_loop.thisTrialN,prac_wm_test_loop.thisN,prac_wm_test_loop.thisIndex,prac_wm_test_loop.ran,wm_recalled1,wm_recall_rt1,wm_probed1,wm_recall_acc1,wm_recalled2,wm_recall_rt2,wm_probed2,wm_recall_acc2,wm_recalled3,wm_recall_rt3,wm_probed3,wm_recall_acc3,wm_recalled4,wm_recall_rt4,wm_probed4,wm_recall_acc4,prac_wm_trial_loop.thisRepN,prac_wm_trial_loop.thisTrialN,prac_wm_trial_loop.thisN,prac_wm_trial_loop.thisIndex,prac_wm_trial_loop.ran,word1,image1,file1,item_type1,word2,image2,file2,item_type2,word4,image4,file4,item_type4,word3,image3,file3,item_type3,wm_test_loop.thisRepN,wm_test_loop.thisTrialN,wm_test_loop.thisN,wm_test_loop.thisIndex,wm_test_loop.ran,wm_trial_loop.thisRepN,wm_trial_loop.thisTrialN,wm_trial_loop.thisN,wm_trial_loop.thisIndex,wm_trial_loop.ran
y,50.585465,TROFF,15.01182,0,0,0,0,0,1,stimuli/images/PICTURE_747.png,TOUGH,5d9de18052f653001591da95,23/05/1946,2020-07-09_21h03.42.982,proactive,2020.1.2,Win32,60,5f073de81c76c3308c0e4fb3,5f0777df970faa0008d492d6,4,,,,,,,,,,,,,,,,,,,,,,,,,,,,,,,,,,,,,,,,,,,,,,,,,,,,,,,,,,,,,,,,,,,,,,,,,,,,,,,,,,,,,,,,,,,,,
,,,,,,,,,,stimuli/images/PICTURE_697.png,KILLER,5d9de18052f653001591da95,23/05/1946,2020-07-09_21h03.42.982,proactive,2020.1.2,Win32,60,5f073de81c76c3308c0e4fb3,5f0777df970faa0008d492d6,4,0,0,0,4,1,peach,,,,,,,,,,,,,,,,,,,,,,,,,,,,,,,,,,,,,,,,,,,,,,,,,,,,,,,,,,,,,,,,,,,,,,,,,,,,,,,,,,,,,,,
,,,,,,,,,,stimuli/images/PICTURE_378.png,LOSS,5d9de18052f653001591da95,23/05/1946,2020-07-09_21h03.42.982,proactive,2020.1.2,Win32,60,5f073de81c76c3308c0e4fb3,5f0777df970faa0008d492d6,4,0,1,1,2,1,lobster,,,,,,,,,,,,,,,,,,,,,,,,,,,,,,,,,,,,,,,,,,,,,,,,,,,,,,,,,,,,,,,,,,,,,,,,,,,,,,,,,,,,,,,
,,,,,,,,,,stimuli/images/PICTURE_269.png,GENIUS,5d9de18052f653001591da95,23/05/1946,2020-07-09_21h03.42.982,proactive,2020.1.2,Win32,60,5f073de81c76c3308c0e4fb3,5f0777df970faa0008d492d6,4,0,2,2,0,1,chameleon,,,,,,,,,,,,,,,,,,,,,,,,,,,,,,,,,,,,,,,,,,,,,,,,,,,,,,,,,,,,,,,,,,,,,,,,,,,,,,,,,,,,,,,
,,,,,,,,,,stimuli/images/PICTURE_727.png,CELL,5d9de18052f653001591da95,23/05/1946,2020-07-09_21h03.42.982,proactive,2020.1.2,Win32,60,5f073de81c76c3308c0e4fb3,5f0777df970faa0008d492d6,4,0,3,3,1,1,hose,,,,,,,,,,,,,,,,,,,,,,,,,,,,,,,,,,,,,,,,,,,,,,,,,,,,,,,,,,,,,,,,,,,,,,,,,,,,,,,,,,,,,,,
,,DEVIL,15.01237,1,,,,,,stimuli/images/PICTURE_658.png,DEVIL,5d9de18052f653001591da95,23/05/1946,2020-07-09_21h03.42.982,proactive,2020.1.2,Win32,60,5f073de81c76c3308c0e4fb3,5f0777df970faa0008d492d6,4,,,,,,crow,0,0,0,3,1,,,,,,,,,,,,,,,,,,,,,,,,,,,,,,,,,,,,,,,,,,,,,,,,,,,,,,,,,,,,,,,,,,,,,,,,,,,,,,,,,,
,,KILLER,15.01616,1,,,,,,stimuli/images/PICTURE_697.png,KILLER,5d9de18052f653001591da95,23/05/1946,2020-07-09_21h03.42.982,proactive,2020.1.2,Win32,60,5f073de81c76c3308c0e4fb3,5f0777df970faa0008d492d6,4,,,,,,peach,0,1,1,4,1,,,,,,,,,,,,,,,,,,,,,,,,,,,,,,,,,,,,,,,,,,,,,,,,,,,,,,,,,,,,,,,,,,,,,,,,,,,,,,,,,,
,,ROCK,15.01644,0,,,,,,stimuli/images/PICTURE_378.png,LOSS,5d9de18052f653001591da95,23/05/1946,2020-07-09_21h03.42.982,proactive,2020.1.2,Win32,60,5f073de81c76c3308c0e4fb3,5f0777df970faa0008d492d6,4,,,,,,lobster,0,2,2,2,1,,,,,,,,,,,,,,,,,,,,,,,,,,,,,,,,,,,,,,,,,,,,,,,,,,,,,,,,,,,,,,,,,,,,,,,,,,,,,,,,,,
,,SOFT,15.013475,0,,,,,,stimuli/images/PICTURE_727.png,CELL,5d9de18052f653001591da95,23/05/1946,2020-07-09_21h03.42.982,proactive,2020.1.2,Win32,60,5f073de81c76c3308c0e4fb3,5f0777df970faa0008d492d6,4,,,,,,hose,0,3,3,1,1,,,,,,,,,,,,,,,,,,,,,,,,,,,,,,,,,,,,,,,,,,,,,,,,,,,,,,,,,,,,,,,,,,,,,,,,,,,,,,,,,,
,,?,15.014105,0,,,,,,stimuli/images/PICTURE_269.png,GENIUS,5d9de18052f653001591da95,23/05/1946,2020-07-09_21h03.42.982,proactive,2020.1.2,Win32,60,5f073de81c76c3308c0e4fb3,5f0777df970faa0008d492d6,4,,,,,,chameleon,0,4,4,0,1,,,,,,,,,,,,,,,,,,,,,,,,,,,,,,,,,,,,,,,,,,,,,,,,,,,,,,,,,,,,,,,,,,,,,,,,,,,,,,,,,,
,,,,,,,,,,stimuli/images/PICTURE_405.png,PLENTY,5d9de18052f653001591da95,23/05/1946,2020-07-09_21h03.42.982,proactive,2020.1.2,Win32,60,5f073de81c76c3308c0e4fb3,5f0777df970faa0008d492d6,4,,,,,,anchor,,,,,,0,0,0,23,1,3,1,,,,,,,,,,,,,,,,,,,,,,,,,,,,,,,,,,,,,,,,,,,,,,,,,,,,,,,,,,,,,,,,,,,,,,,,,,,
,,,,,,,,,,stimuli/images/PICTURE_467.png,POLICY,5d9de18052f653001591da95,23/05/1946,2020-07-09_21h03.42.982,proactive,2020.1.2,Win32,60,5f073de81c76c3308c0e4fb3,5f0777df970faa0008d492d6,4,,,,,,peg,,,,,,0,1,1,53,1,6,1,,,,,,,,,,,,,,,,,,,,,,,,,,,,,,,,,,,,,,,,,,,,,,,,,,,,,,,,,,,,,,,,,,,,,,,,,,,
,,,,,,,,,,stimuli/images/PICTURE_203.png,GODS,5d9de18052f653001591da95,23/05/1946,2020-07-09_21h03.42.982,proactive,2020.1.2,Win32,60,5f073de81c76c3308c0e4fb3,5f0777df970faa0008d492d6,4,,,,,,cap,,,,,,0,2,2,30,1,4,1,,,,,,,,,,,,,,,,,,,,,,,,,,,,,,,,,,,,,,,,,,,,,,,,,,,,,,,,,,,,,,,,,,,,,,,,,,,
,,,,,,,,,,stimuli/images/PICTURE_296.png,LIFE,5d9de18052f653001591da95,23/05/1946,2020-07-09_21h03.42.982,proactive,2020.1.2,Win32,60,5f073de81c76c3308c0e4fb3,5f0777df970faa0008d492d6,4,,,,,,bolt,,,,,,0,3,3,57,1,6,1,,,,,,,,,,,,,,,,,,,,,,,,,,,,,,,,,,,,,,,,,,,,,,,,,,,,,,,,,,,,,,,,,,,,,,,,,,,
,,,,,,,,,,stimuli/images/PICTURE_491.png,GLASS,5d9de18052f653001591da95,23/05/1946,2020-07-09_21h03.42.982,proactive,2020.1.2,Win32,60,5f073de81c76c3308c0e4fb3,5f0777df970faa0008d492d6,4,,,,,,rug,,,,,,0,4,4,14,1,2,1,,,,,,,,,,,,,,,,,,,,,,,,,,,,,,,,,,,,,,,,,,,,,,,,,,,,,,,,,,,,,,,,,,,,,,,,,,,
,,,,,,,,,,stimuli/images/PICTURE_57.png,MOMENT,5d9de18052f653001591da95,23/05/1946,2020-07-09_21h03.42.982,proactive,2020.1.2,Win32,60,5f073de81c76c3308c0e4fb3,5f0777df970faa0008d492d6,4,,,,,,stamp,,,,,,0,5,5,37,1,4,1,,,,,,,,,,,,,,,,,,,,,,,,,,,,,,,,,,,,,,,,,,,,,,,,,,,,,,,,,,,,,,,,,,,,,,,,,,,
,,,,,,,,,,stimuli/images/PICTURE_147.png,WOMEN,5d9de18052f653001591da95,23/05/1946,2020-07-09_21h03.42.982,proactive,2020.1.2,Win32,60,5f073de81c76c3308c0e4fb3,5f0777df970faa0008d492d6,4,,,,,,hanger,,,,,,0,6,6,7,1,1,1,,,,,,,,,,,,,,,,,,,,,,,,,,,,,,,,,,,,,,,,,,,,,,,,,,,,,,,,,,,,,,,,,,,,,,,,,,,
,,,,,,,,,,stimuli/images/PICTURE_108.png,POLICY,5d9de18052f653001591da95,23/05/1946,2020-07-09_21h03.42.982,proactive,2020.1.2,Win32,60,5f073de81c76c3308c0e4fb3,5f0777df970faa0008d492d6,4,,,,,,calendar,,,,,,0,7,7,22,1,3,1,,,,,,,,,,,,,,,,,,,,,,,,,,,,,,,,,,,,,,,,,,,,,,,,,,,,,,,,,,,,,,,,,,,,,,,,,,,
,,,,,,,,,,stimuli/images/PICTURE_504.png,COPS,5d9de18052f653001591da95,23/05/1946,2020-07-09_21h03.42.982,proactive,2020.1.2,Win32,60,5f073de81c76c3308c0e4fb3,5f0777df970faa0008d492d6,4,,,,,,wheel,,,,,,0,8,8,52,1,6,1,,,,,,,,,,,,,,,,,,,,,,,,,,,,,,,,,,,,,,,,,,,,,,,,,,,,,,,,,,,,,,,,,,,,,,,,,,,
,,,,,,,,,,stimuli/images/PICTURE_296.png,LOTS,5d9de18052f653001591da95,23/05/1946,2020-07-09_21h03.42.982,proactive,2020.1.2,Win32,60,5f073de81c76c3308c0e4fb3,5f0777df970faa0008d492d6,4,,,,,,bolt,,,,,,0,9,9,9,1,1,1,,,,,,,,,,,,,,,,,,,,,,,,,,,,,,,,,,,,,,,,,,,,,,,,,,,,,,,,,,,,,,,,,,,,,,,,,,,
,,,,,,,,,,stimuli/images/PICTURE_667.png,RIVER,5d9de18052f653001591da95,23/05/1946,2020-07-09_21h03.42.982,proactive,2020.1.2,Win32,60,5f073de81c76c3308c0e4fb3,5f0777df970faa0008d492d6,4,,,,,,daisy,,,,,,0,10,10,10,1,2,1,,,,,,,,,,,,,,,,,,,,,,,,,,,,,,,,,,,,,,,,,,,,,,,,,,,,,,,,,,,,,,,,,,,,,,,,,,,
,,,,,,,,,,stimuli/images/PICTURE_233.png,LOTS,5d9de18052f653001591da95,23/05/1946,2020-07-09_21h03.42.982,proactive,2020.1.2,Win32,60,5f073de81c76c3308c0e4fb3,5f0777df970faa0008d492d6,4,,,,,,salt,,,,,,0,11,11,42,1,5,1,,,,,,,,,,,,,,,,,,,,,,,,,,,,,,,,,,,,,,,,,,,,,,,,,,,,,,,,,,,,,,,,,,,,,,,,,,,
,,,,,,,,,,stimuli/images/PICTURE_491.png,RIVER,5d9de18052f653001591da95,23/05/1946,2020-07-09_21h03.42.982,proactive,2020.1.2,Win32,60,5f073de81c76c3308c0e4fb3,5f0777df970faa0008d492d6,4,,,,,,rug,,,,,,0,12,12,6,1,1,1,,,,,,,,,,,,,,,,,,,,,,,,,,,,,,,,,,,,,,,,,,,,,,,,,,,,,,,,,,,,,,,,,,,,,,,,,,,
,,,,,,,,,,stimuli/images/PICTURE_95.png,HONEY,5d9de18052f653001591da95,23/05/1946,2020-07-09_21h03.42.982,proactive,2020.1.2,Win32,60,5f073de81c76c3308c0e4fb3,5f0777df970faa0008d492d6,4,,,,,,suitcase,,,,,,0,13,13,44,1,5,1,,,,,,,,,,,,,,,,,,,,,,,,,,,,,,,,,,,,,,,,,,,,,,,,,,,,,,,,,,,,,,,,,,,,,,,,,,,
,,,,,,,,,,stimuli/images/PICTURE_675.png,SALE,5d9de18052f653001591da95,23/05/1946,2020-07-09_21h03.42.982,proactive,2020.1.2,Win32,60,5f073de81c76c3308c0e4fb3,5f0777df970faa0008d492d6,4,,,,,,windmill,,,,,,0,14,14,47,1,5,1,,,,,,,,,,,,,,,,,,,,,,,,,,,,,,,,,,,,,,,,,,,,,,,,,,,,,,,,,,,,,,,,,,,,,,,,,,,
,,,,,,,,,,stimuli/images/PICTURE_32.png,PILLS,5d9de18052f653001591da95,23/05/1946,2020-07-09_21h03.42.982,proactive,2020.1.2,Win32,60,5f073de81c76c3308c0e4fb3,5f0777df970faa0008d492d6,4,,,,,,crown,,,,,,0,15,15,18,1,2,1,,,,,,,,,,,,,,,,,,,,,,,,,,,,,,,,,,,,,,,,,,,,,,,,,,,,,,,,,,,,,,,,,,,,,,,,,,,
,,,,,,,,,,stimuli/images/PICTURE_33.png,FRIEND,5d9de18052f653001591da95,23/05/1946,2020-07-09_21h03.42.982,proactive,2020.1.2,Win32,60,5f073de81c76c3308c0e4fb3,5f0777df970faa0008d492d6,4,,,,,,frame,,,,,,0,16,16,8,1,1,1,,,,,,,,,,,,,,,,,,,,,,,,,,,,,,,,,,,,,,,,,,,,,,,,,,,,,,,,,,,,,,,,,,,,,,,,,,,
,,,,,,,,,,stimuli/images/PICTURE_403.png,RIVER,5d9de18052f653001591da95,23/05/1946,2020-07-09_21h03.42.982,proactive,2020.1.2,Win32,60,5f073de81c76c3308c0e4fb3,5f0777df970faa0008d492d6,4,,,,,,cathedral,,,,,,0,17,17,40,1,5,1,,,,,,,,,,,,,,,,,,,,,,,,,,,,,,,,,,,,,,,,,,,,,,,,,,,,,,,,,,,,,,,,,,,,,,,,,,,
,,,,,,,,,,stimuli/images/PICTURE_68.png,MILE,5d9de18052f653001591da95,23/05/1946,2020-07-09_21h03.42.982,proactive,2020.1.2,Win32,60,5f073de81c76c3308c0e4fb3,5f0777df970faa0008d492d6,4,,,,,,candle,,,,,,0,18,18,51,1,6,1,,,,,,,,,,,,,,,,,,,,,,,,,,,,,,,,,,,,,,,,,,,,,,,,,,,,,,,,,,,,,,,,,,,,,,,,,,,
,,,,,,,,,,stimuli/images/PICTURE_744.png,WEAPON,5d9de18052f653001591da95,23/05/1946,2020-07-09_21h03.42.982,proactive,2020.1.2,Win32,60,5f073de81c76c3308c0e4fb3,5f0777df970faa0008d492d6,4,,,,,,ring,,,,,,0,19,19,50,1,6,1,,,,,,,,,,,,,,,,,,,,,,,,,,,,,,,,,,,,,,,,,,,,,,,,,,,,,,,,,,,,,,,,,,,,,,,,,,,
,,,,,,,,,,stimuli/images/PICTURE_383.png,SERIES,5d9de18052f653001591da95,23/05/1946,2020-07-09_21h03.42.982,proactive,2020.1.2,Win32,60,5f073de81c76c3308c0e4fb3,5f0777df970faa0008d492d6,4,,,,,,coin,,,,,,0,20,20,46,1,5,1,,,,,,,,,,,,,,,,,,,,,,,,,,,,,,,,,,,,,,,,,,,,,,,,,,,,,,,,,,,,,,,,,,,,,,,,,,,
,,,,,,,,,,stimuli/images/PICTURE_2.png,FLIGHT,5d9de18052f653001591da95,23/05/1946,2020-07-09_21h03.42.982,proactive,2020.1.2,Win32,60,5f073de81c76c3308c0e4fb3,5f0777df970faa0008d492d6,4,,,,,,tyre,,,,,,0,21,21,15,1,2,1,,,,,,,,,,,,,,,,,,,,,,,,,,,,,,,,,,,,,,,,,,,,,,,,,,,,,,,,,,,,,,,,,,,,,,,,,,,
,,,,,,,,,,stimuli/images/PICTURE_327.png,CASINO,5d9de18052f653001591da95,23/05/1946,2020-07-09_21h03.42.982,proactive,2020.1.2,Win32,60,5f073de81c76c3308c0e4fb3,5f0777df970faa0008d492d6,4,,,,,,helmet,,,,,,0,22,22,20,1,3,1,,,,,,,,,,,,,,,,,,,,,,,,,,,,,,,,,,,,,,,,,,,,,,,,,,,,,,,,,,,,,,,,,,,,,,,,,,,
,,,,,,,,,,stimuli/images/PICTURE_340.png,LETTER,5d9de18052f653001591da95,23/05/1946,2020-07-09_21h03.42.982,proactive,2020.1.2,Win32,60,5f073de81c76c3308c0e4fb3,5f0777df970faa0008d492d6,4,,,,,,mirror,,,,,,0,23,23,24,1,3,1,,,,,,,,,,,,,,,,,,,,,,,,,,,,,,,,,,,,,,,,,,,,,,,,,,,,,,,,,,,,,,,,,,,,,,,,,,,
,,,,,,,,,,stimuli/images/PICTURE_108.png,FLIGHT,5d9de18052f653001591da95,23/05/1946,2020-07-09_21h03.42.982,proactive,2020.1.2,Win32,60,5f073de81c76c3308c0e4fb3,5f0777df970faa0008d492d6,4,,,,,,calendar,,,,,,0,24,24,59,1,6,1,,,,,,,,,,,,,,,,,,,,,,,,,,,,,,,,,,,,,,,,,,,,,,,,,,,,,,,,,,,,,,,,,,,,,,,,,,,
,,,,,,,,,,stimuli/images/PICTURE_380.png,CANDY,5d9de18052f653001591da95,23/05/1946,2020-07-09_21h03.42.982,proactive,2020.1.2,Win32,60,5f073de81c76c3308c0e4fb3,5f0777df970faa0008d492d6,4,,,,,,gorilla,,,,,,0,25,25,0,1,1,1,,,,,,,,,,,,,,,,,,,,,,,,,,,,,,,,,,,,,,,,,,,,,,,,,,,,,,,,,,,,,,,,,,,,,,,,,,,
,,,,,,,,,,stimuli/images/PICTURE_95.png,BOYS,5d9de18052f653001591da95,23/05/1946,2020-07-09_21h03.42.982,proactive,2020.1.2,Win32,60,5f073de81c76c3308c0e4fb3,5f0777df970faa0008d492d6,4,,,,,,suitcase,,,,,,0,26,26,1,1,1,1,,,,,,,,,,,,,,,,,,,,,,,,,,,,,,,,,,,,,,,,,,,,,,,,,,,,,,,,,,,,,,,,,,,,,,,,,,,
,,,,,,,,,,stimuli/images/PICTURE_449.png,DUDE,5d9de18052f653001591da95,23/05/1946,2020-07-09_21h03.42.982,proactive,2020.1.2,Win32,60,5f073de81c76c3308c0e4fb3,5f0777df970faa0008d492d6,4,,,,,,bench,,,,,,0,27,27,17,1,2,1,,,,,,,,,,,,,,,,,,,,,,,,,,,,,,,,,,,,,,,,,,,,,,,,,,,,,,,,,,,,,,,,,,,,,,,,,,,
,,,,,,,,,,stimuli/images/PICTURE_95.png,MILLER,5d9de18052f653001591da95,23/05/1946,2020-07-09_21h03.42.982,proactive,2020.1.2,Win32,60,5f073de81c76c3308c0e4fb3,5f0777df970faa0008d492d6,4,,,,,,suitcase,,,,,,0,28,28,56,1,6,1,,,,,,,,,,,,,,,,,,,,,,,,,,,,,,,,,,,,,,,,,,,,,,,,,,,,,,,,,,,,,,,,,,,,,,,,,,,
,,,,,,,,,,stimuli/images/PICTURE_750.png,HOTEL,5d9de18052f653001591da95,23/05/1946,2020-07-09_21h03.42.982,proactive,2020.1.2,Win32,60,5f073de81c76c3308c0e4fb3,5f0777df970faa0008d492d6,4,,,,,,kettle,,,,,,0,29,29,27,1,3,1,,,,,,,,,,,,,,,,,,,,,,,,,,,,,,,,,,,,,,,,,,,,,,,,,,,,,,,,,,,,,,,,,,,,,,,,,,,
,,,,,,,,,,stimuli/images/PICTURE_177.png,WRITER,5d9de18052f653001591da95,23/05/1946,2020-07-09_21h03.42.982,proactive,2020.1.2,Win32,60,5f073de81c76c3308c0e4fb3,5f0777df970faa0008d492d6,4,,,,,,mushroom,,,,,,0,30,30,41,1,5,1,,,,,,,,,,,,,,,,,,,,,,,,,,,,,,,,,,,,,,,,,,,,,,,,,,,,,,,,,,,,,,,,,,,,,,,,,,,
,,,,,,,,,,stimuli/images/PICTURE_655.png,TOILET,5d9de18052f653001591da95,23/05/1946,2020-07-09_21h03.42.982,proactive,2020.1.2,Win32,60,5f073de81c76c3308c0e4fb3,5f0777df970faa0008d492d6,4,,,,,,megaphone,,,,,,0,31,31,12,1,2,1,,,,,,,,,,,,,,,,,,,,,,,,,,,,,,,,,,,,,,,,,,,,,,,,,,,,,,,,,,,,,,,,,,,,,,,,,,,
,,,,,,,,,,stimuli/images/PICTURE_654.png,MONTH,5d9de18052f653001591da95,23/05/1946,2020-07-09_21h03.42.982,proactive,2020.1.2,Win32,60,5f073de81c76c3308c0e4fb3,5f0777df970faa0008d492d6,4,,,,,,pencil,,,,,,0,32,32,29,1,3,1,,,,,,,,,,,,,,,,,,,,,,,,,,,,,,,,,,,,,,,,,,,,,,,,,,,,,,,,,,,,,,,,,,,,,,,,,,,
,,,,,,,,,,stimuli/images/PICTURE_487.png,GIRL,5d9de18052f653001591da95,23/05/1946,2020-07-09_21h03.42.982,proactive,2020.1.2,Win32,60,5f073de81c76c3308c0e4fb3,5f0777df970faa0008d492d6,4,,,,,,basket,,,,,,0,33,33,45,1,5,1,,,,,,,,,,,,,,,,,,,,,,,,,,,,,,,,,,,,,,,,,,,,,,,,,,,,,,,,,,,,,,,,,,,,,,,,,,,
,,,,,,,,,,stimuli/images/PICTURE_403.png,WRITER,5d9de18052f653001591da95,23/05/1946,2020-07-09_21h03.42.982,proactive,2020.1.2,Win32,60,5f073de81c76c3308c0e4fb3,5f0777df970faa0008d492d6,4,,,,,,cathedral,,,,,,0,34,34,31,1,4,1,,,,,,,,,,,,,,,,,,,,,,,,,,,,,,,,,,,,,,,,,,,,,,,,,,,,,,,,,,,,,,,,,,,,,,,,,,,
,,,,,,,,,,stimuli/images/PICTURE_147.png,YEAR,5d9de18052f653001591da95,23/05/1946,2020-07-09_21h03.42.982,proactive,2020.1.2,Win32,60,5f073de81c76c3308c0e4fb3,5f0777df970faa0008d492d6,4,,,,,,hanger,,,,,,0,35,35,21,1,3,1,,,,,,,,,,,,,,,,,,,,,,,,,,,,,,,,,,,,,,,,,,,,,,,,,,,,,,,,,,,,,,,,,,,,,,,,,,,
,,,,,,,,,,stimuli/images/PICTURE_504.png,YEAR,5d9de18052f653001591da95,23/05/1946,2020-07-09_21h03.42.982,proactive,2020.1.2,Win32,60,5f073de81c76c3308c0e4fb3,5f0777df970faa0008d492d6,4,,,,,,wheel,,,,,,0,36,36,13,1,2,1,,,,,,,,,,,,,,,,,,,,,,,,,,,,,,,,,,,,,,,,,,,,,,,,,,,,,,,,,,,,,,,,,,,,,,,,,,,
,,,,,,,,,,stimuli/images/PICTURE_380.png,HONEY,5d9de18052f653001591da95,23/05/1946,2020-07-09_21h03.42.982,proactive,2020.1.2,Win32,60,5f073de81c76c3308c0e4fb3,5f0777df970faa0008d492d6,4,,,,,,gorilla,,,,,,0,37,37,19,1,2,1,,,,,,,,,,,,,,,,,,,,,,,,,,,,,,,,,,,,,,,,,,,,,,,,,,,,,,,,,,,,,,,,,,,,,,,,,,,
,,,,,,,,,,stimuli/images/PICTURE_68.png,ROOF,5d9de18052f653001591da95,23/05/1946,2020-07-09_21h03.42.982,proactive,2020.1.2,Win32,60,5f073de81c76c3308c0e4fb3,5f0777df970faa0008d492d6,4,,,,,,candle,,,,,,0,38,38,38,1,4,1,,,,,,,,,,,,,,,,,,,,,,,,,,,,,,,,,,,,,,,,,,,,,,,,,,,,,,,,,,,,,,,,,,,,,,,,,,,
,,,,,,,,,,stimuli/images/PICTURE_708.png,RECORD,5d9de18052f653001591da95,23/05/1946,2020-07-09_21h03.42.982,proactive,2020.1.2,Win32,60,5f073de81c76c3308c0e4fb3,5f0777df970faa0008d492d6,4,,,,,,monkey,,,,,,0,39,39,58,1,6,1,,,,,,,,,,,,,,,,,,,,,,,,,,,,,,,,,,,,,,,,,,,,,,,,,,,,,,,,,,,,,,,,,,,,,,,,,,,
,,,,,,,,,,stimuli/images/PICTURE_405.png,YEAR,5d9de18052f653001591da95,23/05/1946,2020-07-09_21h03.42.982,proactive,2020.1.2,Win32,60,5f073de81c76c3308c0e4fb3,5f0777df970faa0008d492d6,4,,,,,,anchor,,,,,,0,40,40,34,1,4,1,,,,,,,,,,,,,,,,,,,,,,,,,,,,,,,,,,,,,,,,,,,,,,,,,,,,,,,,,,,,,,,,,,,,,,,,,,,
,,,,,,,,,,stimuli/images/PICTURE_339.png,CLIENT,5d9de18052f653001591da95,23/05/1946,2020-07-09_21h03.42.982,proactive,2020.1.2,Win32,60,5f073de81c76c3308c0e4fb3,5f0777df970faa0008d492d6,4,,,,,,backpack,,,,,,0,41,41,11,1,2,1,,,,,,,,,,,,,,,,,,,,,,,,,,,,,,,,,,,,,,,,,,,,,,,,,,,,,,,,,,,,,,,,,,,,,,,,,,,
,,,,,,,,,,stimuli/images/PICTURE_340.png,VALLEY,5d9de18052f653001591da95,23/05/1946,2020-07-09_21h03.42.982,proactive,2020.1.2,Win32,60,5f073de81c76c3308c0e4fb3,5f0777df970faa0008d492d6,4,,,,,,mirror,,,,,,0,42,42,54,1,6,1,,,,,,,,,,,,,,,,,,,,,,,,,,,,,,,,,,,,,,,,,,,,,,,,,,,,,,,,,,,,,,,,,,,,,,,,,,,
,,,,,,,,,,stimuli/images/PICTURE_469.png,AGENT,5d9de18052f653001591da95,23/05/1946,2020-07-09_21h03.42.982,proactive,2020.1.2,Win32,60,5f073de81c76c3308c0e4fb3,5f0777df970faa0008d492d6,4,,,,,,stool,,,,,,0,43,43,16,1,2,1,,,,,,,,,,,,,,,,,,,,,,,,,,,,,,,,,,,,,,,,,,,,,,,,,,,,,,,,,,,,,,,,,,,,,,,,,,,
,,,,,,,,,,stimuli/images/PICTURE_85.png,NATION,5d9de18052f653001591da95,23/05/1946,2020-07-09_21h03.42.982,proactive,2020.1.2,Win32,60,5f073de81c76c3308c0e4fb3,5f0777df970faa0008d492d6,4,,,,,,diamond,,,,,,0,44,44,5,1,1,1,,,,,,,,,,,,,,,,,,,,,,,,,,,,,,,,,,,,,,,,,,,,,,,,,,,,,,,,,,,,,,,,,,,,,,,,,,,
,,,,,,,,,,stimuli/images/PICTURE_32.png,KIND,5d9de18052f653001591da95,23/05/1946,2020-07-09_21h03.42.982,proactive,2020.1.2,Win32,60,5f073de81c76c3308c0e4fb3,5f0777df970faa0008d492d6,4,,,,,,crown,,,,,,0,45,45,35,1,4,1,,,,,,,,,,,,,,,,,,,,,,,,,,,,,,,,,,,,,,,,,,,,,,,,,,,,,,,,,,,,,,,,,,,,,,,,,,,
,,,,,,,,,,stimuli/images/PICTURE_327.png,SERIES,5d9de18052f653001591da95,23/05/1946,2020-07-09_21h03.42.982,proactive,2020.1.2,Win32,60,5f073de81c76c3308c0e4fb3,5f0777df970faa0008d492d6,4,,,,,,helmet,,,,,,0,46,46,3,1,1,1,,,,,,,,,,,,,,,,,,,,,,,,,,,,,,,,,,,,,,,,,,,,,,,,,,,,,,,,,,,,,,,,,,,,,,,,,,,
,,,,,,,,,,stimuli/images/PICTURE_403.png,TOILET,5d9de18052f653001591da95,23/05/1946,2020-07-09_21h03.42.982,proactive,2020.1.2,Win32,60,5f073de81c76c3308c0e4fb3,5f0777df970faa0008d492d6,4,,,,,,cathedral,,,,,,0,47,47,25,1,3,1,,,,,,,,,,,,,,,,,,,,,,,,,,,,,,,,,,,,,,,,,,,,,,,,,,,,,,,,,,,,,,,,,,,,,,,,,,,
,,,,,,,,,,stimuli/images/PICTURE_85.png,TOILET,5d9de18052f653001591da95,23/05/1946,2020-07-09_21h03.42.982,proactive,2020.1.2,Win32,60,5f073de81c76c3308c0e4fb3,5f0777df970faa0008d492d6,4,,,,,,diamond,,,,,,0,48,48,48,1,5,1,,,,,,,,,,,,,,,,,,,,,,,,,,,,,,,,,,,,,,,,,,,,,,,,,,,,,,,,,,,,,,,,,,,,,,,,,,,
,,,,,,,,,,stimuli/images/PICTURE_203.png,NIGHT,5d9de18052f653001591da95,23/05/1946,2020-07-09_21h03.42.982,proactive,2020.1.2,Win32,60,5f073de81c76c3308c0e4fb3,5f0777df970faa0008d492d6,4,,,,,,cap,,,,,,0,49,49,2,1,1,1,,,,,,,,,,,,,,,,,,,,,,,,,,,,,,,,,,,,,,,,,,,,,,,,,,,,,,,,,,,,,,,,,,,,,,,,,,,
,,,,,,,,,,stimuli/images/PICTURE_308.png,FAMILY,5d9de18052f653001591da95,23/05/1946,2020-07-09_21h03.42.982,proactive,2020.1.2,Win32,60,5f073de81c76c3308c0e4fb3,5f0777df970faa0008d492d6,4,,,,,,dice,,,,,,0,50,50,36,1,4,1,,,,,,,,,,,,,,,,,,,,,,,,,,,,,,,,,,,,,,,,,,,,,,,,,,,,,,,,,,,,,,,,,,,,,,,,,,,
,,,,,,,,,,stimuli/images/PICTURE_285.png,LIFE,5d9de18052f653001591da95,23/05/1946,2020-07-09_21h03.42.982,proactive,2020.1.2,Win32,60,5f073de81c76c3308c0e4fb3,5f0777df970faa0008d492d6,4,,,,,,carrot,,,,,,0,51,51,33,1,4,1,,,,,,,,,,,,,,,,,,,,,,,,,,,,,,,,,,,,,,,,,,,,,,,,,,,,,,,,,,,,,,,,,,,,,,,,,,,
,,,,,,,,,,stimuli/images/PICTURE_208.png,SYSTEM,5d9de18052f653001591da95,23/05/1946,2020-07-09_21h03.42.982,proactive,2020.1.2,Win32,60,5f073de81c76c3308c0e4fb3,5f0777df970faa0008d492d6,4,,,,,,microphone,,,,,,0,52,52,32,1,4,1,,,,,,,,,,,,,,,,,,,,,,,,,,,,,,,,,,,,,,,,,,,,,,,,,,,,,,,,,,,,,,,,,,,,,,,,,,,
,,,,,,,,,,stimuli/images/PICTURE_383.png,WRITER,5d9de18052f653001591da95,23/05/1946,2020-07-09_21h03.42.982,proactive,2020.1.2,Win32,60,5f073de81c76c3308c0e4fb3,5f0777df970faa0008d492d6,4,,,,,,coin,,,,,,0,53,53,28,1,3,1,,,,,,,,,,,,,,,,,,,,,,,,,,,,,,,,,,,,,,,,,,,,,,,,,,,,,,,,,,,,,,,,,,,,,,,,,,,
,,,,,,,,,,stimuli/images/PICTURE_685.png,PENNY,5d9de18052f653001591da95,23/05/1946,2020-07-09_21h03.42.982,proactive,2020.1.2,Win32,60,5f073de81c76c3308c0e4fb3,5f0777df970faa0008d492d6,4,,,,,,goose,,,,,,0,54,54,4,1,1,1,,,,,,,,,,,,,,,,,,,,,,,,,,,,,,,,,,,,,,,,,,,,,,,,,,,,,,,,,,,,,,,,,,,,,,,,,,,
,,,,,,,,,,stimuli/images/PICTURE_297.png,RIVER,5d9de18052f653001591da95,23/05/1946,2020-07-09_21h03.42.982,proactive,2020.1.2,Win32,60,5f073de81c76c3308c0e4fb3,5f0777df970faa0008d492d6,4,,,,,,aeroplane,,,,,,0,55,55,39,1,4,1,,,,,,,,,,,,,,,,,,,,,,,,,,,,,,,,,,,,,,,,,,,,,,,,,,,,,,,,,,,,,,,,,,,,,,,,,,,
,,,,,,,,,,stimuli/images/PICTURE_677.png,APPLE,5d9de18052f653001591da95,23/05/1946,2020-07-09_21h03.42.982,proactive,2020.1.2,Win32,60,5f073de81c76c3308c0e4fb3,5f0777df970faa0008d492d6,4,,,,,,map,,,,,,0,56,56,43,1,5,1,,,,,,,,,,,,,,,,,,,,,,,,,,,,,,,,,,,,,,,,,,,,,,,,,,,,,,,,,,,,,,,,,,,,,,,,,,,
,,,,,,,,,,stimuli/images/PICTURE_42.png,BOYS,5d9de18052f653001591da95,23/05/1946,2020-07-09_21h03.42.982,proactive,2020.1.2,Win32,60,5f073de81c76c3308c0e4fb3,5f0777df970faa0008d492d6,4,,,,,,pear,,,,,,0,57,57,55,1,6,1,,,,,,,,,,,,,,,,,,,,,,,,,,,,,,,,,,,,,,,,,,,,,,,,,,,,,,,,,,,,,,,,,,,,,,,,,,,
,,,,,,,,,,stimuli/images/PICTURE_504.png,ARTIST,5d9de18052f653001591da95,23/05/1946,2020-07-09_21h03.42.982,proactive,2020.1.2,Win32,60,5f073de81c76c3308c0e4fb3,5f0777df970faa0008d492d6,4,,,,,,wheel,,,,,,0,58,58,49,1,5,1,,,,,,,,,,,,,,,,,,,,,,,,,,,,,,,,,,,,,,,,,,,,,,,,,,,,,,,,,,,,,,,,,,,,,,,,,,,
,,?,0.001955,0,,,,,,stimuli/images/PICTURE_203.png,NIGHT,5d9de18052f653001591da95,23/05/1946,2020-07-09_21h03.42.982,proactive,2020.1.2,Win32,60,5f073de81c76c3308c0e4fb3,5f0777df970faa0008d492d6,4,,,,,,cap,,,,,,,,,,,1,1,0,0,0,2,1,,,,,,,,,,,,,,,,,,,,,,,,,,,,,,,,,,,,,,,,,,,,,,,,,,,,,,,,,,,,,,,,,,,,,,
,,?,0.001695,0,,,,,,stimuli/images/PICTURE_667.png,RIVER,5d9de18052f653001591da95,23/05/1946,2020-07-09_21h03.42.982,proactive,2020.1.2,Win32,60,5f073de81c76c3308c0e4fb3,5f0777df970faa0008d492d6,4,,,,,,daisy,,,,,,,,,,,2,1,0,1,1,10,1,,,,,,,,,,,,,,,,,,,,,,,,,,,,,,,,,,,,,,,,,,,,,,,,,,,,,,,,,,,,,,,,,,,,,,
,,?,0.001405,0,,,,,,stimuli/images/PICTURE_177.png,WRITER,5d9de18052f653001591da95,23/05/1946,2020-07-09_21h03.42.982,proactive,2020.1.2,Win32,60,5f073de81c76c3308c0e4fb3,5f0777df970faa0008d492d6,4,,,,,,mushroom,,,,,,,,,,,5,1,0,2,2,41,1,,,,,,,,,,,,,,,,,,,,,,,,,,,,,,,,,,,,,,,,,,,,,,,,,,,,,,,,,,,,,,,,,,,,,,
,,LIFE,15.011725,1,,,,,,stimuli/images/PICTURE_285.png,LIFE,5d9de18052f653001591da95,23/05/1946,2020-07-09_21h03.42.982,proactive,2020.1.2,Win32,60,5f073de81c76c3308c0e4fb3,5f0777df970faa0008d492d6,4,,,,,,carrot,,,,,,,,,,,4,1,0,3,3,33,1,,,,,,,,,,,,,,,,,,,,,,,,,,,,,,,,,,,,,,,,,,,,,,,,,,,,,,,,,,,,,,,,,,,,,,
,,?,0.001555,0,,,,,,stimuli/images/PICTURE_491.png,RIVER,5d9de18052f653001591da95,23/05/1946,2020-07-09_21h03.42.982,proactive,2020.1.2,Win32,60,5f073de81c76c3308c0e4fb3,5f0777df970faa0008d492d6,4,,,,,,rug,,,,,,,,,,,1,1,0,4,4,6,1,,,,,,,,,,,,,,,,,,,,,,,,,,,,,,,,,,,,,,,,,,,,,,,,,,,,,,,,,,,,,,,,,,,,,,
,,?,0.001485,0,,,,,,stimuli/images/PICTURE_654.png,MONTH,5d9de18052f653001591da95,23/05/1946,2020-07-09_21h03.42.982,proactive,2020.1.2,Win32,60,5f073de81c76c3308c0e4fb3,5f0777df970faa0008d492d6,4,,,,,,pencil,,,,,,,,,,,3,1,0,5,5,29,1,,,,,,,,,,,,,,,,,,,,,,,,,,,,,,,,,,,,,,,,,,,,,,,,,,,,,,,,,,,,,,,,,,,,,,
,,FAMILY,15.00785,0,,,,,,stimuli/images/PICTURE_405.png,YEAR,5d9de18052f653001591da95,23/05/1946,2020-07-09_21h03.42.982,proactive,2020.1.2,Win32,60,5f073de81c76c3308c0e4fb3,5f0777df970faa0008d492d6,4,,,,,,anchor,,,,,,,,,,,4,1,0,6,6,34,1,,,,,,,,,,,,,,,,,,,,,,,,,,,,,,,,,,,,,,,,,,,,,,,,,,,,,,,,,,,,,,,,,,,,,,
,,?,0.001455,0,,,,,,stimuli/images/PICTURE_327.png,CASINO,5d9de18052f653001591da95,23/05/1946,2020-07-09_21h03.42.982,proactive,2020.1.2,Win32,60,5f073de81c76c3308c0e4fb3,5f0777df970faa0008d492d6,4,,,,,,helmet,,,,,,,,,,,3,1,0,7,7,20,1,,,,,,,,,,,,,,,,,,,,,,,,,,,,,,,,,,,,,,,,,,,,,,,,,,,,,,,,,,,,,,,,,,,,,,
,,?,0.001495,0,,,,,,stimuli/images/PICTURE_504.png,ARTIST,5d9de18052f653001591da95,23/05/1946,2020-07-09_21h03.42.982,proactive,2020.1.2,Win32,60,5f073de81c76c3308c0e4fb3,5f0777df970faa0008d492d6,4,,,,,,wheel,,,,,,,,,,,5,1,0,8,8,49,1,,,,,,,,,,,,,,,,,,,,,,,,,,,,,,,,,,,,,,,,,,,,,,,,,,,,,,,,,,,,,,,,,,,,,,
,,?,0.00148,0,,,,,,stimuli/images/PICTURE_380.png,HONEY,5d9de18052f653001591da95,23/05/1946,2020-07-09_21h03.42.982,proactive,2020.1.2,Win32,60,5f073de81c76c3308c0e4fb3,5f0777df970faa0008d492d6,4,,,,,,gorilla,,,,,,,,,,,2,1,0,9,9,19,1,,,,,,,,,,,,,,,,,,,,,,,,,,,,,,,,,,,,,,,,,,,,,,,,,,,,,,,,,,,,,,,,,,,,,,
,,?,0.002135,0,,,,,,stimuli/images/PICTURE_339.png,CLIENT,5d9de18052f653001591da95,23/05/1946,2020-07-09_21h03.42.982,proactive,2020.1.2,Win32,60,5f073de81c76c3308c0e4fb3,5f0777df970faa0008d492d6,4,,,,,,backpack,,,,,,,,,,,2,1,0,10,10,11,1,,,,,,,,,,,,,,,,,,,,,,,,,,,,,,,,,,,,,,,,,,,,,,,,,,,,,,,,,,,,,,,,,,,,,,
,,ROOF,15.01206,0,,,,,,stimuli/images/PICTURE_203.png,GODS,5d9de18052f653001591da95,23/05/1946,2020-07-09_21h03.42.982,proactive,2020.1.2,Win32,60,5f073de81c76c3308c0e4fb3,5f0777df970faa0008d492d6,4,,,,,,cap,,,,,,,,,,,4,1,0,11,11,30,1,,,,,,,,,,,,,,,,,,,,,,,,,,,,,,,,,,,,,,,,,,,,,,,,,,,,,,,,,,,,,,,,,,,,,,
,,?,0.001615,0,,,,,,stimuli/images/PICTURE_469.png,AGENT,5d9de18052f653001591da95,23/05/1946,2020-07-09_21h03.42.982,proactive,2020.1.2,Win32,60,5f073de81c76c3308c0e4fb3,5f0777df970faa0008d492d6,4,,,,,,stool,,,,,,,,,,,2,1,0,12,12,16,1,,,,,,,,,,,,,,,,,,,,,,,,,,,,,,,,,,,,,,,,,,,,,,,,,,,,,,,,,,,,,,,,,,,,,,
,,?,0.001315,0,,,,,,stimuli/images/PICTURE_383.png,SERIES,5d9de18052f653001591da95,23/05/1946,2020-07-09_21h03.42.982,proactive,2020.1.2,Win32,60,5f073de81c76c3308c0e4fb3,5f0777df970faa0008d492d6,4,,,,,,coin,,,,,,,,,,,5,1,0,13,13,46,1,,,,,,,,,,,,,,,,,,,,,,,,,,,,,,,,,,,,,,,,,,,,,,,,,,,,,,,,,,,,,,,,,,,,,,
,,SYSTEM,15.00714,1,,,,,,stimuli/images/PICTURE_208.png,SYSTEM,5d9de18052f653001591da95,23/05/1946,2020-07-09_21h03.42.982,proactive,2020.1.2,Win32,60,5f073de81c76c3308c0e4fb3,5f0777df970faa0008d492d6,4,,,,,,microphone,,,,,,,,,,,4,1,0,14,14,32,1,,,,,,,,,,,,,,,,,,,,,,,,,,,,,,,,,,,,,,,,,,,,,,,,,,,,,,,,,,,,,,,,,,,,,,
,,?,0.001645,0,,,,,,stimuli/images/PICTURE_95.png,BOYS,5d9de18052f653001591da95,23/05/1946,2020-07-09_21h03.42.982,proactive,2020.1.2,Win32,60,5f073de81c76c3308c0e4fb3,5f0777df970faa0008d492d6,4,,,,,,suitcase,,,,,,,,,,,1,1,0,15,15,1,1,,,,,,,,,,,,,,,,,,,,,,,,,,,,,,,,,,,,,,,,,,,,,,,,,,,,,,,,,,,,,,,,,,,,,,
,,?,0.001605,0,,,,,,stimuli/images/PICTURE_108.png,POLICY,5d9de18052f653001591da95,23/05/1946,2020-07-09_21h03.42.982,proactive,2020.1.2,Win32,60,5f073de81c76c3308c0e4fb3,5f0777df970faa0008d492d6,4,,,,,,calendar,,,,,,,,,,,3,1,0,16,16,22,1,,,,,,,,,,,,,,,,,,,,,,,,,,,,,,,,,,,,,,,,,,,,,,,,,,,,,,,,,,,,,,,,,,,,,,
,,FAMILY,15.006435,1,,,,,,stimuli/images/PICTURE_308.png,FAMILY,5d9de18052f653001591da95,23/05/1946,2020-07-09_21h03.42.982,proactive,2020.1.2,Win32,60,5f073de81c76c3308c0e4fb3,5f0777df970faa0008d492d6,4,,,,,,dice,,,,,,,,,,,4,1,0,17,17,36,1,,,,,,,,,,,,,,,,,,,,,,,,,,,,,,,,,,,,,,,,,,,,,,,,,,,,,,,,,,,,,,,,,,,,,,
,,?,0.00205,0,,,,,,stimuli/images/PICTURE_147.png,WOMEN,5d9de18052f653001591da95,23/05/1946,2020-07-09_21h03.42.982,proactive,2020.1.2,Win32,60,5f073de81c76c3308c0e4fb3,5f0777df970faa0008d492d6,4,,,,,,hanger,,,,,,,,,,,1,1,0,18,18,7,1,,,,,,,,,,,,,,,,,,,,,,,,,,,,,,,,,,,,,,,,,,,,,,,,,,,,,,,,,,,,,,,,,,,,,,
,,?,0.00132,0,,,,,,stimuli/images/PICTURE_504.png,YEAR,5d9de18052f653001591da95,23/05/1946,2020-07-09_21h03.42.982,proactive,2020.1.2,Win32,60,5f073de81c76c3308c0e4fb3,5f0777df970faa0008d492d6,4,,,,,,wheel,,,,,,,,,,,2,1,0,19,19,13,1,,,,,,,,,,,,,,,,,,,,,,,,,,,,,,,,,,,,,,,,,,,,,,,,,,,,,,,,,,,,,,,,,,,,,,
,,?,0.00157,0,,,,,,stimuli/images/PICTURE_449.png,DUDE,5d9de18052f653001591da95,23/05/1946,2020-07-09_21h03.42.982,proactive,2020.1.2,Win32,60,5f073de81c76c3308c0e4fb3,5f0777df970faa0008d492d6,4,,,,,,bench,,,,,,,,,,,2,1,0,20,20,17,1,,,,,,,,,,,,,,,,,,,,,,,,,,,,,,,,,,,,,,,,,,,,,,,,,,,,,,,,,,,,,,,,,,,,,,
,,?,0.00133,0,,,,,,stimuli/images/PICTURE_233.png,LOTS,5d9de18052f653001591da95,23/05/1946,2020-07-09_21h03.42.982,proactive,2020.1.2,Win32,60,5f073de81c76c3308c0e4fb3,5f0777df970faa0008d492d6,4,,,,,,salt,,,,,,,,,,,5,1,0,21,21,42,1,,,,,,,,,,,,,,,,,,,,,,,,,,,,,,,,,,,,,,,,,,,,,,,,,,,,,,,,,,,,,,,,,,,,,,
,,?,15.0149,0,,,,,,stimuli/images/PICTURE_68.png,ROOF,5d9de18052f653001591da95,23/05/1946,2020-07-09_21h03.42.982,proactive,2020.1.2,Win32,60,5f073de81c76c3308c0e4fb3,5f0777df970faa0008d492d6,4,,,,,,candle,,,,,,,,,,,4,1,0,22,22,38,1,,,,,,,,,,,,,,,,,,,,,,,,,,,,,,,,,,,,,,,,,,,,,,,,,,,,,,,,,,,,,,,,,,,,,,
,,?,0.00117,0,,,,,,stimuli/images/PICTURE_85.png,NATION,5d9de18052f653001591da95,23/05/1946,2020-07-09_21h03.42.982,proactive,2020.1.2,Win32,60,5f073de81c76c3308c0e4fb3,5f0777df970faa0008d492d6,4,,,,,,diamond,,,,,,,,,,,1,1,0,23,23,5,1,,,,,,,,,,,,,,,,,,,,,,,,,,,,,,,,,,,,,,,,,,,,,,,,,,,,,,,,,,,,,,,,,,,,,,
,,?,0.001125,0,,,,,,stimuli/images/PICTURE_95.png,HONEY,5d9de18052f653001591da95,23/05/1946,2020-07-09_21h03.42.982,proactive,2020.1.2,Win32,60,5f073de81c76c3308c0e4fb3,5f0777df970faa0008d492d6,4,,,,,,suitcase,,,,,,,,,,,5,1,0,24,24,44,1,,,,,,,,,,,,,,,,,,,,,,,,,,,,,,,,,,,,,,,,,,,,,,,,,,,,,,,,,,,,,,,,,,,,,,
,,?,0.001095,0,,,,,,stimuli/images/PICTURE_327.png,SERIES,5d9de18052f653001591da95,23/05/1946,2020-07-09_21h03.42.982,proactive,2020.1.2,Win32,60,5f073de81c76c3308c0e4fb3,5f0777df970faa0008d492d6,4,,,,,,helmet,,,,,,,,,,,1,1,0,25,25,3,1,,,,,,,,,,,,,,,,,,,,,,,,,,,,,,,,,,,,,,,,,,,,,,,,,,,,,,,,,,,,,,,,,,,,,,
,,?,0.001115,0,,,,,,stimuli/images/PICTURE_677.png,APPLE,5d9de18052f653001591da95,23/05/1946,2020-07-09_21h03.42.982,proactive,2020.1.2,Win32,60,5f073de81c76c3308c0e4fb3,5f0777df970faa0008d492d6,4,,,,,,map,,,,,,,,,,,5,1,0,26,26,43,1,,,,,,,,,,,,,,,,,,,,,,,,,,,,,,,,,,,,,,,,,,,,,,,,,,,,,,,,,,,,,,,,,,,,,,
,,?,0.001055,0,,,,,,stimuli/images/PICTURE_85.png,TOILET,5d9de18052f653001591da95,23/05/1946,2020-07-09_21h03.42.982,proactive,2020.1.2,Win32,60,5f073de81c76c3308c0e4fb3,5f0777df970faa0008d492d6,4,,,,,,diamond,,,,,,,,,,,5,1,0,27,27,48,1,,,,,,,,,,,,,,,,,,,,,,,,,,,,,,,,,,,,,,,,,,,,,,,,,,,,,,,,,,,,,,,,,,,,,,
,,?,0.00129,0,,,,,,stimuli/images/PICTURE_467.png,POLICY,5d9de18052f653001591da95,23/05/1946,2020-07-09_21h03.42.982,proactive,2020.1.2,Win32,60,5f073de81c76c3308c0e4fb3,5f0777df970faa0008d492d6,4,,,,,,peg,,,,,,,,,,,6,1,0,28,28,53,1,,,,,,,,,,,,,,,,,,,,,,,,,,,,,,,,,,,,,,,,,,,,,,,,,,,,,,,,,,,,,,,,,,,,,,
,,RIVER,15.012855,1,,,,,,stimuli/images/PICTURE_297.png,RIVER,5d9de18052f653001591da95,23/05/1946,2020-07-09_21h03.42.982,proactive,2020.1.2,Win32,60,5f073de81c76c3308c0e4fb3,5f0777df970faa0008d492d6,4,,,,,,aeroplane,,,,,,,,,,,4,1,0,29,29,39,1,,,,,,,,,,,,,,,,,,,,,,,,,,,,,,,,,,,,,,,,,,,,,,,,,,,,,,,,,,,,,,,,,,,,,,
,,?,0.002205,0,,,,,,stimuli/images/PICTURE_32.png,PILLS,5d9de18052f653001591da95,23/05/1946,2020-07-09_21h03.42.982,proactive,2020.1.2,Win32,60,5f073de81c76c3308c0e4fb3,5f0777df970faa0008d492d6,4,,,,,,crown,,,,,,,,,,,2,1,0,30,30,18,1,,,,,,,,,,,,,,,,,,,,,,,,,,,,,,,,,,,,,,,,,,,,,,,,,,,,,,,,,,,,,,,,,,,,,,
,,?,0.00121,0,,,,,,stimuli/images/PICTURE_655.png,TOILET,5d9de18052f653001591da95,23/05/1946,2020-07-09_21h03.42.982,proactive,2020.1.2,Win32,60,5f073de81c76c3308c0e4fb3,5f0777df970faa0008d492d6,4,,,,,,megaphone,,,,,,,,,,,2,1,0,31,31,12,1,,,,,,,,,,,,,,,,,,,,,,,,,,,,,,,,,,,,,,,,,,,,,,,,,,,,,,,,,,,,,,,,,,,,,,
,,?,15.00817,0,,,,,,stimuli/images/PICTURE_57.png,MOMENT,5d9de18052f653001591da95,23/05/1946,2020-07-09_21h03.42.982,proactive,2020.1.2,Win32,60,5f073de81c76c3308c0e4fb3,5f0777df970faa0008d492d6,4,,,,,,stamp,,,,,,,,,,,4,1,0,32,32,37,1,,,,,,,,,,,,,,,,,,,,,,,,,,,,,,,,,,,,,,,,,,,,,,,,,,,,,,,,,,,,,,,,,,,,,,
,,?,0.00106,0,,,,,,stimuli/images/PICTURE_108.png,FLIGHT,5d9de18052f653001591da95,23/05/1946,2020-07-09_21h03.42.982,proactive,2020.1.2,Win32,60,5f073de81c76c3308c0e4fb3,5f0777df970faa0008d492d6,4,,,,,,calendar,,,,,,,,,,,6,1,0,33,33,59,1,,,,,,,,,,,,,,,,,,,,,,,,,,,,,,,,,,,,,,,,,,,,,,,,,,,,,,,,,,,,,,,,,,,,,,
,,?,0.000965,0,,,,,,stimuli/images/PICTURE_296.png,LIFE,5d9de18052f653001591da95,23/05/1946,2020-07-09_21h03.42.982,proactive,2020.1.2,Win32,60,5f073de81c76c3308c0e4fb3,5f0777df970faa0008d492d6,4,,,,,,bolt,,,,,,,,,,,6,1,0,34,34,57,1,,,,,,,,,,,,,,,,,,,,,,,,,,,,,,,,,,,,,,,,,,,,,,,,,,,,,,,,,,,,,,,,,,,,,,
,,?,0.001055,0,,,,,,stimuli/images/PICTURE_68.png,MILE,5d9de18052f653001591da95,23/05/1946,2020-07-09_21h03.42.982,proactive,2020.1.2,Win32,60,5f073de81c76c3308c0e4fb3,5f0777df970faa0008d492d6,4,,,,,,candle,,,,,,,,,,,6,1,0,35,35,51,1,,,,,,,,,,,,,,,,,,,,,,,,,,,,,,,,,,,,,,,,,,,,,,,,,,,,,,,,,,,,,,,,,,,,,,
,,?,0.001015,0,,,,,,stimuli/images/PICTURE_383.png,WRITER,5d9de18052f653001591da95,23/05/1946,2020-07-09_21h03.42.982,proactive,2020.1.2,Win32,60,5f073de81c76c3308c0e4fb3,5f0777df970faa0008d492d6,4,,,,,,coin,,,,,,,,,,,3,1,0,36,36,28,1,,,,,,,,,,,,,,,,,,,,,,,,,,,,,,,,,,,,,,,,,,,,,,,,,,,,,,,,,,,,,,,,,,,,,,
,,?,0.00097,0,,,,,,stimuli/images/PICTURE_675.png,SALE,5d9de18052f653001591da95,23/05/1946,2020-07-09_21h03.42.982,proactive,2020.1.2,Win32,60,5f073de81c76c3308c0e4fb3,5f0777df970faa0008d492d6,4,,,,,,windmill,,,,,,,,,,,5,1,0,37,37,47,1,,,,,,,,,,,,,,,,,,,,,,,,,,,,,,,,,,,,,,,,,,,,,,,,,,,,,,,,,,,,,,,,,,,,,,
,,?,0.00099,0,,,,,,stimuli/images/PICTURE_403.png,RIVER,5d9de18052f653001591da95,23/05/1946,2020-07-09_21h03.42.982,proactive,2020.1.2,Win32,60,5f073de81c76c3308c0e4fb3,5f0777df970faa0008d492d6,4,,,,,,cathedral,,,,,,,,,,,5,1,0,38,38,40,1,,,,,,,,,,,,,,,,,,,,,,,,,,,,,,,,,,,,,,,,,,,,,,,,,,,,,,,,,,,,,,,,,,,,,,
,,?,0.000995,0,,,,,,stimuli/images/PICTURE_491.png,GLASS,5d9de18052f653001591da95,23/05/1946,2020-07-09_21h03.42.982,proactive,2020.1.2,Win32,60,5f073de81c76c3308c0e4fb3,5f0777df970faa0008d492d6,4,,,,,,rug,,,,,,,,,,,2,1,0,39,39,14,1,,,,,,,,,,,,,,,,,,,,,,,,,,,,,,,,,,,,,,,,,,,,,,,,,,,,,,,,,,,,,,,,,,,,,,
,,?,0.001055,0,,,,,,stimuli/images/PICTURE_744.png,WEAPON,5d9de18052f653001591da95,23/05/1946,2020-07-09_21h03.42.982,proactive,2020.1.2,Win32,60,5f073de81c76c3308c0e4fb3,5f0777df970faa0008d492d6,4,,,,,,ring,,,,,,,,,,,6,1,0,40,40,50,1,,,,,,,,,,,,,,,,,,,,,,,,,,,,,,,,,,,,,,,,,,,,,,,,,,,,,,,,,,,,,,,,,,,,,,
,,?,0.001025,0,,,,,,stimuli/images/PICTURE_147.png,YEAR,5d9de18052f653001591da95,23/05/1946,2020-07-09_21h03.42.982,proactive,2020.1.2,Win32,60,5f073de81c76c3308c0e4fb3,5f0777df970faa0008d492d6,4,,,,,,hanger,,,,,,,,,,,3,1,0,41,41,21,1,,,,,,,,,,,,,,,,,,,,,,,,,,,,,,,,,,,,,,,,,,,,,,,,,,,,,,,,,,,,,,,,,,,,,,
,,?,15.00516,0,,,,,,stimuli/images/PICTURE_403.png,WRITER,5d9de18052f653001591da95,23/05/1946,2020-07-09_21h03.42.982,proactive,2020.1.2,Win32,60,5f073de81c76c3308c0e4fb3,5f0777df970faa0008d492d6,4,,,,,,cathedral,,,,,,,,,,,4,1,0,42,42,31,1,,,,,,,,,,,,,,,,,,,,,,,,,,,,,,,,,,,,,,,,,,,,,,,,,,,,,,,,,,,,,,,,,,,,,,
,,?,0.002095,0,,,,,,stimuli/images/PICTURE_685.png,PENNY,5d9de18052f653001591da95,23/05/1946,2020-07-09_21h03.42.982,proactive,2020.1.2,Win32,60,5f073de81c76c3308c0e4fb3,5f0777df970faa0008d492d6,4,,,,,,goose,,,,,,,,,,,1,1,0,43,43,4,1,,,,,,,,,,,,,,,,,,,,,,,,,,,,,,,,,,,,,,,,,,,,,,,,,,,,,,,,,,,,,,,,,,,,,,
,,?,0.0015,0,,,,,,stimuli/images/PICTURE_33.png,FRIEND,5d9de18052f653001591da95,23/05/1946,2020-07-09_21h03.42.982,proactive,2020.1.2,Win32,60,5f073de81c76c3308c0e4fb3,5f0777df970faa0008d492d6,4,,,,,,frame,,,,,,,,,,,1,1,0,44,44,8,1,,,,,,,,,,,,,,,,,,,,,,,,,,,,,,,,,,,,,,,,,,,,,,,,,,,,,,,,,,,,,,,,,,,,,,
,,?,0.00153,0,,,,,,stimuli/images/PICTURE_564.png,BATH,5d9de18052f653001591da95,23/05/1946,2020-07-09_21h03.42.982,proactive,2020.1.2,Win32,60,5f073de81c76c3308c0e4fb3,5f0777df970faa0008d492d6,4,,,,,,spoon,,,,,,,,,,,3,1,0,45,45,26,1,,,,,,,,,,,,,,,,,,,,,,,,,,,,,,,,,,,,,,,,,,,,,,,,,,,,,,,,,,,,,,,,,,,,,,
,,?,0.00145,0,,,,,,stimuli/images/PICTURE_380.png,CANDY,5d9de18052f653001591da95,23/05/1946,2020-07-09_21h03.42.982,proactive,2020.1.2,Win32,60,5f073de81c76c3308c0e4fb3,5f0777df970faa0008d492d6,4,,,,,,gorilla,,,,,,,,,,,1,1,0,46,46,0,1,,,,,,,,,,,,,,,,,,,,,,,,,,,,,,,,,,,,,,,,,,,,,,,,,,,,,,,,,,,,,,,,,,,,,,
,,?,0.001565,0,,,,,,stimuli/images/PICTURE_2.png,FLIGHT,5d9de18052f653001591da95,23/05/1946,2020-07-09_21h03.42.982,proactive,2020.1.2,Win32,60,5f073de81c76c3308c0e4fb3,5f0777df970faa0008d492d6,4,,,,,,tyre,,,,,,,,,,,2,1,0,47,47,15,1,,,,,,,,,,,,,,,,,,,,,,,,,,,,,,,,,,,,,,,,,,,,,,,,,,,,,,,,,,,,,,,,,,,,,,
,,?,0.00146,0,,,,,,stimuli/images/PICTURE_504.png,COPS,5d9de18052f653001591da95,23/05/1946,2020-07-09_21h03.42.982,proactive,2020.1.2,Win32,60,5f073de81c76c3308c0e4fb3,5f0777df970faa0008d492d6,4,,,,,,wheel,,,,,,,,,,,6,1,0,48,48,52,1,,,,,,,,,,,,,,,,,,,,,,,,,,,,,,,,,,,,,,,,,,,,,,,,,,,,,,,,,,,,,,,,,,,,,,
,,?,0.00144,0,,,,,,stimuli/images/PICTURE_487.png,GIRL,5d9de18052f653001591da95,23/05/1946,2020-07-09_21h03.42.982,proactive,2020.1.2,Win32,60,5f073de81c76c3308c0e4fb3,5f0777df970faa0008d492d6,4,,,,,,basket,,,,,,,,,,,5,1,0,49,49,45,1,,,,,,,,,,,,,,,,,,,,,,,,,,,,,,,,,,,,,,,,,,,,,,,,,,,,,,,,,,,,,,,,,,,,,,
,,?,0.001365,0,,,,,,stimuli/images/PICTURE_403.png,TOILET,5d9de18052f653001591da95,23/05/1946,2020-07-09_21h03.42.982,proactive,2020.1.2,Win32,60,5f073de81c76c3308c0e4fb3,5f0777df970faa0008d492d6,4,,,,,,cathedral,,,,,,,,,,,3,1,0,50,50,25,1,,,,,,,,,,,,,,,,,,,,,,,,,,,,,,,,,,,,,,,,,,,,,,,,,,,,,,,,,,,,,,,,,,,,,,
,,KIND,15.015975,1,,,,,,stimuli/images/PICTURE_32.png,KIND,5d9de18052f653001591da95,23/05/1946,2020-07-09_21h03.42.982,proactive,2020.1.2,Win32,60,5f073de81c76c3308c0e4fb3,5f0777df970faa0008d492d6,4,,,,,,crown,,,,,,,,,,,4,1,0,51,51,35,1,,,,,,,,,,,,,,,,,,,,,,,,,,,,,,,,,,,,,,,,,,,,,,,,,,,,,,,,,,,,,,,,,,,,,,
,,?,0.00111,0,,,,,,stimuli/images/PICTURE_42.png,BOYS,5d9de18052f653001591da95,23/05/1946,2020-07-09_21h03.42.982,proactive,2020.1.2,Win32,60,5f073de81c76c3308c0e4fb3,5f0777df970faa0008d492d6,4,,,,,,pear,,,,,,,,,,,6,1,0,52,52,55,1,,,,,,,,,,,,,,,,,,,,,,,,,,,,,,,,,,,,,,,,,,,,,,,,,,,,,,,,,,,,,,,,,,,,,,
,,?,0.00103,0,,,,,,stimuli/images/PICTURE_95.png,MILLER,5d9de18052f653001591da95,23/05/1946,2020-07-09_21h03.42.982,proactive,2020.1.2,Win32,60,5f073de81c76c3308c0e4fb3,5f0777df970faa0008d492d6,4,,,,,,suitcase,,,,,,,,,,,6,1,0,53,53,56,1,,,,,,,,,,,,,,,,,,,,,,,,,,,,,,,,,,,,,,,,,,,,,,,,,,,,,,,,,,,,,,,,,,,,,,
,,?,0.00112,0,,,,,,stimuli/images/PICTURE_296.png,LOTS,5d9de18052f653001591da95,23/05/1946,2020-07-09_21h03.42.982,proactive,2020.1.2,Win32,60,5f073de81c76c3308c0e4fb3,5f0777df970faa0008d492d6,4,,,,,,bolt,,,,,,,,,,,1,1,0,54,54,9,1,,,,,,,,,,,,,,,,,,,,,,,,,,,,,,,,,,,,,,,,,,,,,,,,,,,,,,,,,,,,,,,,,,,,,,
,,?,0.001165,0,,,,,,stimuli/images/PICTURE_750.png,HOTEL,5d9de18052f653001591da95,23/05/1946,2020-07-09_21h03.42.982,proactive,2020.1.2,Win32,60,5f073de81c76c3308c0e4fb3,5f0777df970faa0008d492d6,4,,,,,,kettle,,,,,,,,,,,3,1,0,55,55,27,1,,,,,,,,,,,,,,,,,,,,,,,,,,,,,,,,,,,,,,,,,,,,,,,,,,,,,,,,,,,,,,,,,,,,,,
,,?,0.00101,0,,,,,,stimuli/images/PICTURE_708.png,RECORD,5d9de18052f653001591da95,23/05/1946,2020-07-09_21h03.42.982,proactive,2020.1.2,Win32,60,5f073de81c76c3308c0e4fb3,5f0777df970faa0008d492d6,4,,,,,,monkey,,,,,,,,,,,6,1,0,56,56,58,1,,,,,,,,,,,,,,,,,,,,,,,,,,,,,,,,,,,,,,,,,,,,,,,,,,,,,,,,,,,,,,,,,,,,,,
,,?,0.001035,0,,,,,,stimuli/images/PICTURE_340.png,LETTER,5d9de18052f653001591da95,23/05/1946,2020-07-09_21h03.42.982,proactive,2020.1.2,Win32,60,5f073de81c76c3308c0e4fb3,5f0777df970faa0008d492d6,4,,,,,,mirror,,,,,,,,,,,3,1,0,57,57,24,1,,,,,,,,,,,,,,,,,,,,,,,,,,,,,,,,,,,,,,,,,,,,,,,,,,,,,,,,,,,,,,,,,,,,,,
,,?,0.00154,0,,,,,,stimuli/images/PICTURE_405.png,PLENTY,5d9de18052f653001591da95,23/05/1946,2020-07-09_21h03.42.982,proactive,2020.1.2,Win32,60,5f073de81c76c3308c0e4fb3,5f0777df970faa0008d492d6,4,,,,,,anchor,,,,,,,,,,,3,1,0,58,58,23,1,,,,,,,,,,,,,,,,,,,,,,,,,,,,,,,,,,,,,,,,,,,,,,,,,,,,,,,,,,,,,,,,,,,,,,
,,?,0.001775,0,,,,,,stimuli/images/PICTURE_340.png,VALLEY,5d9de18052f653001591da95,23/05/1946,2020-07-09_21h03.42.982,proactive,2020.1.2,Win32,60,5f073de81c76c3308c0e4fb3,5f0777df970faa0008d492d6,4,,,,,,mirror,,,,,,,,,,,6,1,0,59,59,54,1,,,,,,,,,,,,,,,,,,,,,,,,,,,,,,,,,,,,,,,,,,,,,,,,,,,,,,,,,,,,,,,,,,,,,,
,,,,,,,,,,,,5d9de18052f653001591da95,23/05/1946,2020-07-09_21h03.42.982,proactive,2020.1.2,Win32,60,5f073de81c76c3308c0e4fb3,5f0777df970faa0008d492d6,4,,,,,,,,,,,,,,,,,,,,,,,,0,0,0,1,1,stimuli/learn-block2.csv,,,,,,,,,,,,,,,,,,,,,,,,,,,,,,,,,,,,,,,,,,,,,,,,,,,,,,,,,,,,,,,,
,,,,,,,,,,stimuli/images/PICTURE_2.png,JUNGLE,5d9de18052f653001591da95,23/05/1946,2020-07-09_21h03.42.982,proactive,2020.1.2,Win32,60,5f073de81c76c3308c0e4fb3,5f0777df970faa0008d492d6,4,,,,,,tyre,,,,,,0,0,0,1,1,1,2,,,,,,,,,,,,,,,,,,,,,,,,,,,,,,,,,,,,,,,,,,,,,,,,,,,,,,,,,,,,,,,,,,,,,,,,,,,
,,,,,,,,,,stimuli/images/PICTURE_215.png,FOOD,5d9de18052f653001591da95,23/05/1946,2020-07-09_21h03.42.982,proactive,2020.1.2,Win32,60,5f073de81c76c3308c0e4fb3,5f0777df970faa0008d492d6,4,,,,,,boot,,,,,,0,1,1,5,1,1,2,,,,,,,,,,,,,,,,,,,,,,,,,,,,,,,,,,,,,,,,,,,,,,,,,,,,,,,,,,,,,,,,,,,,,,,,,,,
,,,,,,,,,,stimuli/images/PICTURE_403.png,FAMILY,5d9de18052f653001591da95,23/05/1946,2020-07-09_21h03.42.982,proactive,2020.1.2,Win32,60,5f073de81c76c3308c0e4fb3,5f0777df970faa0008d492d6,4,,,,,,cathedral,,,,,,0,2,2,9,1,1,2,,,,,,,,,,,,,,,,,,,,,,,,,,,,,,,,,,,,,,,,,,,,,,,,,,,,,,,,,,,,,,,,,,,,,,,,,,,
,,,,,,,,,,stimuli/images/PICTURE_57.png,CASINO,5d9de18052f653001591da95,23/05/1946,2020-07-09_21h03.42.982,proactive,2020.1.2,Win32,60,5f073de81c76c3308c0e4fb3,5f0777df970faa0008d492d6,4,,,,,,stamp,,,,,,0,3,3,12,1,2,2,,,,,,,,,,,,,,,,,,,,,,,,,,,,,,,,,,,,,,,,,,,,,,,,,,,,,,,,,,,,,,,,,,,,,,,,,,,
,,,,,,,,,,stimuli/images/PICTURE_255.png,PENNY,5d9de18052f653001591da95,23/05/1946,2020-07-09_21h03.42.982,proactive,2020.1.2,Win32,60,5f073de81c76c3308c0e4fb3,5f0777df970faa0008d492d6,4,,,,,,shovel,,,,,,0,4,4,19,1,2,2,,,,,,,,,,,,,,,,,,,,,,,,,,,,,,,,,,,,,,,,,,,,,,,,,,,,,,,,,,,,,,,,,,,,,,,,,,,
,,,,,,,,,,stimuli/images/PICTURE_750.png,POLICY,5d9de18052f653001591da95,23/05/1946,2020-07-09_21h03.42.982,proactive,2020.1.2,Win32,60,5f073de81c76c3308c0e4fb3,5f0777df970faa0008d492d6,4,,,,,,kettle,,,,,,0,5,5,44,1,5,2,,,,,,,,,,,,,,,,,,,,,,,,,,,,,,,,,,,,,,,,,,,,,,,,,,,,,,,,,,,,,,,,,,,,,,,,,,,
,,,,,,,,,,stimuli/images/PICTURE_314.png,SPEECH,5d9de18052f653001591da95,23/05/1946,2020-07-09_21h03.42.982,proactive,2020.1.2,Win32,60,5f073de81c76c3308c0e4fb3,5f0777df970faa0008d492d6,4,,,,,,perfume,,,,,,0,6,6,35,1,4,2,,,,,,,,,,,,,,,,,,,,,,,,,,,,,,,,,,,,,,,,,,,,,,,,,,,,,,,,,,,,,,,,,,,,,,,,,,,
,,,,,,,,,,stimuli/images/PICTURE_18.png,RIVER,5d9de18052f653001591da95,23/05/1946,2020-07-09_21h03.42.982,proactive,2020.1.2,Win32,60,5f073de81c76c3308c0e4fb3,5f0777df970faa0008d492d6,4,,,,,,planet,,,,,,0,7,7,22,1,3,2,,,,,,,,,,,,,,,,,,,,,,,,,,,,,,,,,,,,,,,,,,,,,,,,,,,,,,,,,,,,,,,,,,,,,,,,,,,
,,,,,,,,,,stimuli/images/PICTURE_655.png,SALE,5d9de18052f653001591da95,23/05/1946,2020-07-09_21h03.42.982,proactive,2020.1.2,Win32,60,5f073de81c76c3308c0e4fb3,5f0777df970faa0008d492d6,4,,,,,,megaphone,,,,,,0,8,8,57,1,6,2,,,,,,,,,,,,,,,,,,,,,,,,,,,,,,,,,,,,,,,,,,,,,,,,,,,,,,,,,,,,,,,,,,,,,,,,,,,
,,,,,,,,,,stimuli/images/PICTURE_95.png,NIGHT,5d9de18052f653001591da95,23/05/1946,2020-07-09_21h03.42.982,proactive,2020.1.2,Win32,60,5f073de81c76c3308c0e4fb3,5f0777df970faa0008d492d6,4,,,,,,suitcase,,,,,,0,9,9,37,1,4,2,,,,,,,,,,,,,,,,,,,,,,,,,,,,,,,,,,,,,,,,,,,,,,,,,,,,,,,,,,,,,,,,,,,,,,,,,,,
,,,,,,,,,,stimuli/images/PICTURE_564.png,PLENTY,5d9de18052f653001591da95,23/05/1946,2020-07-09_21h03.42.982,proactive,2020.1.2,Win32,60,5f073de81c76c3308c0e4fb3,5f0777df970faa0008d492d6,4,,,,,,spoon,,,,,,0,10,10,11,1,2,2,,,,,,,,,,,,,,,,,,,,,,,,,,,,,,,,,,,,,,,,,,,,,,,,,,,,,,,,,,,,,,,,,,,,,,,,,,,
,,,,,,,,,,stimuli/images/PICTURE_285.png,PRINCE,5d9de18052f653001591da95,23/05/1946,2020-07-09_21h03.42.982,proactive,2020.1.2,Win32,60,5f073de81c76c3308c0e4fb3,5f0777df970faa0008d492d6,4,,,,,,carrot,,,,,,0,11,11,20,1,3,2,,,,,,,,,,,,,,,,,,,,,,,,,,,,,,,,,,,,,,,,,,,,,,,,,,,,,,,,,,,,,,,,,,,,,,,,,,,
,,,,,,,,,,stimuli/images/PICTURE_147.png,LEADER,5d9de18052f653001591da95,23/05/1946,2020-07-09_21h03.42.982,proactive,2020.1.2,Win32,60,5f073de81c76c3308c0e4fb3,5f0777df970faa0008d492d6,4,,,,,,hanger,,,,,,0,12,12,33,1,4,2,,,,,,,,,,,,,,,,,,,,,,,,,,,,,,,,,,,,,,,,,,,,,,,,,,,,,,,,,,,,,,,,,,,,,,,,,,,
,,,,,,,,,,stimuli/images/PICTURE_509.png,MILLER,5d9de18052f653001591da95,23/05/1946,2020-07-09_21h03.42.982,proactive,2020.1.2,Win32,60,5f073de81c76c3308c0e4fb3,5f0777df970faa0008d492d6,4,,,,,,telephone,,,,,,0,13,13,49,1,5,2,,,,,,,,,,,,,,,,,,,,,,,,,,,,,,,,,,,,,,,,,,,,,,,,,,,,,,,,,,,,,,,,,,,,,,,,,,,
,,,,,,,,,,stimuli/images/PICTURE_33.png,COPS,5d9de18052f653001591da95,23/05/1946,2020-07-09_21h03.42.982,proactive,2020.1.2,Win32,60,5f073de81c76c3308c0e4fb3,5f0777df970faa0008d492d6,4,,,,,,frame,,,,,,0,14,14,29,1,3,2,,,,,,,,,,,,,,,,,,,,,,,,,,,,,,,,,,,,,,,,,,,,,,,,,,,,,,,,,,,,,,,,,,,,,,,,,,,
,,,,,,,,,,stimuli/images/PICTURE_93.png,GIRL,5d9de18052f653001591da95,23/05/1946,2020-07-09_21h03.42.982,proactive,2020.1.2,Win32,60,5f073de81c76c3308c0e4fb3,5f0777df970faa0008d492d6,4,,,,,,skateboard,,,,,,0,15,15,31,1,4,2,,,,,,,,,,,,,,,,,,,,,,,,,,,,,,,,,,,,,,,,,,,,,,,,,,,,,,,,,,,,,,,,,,,,,,,,,,,
,,,,,,,,,,stimuli/images/PICTURE_296.png,CLOCK,5d9de18052f653001591da95,23/05/1946,2020-07-09_21h03.42.982,proactive,2020.1.2,Win32,60,5f073de81c76c3308c0e4fb3,5f0777df970faa0008d492d6,4,,,,,,bolt,,,,,,0,16,16,18,1,2,2,,,,,,,,,,,,,,,,,,,,,,,,,,,,,,,,,,,,,,,,,,,,,,,,,,,,,,,,,,,,,,,,,,,,,,,,,,,
,,,,,,,,,,stimuli/images/PICTURE_215.png,LEADER,5d9de18052f653001591da95,23/05/1946,2020-07-09_21h03.42.982,proactive,2020.1.2,Win32,60,5f073de81c76c3308c0e4fb3,5f0777df970faa0008d492d6,4,,,,,,boot,,,,,,0,17,17,43,1,5,2,,,,,,,,,,,,,,,,,,,,,,,,,,,,,,,,,,,,,,,,,,,,,,,,,,,,,,,,,,,,,,,,,,,,,,,,,,,
,,,,,,,,,,stimuli/images/PICTURE_453.png,FAMILY,5d9de18052f653001591da95,23/05/1946,2020-07-09_21h03.42.982,proactive,2020.1.2,Win32,60,5f073de81c76c3308c0e4fb3,5f0777df970faa0008d492d6,4,,,,,,scissors,,,,,,0,18,18,48,1,5,2,,,,,,,,,,,,,,,,,,,,,,,,,,,,,,,,,,,,,,,,,,,,,,,,,,,,,,,,,,,,,,,,,,,,,,,,,,,
,,,,,,,,,,stimuli/images/PICTURE_677.png,FAMILY,5d9de18052f653001591da95,23/05/1946,2020-07-09_21h03.42.982,proactive,2020.1.2,Win32,60,5f073de81c76c3308c0e4fb3,5f0777df970faa0008d492d6,4,,,,,,map,,,,,,0,19,19,53,1,6,2,,,,,,,,,,,,,,,,,,,,,,,,,,,,,,,,,,,,,,,,,,,,,,,,,,,,,,,,,,,,,,,,,,,,,,,,,,,
,,,,,,,,,,stimuli/images/PICTURE_509.png,SHOTS,5d9de18052f653001591da95,23/05/1946,2020-07-09_21h03.42.982,proactive,2020.1.2,Win32,60,5f073de81c76c3308c0e4fb3,5f0777df970faa0008d492d6,4,,,,,,telephone,,,,,,0,20,20,7,1,1,2,,,,,,,,,,,,,,,,,,,,,,,,,,,,,,,,,,,,,,,,,,,,,,,,,,,,,,,,,,,,,,,,,,,,,,,,,,,
,,,,,,,,,,stimuli/images/PICTURE_348.png,TOILET,5d9de18052f653001591da95,23/05/1946,2020-07-09_21h03.42.982,proactive,2020.1.2,Win32,60,5f073de81c76c3308c0e4fb3,5f0777df970faa0008d492d6,4,,,,,,pepper,,,,,,0,21,21,4,1,1,2,,,,,,,,,,,,,,,,,,,,,,,,,,,,,,,,,,,,,,,,,,,,,,,,,,,,,,,,,,,,,,,,,,,,,,,,,,,
,,,,,,,,,,stimuli/images/PICTURE_692.png,DUDE,5d9de18052f653001591da95,23/05/1946,2020-07-09_21h03.42.982,proactive,2020.1.2,Win32,60,5f073de81c76c3308c0e4fb3,5f0777df970faa0008d492d6,4,,,,,,cherry,,,,,,0,22,22,47,1,5,2,,,,,,,,,,,,,,,,,,,,,,,,,,,,,,,,,,,,,,,,,,,,,,,,,,,,,,,,,,,,,,,,,,,,,,,,,,,
,,,,,,,,,,stimuli/images/PICTURE_285.png,WRITER,5d9de18052f653001591da95,23/05/1946,2020-07-09_21h03.42.982,proactive,2020.1.2,Win32,60,5f073de81c76c3308c0e4fb3,5f0777df970faa0008d492d6,4,,,,,,carrot,,,,,,0,23,23,6,1,1,2,,,,,,,,,,,,,,,,,,,,,,,,,,,,,,,,,,,,,,,,,,,,,,,,,,,,,,,,,,,,,,,,,,,,,,,,,,,
,,,,,,,,,,stimuli/images/PICTURE_654.png,YEAR,5d9de18052f653001591da95,23/05/1946,2020-07-09_21h03.42.982,proactive,2020.1.2,Win32,60,5f073de81c76c3308c0e4fb3,5f0777df970faa0008d492d6,4,,,,,,pencil,,,,,,0,24,24,41,1,5,2,,,,,,,,,,,,,,,,,,,,,,,,,,,,,,,,,,,,,,,,,,,,,,,,,,,,,,,,,,,,,,,,,,,,,,,,,,,
,,,,,,,,,,stimuli/images/PICTURE_2.png,YARD,5d9de18052f653001591da95,23/05/1946,2020-07-09_21h03.42.982,proactive,2020.1.2,Win32,60,5f073de81c76c3308c0e4fb3,5f0777df970faa0008d492d6,4,,,,,,tyre,,,,,,0,25,25,55,1,6,2,,,,,,,,,,,,,,,,,,,,,,,,,,,,,,,,,,,,,,,,,,,,,,,,,,,,,,,,,,,,,,,,,,,,,,,,,,,
,,,,,,,,,,stimuli/images/PICTURE_32.png,LETTER,5d9de18052f653001591da95,23/05/1946,2020-07-09_21h03.42.982,proactive,2020.1.2,Win32,60,5f073de81c76c3308c0e4fb3,5f0777df970faa0008d492d6,4,,,,,,crown,,,,,,0,26,26,56,1,6,2,,,,,,,,,,,,,,,,,,,,,,,,,,,,,,,,,,,,,,,,,,,,,,,,,,,,,,,,,,,,,,,,,,,,,,,,,,,
,,,,,,,,,,stimuli/images/PICTURE_509.png,APPLE,5d9de18052f653001591da95,23/05/1946,2020-07-09_21h03.42.982,proactive,2020.1.2,Win32,60,5f073de81c76c3308c0e4fb3,5f0777df970faa0008d492d6,4,,,,,,telephone,,,,,,0,27,27,38,1,4,2,,,,,,,,,,,,,,,,,,,,,,,,,,,,,,,,,,,,,,,,,,,,,,,,,,,,,,,,,,,,,,,,,,,,,,,,,,,
,,,,,,,,,,stimuli/images/PICTURE_405.png,JUNGLE,5d9de18052f653001591da95,23/05/1946,2020-07-09_21h03.42.982,proactive,2020.1.2,Win32,60,5f073de81c76c3308c0e4fb3,5f0777df970faa0008d492d6,4,,,,,,anchor,,,,,,0,28,28,58,1,6,2,,,,,,,,,,,,,,,,,,,,,,,,,,,,,,,,,,,,,,,,,,,,,,,,,,,,,,,,,,,,,,,,,,,,,,,,,,,
,,,,,,,,,,stimuli/images/PICTURE_327.png,LEADER,5d9de18052f653001591da95,23/05/1946,2020-07-09_21h03.42.982,proactive,2020.1.2,Win32,60,5f073de81c76c3308c0e4fb3,5f0777df970faa0008d492d6,4,,,,,,helmet,,,,,,0,29,29,17,1,2,2,,,,,,,,,,,,,,,,,,,,,,,,,,,,,,,,,,,,,,,,,,,,,,,,,,,,,,,,,,,,,,,,,,,,,,,,,,,
,,,,,,,,,,stimuli/images/PICTURE_123.png,SALE,5d9de18052f653001591da95,23/05/1946,2020-07-09_21h03.42.982,proactive,2020.1.2,Win32,60,5f073de81c76c3308c0e4fb3,5f0777df970faa0008d492d6,4,,,,,,dart,,,,,,0,30,30,8,1,1,2,,,,,,,,,,,,,,,,,,,,,,,,,,,,,,,,,,,,,,,,,,,,,,,,,,,,,,,,,,,,,,,,,,,,,,,,,,,
,,,,,,,,,,stimuli/images/PICTURE_141.png,CLIENT,5d9de18052f653001591da95,23/05/1946,2020-07-09_21h03.42.982,proactive,2020.1.2,Win32,60,5f073de81c76c3308c0e4fb3,5f0777df970faa0008d492d6,4,,,,,,sunflower,,,,,,0,31,31,30,1,4,2,,,,,,,,,,,,,,,,,,,,,,,,,,,,,,,,,,,,,,,,,,,,,,,,,,,,,,,,,,,,,,,,,,,,,,,,,,,
,,,,,,,,,,stimuli/images/PICTURE_470.png,BEAUTY,5d9de18052f653001591da95,23/05/1946,2020-07-09_21h03.42.982,proactive,2020.1.2,Win32,60,5f073de81c76c3308c0e4fb3,5f0777df970faa0008d492d6,4,,,,,,motorbike,,,,,,0,32,32,26,1,3,2,,,,,,,,,,,,,,,,,,,,,,,,,,,,,,,,,,,,,,,,,,,,,,,,,,,,,,,,,,,,,,,,,,,,,,,,,,,
,,,,,,,,,,stimuli/images/PICTURE_677.png,PHOTO,5d9de18052f653001591da95,23/05/1946,2020-07-09_21h03.42.982,proactive,2020.1.2,Win32,60,5f073de81c76c3308c0e4fb3,5f0777df970faa0008d492d6,4,,,,,,map,,,,,,0,33,33,14,1,2,2,,,,,,,,,,,,,,,,,,,,,,,,,,,,,,,,,,,,,,,,,,,,,,,,,,,,,,,,,,,,,,,,,,,,,,,,,,,
,,,,,,,,,,stimuli/images/PICTURE_667.png,GLASS,5d9de18052f653001591da95,23/05/1946,2020-07-09_21h03.42.982,proactive,2020.1.2,Win32,60,5f073de81c76c3308c0e4fb3,5f0777df970faa0008d492d6,4,,,,,,daisy,,,,,,0,34,34,27,1,3,2,,,,,,,,,,,,,,,,,,,,,,,,,,,,,,,,,,,,,,,,,,,,,,,,,,,,,,,,,,,,,,,,,,,,,,,,,,,
,,,,,,,,,,stimuli/images/PICTURE_504.png,HOUSE,5d9de18052f653001591da95,23/05/1946,2020-07-09_21h03.42.982,proactive,2020.1.2,Win32,60,5f073de81c76c3308c0e4fb3,5f0777df970faa0008d492d6,4,,,,,,wheel,,,,,,0,35,35,36,1,4,2,,,,,,,,,,,,,,,,,,,,,,,,,,,,,,,,,,,,,,,,,,,,,,,,,,,,,,,,,,,,,,,,,,,,,,,,,,,
,,,,,,,,,,stimuli/images/PICTURE_311.png,FLESH,5d9de18052f653001591da95,23/05/1946,2020-07-09_21h03.42.982,proactive,2020.1.2,Win32,60,5f073de81c76c3308c0e4fb3,5f0777df970faa0008d492d6,4,,,,,,razor,,,,,,0,36,36,3,1,1,2,,,,,,,,,,,,,,,,,,,,,,,,,,,,,,,,,,,,,,,,,,,,,,,,,,,,,,,,,,,,,,,,,,,,,,,,,,,
,,,,,,,,,,stimuli/images/PICTURE_452.png,COPS,5d9de18052f653001591da95,23/05/1946,2020-07-09_21h03.42.982,proactive,2020.1.2,Win32,60,5f073de81c76c3308c0e4fb3,5f0777df970faa0008d492d6,4,,,,,,watch,,,,,,0,37,37,0,1,1,2,,,,,,,,,,,,,,,,,,,,,,,,,,,,,,,,,,,,,,,,,,,,,,,,,,,,,,,,,,,,,,,,,,,,,,,,,,,
,,,,,,,,,,stimuli/images/PICTURE_509.png,BATH,5d9de18052f653001591da95,23/05/1946,2020-07-09_21h03.42.982,proactive,2020.1.2,Win32,60,5f073de81c76c3308c0e4fb3,5f0777df970faa0008d492d6,4,,,,,,telephone,,,,,,0,38,38,15,1,2,2,,,,,,,,,,,,,,,,,,,,,,,,,,,,,,,,,,,,,,,,,,,,,,,,,,,,,,,,,,,,,,,,,,,,,,,,,,,
,,,,,,,,,,stimuli/images/PICTURE_348.png,DUDE,5d9de18052f653001591da95,23/05/1946,2020-07-09_21h03.42.982,proactive,2020.1.2,Win32,60,5f073de81c76c3308c0e4fb3,5f0777df970faa0008d492d6,4,,,,,,pepper,,,,,,0,39,39,59,1,6,2,,,,,,,,,,,,,,,,,,,,,,,,,,,,,,,,,,,,,,,,,,,,,,,,,,,,,,,,,,,,,,,,,,,,,,,,,,,
,,,,,,,,,,stimuli/images/PICTURE_405.png,HOUSE,5d9de18052f653001591da95,23/05/1946,2020-07-09_21h03.42.982,proactive,2020.1.2,Win32,60,5f073de81c76c3308c0e4fb3,5f0777df970faa0008d492d6,4,,,,,,anchor,,,,,,0,40,40,2,1,1,2,,,,,,,,,,,,,,,,,,,,,,,,,,,,,,,,,,,,,,,,,,,,,,,,,,,,,,,,,,,,,,,,,,,,,,,,,,,
,,,,,,,,,,stimuli/images/PICTURE_208.png,SPIRIT,5d9de18052f653001591da95,23/05/1946,2020-07-09_21h03.42.982,proactive,2020.1.2,Win32,60,5f073de81c76c3308c0e4fb3,5f0777df970faa0008d492d6,4,,,,,,microphone,,,,,,0,41,41,28,1,3,2,,,,,,,,,,,,,,,,,,,,,,,,,,,,,,,,,,,,,,,,,,,,,,,,,,,,,,,,,,,,,,,,,,,,,,,,,,,
,,,,,,,,,,stimuli/images/PICTURE_470.png,MOMENT,5d9de18052f653001591da95,23/05/1946,2020-07-09_21h03.42.982,proactive,2020.1.2,Win32,60,5f073de81c76c3308c0e4fb3,5f0777df970faa0008d492d6,4,,,,,,motorbike,,,,,,0,42,42,40,1,5,2,,,,,,,,,,,,,,,,,,,,,,,,,,,,,,,,,,,,,,,,,,,,,,,,,,,,,,,,,,,,,,,,,,,,,,,,,,,
,,,,,,,,,,stimuli/images/PICTURE_356.png,CANDY,5d9de18052f653001591da95,23/05/1946,2020-07-09_21h03.42.982,proactive,2020.1.2,Win32,60,5f073de81c76c3308c0e4fb3,5f0777df970faa0008d492d6,4,,,,,,pawn,,,,,,0,43,43,46,1,5,2,,,,,,,,,,,,,,,,,,,,,,,,,,,,,,,,,,,,,,,,,,,,,,,,,,,,,,,,,,,,,,,,,,,,,,,,,,,
,,,,,,,,,,stimuli/images/PICTURE_487.png,POLICY,5d9de18052f653001591da95,23/05/1946,2020-07-09_21h03.42.982,proactive,2020.1.2,Win32,60,5f073de81c76c3308c0e4fb3,5f0777df970faa0008d492d6,4,,,,,,basket,,,,,,0,44,44,34,1,4,2,,,,,,,,,,,,,,,,,,,,,,,,,,,,,,,,,,,,,,,,,,,,,,,,,,,,,,,,,,,,,,,,,,,,,,,,,,,
,,,,,,,,,,stimuli/images/PICTURE_215.png,BOYS,5d9de18052f653001591da95,23/05/1946,2020-07-09_21h03.42.982,proactive,2020.1.2,Win32,60,5f073de81c76c3308c0e4fb3,5f0777df970faa0008d492d6,4,,,,,,boot,,,,,,0,45,45,24,1,3,2,,,,,,,,,,,,,,,,,,,,,,,,,,,,,,,,,,,,,,,,,,,,,,,,,,,,,,,,,,,,,,,,,,,,,,,,,,,
,,,,,,,,,,stimuli/images/PICTURE_688.png,CLOCK,5d9de18052f653001591da95,23/05/1946,2020-07-09_21h03.42.982,proactive,2020.1.2,Win32,60,5f073de81c76c3308c0e4fb3,5f0777df970faa0008d492d6,4,,,,,,runner,,,,,,0,46,46,42,1,5,2,,,,,,,,,,,,,,,,,,,,,,,,,,,,,,,,,,,,,,,,,,,,,,,,,,,,,,,,,,,,,,,,,,,,,,,,,,,
,,,,,,,,,,stimuli/images/PICTURE_311.png,TOILET,5d9de18052f653001591da95,23/05/1946,2020-07-09_21h03.42.982,proactive,2020.1.2,Win32,60,5f073de81c76c3308c0e4fb3,5f0777df970faa0008d492d6,4,,,,,,razor,,,,,,0,47,47,54,1,6,2,,,,,,,,,,,,,,,,,,,,,,,,,,,,,,,,,,,,,,,,,,,,,,,,,,,,,,,,,,,,,,,,,,,,,,,,,,,
,,,,,,,,,,stimuli/images/PICTURE_2.png,AREA,5d9de18052f653001591da95,23/05/1946,2020-07-09_21h03.42.982,proactive,2020.1.2,Win32,60,5f073de81c76c3308c0e4fb3,5f0777df970faa0008d492d6,4,,,,,,tyre,,,,,,0,48,48,32,1,4,2,,,,,,,,,,,,,,,,,,,,,,,,,,,,,,,,,,,,,,,,,,,,,,,,,,,,,,,,,,,,,,,,,,,,,,,,,,,
,,,,,,,,,,stimuli/images/PICTURE_491.png,SERIES,5d9de18052f653001591da95,23/05/1946,2020-07-09_21h03.42.982,proactive,2020.1.2,Win32,60,5f073de81c76c3308c0e4fb3,5f0777df970faa0008d492d6,4,,,,,,rug,,,,,,0,49,49,39,1,4,2,,,,,,,,,,,,,,,,,,,,,,,,,,,,,,,,,,,,,,,,,,,,,,,,,,,,,,,,,,,,,,,,,,,,,,,,,,,
,,,,,,,,,,stimuli/images/PICTURE_57.png,NATION,5d9de18052f653001591da95,23/05/1946,2020-07-09_21h03.42.982,proactive,2020.1.2,Win32,60,5f073de81c76c3308c0e4fb3,5f0777df970faa0008d492d6,4,,,,,,stamp,,,,,,0,50,50,21,1,3,2,,,,,,,,,,,,,,,,,,,,,,,,,,,,,,,,,,,,,,,,,,,,,,,,,,,,,,,,,,,,,,,,,,,,,,,,,,,
,,,,,,,,,,stimuli/images/PICTURE_708.png,VALLEY,5d9de18052f653001591da95,23/05/1946,2020-07-09_21h03.42.982,proactive,2020.1.2,Win32,60,5f073de81c76c3308c0e4fb3,5f0777df970faa0008d492d6,4,,,,,,monkey,,,,,,0,51,51,45,1,5,2,,,,,,,,,,,,,,,,,,,,,,,,,,,,,,,,,,,,,,,,,,,,,,,,,,,,,,,,,,,,,,,,,,,,,,,,,,,
,,,,,,,,,,stimuli/images/PICTURE_654.png,COPS,5d9de18052f653001591da95,23/05/1946,2020-07-09_21h03.42.982,proactive,2020.1.2,Win32,60,5f073de81c76c3308c0e4fb3,5f0777df970faa0008d492d6,4,,,,,,pencil,,,,,,0,52,52,10,1,2,2,,,,,,,,,,,,,,,,,,,,,,,,,,,,,,,,,,,,,,,,,,,,,,,,,,,,,,,,,,,,,,,,,,,,,,,,,,,
,,,,,,,,,,stimuli/images/PICTURE_57.png,CANDY,5d9de18052f653001591da95,23/05/1946,2020-07-09_21h03.42.982,proactive,2020.1.2,Win32,60,5f073de81c76c3308c0e4fb3,5f0777df970faa0008d492d6,4,,,,,,stamp,,,,,,0,53,53,52,1,6,2,,,,,,,,,,,,,,,,,,,,,,,,,,,,,,,,,,,,,,,,,,,,,,,,,,,,,,,,,,,,,,,,,,,,,,,,,,,
,,,,,,,,,,stimuli/images/PICTURE_160.png,HOTEL,5d9de18052f653001591da95,23/05/1946,2020-07-09_21h03.42.982,proactive,2020.1.2,Win32,60,5f073de81c76c3308c0e4fb3,5f0777df970faa0008d492d6,4,,,,,,wheelbarrow,,,,,,0,54,54,16,1,2,2,,,,,,,,,,,,,,,,,,,,,,,,,,,,,,,,,,,,,,,,,,,,,,,,,,,,,,,,,,,,,,,,,,,,,,,,,,,
,,,,,,,,,,stimuli/images/PICTURE_177.png,HOUSE,5d9de18052f653001591da95,23/05/1946,2020-07-09_21h03.42.982,proactive,2020.1.2,Win32,60,5f073de81c76c3308c0e4fb3,5f0777df970faa0008d492d6,4,,,,,,mushroom,,,,,,0,55,55,25,1,3,2,,,,,,,,,,,,,,,,,,,,,,,,,,,,,,,,,,,,,,,,,,,,,,,,,,,,,,,,,,,,,,,,,,,,,,,,,,,
,,,,,,,,,,stimuli/images/PICTURE_68.png,KIND,5d9de18052f653001591da95,23/05/1946,2020-07-09_21h03.42.982,proactive,2020.1.2,Win32,60,5f073de81c76c3308c0e4fb3,5f0777df970faa0008d492d6,4,,,,,,candle,,,,,,0,56,56,23,1,3,2,,,,,,,,,,,,,,,,,,,,,,,,,,,,,,,,,,,,,,,,,,,,,,,,,,,,,,,,,,,,,,,,,,,,,,,,,,,
,,,,,,,,,,stimuli/images/PICTURE_487.png,ROOF,5d9de18052f653001591da95,23/05/1946,2020-07-09_21h03.42.982,proactive,2020.1.2,Win32,60,5f073de81c76c3308c0e4fb3,5f0777df970faa0008d492d6,4,,,,,,basket,,,,,,0,57,57,50,1,6,2,,,,,,,,,,,,,,,,,,,,,,,,,,,,,,,,,,,,,,,,,,,,,,,,,,,,,,,,,,,,,,,,,,,,,,,,,,,
,,,,,,,,,,stimuli/images/PICTURE_297.png,BODY,5d9de18052f653001591da95,23/05/1946,2020-07-09_21h03.42.982,proactive,2020.1.2,Win32,60,5f073de81c76c3308c0e4fb3,5f0777df970faa0008d492d6,4,,,,,,aeroplane,,,,,,0,58,58,51,1,6,2,,,,,,,,,,,,,,,,,,,,,,,,,,,,,,,,,,,,,,,,,,,,,,,,,,,,,,,,,,,,,,,,,,,,,,,,,,,
,,?,0.00266,0,,,,,,stimuli/images/PICTURE_750.png,POLICY,5d9de18052f653001591da95,23/05/1946,2020-07-09_21h03.42.982,proactive,2020.1.2,Win32,60,5f073de81c76c3308c0e4fb3,5f0777df970faa0008d492d6,4,,,,,,kettle,,,,,,,,,,,5,2,0,0,0,44,1,,,,,,,,,,,,,,,,,,,,,,,,,,,,,,,,,,,,,,,,,,,,,,,,,,,,,,,,,,,,,,,,,,,,,,
,,?,0.00111,0,,,,,,stimuli/images/PICTURE_2.png,JUNGLE,5d9de18052f653001591da95,23/05/1946,2020-07-09_21h03.42.982,proactive,2020.1.2,Win32,60,5f073de81c76c3308c0e4fb3,5f0777df970faa0008d492d6,4,,,,,,tyre,,,,,,,,,,,1,2,0,1,1,1,1,,,,,,,,,,,,,,,,,,,,,,,,,,,,,,,,,,,,,,,,,,,,,,,,,,,,,,,,,,,,,,,,,,,,,,
,,?,0.002185,0,,,,,,stimuli/images/PICTURE_654.png,YEAR,5d9de18052f653001591da95,23/05/1946,2020-07-09_21h03.42.982,proactive,2020.1.2,Win32,60,5f073de81c76c3308c0e4fb3,5f0777df970faa0008d492d6,4,,,,,,pencil,,,,,,,,,,,5,2,0,2,2,41,1,,,,,,,,,,,,,,,,,,,,,,,,,,,,,,,,,,,,,,,,,,,,,,,,,,,,,,,,,,,,,,,,,,,,,,
,,?,0.001235,0,,,,,,stimuli/images/PICTURE_403.png,FAMILY,5d9de18052f653001591da95,23/05/1946,2020-07-09_21h03.42.982,proactive,2020.1.2,Win32,60,5f073de81c76c3308c0e4fb3,5f0777df970faa0008d492d6,4,,,,,,cathedral,,,,,,,,,,,1,2,0,3,3,9,1,,,,,,,,,,,,,,,,,,,,,,,,,,,,,,,,,,,,,,,,,,,,,,,,,,,,,,,,,,,,,,,,,,,,,,
,,?,15.010105,0,,,,,,stimuli/images/PICTURE_314.png,SPEECH,5d9de18052f653001591da95,23/05/1946,2020-07-09_21h03.42.982,proactive,2020.1.2,Win32,60,5f073de81c76c3308c0e4fb3,5f0777df970faa0008d492d6,4,,,,,,perfume,,,,,,,,,,,4,2,0,4,4,35,1,,,,,,,,,,,,,,,,,,,,,,,,,,,,,,,,,,,,,,,,,,,,,,,,,,,,,,,,,,,,,,,,,,,,,,
,,?,0.00126,0,,,,,,stimuli/images/PICTURE_405.png,JUNGLE,5d9de18052f653001591da95,23/05/1946,2020-07-09_21h03.42.982,proactive,2020.1.2,Win32,60,5f073de81c76c3308c0e4fb3,5f0777df970faa0008d492d6,4,,,,,,anchor,,,,,,,,,,,2,2,0,5,5,13,1,,,,,,,,,,,,,,,,,,,,,,,,,,,,,,,,,,,,,,,,,,,,,,,,,,,,,,,,,,,,,,,,,,,,,,
,,?,0.001155,0,,,,,,stimuli/images/PICTURE_348.png,TOILET,5d9de18052f653001591da95,23/05/1946,2020-07-09_21h03.42.982,proactive,2020.1.2,Win32,60,5f073de81c76c3308c0e4fb3,5f0777df970faa0008d492d6,4,,,,,,pepper,,,,,,,,,,,1,2,0,6,6,4,1,,,,,,,,,,,,,,,,,,,,,,,,,,,,,,,,,,,,,,,,,,,,,,,,,,,,,,,,,,,,,,,,,,,,,,
,,?,0.001105,0,,,,,,stimuli/images/PICTURE_327.png,LEADER,5d9de18052f653001591da95,23/05/1946,2020-07-09_21h03.42.982,proactive,2020.1.2,Win32,60,5f073de81c76c3308c0e4fb3,5f0777df970faa0008d492d6,4,,,,,,helmet,,,,,,,,,,,2,2,0,7,7,17,1,,,,,,,,,,,,,,,,,,,,,,,,,,,,,,,,,,,,,,,,,,,,,,,,,,,,,,,,,,,,,,,,,,,,,,
,,?,0.00113,0,,,,,,stimuli/images/PICTURE_470.png,BEAUTY,5d9de18052f653001591da95,23/05/1946,2020-07-09_21h03.42.982,proactive,2020.1.2,Win32,60,5f073de81c76c3308c0e4fb3,5f0777df970faa0008d492d6,4,,,,,,motorbike,,,,,,,,,,,3,2,0,8,8,26,1,,,,,,,,,,,,,,,,,,,,,,,,,,,,,,,,,,,,,,,,,,,,,,,,,,,,,,,,,,,,,,,,,,,,,,
,,?,0.0014,0,,,,,,stimuli/images/PICTURE_215.png,BOYS,5d9de18052f653001591da95,23/05/1946,2020-07-09_21h03.42.982,proactive,2020.1.2,Win32,60,5f073de81c76c3308c0e4fb3,5f0777df970faa0008d492d6,4,,,,,,boot,,,,,,,,,,,3,2,0,9,9,24,1,,,,,,,,,,,,,,,,,,,,,,,,,,,,,,,,,,,,,,,,,,,,,,,,,,,,,,,,,,,,,,,,,,,,,,
,,?,0.00117,0,,,,,,stimuli/images/PICTURE_509.png,MILLER,5d9de18052f653001591da95,23/05/1946,2020-07-09_21h03.42.982,proactive,2020.1.2,Win32,60,5f073de81c76c3308c0e4fb3,5f0777df970faa0008d492d6,4,,,,,,telephone,,,,,,,,,,,5,2,0,10,10,49,1,,,,,,,,,,,,,,,,,,,,,,,,,,,,,,,,,,,,,,,,,,,,,,,,,,,,,,,,,,,,,,,,,,,,,,
,,?,0.00104,0,,,,,,stimuli/images/PICTURE_688.png,CLOCK,5d9de18052f653001591da95,23/05/1946,2020-07-09_21h03.42.982,proactive,2020.1.2,Win32,60,5f073de81c76c3308c0e4fb3,5f0777df970faa0008d492d6,4,,,,,,runner,,,,,,,,,,,5,2,0,11,11,42,1,,,,,,,,,,,,,,,,,,,,,,,,,,,,,,,,,,,,,,,,,,,,,,,,,,,,,,,,,,,,,,,,,,,,,,
,,?,0.00112,0,,,,,,stimuli/images/PICTURE_255.png,PENNY,5d9de18052f653001591da95,23/05/1946,2020-07-09_21h03.42.982,proactive,2020.1.2,Win32,60,5f073de81c76c3308c0e4fb3,5f0777df970faa0008d492d6,4,,,,,,shovel,,,,,,,,,,,2,2,0,12,12,19,1,,,,,,,,,,,,,,,,,,,,,,,,,,,,,,,,,,,,,,,,,,,,,,,,,,,,,,,,,,,,,,,,,,,,,,
,,?,0.001125,0,,,,,,stimuli/images/PICTURE_215.png,FOOD,5d9de18052f653001591da95,23/05/1946,2020-07-09_21h03.42.982,proactive,2020.1.2,Win32,60,5f073de81c76c3308c0e4fb3,5f0777df970faa0008d492d6,4,,,,,,boot,,,,,,,,,,,1,2,0,13,13,5,1,,,,,,,,,,,,,,,,,,,,,,,,,,,,,,,,,,,,,,,,,,,,,,,,,,,,,,,,,,,,,,,,,,,,,,
,,?,0.001045,0,,,,,,stimuli/images/PICTURE_405.png,JUNGLE,5d9de18052f653001591da95,23/05/1946,2020-07-09_21h03.42.982,proactive,2020.1.2,Win32,60,5f073de81c76c3308c0e4fb3,5f0777df970faa0008d492d6,4,,,,,,anchor,,,,,,,,,,,6,2,0,14,14,58,1,,,,,,,,,,,,,,,,,,,,,,,,,,,,,,,,,,,,,,,,,,,,,,,,,,,,,,,,,,,,,,,,,,,,,,
,,?,0.001605,0,,,,,,stimuli/images/PICTURE_32.png,LETTER,5d9de18052f653001591da95,23/05/1946,2020-07-09_21h03.42.982,proactive,2020.1.2,Win32,60,5f073de81c76c3308c0e4fb3,5f0777df970faa0008d492d6,4,,,,,,crown,,,,,,,,,,,6,2,0,15,15,56,1,,,,,,,,,,,,,,,,,,,,,,,,,,,,,,,,,,,,,,,,,,,,,,,,,,,,,,,,,,,,,,,,,,,,,,
,,?,0.001295,0,,,,,,stimuli/images/PICTURE_487.png,ROOF,5d9de18052f653001591da95,23/05/1946,2020-07-09_21h03.42.982,proactive,2020.1.2,Win32,60,5f073de81c76c3308c0e4fb3,5f0777df970faa0008d492d6,4,,,,,,basket,,,,,,,,,,,6,2,0,16,16,50,1,,,,,,,,,,,,,,,,,,,,,,,,,,,,,,,,,,,,,,,,,,,,,,,,,,,,,,,,,,,,,,,,,,,,,,
,,?,0.00137,0,,,,,,stimuli/images/PICTURE_285.png,WRITER,5d9de18052f653001591da95,23/05/1946,2020-07-09_21h03.42.982,proactive,2020.1.2,Win32,60,5f073de81c76c3308c0e4fb3,5f0777df970faa0008d492d6,4,,,,,,carrot,,,,,,,,,,,1,2,0,17,17,6,1,,,,,,,,,,,,,,,,,,,,,,,,,,,,,,,,,,,,,,,,,,,,,,,,,,,,,,,,,,,,,,,,,,,,,,
,,?,0.0012,0,,,,,,stimuli/images/PICTURE_453.png,FAMILY,5d9de18052f653001591da95,23/05/1946,2020-07-09_21h03.42.982,proactive,2020.1.2,Win32,60,5f073de81c76c3308c0e4fb3,5f0777df970faa0008d492d6,4,,,,,,scissors,,,,,,,,,,,5,2,0,18,18,48,1,,,,,,,,,,,,,,,,,,,,,,,,,,,,,,,,,,,,,,,,,,,,,,,,,,,,,,,,,,,,,,,,,,,,,,
,,?,15.004725,0,,,,,,stimuli/images/PICTURE_487.png,POLICY,5d9de18052f653001591da95,23/05/1946,2020-07-09_21h03.42.982,proactive,2020.1.2,Win32,60,5f073de81c76c3308c0e4fb3,5f0777df970faa0008d492d6,4,,,,,,basket,,,,,,,,,,,4,2,0,19,19,34,1,,,,,,,,,,,,,,,,,,,,,,,,,,,,,,,,,,,,,,,,,,,,,,,,,,,,,,,,,,,,,,,,,,,,,,
,,?,0.001685,0,,,,,,stimuli/images/PICTURE_18.png,RIVER,5d9de18052f653001591da95,23/05/1946,2020-07-09_21h03.42.982,proactive,2020.1.2,Win32,60,5f073de81c76c3308c0e4fb3,5f0777df970faa0008d492d6,4,,,,,,planet,,,,,,,,,,,3,2,0,20,20,22,1,,,,,,,,,,,,,,,,,,,,,,,,,,,,,,,,,,,,,,,,,,,,,,,,,,,,,,,,,,,,,,,,,,,,,,
,,?,0.001635,0,,,,,,stimuli/images/PICTURE_470.png,MOMENT,5d9de18052f653001591da95,23/05/1946,2020-07-09_21h03.42.982,proactive,2020.1.2,Win32,60,5f073de81c76c3308c0e4fb3,5f0777df970faa0008d492d6,4,,,,,,motorbike,,,,,,,,,,,5,2,0,21,21,40,1,,,,,,,,,,,,,,,,,,,,,,,,,,,,,,,,,,,,,,,,,,,,,,,,,,,,,,,,,,,,,,,,,,,,,,
,,?,0.001575,0,,,,,,stimuli/images/PICTURE_677.png,PHOTO,5d9de18052f653001591da95,23/05/1946,2020-07-09_21h03.42.982,proactive,2020.1.2,Win32,60,5f073de81c76c3308c0e4fb3,5f0777df970faa0008d492d6,4,,,,,,map,,,,,,,,,,,2,2,0,22,22,14,1,,,,,,,,,,,,,,,,,,,,,,,,,,,,,,,,,,,,,,,,,,,,,,,,,,,,,,,,,,,,,,,,,,,,,,
,,?,0.002405,0,,,,,,stimuli/images/PICTURE_57.png,CANDY,5d9de18052f653001591da95,23/05/1946,2020-07-09_21h03.42.982,proactive,2020.1.2,Win32,60,5f073de81c76c3308c0e4fb3,5f0777df970faa0008d492d6,4,,,,,,stamp,,,,,,,,,,,6,2,0,23,23,52,1,,,,,,,,,,,,,,,,,,,,,,,,,,,,,,,,,,,,,,,,,,,,,,,,,,,,,,,,,,,,,,,,,,,,,,
,,?,0.00154,0,,,,,,stimuli/images/PICTURE_677.png,FAMILY,5d9de18052f653001591da95,23/05/1946,2020-07-09_21h03.42.982,proactive,2020.1.2,Win32,60,5f073de81c76c3308c0e4fb3,5f0777df970faa0008d492d6,4,,,,,,map,,,,,,,,,,,6,2,0,24,24,53,1,,,,,,,,,,,,,,,,,,,,,,,,,,,,,,,,,,,,,,,,,,,,,,,,,,,,,,,,,,,,,,,,,,,,,,
,,?,0.001585,0,,,,,,stimuli/images/PICTURE_57.png,CASINO,5d9de18052f653001591da95,23/05/1946,2020-07-09_21h03.42.982,proactive,2020.1.2,Win32,60,5f073de81c76c3308c0e4fb3,5f0777df970faa0008d492d6,4,,,,,,stamp,,,,,,,,,,,2,2,0,25,25,12,1,,,,,,,,,,,,,,,,,,,,,,,,,,,,,,,,,,,,,,,,,,,,,,,,,,,,,,,,,,,,,,,,,,,,,,
,,?,0.000985,0,,,,,,stimuli/images/PICTURE_348.png,DUDE,5d9de18052f653001591da95,23/05/1946,2020-07-09_21h03.42.982,proactive,2020.1.2,Win32,60,5f073de81c76c3308c0e4fb3,5f0777df970faa0008d492d6,4,,,,,,pepper,,,,,,,,,,,6,2,0,26,26,59,1,,,,,,,,,,,,,,,,,,,,,,,,,,,,,,,,,,,,,,,,,,,,,,,,,,,,,,,,,,,,,,,,,,,,,,
,,?,0.000955,0,,,,,,stimuli/images/PICTURE_311.png,FLESH,5d9de18052f653001591da95,23/05/1946,2020-07-09_21h03.42.982,proactive,2020.1.2,Win32,60,5f073de81c76c3308c0e4fb3,5f0777df970faa0008d492d6,4,,,,,,razor,,,,,,,,,,,1,2,0,27,27,3,1,,,,,,,,,,,,,,,,,,,,,,,,,,,,,,,,,,,,,,,,,,,,,,,,,,,,,,,,,,,,,,,,,,,,,,
,,?,0.00111,0,,,,,,stimuli/images/PICTURE_2.png,YARD,5d9de18052f653001591da95,23/05/1946,2020-07-09_21h03.42.982,proactive,2020.1.2,Win32,60,5f073de81c76c3308c0e4fb3,5f0777df970faa0008d492d6,4,,,,,,tyre,,,,,,,,,,,6,2,0,28,28,55,1,,,,,,,,,,,,,,,,,,,,,,,,,,,,,,,,,,,,,,,,,,,,,,,,,,,,,,,,,,,,,,,,,,,,,,
,,?,0.002425,0,,,,,,stimuli/images/PICTURE_208.png,SPIRIT,5d9de18052f653001591da95,23/05/1946,2020-07-09_21h03.42.982,proactive,2020.1.2,Win32,60,5f073de81c76c3308c0e4fb3,5f0777df970faa0008d492d6,4,,,,,,microphone,,,,,,,,,,,3,2,0,29,29,28,1,,,,,,,,,,,,,,,,,,,,,,,,,,,,,,,,,,,,,,,,,,,,,,,,,,,,,,,,,,,,,,,,,,,,,,
,,?,0.0015,0,,,,,,stimuli/images/PICTURE_654.png,COPS,5d9de18052f653001591da95,23/05/1946,2020-07-09_21h03.42.982,proactive,2020.1.2,Win32,60,5f073de81c76c3308c0e4fb3,5f0777df970faa0008d492d6,4,,,,,,pencil,,,,,,,,,,,2,2,0,30,30,10,1,,,,,,,,,,,,,,,,,,,,,,,,,,,,,,,,,,,,,,,,,,,,,,,,,,,,,,,,,,,,,,,,,,,,,,
,,?,15.00445,0,,,,,,stimuli/images/PICTURE_2.png,AREA,5d9de18052f653001591da95,23/05/1946,2020-07-09_21h03.42.982,proactive,2020.1.2,Win32,60,5f073de81c76c3308c0e4fb3,5f0777df970faa0008d492d6,4,,,,,,tyre,,,,,,,,,,,4,2,0,31,31,32,1,,,,,,,,,,,,,,,,,,,,,,,,,,,,,,,,,,,,,,,,,,,,,,,,,,,,,,,,,,,,,,,,,,,,,,
,,?,0.001745,0,,,,,,stimuli/images/PICTURE_405.png,HOUSE,5d9de18052f653001591da95,23/05/1946,2020-07-09_21h03.42.982,proactive,2020.1.2,Win32,60,5f073de81c76c3308c0e4fb3,5f0777df970faa0008d492d6,4,,,,,,anchor,,,,,,,,,,,1,2,0,32,32,2,1,,,,,,,,,,,,,,,,,,,,,,,,,,,,,,,,,,,,,,,,,,,,,,,,,,,,,,,,,,,,,,,,,,,,,,
,,?,15.00882,0,,,,,,stimuli/images/PICTURE_509.png,APPLE,5d9de18052f653001591da95,23/05/1946,2020-07-09_21h03.42.982,proactive,2020.1.2,Win32,60,5f073de81c76c3308c0e4fb3,5f0777df970faa0008d492d6,4,,,,,,telephone,,,,,,,,,,,4,2,0,33,33,38,1,,,,,,,,,,,,,,,,,,,,,,,,,,,,,,,,,,,,,,,,,,,,,,,,,,,,,,,,,,,,,,,,,,,,,,
,,SPEECH,15.02907,0,,,,,,stimuli/images/PICTURE_95.png,NIGHT,5d9de18052f653001591da95,23/05/1946,2020-07-09_21h03.42.982,proactive,2020.1.2,Win32,60,5f073de81c76c3308c0e4fb3,5f0777df970faa0008d492d6,4,,,,,,suitcase,,,,,,,,,,,4,2,0,34,34,37,1,,,,,,,,,,,,,,,,,,,,,,,,,,,,,,,,,,,,,,,,,,,,,,,,,,,,,,,,,,,,,,,,,,,,,,
,,?,0.00131,0,,,,,,stimuli/images/PICTURE_564.png,PLENTY,5d9de18052f653001591da95,23/05/1946,2020-07-09_21h03.42.982,proactive,2020.1.2,Win32,60,5f073de81c76c3308c0e4fb3,5f0777df970faa0008d492d6,4,,,,,,spoon,,,,,,,,,,,2,2,0,35,35,11,1,,,,,,,,,,,,,,,,,,,,,,,,,,,,,,,,,,,,,,,,,,,,,,,,,,,,,,,,,,,,,,,,,,,,,,
,,?,0.001215,0,,,,,,stimuli/images/PICTURE_667.png,GLASS,5d9de18052f653001591da95,23/05/1946,2020-07-09_21h03.42.982,proactive,2020.1.2,Win32,60,5f073de81c76c3308c0e4fb3,5f0777df970faa0008d492d6,4,,,,,,daisy,,,,,,,,,,,3,2,0,36,36,27,1,,,,,,,,,,,,,,,,,,,,,,,,,,,,,,,,,,,,,,,,,,,,,,,,,,,,,,,,,,,,,,,,,,,,,,
,,JERVIS,15.006435,0,,,,,,stimuli/images/PICTURE_491.png,SERIES,5d9de18052f653001591da95,23/05/1946,2020-07-09_21h03.42.982,proactive,2020.1.2,Win32,60,5f073de81c76c3308c0e4fb3,5f0777df970faa0008d492d6,4,,,,,,rug,,,,,,,,,,,4,2,0,37,37,39,1,,,,,,,,,,,,,,,,,,,,,,,,,,,,,,,,,,,,,,,,,,,,,,,,,,,,,,,,,,,,,,,,,,,,,,
,,?,0.001065,0,,,,,,stimuli/images/PICTURE_68.png,KIND,5d9de18052f653001591da95,23/05/1946,2020-07-09_21h03.42.982,proactive,2020.1.2,Win32,60,5f073de81c76c3308c0e4fb3,5f0777df970faa0008d492d6,4,,,,,,candle,,,,,,,,,,,3,2,0,38,38,23,1,,,,,,,,,,,,,,,,,,,,,,,,,,,,,,,,,,,,,,,,,,,,,,,,,,,,,,,,,,,,,,,,,,,,,,
,,?,0.00101,0,,,,,,stimuli/images/PICTURE_285.png,PRINCE,5d9de18052f653001591da95,23/05/1946,2020-07-09_21h03.42.982,proactive,2020.1.2,Win32,60,5f073de81c76c3308c0e4fb3,5f0777df970faa0008d492d6,4,,,,,,carrot,,,,,,,,,,,3,2,0,39,39,20,1,,,,,,,,,,,,,,,,,,,,,,,,,,,,,,,,,,,,,,,,,,,,,,,,,,,,,,,,,,,,,,,,,,,,,,
,,?,0.00105,0,,,,,,stimuli/images/PICTURE_177.png,HOUSE,5d9de18052f653001591da95,23/05/1946,2020-07-09_21h03.42.982,proactive,2020.1.2,Win32,60,5f073de81c76c3308c0e4fb3,5f0777df970faa0008d492d6,4,,,,,,mushroom,,,,,,,,,,,3,2,0,40,40,25,1,,,,,,,,,,,,,,,,,,,,,,,,,,,,,,,,,,,,,,,,,,,,,,,,,,,,,,,,,,,,,,,,,,,,,,
,,?,0.00105,0,,,,,,stimuli/images/PICTURE_57.png,NATION,5d9de18052f653001591da95,23/05/1946,2020-07-09_21h03.42.982,proactive,2020.1.2,Win32,60,5f073de81c76c3308c0e4fb3,5f0777df970faa0008d492d6,4,,,,,,stamp,,,,,,,,,,,3,2,0,41,41,21,1,,,,,,,,,,,,,,,,,,,,,,,,,,,,,,,,,,,,,,,,,,,,,,,,,,,,,,,,,,,,,,,,,,,,,,
,,?,0.00098,0,,,,,,stimuli/images/PICTURE_160.png,HOTEL,5d9de18052f653001591da95,23/05/1946,2020-07-09_21h03.42.982,proactive,2020.1.2,Win32,60,5f073de81c76c3308c0e4fb3,5f0777df970faa0008d492d6,4,,,,,,wheelbarrow,,,,,,,,,,,2,2,0,42,42,16,1,,,,,,,,,,,,,,,,,,,,,,,,,,,,,,,,,,,,,,,,,,,,,,,,,,,,,,,,,,,,,,,,,,,,,,
,,?,0.00098,0,,,,,,stimuli/images/PICTURE_215.png,LEADER,5d9de18052f653001591da95,23/05/1946,2020-07-09_21h03.42.982,proactive,2020.1.2,Win32,60,5f073de81c76c3308c0e4fb3,5f0777df970faa0008d492d6,4,,,,,,boot,,,,,,,,,,,5,2,0,43,43,43,1,,,,,,,,,,,,,,,,,,,,,,,,,,,,,,,,,,,,,,,,,,,,,,,,,,,,,,,,,,,,,,,,,,,,,,
,,?,15.01578,0,,,,,,stimuli/images/PICTURE_147.png,LEADER,5d9de18052f653001591da95,23/05/1946,2020-07-09_21h03.42.982,proactive,2020.1.2,Win32,60,5f073de81c76c3308c0e4fb3,5f0777df970faa0008d492d6,4,,,,,,hanger,,,,,,,,,,,4,2,0,44,44,33,1,,,,,,,,,,,,,,,,,,,,,,,,,,,,,,,,,,,,,,,,,,,,,,,,,,,,,,,,,,,,,,,,,,,,,,
,,?,15.014415,0,,,,,,stimuli/images/PICTURE_504.png,HOUSE,5d9de18052f653001591da95,23/05/1946,2020-07-09_21h03.42.982,proactive,2020.1.2,Win32,60,5f073de81c76c3308c0e4fb3,5f0777df970faa0008d492d6,4,,,,,,wheel,,,,,,,,,,,4,2,0,45,45,36,1,,,,,,,,,,,,,,,,,,,,,,,,,,,,,,,,,,,,,,,,,,,,,,,,,,,,,,,,,,,,,,,,,,,,,,
,,?,0.00135,0,,,,,,stimuli/images/PICTURE_692.png,DUDE,5d9de18052f653001591da95,23/05/1946,2020-07-09_21h03.42.982,proactive,2020.1.2,Win32,60,5f073de81c76c3308c0e4fb3,5f0777df970faa0008d492d6,4,,,,,,cherry,,,,,,,,,,,5,2,0,46,46,47,1,,,,,,,,,,,,,,,,,,,,,,,,,,,,,,,,,,,,,,,,,,,,,,,,,,,,,,,,,,,,,,,,,,,,,,
,,?,0.001065,0,,,,,,stimuli/images/PICTURE_297.png,BODY,5d9de18052f653001591da95,23/05/1946,2020-07-09_21h03.42.982,proactive,2020.1.2,Win32,60,5f073de81c76c3308c0e4fb3,5f0777df970faa0008d492d6,4,,,,,,aeroplane,,,,,,,,,,,6,2,0,47,47,51,1,,,,,,,,,,,,,,,,,,,,,,,,,,,,,,,,,,,,,,,,,,,,,,,,,,,,,,,,,,,,,,,,,,,,,,
,,?,0.0011,0,,,,,,stimuli/images/PICTURE_655.png,SALE,5d9de18052f653001591da95,23/05/1946,2020-07-09_21h03.42.982,proactive,2020.1.2,Win32,60,5f073de81c76c3308c0e4fb3,5f0777df970faa0008d492d6,4,,,,,,megaphone,,,,,,,,,,,6,2,0,48,48,57,1,,,,,,,,,,,,,,,,,,,,,,,,,,,,,,,,,,,,,,,,,,,,,,,,,,,,,,,,,,,,,,,,,,,,,,
,,?,0.00107,0,,,,,,stimuli/images/PICTURE_33.png,COPS,5d9de18052f653001591da95,23/05/1946,2020-07-09_21h03.42.982,proactive,2020.1.2,Win32,60,5f073de81c76c3308c0e4fb3,5f0777df970faa0008d492d6,4,,,,,,frame,,,,,,,,,,,3,2,0,49,49,29,1,,,,,,,,,,,,,,,,,,,,,,,,,,,,,,,,,,,,,,,,,,,,,,,,,,,,,,,,,,,,,,,,,,,,,,
,,?,0.00115,0,,,,,,stimuli/images/PICTURE_452.png,COPS,5d9de18052f653001591da95,23/05/1946,2020-07-09_21h03.42.982,proactive,2020.1.2,Win32,60,5f073de81c76c3308c0e4fb3,5f0777df970faa0008d492d6,4,,,,,,watch,,,,,,,,,,,1,2,0,50,50,0,1,,,,,,,,,,,,,,,,,,,,,,,,,,,,,,,,,,,,,,,,,,,,,,,,,,,,,,,,,,,,,,,,,,,,,,
,,?,0.00197,0,,,,,,stimuli/images/PICTURE_356.png,CANDY,5d9de18052f653001591da95,23/05/1946,2020-07-09_21h03.42.982,proactive,2020.1.2,Win32,60,5f073de81c76c3308c0e4fb3,5f0777df970faa0008d492d6,4,,,,,,pawn,,,,,,,,,,,5,2,0,51,51,46,1,,,,,,,,,,,,,,,,,,,,,,,,,,,,,,,,,,,,,,,,,,,,,,,,,,,,,,,,,,,,,,,,,,,,,,
,,?,0.001135,0,,,,,,stimuli/images/PICTURE_123.png,SALE,5d9de18052f653001591da95,23/05/1946,2020-07-09_21h03.42.982,proactive,2020.1.2,Win32,60,5f073de81c76c3308c0e4fb3,5f0777df970faa0008d492d6,4,,,,,,dart,,,,,,,,,,,1,2,0,52,52,8,1,,,,,,,,,,,,,,,,,,,,,,,,,,,,,,,,,,,,,,,,,,,,,,,,,,,,,,,,,,,,,,,,,,,,,,
,,?,0.001195,0,,,,,,stimuli/images/PICTURE_311.png,TOILET,5d9de18052f653001591da95,23/05/1946,2020-07-09_21h03.42.982,proactive,2020.1.2,Win32,60,5f073de81c76c3308c0e4fb3,5f0777df970faa0008d492d6,4,,,,,,razor,,,,,,,,,,,6,2,0,53,53,54,1,,,,,,,,,,,,,,,,,,,,,,,,,,,,,,,,,,,,,,,,,,,,,,,,,,,,,,,,,,,,,,,,,,,,,,
,,?,15.008255,0,,,,,,stimuli/images/PICTURE_93.png,GIRL,5d9de18052f653001591da95,23/05/1946,2020-07-09_21h03.42.982,proactive,2020.1.2,Win32,60,5f073de81c76c3308c0e4fb3,5f0777df970faa0008d492d6,4,,,,,,skateboard,,,,,,,,,,,4,2,0,54,54,31,1,,,,,,,,,,,,,,,,,,,,,,,,,,,,,,,,,,,,,,,,,,,,,,,,,,,,,,,,,,,,,,,,,,,,,,
,,?,0.00167,0,,,,,,stimuli/images/PICTURE_509.png,BATH,5d9de18052f653001591da95,23/05/1946,2020-07-09_21h03.42.982,proactive,2020.1.2,Win32,60,5f073de81c76c3308c0e4fb3,5f0777df970faa0008d492d6,4,,,,,,telephone,,,,,,,,,,,2,2,0,55,55,15,1,,,,,,,,,,,,,,,,,,,,,,,,,,,,,,,,,,,,,,,,,,,,,,,,,,,,,,,,,,,,,,,,,,,,,,
,,?,0.00166,0,,,,,,stimuli/images/PICTURE_509.png,SHOTS,5d9de18052f653001591da95,23/05/1946,2020-07-09_21h03.42.982,proactive,2020.1.2,Win32,60,5f073de81c76c3308c0e4fb3,5f0777df970faa0008d492d6,4,,,,,,telephone,,,,,,,,,,,1,2,0,56,56,7,1,,,,,,,,,,,,,,,,,,,,,,,,,,,,,,,,,,,,,,,,,,,,,,,,,,,,,,,,,,,,,,,,,,,,,,
,,?,0.0017,0,,,,,,stimuli/images/PICTURE_708.png,VALLEY,5d9de18052f653001591da95,23/05/1946,2020-07-09_21h03.42.982,proactive,2020.1.2,Win32,60,5f073de81c76c3308c0e4fb3,5f0777df970faa0008d492d6,4,,,,,,monkey,,,,,,,,,,,5,2,0,57,57,45,1,,,,,,,,,,,,,,,,,,,,,,,,,,,,,,,,,,,,,,,,,,,,,,,,,,,,,,,,,,,,,,,,,,,,,,
,,ROOT,15.000705,0,,,,,,stimuli/images/PICTURE_141.png,CLIENT,5d9de18052f653001591da95,23/05/1946,2020-07-09_21h03.42.982,proactive,2020.1.2,Win32,60,5f073de81c76c3308c0e4fb3,5f0777df970faa0008d492d6,4,,,,,,sunflower,,,,,,,,,,,4,2,0,58,58,30,1,,,,,,,,,,,,,,,,,,,,,,,,,,,,,,,,,,,,,,,,,,,,,,,,,,,,,,,,,,,,,,,,,,,,,,
,,?,0.00165,0,,,,,,stimuli/images/PICTURE_296.png,CLOCK,5d9de18052f653001591da95,23/05/1946,2020-07-09_21h03.42.982,proactive,2020.1.2,Win32,60,5f073de81c76c3308c0e4fb3,5f0777df970faa0008d492d6,4,,,,,,bolt,,,,,,,,,,,2,2,0,59,59,18,1,,,,,,,,,,,,,,,,,,,,,,,,,,,,,,,,,,,,,,,,,,,,,,,,,,,,,,,,,,,,,,,,,,,,,,
,,,,,,,,,,,,5d9de18052f653001591da95,23/05/1946,2020-07-09_21h03.42.982,proactive,2020.1.2,Win32,60,5f073de81c76c3308c0e4fb3,5f0777df970faa0008d492d6,4,,,,,,,,,,,,,,,,,,,,,,,,0,1,1,2,1,stimuli/learn-block3.csv,,,,,,,,,,,,,,,,,,,,,,,,,,,,,,,,,,,,,,,,,,,,,,,,,,,,,,,,,,,,,,,,
,,,,,,,,,,stimuli/images/PICTURE_123.png,ADVICE,5d9de18052f653001591da95,23/05/1946,2020-07-09_21h03.42.982,proactive,2020.1.2,Win32,60,5f073de81c76c3308c0e4fb3,5f0777df970faa0008d492d6,4,,,,,,dart,,,,,,0,0,0,50,1,6,0,,,,,,,,,,,,,,,,,,,,,,,,,,,,,,,,,,,,,,,,,,,,,,,,,,,,,,,,,,,,,,,,,,,,,,,,,,,
,,,,,,,,,,stimuli/images/PICTURE_348.png,SPEECH,5d9de18052f653001591da95,23/05/1946,2020-07-09_21h03.42.982,proactive,2020.1.2,Win32,60,5f073de81c76c3308c0e4fb3,5f0777df970faa0008d492d6,4,,,,,,pepper,,,,,,0,1,1,20,1,3,0,,,,,,,,,,,,,,,,,,,,,,,,,,,,,,,,,,,,,,,,,,,,,,,,,,,,,,,,,,,,,,,,,,,,,,,,,,,
,,,,,,,,,,stimuli/images/PICTURE_208.png,LOTS,5d9de18052f653001591da95,23/05/1946,2020-07-09_21h03.42.982,proactive,2020.1.2,Win32,60,5f073de81c76c3308c0e4fb3,5f0777df970faa0008d492d6,4,,,,,,microphone,,,,,,0,2,2,10,1,2,0,,,,,,,,,,,,,,,,,,,,,,,,,,,,,,,,,,,,,,,,,,,,,,,,,,,,,,,,,,,,,,,,,,,,,,,,,,,
,,,,,,,,,,stimuli/images/PICTURE_675.png,WEAPON,5d9de18052f653001591da95,23/05/1946,2020-07-09_21h03.42.982,proactive,2020.1.2,Win32,60,5f073de81c76c3308c0e4fb3,5f0777df970faa0008d492d6,4,,,,,,windmill,,,,,,0,3,3,32,1,4,0,,,,,,,,,,,,,,,,,,,,,,,,,,,,,,,,,,,,,,,,,,,,,,,,,,,,,,,,,,,,,,,,,,,,,,,,,,,
,,,,,,,,,,stimuli/images/PICTURE_123.png,ADVICE,5d9de18052f653001591da95,23/05/1946,2020-07-09_21h03.42.982,proactive,2020.1.2,Win32,60,5f073de81c76c3308c0e4fb3,5f0777df970faa0008d492d6,4,,,,,,dart,,,,,,0,4,4,40,1,5,0,,,,,,,,,,,,,,,,,,,,,,,,,,,,,,,,,,,,,,,,,,,,,,,,,,,,,,,,,,,,,,,,,,,,,,,,,,,
,,,,,,,,,,stimuli/images/PICTURE_255.png,AREA,5d9de18052f653001591da95,23/05/1946,2020-07-09_21h03.42.982,proactive,2020.1.2,Win32,60,5f073de81c76c3308c0e4fb3,5f0777df970faa0008d492d6,4,,,,,,shovel,,,,,,0,5,5,22,1,3,0,,,,,,,,,,,,,,,,,,,,,,,,,,,,,,,,,,,,,,,,,,,,,,,,,,,,,,,,,,,,,,,,,,,,,,,,,,,
,,,,,,,,,,stimuli/images/PICTURE_470.png,CASINO,5d9de18052f653001591da95,23/05/1946,2020-07-09_21h03.42.982,proactive,2020.1.2,Win32,60,5f073de81c76c3308c0e4fb3,5f0777df970faa0008d492d6,4,,,,,,motorbike,,,,,,0,6,6,36,1,4,0,,,,,,,,,,,,,,,,,,,,,,,,,,,,,,,,,,,,,,,,,,,,,,,,,,,,,,,,,,,,,,,,,,,,,,,,,,,
,,,,,,,,,,stimuli/images/PICTURE_160.png,LEADER,5d9de18052f653001591da95,23/05/1946,2020-07-09_21h03.42.982,proactive,2020.1.2,Win32,60,5f073de81c76c3308c0e4fb3,5f0777df970faa0008d492d6,4,,,,,,wheelbarrow,,,,,,0,7,7,3,1,1,0,,,,,,,,,,,,,,,,,,,,,,,,,,,,,,,,,,,,,,,,,,,,,,,,,,,,,,,,,,,,,,,,,,,,,,,,,,,
,,,,,,,,,,stimuli/images/PICTURE_233.png,IDEAS,5d9de18052f653001591da95,23/05/1946,2020-07-09_21h03.42.982,proactive,2020.1.2,Win32,60,5f073de81c76c3308c0e4fb3,5f0777df970faa0008d492d6,4,,,,,,salt,,,,,,0,8,8,28,1,3,0,,,,,,,,,,,,,,,,,,,,,,,,,,,,,,,,,,,,,,,,,,,,,,,,,,,,,,,,,,,,,,,,,,,,,,,,,,,
,,,,,,,,,,stimuli/images/PICTURE_708.png,YARD,5d9de18052f653001591da95,23/05/1946,2020-07-09_21h03.42.982,proactive,2020.1.2,Win32,60,5f073de81c76c3308c0e4fb3,5f0777df970faa0008d492d6,4,,,,,,monkey,,,,,,0,9,9,29,1,3,0,,,,,,,,,,,,,,,,,,,,,,,,,,,,,,,,,,,,,,,,,,,,,,,,,,,,,,,,,,,,,,,,,,,,,,,,,,,
,,,,,,,,,,stimuli/images/PICTURE_248.png,DOZEN,5d9de18052f653001591da95,23/05/1946,2020-07-09_21h03.42.982,proactive,2020.1.2,Win32,60,5f073de81c76c3308c0e4fb3,5f0777df970faa0008d492d6,4,,,,,,cart,,,,,,0,10,10,39,1,4,0,,,,,,,,,,,,,,,,,,,,,,,,,,,,,,,,,,,,,,,,,,,,,,,,,,,,,,,,,,,,,,,,,,,,,,,,,,,
,,,,,,,,,,stimuli/images/PICTURE_177.png,CARS,5d9de18052f653001591da95,23/05/1946,2020-07-09_21h03.42.982,proactive,2020.1.2,Win32,60,5f073de81c76c3308c0e4fb3,5f0777df970faa0008d492d6,4,,,,,,mushroom,,,,,,0,11,11,35,1,4,0,,,,,,,,,,,,,,,,,,,,,,,,,,,,,,,,,,,,,,,,,,,,,,,,,,,,,,,,,,,,,,,,,,,,,,,,,,,
,,,,,,,,,,stimuli/images/PICTURE_504.png,BODY,5d9de18052f653001591da95,23/05/1946,2020-07-09_21h03.42.982,proactive,2020.1.2,Win32,60,5f073de81c76c3308c0e4fb3,5f0777df970faa0008d492d6,4,,,,,,wheel,,,,,,0,12,12,8,1,1,0,,,,,,,,,,,,,,,,,,,,,,,,,,,,,,,,,,,,,,,,,,,,,,,,,,,,,,,,,,,,,,,,,,,,,,,,,,,
,,,,,,,,,,stimuli/images/PICTURE_708.png,CLIENT,5d9de18052f653001591da95,23/05/1946,2020-07-09_21h03.42.982,proactive,2020.1.2,Win32,60,5f073de81c76c3308c0e4fb3,5f0777df970faa0008d492d6,4,,,,,,monkey,,,,,,0,13,13,5,1,1,0,,,,,,,,,,,,,,,,,,,,,,,,,,,,,,,,,,,,,,,,,,,,,,,,,,,,,,,,,,,,,,,,,,,,,,,,,,,
,,,,,,,,,,stimuli/images/PICTURE_147.png,MOMENT,5d9de18052f653001591da95,23/05/1946,2020-07-09_21h03.42.982,proactive,2020.1.2,Win32,60,5f073de81c76c3308c0e4fb3,5f0777df970faa0008d492d6,4,,,,,,hanger,,,,,,0,14,14,51,1,6,0,,,,,,,,,,,,,,,,,,,,,,,,,,,,,,,,,,,,,,,,,,,,,,,,,,,,,,,,,,,,,,,,,,,,,,,,,,,
,,,,,,,,,,stimuli/images/PICTURE_469.png,LETTER,5d9de18052f653001591da95,23/05/1946,2020-07-09_21h03.42.982,proactive,2020.1.2,Win32,60,5f073de81c76c3308c0e4fb3,5f0777df970faa0008d492d6,4,,,,,,stool,,,,,,0,15,15,42,1,5,0,,,,,,,,,,,,,,,,,,,,,,,,,,,,,,,,,,,,,,,,,,,,,,,,,,,,,,,,,,,,,,,,,,,,,,,,,,,
,,,,,,,,,,stimuli/images/PICTURE_449.png,THING,5d9de18052f653001591da95,23/05/1946,2020-07-09_21h03.42.982,proactive,2020.1.2,Win32,60,5f073de81c76c3308c0e4fb3,5f0777df970faa0008d492d6,4,,,,,,bench,,,,,,0,16,16,59,1,6,0,,,,,,,,,,,,,,,,,,,,,,,,,,,,,,,,,,,,,,,,,,,,,,,,,,,,,,,,,,,,,,,,,,,,,,,,,,,
,,,,,,,,,,stimuli/images/PICTURE_32.png,JUNGLE,5d9de18052f653001591da95,23/05/1946,2020-07-09_21h03.42.982,proactive,2020.1.2,Win32,60,5f073de81c76c3308c0e4fb3,5f0777df970faa0008d492d6,4,,,,,,crown,,,,,,0,17,17,45,1,5,0,,,,,,,,,,,,,,,,,,,,,,,,,,,,,,,,,,,,,,,,,,,,,,,,,,,,,,,,,,,,,,,,,,,,,,,,,,,
,,,,,,,,,,stimuli/images/PICTURE_308.png,KIND,5d9de18052f653001591da95,23/05/1946,2020-07-09_21h03.42.982,proactive,2020.1.2,Win32,60,5f073de81c76c3308c0e4fb3,5f0777df970faa0008d492d6,4,,,,,,dice,,,,,,0,18,18,54,1,6,0,,,,,,,,,,,,,,,,,,,,,,,,,,,,,,,,,,,,,,,,,,,,,,,,,,,,,,,,,,,,,,,,,,,,,,,,,,,
,,,,,,,,,,stimuli/images/PICTURE_688.png,CASINO,5d9de18052f653001591da95,23/05/1946,2020-07-09_21h03.42.982,proactive,2020.1.2,Win32,60,5f073de81c76c3308c0e4fb3,5f0777df970faa0008d492d6,4,,,,,,runner,,,,,,0,19,19,2,1,1,0,,,,,,,,,,,,,,,,,,,,,,,,,,,,,,,,,,,,,,,,,,,,,,,,,,,,,,,,,,,,,,,,,,,,,,,,,,,
,,,,,,,,,,stimuli/images/PICTURE_356.png,DANGER,5d9de18052f653001591da95,23/05/1946,2020-07-09_21h03.42.982,proactive,2020.1.2,Win32,60,5f073de81c76c3308c0e4fb3,5f0777df970faa0008d492d6,4,,,,,,pawn,,,,,,0,20,20,55,1,6,0,,,,,,,,,,,,,,,,,,,,,,,,,,,,,,,,,,,,,,,,,,,,,,,,,,,,,,,,,,,,,,,,,,,,,,,,,,,
,,,,,,,,,,stimuli/images/PICTURE_203.png,ARTIST,5d9de18052f653001591da95,23/05/1946,2020-07-09_21h03.42.982,proactive,2020.1.2,Win32,60,5f073de81c76c3308c0e4fb3,5f0777df970faa0008d492d6,4,,,,,,cap,,,,,,0,21,21,26,1,3,0,,,,,,,,,,,,,,,,,,,,,,,,,,,,,,,,,,,,,,,,,,,,,,,,,,,,,,,,,,,,,,,,,,,,,,,,,,,
,,,,,,,,,,stimuli/images/PICTURE_311.png,FRIEND,5d9de18052f653001591da95,23/05/1946,2020-07-09_21h03.42.982,proactive,2020.1.2,Win32,60,5f073de81c76c3308c0e4fb3,5f0777df970faa0008d492d6,4,,,,,,razor,,,,,,0,22,22,34,1,4,0,,,,,,,,,,,,,,,,,,,,,,,,,,,,,,,,,,,,,,,,,,,,,,,,,,,,,,,,,,,,,,,,,,,,,,,,,,,
,,,,,,,,,,stimuli/images/PICTURE_151.png,GIRL,5d9de18052f653001591da95,23/05/1946,2020-07-09_21h03.42.982,proactive,2020.1.2,Win32,60,5f073de81c76c3308c0e4fb3,5f0777df970faa0008d492d6,4,,,,,,tray,,,,,,0,23,23,19,1,2,0,,,,,,,,,,,,,,,,,,,,,,,,,,,,,,,,,,,,,,,,,,,,,,,,,,,,,,,,,,,,,,,,,,,,,,,,,,,
,,,,,,,,,,stimuli/images/PICTURE_692.png,MONTH,5d9de18052f653001591da95,23/05/1946,2020-07-09_21h03.42.982,proactive,2020.1.2,Win32,60,5f073de81c76c3308c0e4fb3,5f0777df970faa0008d492d6,4,,,,,,cherry,,,,,,0,24,24,16,1,2,0,,,,,,,,,,,,,,,,,,,,,,,,,,,,,,,,,,,,,,,,,,,,,,,,,,,,,,,,,,,,,,,,,,,,,,,,,,,
,,,,,,,,,,stimuli/images/PICTURE_491.png,WRITER,5d9de18052f653001591da95,23/05/1946,2020-07-09_21h03.42.982,proactive,2020.1.2,Win32,60,5f073de81c76c3308c0e4fb3,5f0777df970faa0008d492d6,4,,,,,,rug,,,,,,0,25,25,57,1,6,0,,,,,,,,,,,,,,,,,,,,,,,,,,,,,,,,,,,,,,,,,,,,,,,,,,,,,,,,,,,,,,,,,,,,,,,,,,,
,,,,,,,,,,stimuli/images/PICTURE_744.png,SYSTEM,5d9de18052f653001591da95,23/05/1946,2020-07-09_21h03.42.982,proactive,2020.1.2,Win32,60,5f073de81c76c3308c0e4fb3,5f0777df970faa0008d492d6,4,,,,,,ring,,,,,,0,26,26,43,1,5,0,,,,,,,,,,,,,,,,,,,,,,,,,,,,,,,,,,,,,,,,,,,,,,,,,,,,,,,,,,,,,,,,,,,,,,,,,,,
,,,,,,,,,,stimuli/images/PICTURE_708.png,PENNY,5d9de18052f653001591da95,23/05/1946,2020-07-09_21h03.42.982,proactive,2020.1.2,Win32,60,5f073de81c76c3308c0e4fb3,5f0777df970faa0008d492d6,4,,,,,,monkey,,,,,,0,27,27,31,1,4,0,,,,,,,,,,,,,,,,,,,,,,,,,,,,,,,,,,,,,,,,,,,,,,,,,,,,,,,,,,,,,,,,,,,,,,,,,,,
,,,,,,,,,,stimuli/images/PICTURE_467.png,DEMON,5d9de18052f653001591da95,23/05/1946,2020-07-09_21h03.42.982,proactive,2020.1.2,Win32,60,5f073de81c76c3308c0e4fb3,5f0777df970faa0008d492d6,4,,,,,,peg,,,,,,0,28,28,23,1,3,0,,,,,,,,,,,,,,,,,,,,,,,,,,,,,,,,,,,,,,,,,,,,,,,,,,,,,,,,,,,,,,,,,,,,,,,,,,,
,,,,,,,,,,stimuli/images/PICTURE_488.png,STYLE,5d9de18052f653001591da95,23/05/1946,2020-07-09_21h03.42.982,proactive,2020.1.2,Win32,60,5f073de81c76c3308c0e4fb3,5f0777df970faa0008d492d6,4,,,,,,sun,,,,,,0,29,29,33,1,4,0,,,,,,,,,,,,,,,,,,,,,,,,,,,,,,,,,,,,,,,,,,,,,,,,,,,,,,,,,,,,,,,,,,,,,,,,,,,
,,,,,,,,,,stimuli/images/PICTURE_654.png,VALLEY,5d9de18052f653001591da95,23/05/1946,2020-07-09_21h03.42.982,proactive,2020.1.2,Win32,60,5f073de81c76c3308c0e4fb3,5f0777df970faa0008d492d6,4,,,,,,pencil,,,,,,0,30,30,1,1,1,0,,,,,,,,,,,,,,,,,,,,,,,,,,,,,,,,,,,,,,,,,,,,,,,,,,,,,,,,,,,,,,,,,,,,,,,,,,,
,,,,,,,,,,stimuli/images/PICTURE_95.png,STYLE,5d9de18052f653001591da95,23/05/1946,2020-07-09_21h03.42.982,proactive,2020.1.2,Win32,60,5f073de81c76c3308c0e4fb3,5f0777df970faa0008d492d6,4,,,,,,suitcase,,,,,,0,31,31,25,1,3,0,,,,,,,,,,,,,,,,,,,,,,,,,,,,,,,,,,,,,,,,,,,,,,,,,,,,,,,,,,,,,,,,,,,,,,,,,,,
,,,,,,,,,,stimuli/images/PICTURE_327.png,BEAUTY,5d9de18052f653001591da95,23/05/1946,2020-07-09_21h03.42.982,proactive,2020.1.2,Win32,60,5f073de81c76c3308c0e4fb3,5f0777df970faa0008d492d6,4,,,,,,helmet,,,,,,0,32,32,48,1,5,0,,,,,,,,,,,,,,,,,,,,,,,,,,,,,,,,,,,,,,,,,,,,,,,,,,,,,,,,,,,,,,,,,,,,,,,,,,,
,,,,,,,,,,stimuli/images/PICTURE_380.png,DEATH,5d9de18052f653001591da95,23/05/1946,2020-07-09_21h03.42.982,proactive,2020.1.2,Win32,60,5f073de81c76c3308c0e4fb3,5f0777df970faa0008d492d6,4,,,,,,gorilla,,,,,,0,33,33,49,1,5,0,,,,,,,,,,,,,,,,,,,,,,,,,,,,,,,,,,,,,,,,,,,,,,,,,,,,,,,,,,,,,,,,,,,,,,,,,,,
,,,,,,,,,,stimuli/images/PICTURE_314.png,GODS,5d9de18052f653001591da95,23/05/1946,2020-07-09_21h03.42.982,proactive,2020.1.2,Win32,60,5f073de81c76c3308c0e4fb3,5f0777df970faa0008d492d6,4,,,,,,perfume,,,,,,0,34,34,11,1,2,0,,,,,,,,,,,,,,,,,,,,,,,,,,,,,,,,,,,,,,,,,,,,,,,,,,,,,,,,,,,,,,,,,,,,,,,,,,,
,,,,,,,,,,stimuli/images/PICTURE_302.png,FAMILY,5d9de18052f653001591da95,23/05/1946,2020-07-09_21h03.42.982,proactive,2020.1.2,Win32,60,5f073de81c76c3308c0e4fb3,5f0777df970faa0008d492d6,4,,,,,,taxi,,,,,,0,35,35,18,1,2,0,,,,,,,,,,,,,,,,,,,,,,,,,,,,,,,,,,,,,,,,,,,,,,,,,,,,,,,,,,,,,,,,,,,,,,,,,,,
,,,,,,,,,,stimuli/images/PICTURE_339.png,PLENTY,5d9de18052f653001591da95,23/05/1946,2020-07-09_21h03.42.982,proactive,2020.1.2,Win32,60,5f073de81c76c3308c0e4fb3,5f0777df970faa0008d492d6,4,,,,,,backpack,,,,,,0,36,36,0,1,1,0,,,,,,,,,,,,,,,,,,,,,,,,,,,,,,,,,,,,,,,,,,,,,,,,,,,,,,,,,,,,,,,,,,,,,,,,,,,
,,,,,,,,,,stimuli/images/PICTURE_667.png,PLENTY,5d9de18052f653001591da95,23/05/1946,2020-07-09_21h03.42.982,proactive,2020.1.2,Win32,60,5f073de81c76c3308c0e4fb3,5f0777df970faa0008d492d6,4,,,,,,daisy,,,,,,0,37,37,41,1,5,0,,,,,,,,,,,,,,,,,,,,,,,,,,,,,,,,,,,,,,,,,,,,,,,,,,,,,,,,,,,,,,,,,,,,,,,,,,,
,,,,,,,,,,stimuli/images/PICTURE_233.png,WOMEN,5d9de18052f653001591da95,23/05/1946,2020-07-09_21h03.42.982,proactive,2020.1.2,Win32,60,5f073de81c76c3308c0e4fb3,5f0777df970faa0008d492d6,4,,,,,,salt,,,,,,0,38,38,38,1,4,0,,,,,,,,,,,,,,,,,,,,,,,,,,,,,,,,,,,,,,,,,,,,,,,,,,,,,,,,,,,,,,,,,,,,,,,,,,,
,,,,,,,,,,stimuli/images/PICTURE_380.png,PHOTO,5d9de18052f653001591da95,23/05/1946,2020-07-09_21h03.42.982,proactive,2020.1.2,Win32,60,5f073de81c76c3308c0e4fb3,5f0777df970faa0008d492d6,4,,,,,,gorilla,,,,,,0,39,39,52,1,6,0,,,,,,,,,,,,,,,,,,,,,,,,,,,,,,,,,,,,,,,,,,,,,,,,,,,,,,,,,,,,,,,,,,,,,,,,,,,
,,,,,,,,,,stimuli/images/PICTURE_688.png,WOMEN,5d9de18052f653001591da95,23/05/1946,2020-07-09_21h03.42.982,proactive,2020.1.2,Win32,60,5f073de81c76c3308c0e4fb3,5f0777df970faa0008d492d6,4,,,,,,runner,,,,,,0,40,40,14,1,2,0,,,,,,,,,,,,,,,,,,,,,,,,,,,,,,,,,,,,,,,,,,,,,,,,,,,,,,,,,,,,,,,,,,,,,,,,,,,
,,,,,,,,,,stimuli/images/PICTURE_285.png,ADVICE,5d9de18052f653001591da95,23/05/1946,2020-07-09_21h03.42.982,proactive,2020.1.2,Win32,60,5f073de81c76c3308c0e4fb3,5f0777df970faa0008d492d6,4,,,,,,carrot,,,,,,0,41,41,12,1,2,0,,,,,,,,,,,,,,,,,,,,,,,,,,,,,,,,,,,,,,,,,,,,,,,,,,,,,,,,,,,,,,,,,,,,,,,,,,,
,,,,,,,,,,stimuli/images/PICTURE_308.png,ESTATE,5d9de18052f653001591da95,23/05/1946,2020-07-09_21h03.42.982,proactive,2020.1.2,Win32,60,5f073de81c76c3308c0e4fb3,5f0777df970faa0008d492d6,4,,,,,,dice,,,,,,0,42,42,46,1,5,0,,,,,,,,,,,,,,,,,,,,,,,,,,,,,,,,,,,,,,,,,,,,,,,,,,,,,,,,,,,,,,,,,,,,,,,,,,,
,,,,,,,,,,stimuli/images/PICTURE_491.png,ROOF,5d9de18052f653001591da95,23/05/1946,2020-07-09_21h03.42.982,proactive,2020.1.2,Win32,60,5f073de81c76c3308c0e4fb3,5f0777df970faa0008d492d6,4,,,,,,rug,,,,,,0,43,43,24,1,3,0,,,,,,,,,,,,,,,,,,,,,,,,,,,,,,,,,,,,,,,,,,,,,,,,,,,,,,,,,,,,,,,,,,,,,,,,,,,
,,,,,,,,,,stimuli/images/PICTURE_314.png,SAKE,5d9de18052f653001591da95,23/05/1946,2020-07-09_21h03.42.982,proactive,2020.1.2,Win32,60,5f073de81c76c3308c0e4fb3,5f0777df970faa0008d492d6,4,,,,,,perfume,,,,,,0,44,44,7,1,1,0,,,,,,,,,,,,,,,,,,,,,,,,,,,,,,,,,,,,,,,,,,,,,,,,,,,,,,,,,,,,,,,,,,,,,,,,,,,
,,,,,,,,,,stimuli/images/PICTURE_744.png,SAKE,5d9de18052f653001591da95,23/05/1946,2020-07-09_21h03.42.982,proactive,2020.1.2,Win32,60,5f073de81c76c3308c0e4fb3,5f0777df970faa0008d492d6,4,,,,,,ring,,,,,,0,45,45,17,1,2,0,,,,,,,,,,,,,,,,,,,,,,,,,,,,,,,,,,,,,,,,,,,,,,,,,,,,,,,,,,,,,,,,,,,,,,,,,,,
,,,,,,,,,,stimuli/images/PICTURE_85.png,THING,5d9de18052f653001591da95,23/05/1946,2020-07-09_21h03.42.982,proactive,2020.1.2,Win32,60,5f073de81c76c3308c0e4fb3,5f0777df970faa0008d492d6,4,,,,,,diamond,,,,,,0,46,46,15,1,2,0,,,,,,,,,,,,,,,,,,,,,,,,,,,,,,,,,,,,,,,,,,,,,,,,,,,,,,,,,,,,,,,,,,,,,,,,,,,
,,,,,,,,,,stimuli/images/PICTURE_208.png,THING,5d9de18052f653001591da95,23/05/1946,2020-07-09_21h03.42.982,proactive,2020.1.2,Win32,60,5f073de81c76c3308c0e4fb3,5f0777df970faa0008d492d6,4,,,,,,microphone,,,,,,0,47,47,47,1,5,0,,,,,,,,,,,,,,,,,,,,,,,,,,,,,,,,,,,,,,,,,,,,,,,,,,,,,,,,,,,,,,,,,,,,,,,,,,,
,,,,,,,,,,stimuli/images/PICTURE_509.png,PHOTO,5d9de18052f653001591da95,23/05/1946,2020-07-09_21h03.42.982,proactive,2020.1.2,Win32,60,5f073de81c76c3308c0e4fb3,5f0777df970faa0008d492d6,4,,,,,,telephone,,,,,,0,48,48,21,1,3,0,,,,,,,,,,,,,,,,,,,,,,,,,,,,,,,,,,,,,,,,,,,,,,,,,,,,,,,,,,,,,,,,,,,,,,,,,,,
,,,,,,,,,,stimuli/images/PICTURE_311.png,BEAUTY,5d9de18052f653001591da95,23/05/1946,2020-07-09_21h03.42.982,proactive,2020.1.2,Win32,60,5f073de81c76c3308c0e4fb3,5f0777df970faa0008d492d6,4,,,,,,razor,,,,,,0,49,49,13,1,2,0,,,,,,,,,,,,,,,,,,,,,,,,,,,,,,,,,,,,,,,,,,,,,,,,,,,,,,,,,,,,,,,,,,,,,,,,,,,
,,,,,,,,,,stimuli/images/PICTURE_487.png,FLIGHT,5d9de18052f653001591da95,23/05/1946,2020-07-09_21h03.42.982,proactive,2020.1.2,Win32,60,5f073de81c76c3308c0e4fb3,5f0777df970faa0008d492d6,4,,,,,,basket,,,,,,0,50,50,9,1,1,0,,,,,,,,,,,,,,,,,,,,,,,,,,,,,,,,,,,,,,,,,,,,,,,,,,,,,,,,,,,,,,,,,,,,,,,,,,,
,,,,,,,,,,stimuli/images/PICTURE_677.png,MILE,5d9de18052f653001591da95,23/05/1946,2020-07-09_21h03.42.982,proactive,2020.1.2,Win32,60,5f073de81c76c3308c0e4fb3,5f0777df970faa0008d492d6,4,,,,,,map,,,,,,0,51,51,30,1,4,0,,,,,,,,,,,,,,,,,,,,,,,,,,,,,,,,,,,,,,,,,,,,,,,,,,,,,,,,,,,,,,,,,,,,,,,,,,,
,,,,,,,,,,stimuli/images/PICTURE_469.png,ARTIST,5d9de18052f653001591da95,23/05/1946,2020-07-09_21h03.42.982,proactive,2020.1.2,Win32,60,5f073de81c76c3308c0e4fb3,5f0777df970faa0008d492d6,4,,,,,,stool,,,,,,0,52,52,6,1,1,0,,,,,,,,,,,,,,,,,,,,,,,,,,,,,,,,,,,,,,,,,,,,,,,,,,,,,,,,,,,,,,,,,,,,,,,,,,,
,,,,,,,,,,stimuli/images/PICTURE_160.png,FEET,5d9de18052f653001591da95,23/05/1946,2020-07-09_21h03.42.982,proactive,2020.1.2,Win32,60,5f073de81c76c3308c0e4fb3,5f0777df970faa0008d492d6,4,,,,,,wheelbarrow,,,,,,0,53,53,58,1,6,0,,,,,,,,,,,,,,,,,,,,,,,,,,,,,,,,,,,,,,,,,,,,,,,,,,,,,,,,,,,,,,,,,,,,,,,,,,,
,,,,,,,,,,stimuli/images/PICTURE_453.png,PLENTY,5d9de18052f653001591da95,23/05/1946,2020-07-09_21h03.42.982,proactive,2020.1.2,Win32,60,5f073de81c76c3308c0e4fb3,5f0777df970faa0008d492d6,4,,,,,,scissors,,,,,,0,54,54,56,1,6,0,,,,,,,,,,,,,,,,,,,,,,,,,,,,,,,,,,,,,,,,,,,,,,,,,,,,,,,,,,,,,,,,,,,,,,,,,,,
,,,,,,,,,,stimuli/images/PICTURE_68.png,MILE,5d9de18052f653001591da95,23/05/1946,2020-07-09_21h03.42.982,proactive,2020.1.2,Win32,60,5f073de81c76c3308c0e4fb3,5f0777df970faa0008d492d6,4,,,,,,candle,,,,,,0,55,55,44,1,5,0,,,,,,,,,,,,,,,,,,,,,,,,,,,,,,,,,,,,,,,,,,,,,,,,,,,,,,,,,,,,,,,,,,,,,,,,,,,
,,,,,,,,,,stimuli/images/PICTURE_215.png,PLENTY,5d9de18052f653001591da95,23/05/1946,2020-07-09_21h03.42.982,proactive,2020.1.2,Win32,60,5f073de81c76c3308c0e4fb3,5f0777df970faa0008d492d6,4,,,,,,boot,,,,,,0,56,56,37,1,4,0,,,,,,,,,,,,,,,,,,,,,,,,,,,,,,,,,,,,,,,,,,,,,,,,,,,,,,,,,,,,,,,,,,,,,,,,,,,
,,,,,,,,,,stimuli/images/PICTURE_667.png,BATH,5d9de18052f653001591da95,23/05/1946,2020-07-09_21h03.42.982,proactive,2020.1.2,Win32,60,5f073de81c76c3308c0e4fb3,5f0777df970faa0008d492d6,4,,,,,,daisy,,,,,,0,57,57,4,1,1,0,,,,,,,,,,,,,,,,,,,,,,,,,,,,,,,,,,,,,,,,,,,,,,,,,,,,,,,,,,,,,,,,,,,,,,,,,,,
,,,,,,,,,,stimuli/images/PICTURE_208.png,MONTH,5d9de18052f653001591da95,23/05/1946,2020-07-09_21h03.42.982,proactive,2020.1.2,Win32,60,5f073de81c76c3308c0e4fb3,5f0777df970faa0008d492d6,4,,,,,,microphone,,,,,,0,58,58,53,1,6,0,,,,,,,,,,,,,,,,,,,,,,,,,,,,,,,,,,,,,,,,,,,,,,,,,,,,,,,,,,,,,,,,,,,,,,,,,,,
,,?,0.0017,0,,,,,,stimuli/images/PICTURE_453.png,PLENTY,5d9de18052f653001591da95,23/05/1946,2020-07-09_21h03.42.982,proactive,2020.1.2,Win32,60,5f073de81c76c3308c0e4fb3,5f0777df970faa0008d492d6,4,,,,,,scissors,,,,,,,,,,,6,0,0,0,0,56,1,,,,,,,,,,,,,,,,,,,,,,,,,,,,,,,,,,,,,,,,,,,,,,,,,,,,,,,,,,,,,,,,,,,,,,
,,?,0.001885,0,,,,,,stimuli/images/PICTURE_491.png,ROOF,5d9de18052f653001591da95,23/05/1946,2020-07-09_21h03.42.982,proactive,2020.1.2,Win32,60,5f073de81c76c3308c0e4fb3,5f0777df970faa0008d492d6,4,,,,,,rug,,,,,,,,,,,3,0,0,1,1,24,1,,,,,,,,,,,,,,,,,,,,,,,,,,,,,,,,,,,,,,,,,,,,,,,,,,,,,,,,,,,,,,,,,,,,,,
,,?,0.00216,0,,,,,,stimuli/images/PICTURE_348.png,SPEECH,5d9de18052f653001591da95,23/05/1946,2020-07-09_21h03.42.982,proactive,2020.1.2,Win32,60,5f073de81c76c3308c0e4fb3,5f0777df970faa0008d492d6,4,,,,,,pepper,,,,,,,,,,,3,0,0,2,2,20,1,,,,,,,,,,,,,,,,,,,,,,,,,,,,,,,,,,,,,,,,,,,,,,,,,,,,,,,,,,,,,,,,,,,,,,
,,?,0.00252,0,,,,,,stimuli/images/PICTURE_123.png,ADVICE,5d9de18052f653001591da95,23/05/1946,2020-07-09_21h03.42.982,proactive,2020.1.2,Win32,60,5f073de81c76c3308c0e4fb3,5f0777df970faa0008d492d6,4,,,,,,dart,,,,,,,,,,,5,0,0,3,3,40,1,,,,,,,,,,,,,,,,,,,,,,,,,,,,,,,,,,,,,,,,,,,,,,,,,,,,,,,,,,,,,,,,,,,,,,
,,WOMEN,15.014525,1,,,,,,stimuli/images/PICTURE_233.png,WOMEN,5d9de18052f653001591da95,23/05/1946,2020-07-09_21h03.42.982,proactive,2020.1.2,Win32,60,5f073de81c76c3308c0e4fb3,5f0777df970faa0008d492d6,4,,,,,,salt,,,,,,,,,,,4,0,0,4,4,38,1,,,,,,,,,,,,,,,,,,,,,,,,,,,,,,,,,,,,,,,,,,,,,,,,,,,,,,,,,,,,,,,,,,,,,,
,,CARS,15.013275,1,,,,,,stimuli/images/PICTURE_177.png,CARS,5d9de18052f653001591da95,23/05/1946,2020-07-09_21h03.42.982,proactive,2020.1.2,Win32,60,5f073de81c76c3308c0e4fb3,5f0777df970faa0008d492d6,4,,,,,,mushroom,,,,,,,,,,,4,0,0,5,5,35,1,,,,,,,,,,,,,,,,,,,,,,,,,,,,,,,,,,,,,,,,,,,,,,,,,,,,,,,,,,,,,,,,,,,,,,
,,?,0.001145,0,,,,,,stimuli/images/PICTURE_509.png,PHOTO,5d9de18052f653001591da95,23/05/1946,2020-07-09_21h03.42.982,proactive,2020.1.2,Win32,60,5f073de81c76c3308c0e4fb3,5f0777df970faa0008d492d6,4,,,,,,telephone,,,,,,,,,,,3,0,0,6,6,21,1,,,,,,,,,,,,,,,,,,,,,,,,,,,,,,,,,,,,,,,,,,,,,,,,,,,,,,,,,,,,,,,,,,,,,,
,,?,0.00105,0,,,,,,stimuli/images/PICTURE_32.png,JUNGLE,5d9de18052f653001591da95,23/05/1946,2020-07-09_21h03.42.982,proactive,2020.1.2,Win32,60,5f073de81c76c3308c0e4fb3,5f0777df970faa0008d492d6,4,,,,,,crown,,,,,,,,,,,5,0,0,7,7,45,1,,,,,,,,,,,,,,,,,,,,,,,,,,,,,,,,,,,,,,,,,,,,,,,,,,,,,,,,,,,,,,,,,,,,,,
,,?,0.00107,0,,,,,,stimuli/images/PICTURE_491.png,WRITER,5d9de18052f653001591da95,23/05/1946,2020-07-09_21h03.42.982,proactive,2020.1.2,Win32,60,5f073de81c76c3308c0e4fb3,5f0777df970faa0008d492d6,4,,,,,,rug,,,,,,,,,,,6,0,0,8,8,57,1,,,,,,,,,,,,,,,,,,,,,,,,,,,,,,,,,,,,,,,,,,,,,,,,,,,,,,,,,,,,,,,,,,,,,,
,,?,0.0014,0,,,,,,stimuli/images/PICTURE_654.png,VALLEY,5d9de18052f653001591da95,23/05/1946,2020-07-09_21h03.42.982,proactive,2020.1.2,Win32,60,5f073de81c76c3308c0e4fb3,5f0777df970faa0008d492d6,4,,,,,,pencil,,,,,,,,,,,1,0,0,9,9,1,1,,,,,,,,,,,,,,,,,,,,,,,,,,,,,,,,,,,,,,,,,,,,,,,,,,,,,,,,,,,,,,,,,,,,,,
,,?,0.00102,0,,,,,,stimuli/images/PICTURE_667.png,BATH,5d9de18052f653001591da95,23/05/1946,2020-07-09_21h03.42.982,proactive,2020.1.2,Win32,60,5f073de81c76c3308c0e4fb3,5f0777df970faa0008d492d6,4,,,,,,daisy,,,,,,,,,,,1,0,0,10,10,4,1,,,,,,,,,,,,,,,,,,,,,,,,,,,,,,,,,,,,,,,,,,,,,,,,,,,,,,,,,,,,,,,,,,,,,,
,,?,0.00166,0,,,,,,stimuli/images/PICTURE_285.png,ADVICE,5d9de18052f653001591da95,23/05/1946,2020-07-09_21h03.42.982,proactive,2020.1.2,Win32,60,5f073de81c76c3308c0e4fb3,5f0777df970faa0008d492d6,4,,,,,,carrot,,,,,,,,,,,2,0,0,11,11,12,1,,,,,,,,,,,,,,,,,,,,,,,,,,,,,,,,,,,,,,,,,,,,,,,,,,,,,,,,,,,,,,,,,,,,,,
,,?,0.001025,0,,,,,,stimuli/images/PICTURE_123.png,ADVICE,5d9de18052f653001591da95,23/05/1946,2020-07-09_21h03.42.982,proactive,2020.1.2,Win32,60,5f073de81c76c3308c0e4fb3,5f0777df970faa0008d492d6,4,,,,,,dart,,,,,,,,,,,6,0,0,12,12,50,1,,,,,,,,,,,,,,,,,,,,,,,,,,,,,,,,,,,,,,,,,,,,,,,,,,,,,,,,,,,,,,,,,,,,,,
,,?,0.00104,0,,,,,,stimuli/images/PICTURE_314.png,GODS,5d9de18052f653001591da95,23/05/1946,2020-07-09_21h03.42.982,proactive,2020.1.2,Win32,60,5f073de81c76c3308c0e4fb3,5f0777df970faa0008d492d6,4,,,,,,perfume,,,,,,,,,,,2,0,0,13,13,11,1,,,,,,,,,,,,,,,,,,,,,,,,,,,,,,,,,,,,,,,,,,,,,,,,,,,,,,,,,,,,,,,,,,,,,,
,,?,0.00105,0,,,,,,stimuli/images/PICTURE_688.png,CASINO,5d9de18052f653001591da95,23/05/1946,2020-07-09_21h03.42.982,proactive,2020.1.2,Win32,60,5f073de81c76c3308c0e4fb3,5f0777df970faa0008d492d6,4,,,,,,runner,,,,,,,,,,,1,0,0,14,14,2,1,,,,,,,,,,,,,,,,,,,,,,,,,,,,,,,,,,,,,,,,,,,,,,,,,,,,,,,,,,,,,,,,,,,,,,
,,?,15.003905,0,,,,,,stimuli/images/PICTURE_470.png,CASINO,5d9de18052f653001591da95,23/05/1946,2020-07-09_21h03.42.982,proactive,2020.1.2,Win32,60,5f073de81c76c3308c0e4fb3,5f0777df970faa0008d492d6,4,,,,,,motorbike,,,,,,,,,,,4,0,0,15,15,36,1,,,,,,,,,,,,,,,,,,,,,,,,,,,,,,,,,,,,,,,,,,,,,,,,,,,,,,,,,,,,,,,,,,,,,,
,,?,0.00114,0,,,,,,stimuli/images/PICTURE_95.png,STYLE,5d9de18052f653001591da95,23/05/1946,2020-07-09_21h03.42.982,proactive,2020.1.2,Win32,60,5f073de81c76c3308c0e4fb3,5f0777df970faa0008d492d6,4,,,,,,suitcase,,,,,,,,,,,3,0,0,16,16,25,1,,,,,,,,,,,,,,,,,,,,,,,,,,,,,,,,,,,,,,,,,,,,,,,,,,,,,,,,,,,,,,,,,,,,,,
