consent_key.keys,consent_key.rt,recalled,recalled_rt,recall_acc,example_recall.thisRepN,example_recall.thisTrialN,example_recall.thisN,example_recall.thisIndex,example_recall.ran,file,word,participant,please enter your date of birth (dd/mm/yyyy),date,expName,psychopyVersion,OS,frameRate,STUDY_ID,SESSION_ID,list,prac_learn_study_loop.thisRepN,prac_learn_study_loop.thisTrialN,prac_learn_study_loop.thisN,prac_learn_study_loop.thisIndex,prac_learn_study_loop.ran,image,prac_learn_test_loop.thisRepN,prac_learn_test_loop.thisTrialN,prac_learn_test_loop.thisN,prac_learn_test_loop.thisIndex,prac_learn_test_loop.ran,learn_study_loop.thisRepN,learn_study_loop.thisTrialN,learn_study_loop.thisN,learn_study_loop.thisIndex,learn_study_loop.ran,list_no,block_no,learn_test_loop.thisRepN,learn_test_loop.thisTrialN,learn_test_loop.thisN,learn_test_loop.thisIndex,learn_test_loop.ran,learn_blocks.thisRepN,learn_blocks.thisTrialN,learn_blocks.thisN,learn_blocks.thisIndex,learn_blocks.ran,block_csv,key_resp_13.keys,key_resp_13.rt,learn_blocks_loop.thisRepN,learn_blocks_loop.thisTrialN,learn_blocks_loop.thisN,learn_blocks_loop.thisIndex,learn_blocks_loop.ran,final_learn_test.thisRepN,final_learn_test.thisTrialN,final_learn_test.thisN,final_learn_test.thisIndex,final_learn_test.ran,prac_wm_test_loop.thisRepN,prac_wm_test_loop.thisTrialN,prac_wm_test_loop.thisN,prac_wm_test_loop.thisIndex,prac_wm_test_loop.ran,wm_recalled1,wm_recall_rt1,wm_probed1,wm_recall_acc1,wm_recalled2,wm_recall_rt2,wm_probed2,wm_recall_acc2,wm_recalled3,wm_recall_rt3,wm_probed3,wm_recall_acc3,wm_recalled4,wm_recall_rt4,wm_probed4,wm_recall_acc4,prac_wm_trial_loop.thisRepN,prac_wm_trial_loop.thisTrialN,prac_wm_trial_loop.thisN,prac_wm_trial_loop.thisIndex,prac_wm_trial_loop.ran,word1,image1,file1,item_type1,word2,image2,file2,item_type2,word4,image4,file4,item_type4,word3,image3,file3,item_type3,wm_test_loop.thisRepN,wm_test_loop.thisTrialN,wm_test_loop.thisN,wm_test_loop.thisIndex,wm_test_loop.ran,wm_trial_loop.thisRepN,wm_trial_loop.thisTrialN,wm_trial_loop.thisN,wm_trial_loop.thisIndex,wm_trial_loop.ran
y,12.459,POOL,13.821,0,0,0,0,0,1,stimuli/images/PICTURE_747.png,TOUGH,5dcec32a367c6d000a4282c2,06/13/1953,2020-07-09_13h09.58.223,proactive,2020.1.2,Win32,60,5f073de81c76c3308c0e4fb3,5f0778f0b5dc8616cc45da78,6,,,,,,,,,,,,,,,,,,,,,,,,,,,,,,,,,,,,,,,,,,,,,,,,,,,,,,,,,,,,,,,,,,,,,,,,,,,,,,,,,,,,,,,,,,,,,
,,,,,,,,,,stimuli/images/PICTURE_727.png,CELL,5dcec32a367c6d000a4282c2,06/13/1953,2020-07-09_13h09.58.223,proactive,2020.1.2,Win32,60,5f073de81c76c3308c0e4fb3,5f0778f0b5dc8616cc45da78,6,0,0,0,1,1,hose,,,,,,,,,,,,,,,,,,,,,,,,,,,,,,,,,,,,,,,,,,,,,,,,,,,,,,,,,,,,,,,,,,,,,,,,,,,,,,,,,,,,,,,
,,,,,,,,,,stimuli/images/PICTURE_378.png,LOSS,5dcec32a367c6d000a4282c2,06/13/1953,2020-07-09_13h09.58.223,proactive,2020.1.2,Win32,60,5f073de81c76c3308c0e4fb3,5f0778f0b5dc8616cc45da78,6,0,1,1,2,1,lobster,,,,,,,,,,,,,,,,,,,,,,,,,,,,,,,,,,,,,,,,,,,,,,,,,,,,,,,,,,,,,,,,,,,,,,,,,,,,,,,,,,,,,,,
,,,,,,,,,,stimuli/images/PICTURE_658.png,DEVIL,5dcec32a367c6d000a4282c2,06/13/1953,2020-07-09_13h09.58.223,proactive,2020.1.2,Win32,60,5f073de81c76c3308c0e4fb3,5f0778f0b5dc8616cc45da78,6,0,2,2,3,1,crow,,,,,,,,,,,,,,,,,,,,,,,,,,,,,,,,,,,,,,,,,,,,,,,,,,,,,,,,,,,,,,,,,,,,,,,,,,,,,,,,,,,,,,,
,,,,,,,,,,stimuli/images/PICTURE_269.png,GENIUS,5dcec32a367c6d000a4282c2,06/13/1953,2020-07-09_13h09.58.223,proactive,2020.1.2,Win32,60,5f073de81c76c3308c0e4fb3,5f0778f0b5dc8616cc45da78,6,0,3,3,0,1,chameleon,,,,,,,,,,,,,,,,,,,,,,,,,,,,,,,,,,,,,,,,,,,,,,,,,,,,,,,,,,,,,,,,,,,,,,,,,,,,,,,,,,,,,,,
,,CELL,6.809,1,,,,,,stimuli/images/PICTURE_727.png,CELL,5dcec32a367c6d000a4282c2,06/13/1953,2020-07-09_13h09.58.223,proactive,2020.1.2,Win32,60,5f073de81c76c3308c0e4fb3,5f0778f0b5dc8616cc45da78,6,,,,,,hose,0,0,0,1,1,,,,,,,,,,,,,,,,,,,,,,,,,,,,,,,,,,,,,,,,,,,,,,,,,,,,,,,,,,,,,,,,,,,,,,,,,,,,,,,,,,
,,HAIR,8.715,0,,,,,,stimuli/images/PICTURE_269.png,GENIUS,5dcec32a367c6d000a4282c2,06/13/1953,2020-07-09_13h09.58.223,proactive,2020.1.2,Win32,60,5f073de81c76c3308c0e4fb3,5f0778f0b5dc8616cc45da78,6,,,,,,chameleon,0,1,1,0,1,,,,,,,,,,,,,,,,,,,,,,,,,,,,,,,,,,,,,,,,,,,,,,,,,,,,,,,,,,,,,,,,,,,,,,,,,,,,,,,,,,
,,KILLER,3.399,1,,,,,,stimuli/images/PICTURE_697.png,KILLER,5dcec32a367c6d000a4282c2,06/13/1953,2020-07-09_13h09.58.223,proactive,2020.1.2,Win32,60,5f073de81c76c3308c0e4fb3,5f0778f0b5dc8616cc45da78,6,,,,,,peach,0,2,2,4,1,,,,,,,,,,,,,,,,,,,,,,,,,,,,,,,,,,,,,,,,,,,,,,,,,,,,,,,,,,,,,,,,,,,,,,,,,,,,,,,,,,
,,LOSS,3.616,1,,,,,,stimuli/images/PICTURE_378.png,LOSS,5dcec32a367c6d000a4282c2,06/13/1953,2020-07-09_13h09.58.223,proactive,2020.1.2,Win32,60,5f073de81c76c3308c0e4fb3,5f0778f0b5dc8616cc45da78,6,,,,,,lobster,0,3,3,2,1,,,,,,,,,,,,,,,,,,,,,,,,,,,,,,,,,,,,,,,,,,,,,,,,,,,,,,,,,,,,,,,,,,,,,,,,,,,,,,,,,,
,,DEVIL,5.666,1,,,,,,stimuli/images/PICTURE_658.png,DEVIL,5dcec32a367c6d000a4282c2,06/13/1953,2020-07-09_13h09.58.223,proactive,2020.1.2,Win32,60,5f073de81c76c3308c0e4fb3,5f0778f0b5dc8616cc45da78,6,,,,,,crow,0,4,4,3,1,,,,,,,,,,,,,,,,,,,,,,,,,,,,,,,,,,,,,,,,,,,,,,,,,,,,,,,,,,,,,,,,,,,,,,,,,,,,,,,,,,
,,,,,,,,,,stimuli/images/PICTURE_467.png,DEMON,5dcec32a367c6d000a4282c2,06/13/1953,2020-07-09_13h09.58.223,proactive,2020.1.2,Win32,60,5f073de81c76c3308c0e4fb3,5f0778f0b5dc8616cc45da78,6,,,,,,peg,,,,,,0,0,0,23,1,3,0,,,,,,,,,,,,,,,,,,,,,,,,,,,,,,,,,,,,,,,,,,,,,,,,,,,,,,,,,,,,,,,,,,,,,,,,,,,
,,,,,,,,,,stimuli/images/PICTURE_308.png,ESTATE,5dcec32a367c6d000a4282c2,06/13/1953,2020-07-09_13h09.58.223,proactive,2020.1.2,Win32,60,5f073de81c76c3308c0e4fb3,5f0778f0b5dc8616cc45da78,6,,,,,,dice,,,,,,0,1,1,46,1,5,0,,,,,,,,,,,,,,,,,,,,,,,,,,,,,,,,,,,,,,,,,,,,,,,,,,,,,,,,,,,,,,,,,,,,,,,,,,,
,,,,,,,,,,stimuli/images/PICTURE_348.png,SPEECH,5dcec32a367c6d000a4282c2,06/13/1953,2020-07-09_13h09.58.223,proactive,2020.1.2,Win32,60,5f073de81c76c3308c0e4fb3,5f0778f0b5dc8616cc45da78,6,,,,,,pepper,,,,,,0,2,2,20,1,3,0,,,,,,,,,,,,,,,,,,,,,,,,,,,,,,,,,,,,,,,,,,,,,,,,,,,,,,,,,,,,,,,,,,,,,,,,,,,
,,,,,,,,,,stimuli/images/PICTURE_708.png,YARD,5dcec32a367c6d000a4282c2,06/13/1953,2020-07-09_13h09.58.223,proactive,2020.1.2,Win32,60,5f073de81c76c3308c0e4fb3,5f0778f0b5dc8616cc45da78,6,,,,,,monkey,,,,,,0,3,3,29,1,3,0,,,,,,,,,,,,,,,,,,,,,,,,,,,,,,,,,,,,,,,,,,,,,,,,,,,,,,,,,,,,,,,,,,,,,,,,,,,
,,,,,,,,,,stimuli/images/PICTURE_203.png,ARTIST,5dcec32a367c6d000a4282c2,06/13/1953,2020-07-09_13h09.58.223,proactive,2020.1.2,Win32,60,5f073de81c76c3308c0e4fb3,5f0778f0b5dc8616cc45da78,6,,,,,,cap,,,,,,0,4,4,26,1,3,0,,,,,,,,,,,,,,,,,,,,,,,,,,,,,,,,,,,,,,,,,,,,,,,,,,,,,,,,,,,,,,,,,,,,,,,,,,,
,,,,,,,,,,stimuli/images/PICTURE_160.png,LEADER,5dcec32a367c6d000a4282c2,06/13/1953,2020-07-09_13h09.58.223,proactive,2020.1.2,Win32,60,5f073de81c76c3308c0e4fb3,5f0778f0b5dc8616cc45da78,6,,,,,,wheelbarrow,,,,,,0,5,5,3,1,1,0,,,,,,,,,,,,,,,,,,,,,,,,,,,,,,,,,,,,,,,,,,,,,,,,,,,,,,,,,,,,,,,,,,,,,,,,,,,
,,,,,,,,,,stimuli/images/PICTURE_654.png,VALLEY,5dcec32a367c6d000a4282c2,06/13/1953,2020-07-09_13h09.58.223,proactive,2020.1.2,Win32,60,5f073de81c76c3308c0e4fb3,5f0778f0b5dc8616cc45da78,6,,,,,,pencil,,,,,,0,6,6,1,1,1,0,,,,,,,,,,,,,,,,,,,,,,,,,,,,,,,,,,,,,,,,,,,,,,,,,,,,,,,,,,,,,,,,,,,,,,,,,,,
,,,,,,,,,,stimuli/images/PICTURE_488.png,STYLE,5dcec32a367c6d000a4282c2,06/13/1953,2020-07-09_13h09.58.223,proactive,2020.1.2,Win32,60,5f073de81c76c3308c0e4fb3,5f0778f0b5dc8616cc45da78,6,,,,,,sun,,,,,,0,7,7,33,1,4,0,,,,,,,,,,,,,,,,,,,,,,,,,,,,,,,,,,,,,,,,,,,,,,,,,,,,,,,,,,,,,,,,,,,,,,,,,,,
,,,,,,,,,,stimuli/images/PICTURE_147.png,MOMENT,5dcec32a367c6d000a4282c2,06/13/1953,2020-07-09_13h09.58.223,proactive,2020.1.2,Win32,60,5f073de81c76c3308c0e4fb3,5f0778f0b5dc8616cc45da78,6,,,,,,hanger,,,,,,0,8,8,51,1,6,0,,,,,,,,,,,,,,,,,,,,,,,,,,,,,,,,,,,,,,,,,,,,,,,,,,,,,,,,,,,,,,,,,,,,,,,,,,,
,,,,,,,,,,stimuli/images/PICTURE_311.png,BEAUTY,5dcec32a367c6d000a4282c2,06/13/1953,2020-07-09_13h09.58.223,proactive,2020.1.2,Win32,60,5f073de81c76c3308c0e4fb3,5f0778f0b5dc8616cc45da78,6,,,,,,razor,,,,,,0,9,9,13,1,2,0,,,,,,,,,,,,,,,,,,,,,,,,,,,,,,,,,,,,,,,,,,,,,,,,,,,,,,,,,,,,,,,,,,,,,,,,,,,
,,,,,,,,,,stimuli/images/PICTURE_708.png,CLIENT,5dcec32a367c6d000a4282c2,06/13/1953,2020-07-09_13h09.58.223,proactive,2020.1.2,Win32,60,5f073de81c76c3308c0e4fb3,5f0778f0b5dc8616cc45da78,6,,,,,,monkey,,,,,,0,10,10,5,1,1,0,,,,,,,,,,,,,,,,,,,,,,,,,,,,,,,,,,,,,,,,,,,,,,,,,,,,,,,,,,,,,,,,,,,,,,,,,,,
,,,,,,,,,,stimuli/images/PICTURE_509.png,PHOTO,5dcec32a367c6d000a4282c2,06/13/1953,2020-07-09_13h09.58.223,proactive,2020.1.2,Win32,60,5f073de81c76c3308c0e4fb3,5f0778f0b5dc8616cc45da78,6,,,,,,telephone,,,,,,0,11,11,21,1,3,0,,,,,,,,,,,,,,,,,,,,,,,,,,,,,,,,,,,,,,,,,,,,,,,,,,,,,,,,,,,,,,,,,,,,,,,,,,,
,,,,,,,,,,stimuli/images/PICTURE_744.png,SAKE,5dcec32a367c6d000a4282c2,06/13/1953,2020-07-09_13h09.58.223,proactive,2020.1.2,Win32,60,5f073de81c76c3308c0e4fb3,5f0778f0b5dc8616cc45da78,6,,,,,,ring,,,,,,0,12,12,17,1,2,0,,,,,,,,,,,,,,,,,,,,,,,,,,,,,,,,,,,,,,,,,,,,,,,,,,,,,,,,,,,,,,,,,,,,,,,,,,,
,,,,,,,,,,stimuli/images/PICTURE_308.png,KIND,5dcec32a367c6d000a4282c2,06/13/1953,2020-07-09_13h09.58.223,proactive,2020.1.2,Win32,60,5f073de81c76c3308c0e4fb3,5f0778f0b5dc8616cc45da78,6,,,,,,dice,,,,,,0,13,13,54,1,6,0,,,,,,,,,,,,,,,,,,,,,,,,,,,,,,,,,,,,,,,,,,,,,,,,,,,,,,,,,,,,,,,,,,,,,,,,,,,
,,,,,,,,,,stimuli/images/PICTURE_233.png,IDEAS,5dcec32a367c6d000a4282c2,06/13/1953,2020-07-09_13h09.58.223,proactive,2020.1.2,Win32,60,5f073de81c76c3308c0e4fb3,5f0778f0b5dc8616cc45da78,6,,,,,,salt,,,,,,0,14,14,28,1,3,0,,,,,,,,,,,,,,,,,,,,,,,,,,,,,,,,,,,,,,,,,,,,,,,,,,,,,,,,,,,,,,,,,,,,,,,,,,,
,,,,,,,,,,stimuli/images/PICTURE_380.png,DEATH,5dcec32a367c6d000a4282c2,06/13/1953,2020-07-09_13h09.58.223,proactive,2020.1.2,Win32,60,5f073de81c76c3308c0e4fb3,5f0778f0b5dc8616cc45da78,6,,,,,,gorilla,,,,,,0,15,15,49,1,5,0,,,,,,,,,,,,,,,,,,,,,,,,,,,,,,,,,,,,,,,,,,,,,,,,,,,,,,,,,,,,,,,,,,,,,,,,,,,
,,,,,,,,,,stimuli/images/PICTURE_708.png,PENNY,5dcec32a367c6d000a4282c2,06/13/1953,2020-07-09_13h09.58.223,proactive,2020.1.2,Win32,60,5f073de81c76c3308c0e4fb3,5f0778f0b5dc8616cc45da78,6,,,,,,monkey,,,,,,0,16,16,31,1,4,0,,,,,,,,,,,,,,,,,,,,,,,,,,,,,,,,,,,,,,,,,,,,,,,,,,,,,,,,,,,,,,,,,,,,,,,,,,,
,,,,,,,,,,stimuli/images/PICTURE_32.png,JUNGLE,5dcec32a367c6d000a4282c2,06/13/1953,2020-07-09_13h09.58.223,proactive,2020.1.2,Win32,60,5f073de81c76c3308c0e4fb3,5f0778f0b5dc8616cc45da78,6,,,,,,crown,,,,,,0,17,17,45,1,5,0,,,,,,,,,,,,,,,,,,,,,,,,,,,,,,,,,,,,,,,,,,,,,,,,,,,,,,,,,,,,,,,,,,,,,,,,,,,
,,,,,,,,,,stimuli/images/PICTURE_504.png,BODY,5dcec32a367c6d000a4282c2,06/13/1953,2020-07-09_13h09.58.223,proactive,2020.1.2,Win32,60,5f073de81c76c3308c0e4fb3,5f0778f0b5dc8616cc45da78,6,,,,,,wheel,,,,,,0,18,18,8,1,1,0,,,,,,,,,,,,,,,,,,,,,,,,,,,,,,,,,,,,,,,,,,,,,,,,,,,,,,,,,,,,,,,,,,,,,,,,,,,
,,,,,,,,,,stimuli/images/PICTURE_302.png,FAMILY,5dcec32a367c6d000a4282c2,06/13/1953,2020-07-09_13h09.58.223,proactive,2020.1.2,Win32,60,5f073de81c76c3308c0e4fb3,5f0778f0b5dc8616cc45da78,6,,,,,,taxi,,,,,,0,19,19,18,1,2,0,,,,,,,,,,,,,,,,,,,,,,,,,,,,,,,,,,,,,,,,,,,,,,,,,,,,,,,,,,,,,,,,,,,,,,,,,,,
,,,,,,,,,,stimuli/images/PICTURE_449.png,THING,5dcec32a367c6d000a4282c2,06/13/1953,2020-07-09_13h09.58.223,proactive,2020.1.2,Win32,60,5f073de81c76c3308c0e4fb3,5f0778f0b5dc8616cc45da78,6,,,,,,bench,,,,,,0,20,20,59,1,6,0,,,,,,,,,,,,,,,,,,,,,,,,,,,,,,,,,,,,,,,,,,,,,,,,,,,,,,,,,,,,,,,,,,,,,,,,,,,
,,,,,,,,,,stimuli/images/PICTURE_68.png,MILE,5dcec32a367c6d000a4282c2,06/13/1953,2020-07-09_13h09.58.223,proactive,2020.1.2,Win32,60,5f073de81c76c3308c0e4fb3,5f0778f0b5dc8616cc45da78,6,,,,,,candle,,,,,,0,21,21,44,1,5,0,,,,,,,,,,,,,,,,,,,,,,,,,,,,,,,,,,,,,,,,,,,,,,,,,,,,,,,,,,,,,,,,,,,,,,,,,,,
,,,,,,,,,,stimuli/images/PICTURE_85.png,THING,5dcec32a367c6d000a4282c2,06/13/1953,2020-07-09_13h09.58.223,proactive,2020.1.2,Win32,60,5f073de81c76c3308c0e4fb3,5f0778f0b5dc8616cc45da78,6,,,,,,diamond,,,,,,0,22,22,15,1,2,0,,,,,,,,,,,,,,,,,,,,,,,,,,,,,,,,,,,,,,,,,,,,,,,,,,,,,,,,,,,,,,,,,,,,,,,,,,,
,,,,,,,,,,stimuli/images/PICTURE_255.png,AREA,5dcec32a367c6d000a4282c2,06/13/1953,2020-07-09_13h09.58.223,proactive,2020.1.2,Win32,60,5f073de81c76c3308c0e4fb3,5f0778f0b5dc8616cc45da78,6,,,,,,shovel,,,,,,0,23,23,22,1,3,0,,,,,,,,,,,,,,,,,,,,,,,,,,,,,,,,,,,,,,,,,,,,,,,,,,,,,,,,,,,,,,,,,,,,,,,,,,,
,,,,,,,,,,stimuli/images/PICTURE_692.png,MONTH,5dcec32a367c6d000a4282c2,06/13/1953,2020-07-09_13h09.58.223,proactive,2020.1.2,Win32,60,5f073de81c76c3308c0e4fb3,5f0778f0b5dc8616cc45da78,6,,,,,,cherry,,,,,,0,24,24,16,1,2,0,,,,,,,,,,,,,,,,,,,,,,,,,,,,,,,,,,,,,,,,,,,,,,,,,,,,,,,,,,,,,,,,,,,,,,,,,,,
,,,,,,,,,,stimuli/images/PICTURE_151.png,GIRL,5dcec32a367c6d000a4282c2,06/13/1953,2020-07-09_13h09.58.223,proactive,2020.1.2,Win32,60,5f073de81c76c3308c0e4fb3,5f0778f0b5dc8616cc45da78,6,,,,,,tray,,,,,,0,25,25,19,1,2,0,,,,,,,,,,,,,,,,,,,,,,,,,,,,,,,,,,,,,,,,,,,,,,,,,,,,,,,,,,,,,,,,,,,,,,,,,,,
,,,,,,,,,,stimuli/images/PICTURE_233.png,WOMEN,5dcec32a367c6d000a4282c2,06/13/1953,2020-07-09_13h09.58.223,proactive,2020.1.2,Win32,60,5f073de81c76c3308c0e4fb3,5f0778f0b5dc8616cc45da78,6,,,,,,salt,,,,,,0,26,26,38,1,4,0,,,,,,,,,,,,,,,,,,,,,,,,,,,,,,,,,,,,,,,,,,,,,,,,,,,,,,,,,,,,,,,,,,,,,,,,,,,
,,,,,,,,,,stimuli/images/PICTURE_208.png,LOTS,5dcec32a367c6d000a4282c2,06/13/1953,2020-07-09_13h09.58.223,proactive,2020.1.2,Win32,60,5f073de81c76c3308c0e4fb3,5f0778f0b5dc8616cc45da78,6,,,,,,microphone,,,,,,0,27,27,10,1,2,0,,,,,,,,,,,,,,,,,,,,,,,,,,,,,,,,,,,,,,,,,,,,,,,,,,,,,,,,,,,,,,,,,,,,,,,,,,,
,,,,,,,,,,stimuli/images/PICTURE_177.png,CARS,5dcec32a367c6d000a4282c2,06/13/1953,2020-07-09_13h09.58.223,proactive,2020.1.2,Win32,60,5f073de81c76c3308c0e4fb3,5f0778f0b5dc8616cc45da78,6,,,,,,mushroom,,,,,,0,28,28,35,1,4,0,,,,,,,,,,,,,,,,,,,,,,,,,,,,,,,,,,,,,,,,,,,,,,,,,,,,,,,,,,,,,,,,,,,,,,,,,,,
,,,,,,,,,,stimuli/images/PICTURE_487.png,FLIGHT,5dcec32a367c6d000a4282c2,06/13/1953,2020-07-09_13h09.58.223,proactive,2020.1.2,Win32,60,5f073de81c76c3308c0e4fb3,5f0778f0b5dc8616cc45da78,6,,,,,,basket,,,,,,0,29,29,9,1,1,0,,,,,,,,,,,,,,,,,,,,,,,,,,,,,,,,,,,,,,,,,,,,,,,,,,,,,,,,,,,,,,,,,,,,,,,,,,,
,,,,,,,,,,stimuli/images/PICTURE_327.png,BEAUTY,5dcec32a367c6d000a4282c2,06/13/1953,2020-07-09_13h09.58.223,proactive,2020.1.2,Win32,60,5f073de81c76c3308c0e4fb3,5f0778f0b5dc8616cc45da78,6,,,,,,helmet,,,,,,0,30,30,48,1,5,0,,,,,,,,,,,,,,,,,,,,,,,,,,,,,,,,,,,,,,,,,,,,,,,,,,,,,,,,,,,,,,,,,,,,,,,,,,,
,,,,,,,,,,stimuli/images/PICTURE_356.png,DANGER,5dcec32a367c6d000a4282c2,06/13/1953,2020-07-09_13h09.58.223,proactive,2020.1.2,Win32,60,5f073de81c76c3308c0e4fb3,5f0778f0b5dc8616cc45da78,6,,,,,,pawn,,,,,,0,31,31,55,1,6,0,,,,,,,,,,,,,,,,,,,,,,,,,,,,,,,,,,,,,,,,,,,,,,,,,,,,,,,,,,,,,,,,,,,,,,,,,,,
,,,,,,,,,,stimuli/images/PICTURE_339.png,PLENTY,5dcec32a367c6d000a4282c2,06/13/1953,2020-07-09_13h09.58.223,proactive,2020.1.2,Win32,60,5f073de81c76c3308c0e4fb3,5f0778f0b5dc8616cc45da78,6,,,,,,backpack,,,,,,0,32,32,0,1,1,0,,,,,,,,,,,,,,,,,,,,,,,,,,,,,,,,,,,,,,,,,,,,,,,,,,,,,,,,,,,,,,,,,,,,,,,,,,,
,,,,,,,,,,stimuli/images/PICTURE_453.png,PLENTY,5dcec32a367c6d000a4282c2,06/13/1953,2020-07-09_13h09.58.223,proactive,2020.1.2,Win32,60,5f073de81c76c3308c0e4fb3,5f0778f0b5dc8616cc45da78,6,,,,,,scissors,,,,,,0,33,33,56,1,6,0,,,,,,,,,,,,,,,,,,,,,,,,,,,,,,,,,,,,,,,,,,,,,,,,,,,,,,,,,,,,,,,,,,,,,,,,,,,
,,,,,,,,,,stimuli/images/PICTURE_470.png,CASINO,5dcec32a367c6d000a4282c2,06/13/1953,2020-07-09_13h09.58.223,proactive,2020.1.2,Win32,60,5f073de81c76c3308c0e4fb3,5f0778f0b5dc8616cc45da78,6,,,,,,motorbike,,,,,,0,34,34,36,1,4,0,,,,,,,,,,,,,,,,,,,,,,,,,,,,,,,,,,,,,,,,,,,,,,,,,,,,,,,,,,,,,,,,,,,,,,,,,,,
,,,,,,,,,,stimuli/images/PICTURE_314.png,GODS,5dcec32a367c6d000a4282c2,06/13/1953,2020-07-09_13h09.58.223,proactive,2020.1.2,Win32,60,5f073de81c76c3308c0e4fb3,5f0778f0b5dc8616cc45da78,6,,,,,,perfume,,,,,,0,35,35,11,1,2,0,,,,,,,,,,,,,,,,,,,,,,,,,,,,,,,,,,,,,,,,,,,,,,,,,,,,,,,,,,,,,,,,,,,,,,,,,,,
,,,,,,,,,,stimuli/images/PICTURE_675.png,WEAPON,5dcec32a367c6d000a4282c2,06/13/1953,2020-07-09_13h09.58.223,proactive,2020.1.2,Win32,60,5f073de81c76c3308c0e4fb3,5f0778f0b5dc8616cc45da78,6,,,,,,windmill,,,,,,0,36,36,32,1,4,0,,,,,,,,,,,,,,,,,,,,,,,,,,,,,,,,,,,,,,,,,,,,,,,,,,,,,,,,,,,,,,,,,,,,,,,,,,,
,,,,,,,,,,stimuli/images/PICTURE_215.png,PLENTY,5dcec32a367c6d000a4282c2,06/13/1953,2020-07-09_13h09.58.223,proactive,2020.1.2,Win32,60,5f073de81c76c3308c0e4fb3,5f0778f0b5dc8616cc45da78,6,,,,,,boot,,,,,,0,37,37,37,1,4,0,,,,,,,,,,,,,,,,,,,,,,,,,,,,,,,,,,,,,,,,,,,,,,,,,,,,,,,,,,,,,,,,,,,,,,,,,,,
,,,,,,,,,,stimuli/images/PICTURE_453.png,DUDE,5dcec32a367c6d000a4282c2,06/13/1953,2020-07-09_13h09.58.223,proactive,2020.1.2,Win32,60,5f073de81c76c3308c0e4fb3,5f0778f0b5dc8616cc45da78,6,,,,,,scissors,,,,,,0,38,38,27,1,3,0,,,,,,,,,,,,,,,,,,,,,,,,,,,,,,,,,,,,,,,,,,,,,,,,,,,,,,,,,,,,,,,,,,,,,,,,,,,
,,,,,,,,,,stimuli/images/PICTURE_208.png,MONTH,5dcec32a367c6d000a4282c2,06/13/1953,2020-07-09_13h09.58.223,proactive,2020.1.2,Win32,60,5f073de81c76c3308c0e4fb3,5f0778f0b5dc8616cc45da78,6,,,,,,microphone,,,,,,0,39,39,53,1,6,0,,,,,,,,,,,,,,,,,,,,,,,,,,,,,,,,,,,,,,,,,,,,,,,,,,,,,,,,,,,,,,,,,,,,,,,,,,,
,,,,,,,,,,stimuli/images/PICTURE_285.png,ADVICE,5dcec32a367c6d000a4282c2,06/13/1953,2020-07-09_13h09.58.223,proactive,2020.1.2,Win32,60,5f073de81c76c3308c0e4fb3,5f0778f0b5dc8616cc45da78,6,,,,,,carrot,,,,,,0,40,40,12,1,2,0,,,,,,,,,,,,,,,,,,,,,,,,,,,,,,,,,,,,,,,,,,,,,,,,,,,,,,,,,,,,,,,,,,,,,,,,,,,
,,,,,,,,,,stimuli/images/PICTURE_123.png,ADVICE,5dcec32a367c6d000a4282c2,06/13/1953,2020-07-09_13h09.58.223,proactive,2020.1.2,Win32,60,5f073de81c76c3308c0e4fb3,5f0778f0b5dc8616cc45da78,6,,,,,,dart,,,,,,0,41,41,40,1,5,0,,,,,,,,,,,,,,,,,,,,,,,,,,,,,,,,,,,,,,,,,,,,,,,,,,,,,,,,,,,,,,,,,,,,,,,,,,,
,,,,,,,,,,stimuli/images/PICTURE_491.png,ROOF,5dcec32a367c6d000a4282c2,06/13/1953,2020-07-09_13h09.58.223,proactive,2020.1.2,Win32,60,5f073de81c76c3308c0e4fb3,5f0778f0b5dc8616cc45da78,6,,,,,,rug,,,,,,0,42,42,24,1,3,0,,,,,,,,,,,,,,,,,,,,,,,,,,,,,,,,,,,,,,,,,,,,,,,,,,,,,,,,,,,,,,,,,,,,,,,,,,,
,,,,,,,,,,stimuli/images/PICTURE_380.png,PHOTO,5dcec32a367c6d000a4282c2,06/13/1953,2020-07-09_13h09.58.223,proactive,2020.1.2,Win32,60,5f073de81c76c3308c0e4fb3,5f0778f0b5dc8616cc45da78,6,,,,,,gorilla,,,,,,0,43,43,52,1,6,0,,,,,,,,,,,,,,,,,,,,,,,,,,,,,,,,,,,,,,,,,,,,,,,,,,,,,,,,,,,,,,,,,,,,,,,,,,,
,,,,,,,,,,stimuli/images/PICTURE_160.png,FEET,5dcec32a367c6d000a4282c2,06/13/1953,2020-07-09_13h09.58.223,proactive,2020.1.2,Win32,60,5f073de81c76c3308c0e4fb3,5f0778f0b5dc8616cc45da78,6,,,,,,wheelbarrow,,,,,,0,44,44,58,1,6,0,,,,,,,,,,,,,,,,,,,,,,,,,,,,,,,,,,,,,,,,,,,,,,,,,,,,,,,,,,,,,,,,,,,,,,,,,,,
,,,,,,,,,,stimuli/images/PICTURE_667.png,BATH,5dcec32a367c6d000a4282c2,06/13/1953,2020-07-09_13h09.58.223,proactive,2020.1.2,Win32,60,5f073de81c76c3308c0e4fb3,5f0778f0b5dc8616cc45da78,6,,,,,,daisy,,,,,,0,45,45,4,1,1,0,,,,,,,,,,,,,,,,,,,,,,,,,,,,,,,,,,,,,,,,,,,,,,,,,,,,,,,,,,,,,,,,,,,,,,,,,,,
,,,,,,,,,,stimuli/images/PICTURE_123.png,ADVICE,5dcec32a367c6d000a4282c2,06/13/1953,2020-07-09_13h09.58.223,proactive,2020.1.2,Win32,60,5f073de81c76c3308c0e4fb3,5f0778f0b5dc8616cc45da78,6,,,,,,dart,,,,,,0,46,46,50,1,6,0,,,,,,,,,,,,,,,,,,,,,,,,,,,,,,,,,,,,,,,,,,,,,,,,,,,,,,,,,,,,,,,,,,,,,,,,,,,
,,,,,,,,,,stimuli/images/PICTURE_677.png,MILE,5dcec32a367c6d000a4282c2,06/13/1953,2020-07-09_13h09.58.223,proactive,2020.1.2,Win32,60,5f073de81c76c3308c0e4fb3,5f0778f0b5dc8616cc45da78,6,,,,,,map,,,,,,0,47,47,30,1,4,0,,,,,,,,,,,,,,,,,,,,,,,,,,,,,,,,,,,,,,,,,,,,,,,,,,,,,,,,,,,,,,,,,,,,,,,,,,,
,,,,,,,,,,stimuli/images/PICTURE_688.png,WOMEN,5dcec32a367c6d000a4282c2,06/13/1953,2020-07-09_13h09.58.223,proactive,2020.1.2,Win32,60,5f073de81c76c3308c0e4fb3,5f0778f0b5dc8616cc45da78,6,,,,,,runner,,,,,,0,48,48,14,1,2,0,,,,,,,,,,,,,,,,,,,,,,,,,,,,,,,,,,,,,,,,,,,,,,,,,,,,,,,,,,,,,,,,,,,,,,,,,,,
,,,,,,,,,,stimuli/images/PICTURE_469.png,ARTIST,5dcec32a367c6d000a4282c2,06/13/1953,2020-07-09_13h09.58.223,proactive,2020.1.2,Win32,60,5f073de81c76c3308c0e4fb3,5f0778f0b5dc8616cc45da78,6,,,,,,stool,,,,,,0,49,49,6,1,1,0,,,,,,,,,,,,,,,,,,,,,,,,,,,,,,,,,,,,,,,,,,,,,,,,,,,,,,,,,,,,,,,,,,,,,,,,,,,
,,,,,,,,,,stimuli/images/PICTURE_208.png,THING,5dcec32a367c6d000a4282c2,06/13/1953,2020-07-09_13h09.58.223,proactive,2020.1.2,Win32,60,5f073de81c76c3308c0e4fb3,5f0778f0b5dc8616cc45da78,6,,,,,,microphone,,,,,,0,50,50,47,1,5,0,,,,,,,,,,,,,,,,,,,,,,,,,,,,,,,,,,,,,,,,,,,,,,,,,,,,,,,,,,,,,,,,,,,,,,,,,,,
,,,,,,,,,,stimuli/images/PICTURE_314.png,SAKE,5dcec32a367c6d000a4282c2,06/13/1953,2020-07-09_13h09.58.223,proactive,2020.1.2,Win32,60,5f073de81c76c3308c0e4fb3,5f0778f0b5dc8616cc45da78,6,,,,,,perfume,,,,,,0,51,51,7,1,1,0,,,,,,,,,,,,,,,,,,,,,,,,,,,,,,,,,,,,,,,,,,,,,,,,,,,,,,,,,,,,,,,,,,,,,,,,,,,
,,,,,,,,,,stimuli/images/PICTURE_667.png,PLENTY,5dcec32a367c6d000a4282c2,06/13/1953,2020-07-09_13h09.58.223,proactive,2020.1.2,Win32,60,5f073de81c76c3308c0e4fb3,5f0778f0b5dc8616cc45da78,6,,,,,,daisy,,,,,,0,52,52,41,1,5,0,,,,,,,,,,,,,,,,,,,,,,,,,,,,,,,,,,,,,,,,,,,,,,,,,,,,,,,,,,,,,,,,,,,,,,,,,,,
,,,,,,,,,,stimuli/images/PICTURE_491.png,WRITER,5dcec32a367c6d000a4282c2,06/13/1953,2020-07-09_13h09.58.223,proactive,2020.1.2,Win32,60,5f073de81c76c3308c0e4fb3,5f0778f0b5dc8616cc45da78,6,,,,,,rug,,,,,,0,53,53,57,1,6,0,,,,,,,,,,,,,,,,,,,,,,,,,,,,,,,,,,,,,,,,,,,,,,,,,,,,,,,,,,,,,,,,,,,,,,,,,,,
,,,,,,,,,,stimuli/images/PICTURE_95.png,STYLE,5dcec32a367c6d000a4282c2,06/13/1953,2020-07-09_13h09.58.223,proactive,2020.1.2,Win32,60,5f073de81c76c3308c0e4fb3,5f0778f0b5dc8616cc45da78,6,,,,,,suitcase,,,,,,0,54,54,25,1,3,0,,,,,,,,,,,,,,,,,,,,,,,,,,,,,,,,,,,,,,,,,,,,,,,,,,,,,,,,,,,,,,,,,,,,,,,,,,,
,,,,,,,,,,stimuli/images/PICTURE_311.png,FRIEND,5dcec32a367c6d000a4282c2,06/13/1953,2020-07-09_13h09.58.223,proactive,2020.1.2,Win32,60,5f073de81c76c3308c0e4fb3,5f0778f0b5dc8616cc45da78,6,,,,,,razor,,,,,,0,55,55,34,1,4,0,,,,,,,,,,,,,,,,,,,,,,,,,,,,,,,,,,,,,,,,,,,,,,,,,,,,,,,,,,,,,,,,,,,,,,,,,,,
,,,,,,,,,,stimuli/images/PICTURE_248.png,DOZEN,5dcec32a367c6d000a4282c2,06/13/1953,2020-07-09_13h09.58.223,proactive,2020.1.2,Win32,60,5f073de81c76c3308c0e4fb3,5f0778f0b5dc8616cc45da78,6,,,,,,cart,,,,,,0,56,56,39,1,4,0,,,,,,,,,,,,,,,,,,,,,,,,,,,,,,,,,,,,,,,,,,,,,,,,,,,,,,,,,,,,,,,,,,,,,,,,,,,
,,,,,,,,,,stimuli/images/PICTURE_744.png,SYSTEM,5dcec32a367c6d000a4282c2,06/13/1953,2020-07-09_13h09.58.223,proactive,2020.1.2,Win32,60,5f073de81c76c3308c0e4fb3,5f0778f0b5dc8616cc45da78,6,,,,,,ring,,,,,,0,57,57,43,1,5,0,,,,,,,,,,,,,,,,,,,,,,,,,,,,,,,,,,,,,,,,,,,,,,,,,,,,,,,,,,,,,,,,,,,,,,,,,,,
,,,,,,,,,,stimuli/images/PICTURE_469.png,LETTER,5dcec32a367c6d000a4282c2,06/13/1953,2020-07-09_13h09.58.223,proactive,2020.1.2,Win32,60,5f073de81c76c3308c0e4fb3,5f0778f0b5dc8616cc45da78,6,,,,,,stool,,,,,,0,58,58,42,1,5,0,,,,,,,,,,,,,,,,,,,,,,,,,,,,,,,,,,,,,,,,,,,,,,,,,,,,,,,,,,,,,,,,,,,,,,,,,,,
,,?,0,0,,,,,,stimuli/images/PICTURE_667.png,PLENTY,5dcec32a367c6d000a4282c2,06/13/1953,2020-07-09_13h09.58.223,proactive,2020.1.2,Win32,60,5f073de81c76c3308c0e4fb3,5f0778f0b5dc8616cc45da78,6,,,,,,daisy,,,,,,,,,,,5,0,0,0,0,41,1,,,,,,,,,,,,,,,,,,,,,,,,,,,,,,,,,,,,,,,,,,,,,,,,,,,,,,,,,,,,,,,,,,,,,,
,,DICE,3.853,0,,,,,,stimuli/images/PICTURE_147.png,MOMENT,5dcec32a367c6d000a4282c2,06/13/1953,2020-07-09_13h09.58.223,proactive,2020.1.2,Win32,60,5f073de81c76c3308c0e4fb3,5f0778f0b5dc8616cc45da78,6,,,,,,hanger,,,,,,,,,,,6,0,0,1,1,51,1,,,,,,,,,,,,,,,,,,,,,,,,,,,,,,,,,,,,,,,,,,,,,,,,,,,,,,,,,,,,,,,,,,,,,,
,,?,0.006,0,,,,,,stimuli/images/PICTURE_248.png,DOZEN,5dcec32a367c6d000a4282c2,06/13/1953,2020-07-09_13h09.58.223,proactive,2020.1.2,Win32,60,5f073de81c76c3308c0e4fb3,5f0778f0b5dc8616cc45da78,6,,,,,,cart,,,,,,,,,,,4,0,0,2,2,39,1,,,,,,,,,,,,,,,,,,,,,,,,,,,,,,,,,,,,,,,,,,,,,,,,,,,,,,,,,,,,,,,,,,,,,,
,,?,0.001,0,,,,,,stimuli/images/PICTURE_314.png,GODS,5dcec32a367c6d000a4282c2,06/13/1953,2020-07-09_13h09.58.223,proactive,2020.1.2,Win32,60,5f073de81c76c3308c0e4fb3,5f0778f0b5dc8616cc45da78,6,,,,,,perfume,,,,,,,,,,,2,0,0,3,3,11,1,,,,,,,,,,,,,,,,,,,,,,,,,,,,,,,,,,,,,,,,,,,,,,,,,,,,,,,,,,,,,,,,,,,,,,
,,?,0.002,0,,,,,,stimuli/images/PICTURE_160.png,LEADER,5dcec32a367c6d000a4282c2,06/13/1953,2020-07-09_13h09.58.223,proactive,2020.1.2,Win32,60,5f073de81c76c3308c0e4fb3,5f0778f0b5dc8616cc45da78,6,,,,,,wheelbarrow,,,,,,,,,,,1,0,0,4,4,3,1,,,,,,,,,,,,,,,,,,,,,,,,,,,,,,,,,,,,,,,,,,,,,,,,,,,,,,,,,,,,,,,,,,,,,,
,,?,0.001,0,,,,,,stimuli/images/PICTURE_488.png,STYLE,5dcec32a367c6d000a4282c2,06/13/1953,2020-07-09_13h09.58.223,proactive,2020.1.2,Win32,60,5f073de81c76c3308c0e4fb3,5f0778f0b5dc8616cc45da78,6,,,,,,sun,,,,,,,,,,,4,0,0,5,5,33,1,,,,,,,,,,,,,,,,,,,,,,,,,,,,,,,,,,,,,,,,,,,,,,,,,,,,,,,,,,,,,,,,,,,,,,
,,?,0.001,0,,,,,,stimuli/images/PICTURE_675.png,WEAPON,5dcec32a367c6d000a4282c2,06/13/1953,2020-07-09_13h09.58.223,proactive,2020.1.2,Win32,60,5f073de81c76c3308c0e4fb3,5f0778f0b5dc8616cc45da78,6,,,,,,windmill,,,,,,,,,,,4,0,0,6,6,32,1,,,,,,,,,,,,,,,,,,,,,,,,,,,,,,,,,,,,,,,,,,,,,,,,,,,,,,,,,,,,,,,,,,,,,,
,,MIRROR,6.502,0,,,,,,stimuli/images/PICTURE_308.png,KIND,5dcec32a367c6d000a4282c2,06/13/1953,2020-07-09_13h09.58.223,proactive,2020.1.2,Win32,60,5f073de81c76c3308c0e4fb3,5f0778f0b5dc8616cc45da78,6,,,,,,dice,,,,,,,,,,,6,0,0,7,7,54,1,,,,,,,,,,,,,,,,,,,,,,,,,,,,,,,,,,,,,,,,,,,,,,,,,,,,,,,,,,,,,,,,,,,,,,
,,?,0.005,0,,,,,,stimuli/images/PICTURE_692.png,MONTH,5dcec32a367c6d000a4282c2,06/13/1953,2020-07-09_13h09.58.223,proactive,2020.1.2,Win32,60,5f073de81c76c3308c0e4fb3,5f0778f0b5dc8616cc45da78,6,,,,,,cherry,,,,,,,,,,,2,0,0,8,8,16,1,,,,,,,,,,,,,,,,,,,,,,,,,,,,,,,,,,,,,,,,,,,,,,,,,,,,,,,,,,,,,,,,,,,,,,
,,?,0.001,0,,,,,,stimuli/images/PICTURE_667.png,BATH,5dcec32a367c6d000a4282c2,06/13/1953,2020-07-09_13h09.58.223,proactive,2020.1.2,Win32,60,5f073de81c76c3308c0e4fb3,5f0778f0b5dc8616cc45da78,6,,,,,,daisy,,,,,,,,,,,1,0,0,9,9,4,1,,,,,,,,,,,,,,,,,,,,,,,,,,,,,,,,,,,,,,,,,,,,,,,,,,,,,,,,,,,,,,,,,,,,,,
,,?,0,0,,,,,,stimuli/images/PICTURE_469.png,LETTER,5dcec32a367c6d000a4282c2,06/13/1953,2020-07-09_13h09.58.223,proactive,2020.1.2,Win32,60,5f073de81c76c3308c0e4fb3,5f0778f0b5dc8616cc45da78,6,,,,,,stool,,,,,,,,,,,5,0,0,10,10,42,1,,,,,,,,,,,,,,,,,,,,,,,,,,,,,,,,,,,,,,,,,,,,,,,,,,,,,,,,,,,,,,,,,,,,,,
,,?,0.001,0,,,,,,stimuli/images/PICTURE_677.png,MILE,5dcec32a367c6d000a4282c2,06/13/1953,2020-07-09_13h09.58.223,proactive,2020.1.2,Win32,60,5f073de81c76c3308c0e4fb3,5f0778f0b5dc8616cc45da78,6,,,,,,map,,,,,,,,,,,4,0,0,11,11,30,1,,,,,,,,,,,,,,,,,,,,,,,,,,,,,,,,,,,,,,,,,,,,,,,,,,,,,,,,,,,,,,,,,,,,,,
,,ADVICE,7.386,1,,,,,,stimuli/images/PICTURE_123.png,ADVICE,5dcec32a367c6d000a4282c2,06/13/1953,2020-07-09_13h09.58.223,proactive,2020.1.2,Win32,60,5f073de81c76c3308c0e4fb3,5f0778f0b5dc8616cc45da78,6,,,,,,dart,,,,,,,,,,,6,0,0,12,12,50,1,,,,,,,,,,,,,,,,,,,,,,,,,,,,,,,,,,,,,,,,,,,,,,,,,,,,,,,,,,,,,,,,,,,,,,
,,?,0.005,0,,,,,,stimuli/images/PICTURE_470.png,CASINO,5dcec32a367c6d000a4282c2,06/13/1953,2020-07-09_13h09.58.223,proactive,2020.1.2,Win32,60,5f073de81c76c3308c0e4fb3,5f0778f0b5dc8616cc45da78,6,,,,,,motorbike,,,,,,,,,,,4,0,0,13,13,36,1,,,,,,,,,,,,,,,,,,,,,,,,,,,,,,,,,,,,,,,,,,,,,,,,,,,,,,,,,,,,,,,,,,,,,,
,,?,0,0,,,,,,stimuli/images/PICTURE_469.png,ARTIST,5dcec32a367c6d000a4282c2,06/13/1953,2020-07-09_13h09.58.223,proactive,2020.1.2,Win32,60,5f073de81c76c3308c0e4fb3,5f0778f0b5dc8616cc45da78,6,,,,,,stool,,,,,,,,,,,1,0,0,14,14,6,1,,,,,,,,,,,,,,,,,,,,,,,,,,,,,,,,,,,,,,,,,,,,,,,,,,,,,,,,,,,,,,,,,,,,,,
,,?,0.002,0,,,,,,stimuli/images/PICTURE_308.png,ESTATE,5dcec32a367c6d000a4282c2,06/13/1953,2020-07-09_13h09.58.223,proactive,2020.1.2,Win32,60,5f073de81c76c3308c0e4fb3,5f0778f0b5dc8616cc45da78,6,,,,,,dice,,,,,,,,,,,5,0,0,15,15,46,1,,,,,,,,,,,,,,,,,,,,,,,,,,,,,,,,,,,,,,,,,,,,,,,,,,,,,,,,,,,,,,,,,,,,,,
,,?,0,0,,,,,,stimuli/images/PICTURE_744.png,SAKE,5dcec32a367c6d000a4282c2,06/13/1953,2020-07-09_13h09.58.223,proactive,2020.1.2,Win32,60,5f073de81c76c3308c0e4fb3,5f0778f0b5dc8616cc45da78,6,,,,,,ring,,,,,,,,,,,2,0,0,16,16,17,1,,,,,,,,,,,,,,,,,,,,,,,,,,,,,,,,,,,,,,,,,,,,,,,,,,,,,,,,,,,,,,,,,,,,,,
,,?,0.002,0,,,,,,stimuli/images/PICTURE_302.png,FAMILY,5dcec32a367c6d000a4282c2,06/13/1953,2020-07-09_13h09.58.223,proactive,2020.1.2,Win32,60,5f073de81c76c3308c0e4fb3,5f0778f0b5dc8616cc45da78,6,,,,,,taxi,,,,,,,,,,,2,0,0,17,17,18,1,,,,,,,,,,,,,,,,,,,,,,,,,,,,,,,,,,,,,,,,,,,,,,,,,,,,,,,,,,,,,,,,,,,,,,
,,?,0.001,0,,,,,,stimuli/images/PICTURE_504.png,BODY,5dcec32a367c6d000a4282c2,06/13/1953,2020-07-09_13h09.58.223,proactive,2020.1.2,Win32,60,5f073de81c76c3308c0e4fb3,5f0778f0b5dc8616cc45da78,6,,,,,,wheel,,,,,,,,,,,1,0,0,18,18,8,1,,,,,,,,,,,,,,,,,,,,,,,,,,,,,,,,,,,,,,,,,,,,,,,,,,,,,,,,,,,,,,,,,,,,,,
,,?,0.004,0,,,,,,stimuli/images/PICTURE_453.png,DUDE,5dcec32a367c6d000a4282c2,06/13/1953,2020-07-09_13h09.58.223,proactive,2020.1.2,Win32,60,5f073de81c76c3308c0e4fb3,5f0778f0b5dc8616cc45da78,6,,,,,,scissors,,,,,,,,,,,3,0,0,19,19,27,1,,,,,,,,,,,,,,,,,,,,,,,,,,,,,,,,,,,,,,,,,,,,,,,,,,,,,,,,,,,,,,,,,,,,,,
,,?,0.001,0,,,,,,stimuli/images/PICTURE_314.png,SAKE,5dcec32a367c6d000a4282c2,06/13/1953,2020-07-09_13h09.58.223,proactive,2020.1.2,Win32,60,5f073de81c76c3308c0e4fb3,5f0778f0b5dc8616cc45da78,6,,,,,,perfume,,,,,,,,,,,1,0,0,20,20,7,1,,,,,,,,,,,,,,,,,,,,,,,,,,,,,,,,,,,,,,,,,,,,,,,,,,,,,,,,,,,,,,,,,,,,,,
,,ARROW,5.56,0,,,,,,stimuli/images/PICTURE_380.png,PHOTO,5dcec32a367c6d000a4282c2,06/13/1953,2020-07-09_13h09.58.223,proactive,2020.1.2,Win32,60,5f073de81c76c3308c0e4fb3,5f0778f0b5dc8616cc45da78,6,,,,,,gorilla,,,,,,,,,,,6,0,0,21,21,52,1,,,,,,,,,,,,,,,,,,,,,,,,,,,,,,,,,,,,,,,,,,,,,,,,,,,,,,,,,,,,,,,,,,,,,,
,,?,0.005,0,,,,,,stimuli/images/PICTURE_708.png,CLIENT,5dcec32a367c6d000a4282c2,06/13/1953,2020-07-09_13h09.58.223,proactive,2020.1.2,Win32,60,5f073de81c76c3308c0e4fb3,5f0778f0b5dc8616cc45da78,6,,,,,,monkey,,,,,,,,,,,1,0,0,22,22,5,1,,,,,,,,,,,,,,,,,,,,,,,,,,,,,,,,,,,,,,,,,,,,,,,,,,,,,,,,,,,,,,,,,,,,,,
,,?,0,0,,,,,,stimuli/images/PICTURE_151.png,GIRL,5dcec32a367c6d000a4282c2,06/13/1953,2020-07-09_13h09.58.223,proactive,2020.1.2,Win32,60,5f073de81c76c3308c0e4fb3,5f0778f0b5dc8616cc45da78,6,,,,,,tray,,,,,,,,,,,2,0,0,23,23,19,1,,,,,,,,,,,,,,,,,,,,,,,,,,,,,,,,,,,,,,,,,,,,,,,,,,,,,,,,,,,,,,,,,,,,,,
,,MAIL,4.558,0,,,,,,stimuli/images/PICTURE_453.png,PLENTY,5dcec32a367c6d000a4282c2,06/13/1953,2020-07-09_13h09.58.223,proactive,2020.1.2,Win32,60,5f073de81c76c3308c0e4fb3,5f0778f0b5dc8616cc45da78,6,,,,,,scissors,,,,,,,,,,,6,0,0,24,24,56,1,,,,,,,,,,,,,,,,,,,,,,,,,,,,,,,,,,,,,,,,,,,,,,,,,,,,,,,,,,,,,,,,,,,,,,
,,?,0.004,0,,,,,,stimuli/images/PICTURE_311.png,BEAUTY,5dcec32a367c6d000a4282c2,06/13/1953,2020-07-09_13h09.58.223,proactive,2020.1.2,Win32,60,5f073de81c76c3308c0e4fb3,5f0778f0b5dc8616cc45da78,6,,,,,,razor,,,,,,,,,,,2,0,0,25,25,13,1,,,,,,,,,,,,,,,,,,,,,,,,,,,,,,,,,,,,,,,,,,,,,,,,,,,,,,,,,,,,,,,,,,,,,,
,,?,0,0,,,,,,stimuli/images/PICTURE_708.png,YARD,5dcec32a367c6d000a4282c2,06/13/1953,2020-07-09_13h09.58.223,proactive,2020.1.2,Win32,60,5f073de81c76c3308c0e4fb3,5f0778f0b5dc8616cc45da78,6,,,,,,monkey,,,,,,,,,,,3,0,0,26,26,29,1,,,,,,,,,,,,,,,,,,,,,,,,,,,,,,,,,,,,,,,,,,,,,,,,,,,,,,,,,,,,,,,,,,,,,,
,,?,0.001,0,,,,,,stimuli/images/PICTURE_177.png,CARS,5dcec32a367c6d000a4282c2,06/13/1953,2020-07-09_13h09.58.223,proactive,2020.1.2,Win32,60,5f073de81c76c3308c0e4fb3,5f0778f0b5dc8616cc45da78,6,,,,,,mushroom,,,,,,,,,,,4,0,0,27,27,35,1,,,,,,,,,,,,,,,,,,,,,,,,,,,,,,,,,,,,,,,,,,,,,,,,,,,,,,,,,,,,,,,,,,,,,,
,,?,0,0,,,,,,stimuli/images/PICTURE_327.png,BEAUTY,5dcec32a367c6d000a4282c2,06/13/1953,2020-07-09_13h09.58.223,proactive,2020.1.2,Win32,60,5f073de81c76c3308c0e4fb3,5f0778f0b5dc8616cc45da78,6,,,,,,helmet,,,,,,,,,,,5,0,0,28,28,48,1,,,,,,,,,,,,,,,,,,,,,,,,,,,,,,,,,,,,,,,,,,,,,,,,,,,,,,,,,,,,,,,,,,,,,,
,,?,0.001,0,,,,,,stimuli/images/PICTURE_487.png,FLIGHT,5dcec32a367c6d000a4282c2,06/13/1953,2020-07-09_13h09.58.223,proactive,2020.1.2,Win32,60,5f073de81c76c3308c0e4fb3,5f0778f0b5dc8616cc45da78,6,,,,,,basket,,,,,,,,,,,1,0,0,29,29,9,1,,,,,,,,,,,,,,,,,,,,,,,,,,,,,,,,,,,,,,,,,,,,,,,,,,,,,,,,,,,,,,,,,,,,,,
,,?,0.001,0,,,,,,stimuli/images/PICTURE_311.png,FRIEND,5dcec32a367c6d000a4282c2,06/13/1953,2020-07-09_13h09.58.223,proactive,2020.1.2,Win32,60,5f073de81c76c3308c0e4fb3,5f0778f0b5dc8616cc45da78,6,,,,,,razor,,,,,,,,,,,4,0,0,30,30,34,1,,,,,,,,,,,,,,,,,,,,,,,,,,,,,,,,,,,,,,,,,,,,,,,,,,,,,,,,,,,,,,,,,,,,,,
,,PLASTER,5.197,0,,,,,,stimuli/images/PICTURE_356.png,DANGER,5dcec32a367c6d000a4282c2,06/13/1953,2020-07-09_13h09.58.223,proactive,2020.1.2,Win32,60,5f073de81c76c3308c0e4fb3,5f0778f0b5dc8616cc45da78,6,,,,,,pawn,,,,,,,,,,,6,0,0,31,31,55,1,,,,,,,,,,,,,,,,,,,,,,,,,,,,,,,,,,,,,,,,,,,,,,,,,,,,,,,,,,,,,,,,,,,,,,
,,?,0.005,0,,,,,,stimuli/images/PICTURE_509.png,PHOTO,5dcec32a367c6d000a4282c2,06/13/1953,2020-07-09_13h09.58.223,proactive,2020.1.2,Win32,60,5f073de81c76c3308c0e4fb3,5f0778f0b5dc8616cc45da78,6,,,,,,telephone,,,,,,,,,,,3,0,0,32,32,21,1,,,,,,,,,,,,,,,,,,,,,,,,,,,,,,,,,,,,,,,,,,,,,,,,,,,,,,,,,,,,,,,,,,,,,,
,,?,0.001,0,,,,,,stimuli/images/PICTURE_688.png,CASINO,5dcec32a367c6d000a4282c2,06/13/1953,2020-07-09_13h09.58.223,proactive,2020.1.2,Win32,60,5f073de81c76c3308c0e4fb3,5f0778f0b5dc8616cc45da78,6,,,,,,runner,,,,,,,,,,,1,0,0,33,33,2,1,,,,,,,,,,,,,,,,,,,,,,,,,,,,,,,,,,,,,,,,,,,,,,,,,,,,,,,,,,,,,,,,,,,,,,
,,?,0.001,0,,,,,,stimuli/images/PICTURE_380.png,DEATH,5dcec32a367c6d000a4282c2,06/13/1953,2020-07-09_13h09.58.223,proactive,2020.1.2,Win32,60,5f073de81c76c3308c0e4fb3,5f0778f0b5dc8616cc45da78,6,,,,,,gorilla,,,,,,,,,,,5,0,0,34,34,49,1,,,,,,,,,,,,,,,,,,,,,,,,,,,,,,,,,,,,,,,,,,,,,,,,,,,,,,,,,,,,,,,,,,,,,,
,,?,0.001,0,,,,,,stimuli/images/PICTURE_285.png,ADVICE,5dcec32a367c6d000a4282c2,06/13/1953,2020-07-09_13h09.58.223,proactive,2020.1.2,Win32,60,5f073de81c76c3308c0e4fb3,5f0778f0b5dc8616cc45da78,6,,,,,,carrot,,,,,,,,,,,2,0,0,35,35,12,1,,,,,,,,,,,,,,,,,,,,,,,,,,,,,,,,,,,,,,,,,,,,,,,,,,,,,,,,,,,,,,,,,,,,,,
,,?,0.001,0,,,,,,stimuli/images/PICTURE_68.png,MILE,5dcec32a367c6d000a4282c2,06/13/1953,2020-07-09_13h09.58.223,proactive,2020.1.2,Win32,60,5f073de81c76c3308c0e4fb3,5f0778f0b5dc8616cc45da78,6,,,,,,candle,,,,,,,,,,,5,0,0,36,36,44,1,,,,,,,,,,,,,,,,,,,,,,,,,,,,,,,,,,,,,,,,,,,,,,,,,,,,,,,,,,,,,,,,,,,,,,
,,?,0.002,0,,,,,,stimuli/images/PICTURE_339.png,PLENTY,5dcec32a367c6d000a4282c2,06/13/1953,2020-07-09_13h09.58.223,proactive,2020.1.2,Win32,60,5f073de81c76c3308c0e4fb3,5f0778f0b5dc8616cc45da78,6,,,,,,backpack,,,,,,,,,,,1,0,0,37,37,0,1,,,,,,,,,,,,,,,,,,,,,,,,,,,,,,,,,,,,,,,,,,,,,,,,,,,,,,,,,,,,,,,,,,,,,,
,,?,0.001,0,,,,,,stimuli/images/PICTURE_708.png,PENNY,5dcec32a367c6d000a4282c2,06/13/1953,2020-07-09_13h09.58.223,proactive,2020.1.2,Win32,60,5f073de81c76c3308c0e4fb3,5f0778f0b5dc8616cc45da78,6,,,,,,monkey,,,,,,,,,,,4,0,0,38,38,31,1,,,,,,,,,,,,,,,,,,,,,,,,,,,,,,,,,,,,,,,,,,,,,,,,,,,,,,,,,,,,,,,,,,,,,,
,,?,0,0,,,,,,stimuli/images/PICTURE_654.png,VALLEY,5dcec32a367c6d000a4282c2,06/13/1953,2020-07-09_13h09.58.223,proactive,2020.1.2,Win32,60,5f073de81c76c3308c0e4fb3,5f0778f0b5dc8616cc45da78,6,,,,,,pencil,,,,,,,,,,,1,0,0,39,39,1,1,,,,,,,,,,,,,,,,,,,,,,,,,,,,,,,,,,,,,,,,,,,,,,,,,,,,,,,,,,,,,,,,,,,,,,
,,?,0,0,,,,,,stimuli/images/PICTURE_208.png,THING,5dcec32a367c6d000a4282c2,06/13/1953,2020-07-09_13h09.58.223,proactive,2020.1.2,Win32,60,5f073de81c76c3308c0e4fb3,5f0778f0b5dc8616cc45da78,6,,,,,,microphone,,,,,,,,,,,5,0,0,40,40,47,1,,,,,,,,,,,,,,,,,,,,,,,,,,,,,,,,,,,,,,,,,,,,,,,,,,,,,,,,,,,,,,,,,,,,,,
,,SHOVEL,6.59,0,,,,,,stimuli/images/PICTURE_160.png,FEET,5dcec32a367c6d000a4282c2,06/13/1953,2020-07-09_13h09.58.223,proactive,2020.1.2,Win32,60,5f073de81c76c3308c0e4fb3,5f0778f0b5dc8616cc45da78,6,,,,,,wheelbarrow,,,,,,,,,,,6,0,0,41,41,58,1,,,,,,,,,,,,,,,,,,,,,,,,,,,,,,,,,,,,,,,,,,,,,,,,,,,,,,,,,,,,,,,,,,,,,,
,,?,0.005,0,,,,,,stimuli/images/PICTURE_85.png,THING,5dcec32a367c6d000a4282c2,06/13/1953,2020-07-09_13h09.58.223,proactive,2020.1.2,Win32,60,5f073de81c76c3308c0e4fb3,5f0778f0b5dc8616cc45da78,6,,,,,,diamond,,,,,,,,,,,2,0,0,42,42,15,1,,,,,,,,,,,,,,,,,,,,,,,,,,,,,,,,,,,,,,,,,,,,,,,,,,,,,,,,,,,,,,,,,,,,,,
,,?,0.002,0,,,,,,stimuli/images/PICTURE_467.png,DEMON,5dcec32a367c6d000a4282c2,06/13/1953,2020-07-09_13h09.58.223,proactive,2020.1.2,Win32,60,5f073de81c76c3308c0e4fb3,5f0778f0b5dc8616cc45da78,6,,,,,,peg,,,,,,,,,,,3,0,0,43,43,23,1,,,,,,,,,,,,,,,,,,,,,,,,,,,,,,,,,,,,,,,,,,,,,,,,,,,,,,,,,,,,,,,,,,,,,,
,,?,0.001,0,,,,,,stimuli/images/PICTURE_208.png,LOTS,5dcec32a367c6d000a4282c2,06/13/1953,2020-07-09_13h09.58.223,proactive,2020.1.2,Win32,60,5f073de81c76c3308c0e4fb3,5f0778f0b5dc8616cc45da78,6,,,,,,microphone,,,,,,,,,,,2,0,0,44,44,10,1,,,,,,,,,,,,,,,,,,,,,,,,,,,,,,,,,,,,,,,,,,,,,,,,,,,,,,,,,,,,,,,,,,,,,,
,,?,0.001,0,,,,,,stimuli/images/PICTURE_348.png,SPEECH,5dcec32a367c6d000a4282c2,06/13/1953,2020-07-09_13h09.58.223,proactive,2020.1.2,Win32,60,5f073de81c76c3308c0e4fb3,5f0778f0b5dc8616cc45da78,6,,,,,,pepper,,,,,,,,,,,3,0,0,45,45,20,1,,,,,,,,,,,,,,,,,,,,,,,,,,,,,,,,,,,,,,,,,,,,,,,,,,,,,,,,,,,,,,,,,,,,,,
,,?,0.001,0,,,,,,stimuli/images/PICTURE_233.png,IDEAS,5dcec32a367c6d000a4282c2,06/13/1953,2020-07-09_13h09.58.223,proactive,2020.1.2,Win32,60,5f073de81c76c3308c0e4fb3,5f0778f0b5dc8616cc45da78,6,,,,,,salt,,,,,,,,,,,3,0,0,46,46,28,1,,,,,,,,,,,,,,,,,,,,,,,,,,,,,,,,,,,,,,,,,,,,,,,,,,,,,,,,,,,,,,,,,,,,,,
,,?,0,0,,,,,,stimuli/images/PICTURE_32.png,JUNGLE,5dcec32a367c6d000a4282c2,06/13/1953,2020-07-09_13h09.58.223,proactive,2020.1.2,Win32,60,5f073de81c76c3308c0e4fb3,5f0778f0b5dc8616cc45da78,6,,,,,,crown,,,,,,,,,,,5,0,0,47,47,45,1,,,,,,,,,,,,,,,,,,,,,,,,,,,,,,,,,,,,,,,,,,,,,,,,,,,,,,,,,,,,,,,,,,,,,,
,,?,0.001,0,,,,,,stimuli/images/PICTURE_688.png,WOMEN,5dcec32a367c6d000a4282c2,06/13/1953,2020-07-09_13h09.58.223,proactive,2020.1.2,Win32,60,5f073de81c76c3308c0e4fb3,5f0778f0b5dc8616cc45da78,6,,,,,,runner,,,,,,,,,,,2,0,0,48,48,14,1,,,,,,,,,,,,,,,,,,,,,,,,,,,,,,,,,,,,,,,,,,,,,,,,,,,,,,,,,,,,,,,,,,,,,,
,,DAGGER,4.612,0,,,,,,stimuli/images/PICTURE_491.png,WRITER,5dcec32a367c6d000a4282c2,06/13/1953,2020-07-09_13h09.58.223,proactive,2020.1.2,Win32,60,5f073de81c76c3308c0e4fb3,5f0778f0b5dc8616cc45da78,6,,,,,,rug,,,,,,,,,,,6,0,0,49,49,57,1,,,,,,,,,,,,,,,,,,,,,,,,,,,,,,,,,,,,,,,,,,,,,,,,,,,,,,,,,,,,,,,,,,,,,,
,,?,0.006,0,,,,,,stimuli/images/PICTURE_255.png,AREA,5dcec32a367c6d000a4282c2,06/13/1953,2020-07-09_13h09.58.223,proactive,2020.1.2,Win32,60,5f073de81c76c3308c0e4fb3,5f0778f0b5dc8616cc45da78,6,,,,,,shovel,,,,,,,,,,,3,0,0,50,50,22,1,,,,,,,,,,,,,,,,,,,,,,,,,,,,,,,,,,,,,,,,,,,,,,,,,,,,,,,,,,,,,,,,,,,,,,
,,?,0.001,0,,,,,,stimuli/images/PICTURE_95.png,STYLE,5dcec32a367c6d000a4282c2,06/13/1953,2020-07-09_13h09.58.223,proactive,2020.1.2,Win32,60,5f073de81c76c3308c0e4fb3,5f0778f0b5dc8616cc45da78,6,,,,,,suitcase,,,,,,,,,,,3,0,0,51,51,25,1,,,,,,,,,,,,,,,,,,,,,,,,,,,,,,,,,,,,,,,,,,,,,,,,,,,,,,,,,,,,,,,,,,,,,,
,,?,0.001,0,,,,,,stimuli/images/PICTURE_123.png,ADVICE,5dcec32a367c6d000a4282c2,06/13/1953,2020-07-09_13h09.58.223,proactive,2020.1.2,Win32,60,5f073de81c76c3308c0e4fb3,5f0778f0b5dc8616cc45da78,6,,,,,,dart,,,,,,,,,,,5,0,0,52,52,40,1,,,,,,,,,,,,,,,,,,,,,,,,,,,,,,,,,,,,,,,,,,,,,,,,,,,,,,,,,,,,,,,,,,,,,,
,,?,0.001,0,,,,,,stimuli/images/PICTURE_491.png,ROOF,5dcec32a367c6d000a4282c2,06/13/1953,2020-07-09_13h09.58.223,proactive,2020.1.2,Win32,60,5f073de81c76c3308c0e4fb3,5f0778f0b5dc8616cc45da78,6,,,,,,rug,,,,,,,,,,,3,0,0,53,53,24,1,,,,,,,,,,,,,,,,,,,,,,,,,,,,,,,,,,,,,,,,,,,,,,,,,,,,,,,,,,,,,,,,,,,,,,
,,MIRROR,4.72,0,,,,,,stimuli/images/PICTURE_208.png,MONTH,5dcec32a367c6d000a4282c2,06/13/1953,2020-07-09_13h09.58.223,proactive,2020.1.2,Win32,60,5f073de81c76c3308c0e4fb3,5f0778f0b5dc8616cc45da78,6,,,,,,microphone,,,,,,,,,,,6,0,0,54,54,53,1,,,,,,,,,,,,,,,,,,,,,,,,,,,,,,,,,,,,,,,,,,,,,,,,,,,,,,,,,,,,,,,,,,,,,,
,,?,0.004,0,,,,,,stimuli/images/PICTURE_744.png,SYSTEM,5dcec32a367c6d000a4282c2,06/13/1953,2020-07-09_13h09.58.223,proactive,2020.1.2,Win32,60,5f073de81c76c3308c0e4fb3,5f0778f0b5dc8616cc45da78,6,,,,,,ring,,,,,,,,,,,5,0,0,55,55,43,1,,,,,,,,,,,,,,,,,,,,,,,,,,,,,,,,,,,,,,,,,,,,,,,,,,,,,,,,,,,,,,,,,,,,,,
,,?,0,0,,,,,,stimuli/images/PICTURE_215.png,PLENTY,5dcec32a367c6d000a4282c2,06/13/1953,2020-07-09_13h09.58.223,proactive,2020.1.2,Win32,60,5f073de81c76c3308c0e4fb3,5f0778f0b5dc8616cc45da78,6,,,,,,boot,,,,,,,,,,,4,0,0,56,56,37,1,,,,,,,,,,,,,,,,,,,,,,,,,,,,,,,,,,,,,,,,,,,,,,,,,,,,,,,,,,,,,,,,,,,,,,
,,?,0.001,0,,,,,,stimuli/images/PICTURE_203.png,ARTIST,5dcec32a367c6d000a4282c2,06/13/1953,2020-07-09_13h09.58.223,proactive,2020.1.2,Win32,60,5f073de81c76c3308c0e4fb3,5f0778f0b5dc8616cc45da78,6,,,,,,cap,,,,,,,,,,,3,0,0,57,57,26,1,,,,,,,,,,,,,,,,,,,,,,,,,,,,,,,,,,,,,,,,,,,,,,,,,,,,,,,,,,,,,,,,,,,,,,
,,?,0,0,,,,,,stimuli/images/PICTURE_233.png,WOMEN,5dcec32a367c6d000a4282c2,06/13/1953,2020-07-09_13h09.58.223,proactive,2020.1.2,Win32,60,5f073de81c76c3308c0e4fb3,5f0778f0b5dc8616cc45da78,6,,,,,,salt,,,,,,,,,,,4,0,0,58,58,38,1,,,,,,,,,,,,,,,,,,,,,,,,,,,,,,,,,,,,,,,,,,,,,,,,,,,,,,,,,,,,,,,,,,,,,,
,,CHAIR,3.053,0,,,,,,stimuli/images/PICTURE_449.png,THING,5dcec32a367c6d000a4282c2,06/13/1953,2020-07-09_13h09.58.223,proactive,2020.1.2,Win32,60,5f073de81c76c3308c0e4fb3,5f0778f0b5dc8616cc45da78,6,,,,,,bench,,,,,,,,,,,6,0,0,59,59,59,1,,,,,,,,,,,,,,,,,,,,,,,,,,,,,,,,,,,,,,,,,,,,,,,,,,,,,,,,,,,,,,,,,,,,,,
,,,,,,,,,,,,5dcec32a367c6d000a4282c2,06/13/1953,2020-07-09_13h09.58.223,proactive,2020.1.2,Win32,60,5f073de81c76c3308c0e4fb3,5f0778f0b5dc8616cc45da78,6,,,,,,,,,,,,,,,,,,,,,,,,0,0,0,0,1,stimuli/learn-block1.csv,,,,,,,,,,,,,,,,,,,,,,,,,,,,,,,,,,,,,,,,,,,,,,,,,,,,,,,,,,,,,,,,
,,,,,,,,,,stimuli/images/PICTURE_108.png,POLICY,5dcec32a367c6d000a4282c2,06/13/1953,2020-07-09_13h09.58.223,proactive,2020.1.2,Win32,60,5f073de81c76c3308c0e4fb3,5f0778f0b5dc8616cc45da78,6,,,,,,calendar,,,,,,0,0,0,22,1,3,1,,,,,,,,,,,,,,,,,,,,,,,,,,,,,,,,,,,,,,,,,,,,,,,,,,,,,,,,,,,,,,,,,,,,,,,,,,,
,,,,,,,,,,stimuli/images/PICTURE_339.png,CLIENT,5dcec32a367c6d000a4282c2,06/13/1953,2020-07-09_13h09.58.223,proactive,2020.1.2,Win32,60,5f073de81c76c3308c0e4fb3,5f0778f0b5dc8616cc45da78,6,,,,,,backpack,,,,,,0,1,1,11,1,2,1,,,,,,,,,,,,,,,,,,,,,,,,,,,,,,,,,,,,,,,,,,,,,,,,,,,,,,,,,,,,,,,,,,,,,,,,,,,
,,,,,,,,,,stimuli/images/PICTURE_667.png,RIVER,5dcec32a367c6d000a4282c2,06/13/1953,2020-07-09_13h09.58.223,proactive,2020.1.2,Win32,60,5f073de81c76c3308c0e4fb3,5f0778f0b5dc8616cc45da78,6,,,,,,daisy,,,,,,0,2,2,10,1,2,1,,,,,,,,,,,,,,,,,,,,,,,,,,,,,,,,,,,,,,,,,,,,,,,,,,,,,,,,,,,,,,,,,,,,,,,,,,,
,,,,,,,,,,stimuli/images/PICTURE_403.png,RIVER,5dcec32a367c6d000a4282c2,06/13/1953,2020-07-09_13h09.58.223,proactive,2020.1.2,Win32,60,5f073de81c76c3308c0e4fb3,5f0778f0b5dc8616cc45da78,6,,,,,,cathedral,,,,,,0,3,3,40,1,5,1,,,,,,,,,,,,,,,,,,,,,,,,,,,,,,,,,,,,,,,,,,,,,,,,,,,,,,,,,,,,,,,,,,,,,,,,,,,
,,,,,,,,,,stimuli/images/PICTURE_32.png,KIND,5dcec32a367c6d000a4282c2,06/13/1953,2020-07-09_13h09.58.223,proactive,2020.1.2,Win32,60,5f073de81c76c3308c0e4fb3,5f0778f0b5dc8616cc45da78,6,,,,,,crown,,,,,,0,4,4,35,1,4,1,,,,,,,,,,,,,,,,,,,,,,,,,,,,,,,,,,,,,,,,,,,,,,,,,,,,,,,,,,,,,,,,,,,,,,,,,,,
,,,,,,,,,,stimuli/images/PICTURE_68.png,MILE,5dcec32a367c6d000a4282c2,06/13/1953,2020-07-09_13h09.58.223,proactive,2020.1.2,Win32,60,5f073de81c76c3308c0e4fb3,5f0778f0b5dc8616cc45da78,6,,,,,,candle,,,,,,0,5,5,51,1,6,1,,,,,,,,,,,,,,,,,,,,,,,,,,,,,,,,,,,,,,,,,,,,,,,,,,,,,,,,,,,,,,,,,,,,,,,,,,,
,,,,,,,,,,stimuli/images/PICTURE_327.png,CASINO,5dcec32a367c6d000a4282c2,06/13/1953,2020-07-09_13h09.58.223,proactive,2020.1.2,Win32,60,5f073de81c76c3308c0e4fb3,5f0778f0b5dc8616cc45da78,6,,,,,,helmet,,,,,,0,6,6,20,1,3,1,,,,,,,,,,,,,,,,,,,,,,,,,,,,,,,,,,,,,,,,,,,,,,,,,,,,,,,,,,,,,,,,,,,,,,,,,,,
,,,,,,,,,,stimuli/images/PICTURE_405.png,YEAR,5dcec32a367c6d000a4282c2,06/13/1953,2020-07-09_13h09.58.223,proactive,2020.1.2,Win32,60,5f073de81c76c3308c0e4fb3,5f0778f0b5dc8616cc45da78,6,,,,,,anchor,,,,,,0,7,7,34,1,4,1,,,,,,,,,,,,,,,,,,,,,,,,,,,,,,,,,,,,,,,,,,,,,,,,,,,,,,,,,,,,,,,,,,,,,,,,,,,
,,,,,,,,,,stimuli/images/PICTURE_95.png,BOYS,5dcec32a367c6d000a4282c2,06/13/1953,2020-07-09_13h09.58.223,proactive,2020.1.2,Win32,60,5f073de81c76c3308c0e4fb3,5f0778f0b5dc8616cc45da78,6,,,,,,suitcase,,,,,,0,8,8,1,1,1,1,,,,,,,,,,,,,,,,,,,,,,,,,,,,,,,,,,,,,,,,,,,,,,,,,,,,,,,,,,,,,,,,,,,,,,,,,,,
,,,,,,,,,,stimuli/images/PICTURE_675.png,SALE,5dcec32a367c6d000a4282c2,06/13/1953,2020-07-09_13h09.58.223,proactive,2020.1.2,Win32,60,5f073de81c76c3308c0e4fb3,5f0778f0b5dc8616cc45da78,6,,,,,,windmill,,,,,,0,9,9,47,1,5,1,,,,,,,,,,,,,,,,,,,,,,,,,,,,,,,,,,,,,,,,,,,,,,,,,,,,,,,,,,,,,,,,,,,,,,,,,,,
,,,,,,,,,,stimuli/images/PICTURE_685.png,PENNY,5dcec32a367c6d000a4282c2,06/13/1953,2020-07-09_13h09.58.223,proactive,2020.1.2,Win32,60,5f073de81c76c3308c0e4fb3,5f0778f0b5dc8616cc45da78,6,,,,,,goose,,,,,,0,10,10,4,1,1,1,,,,,,,,,,,,,,,,,,,,,,,,,,,,,,,,,,,,,,,,,,,,,,,,,,,,,,,,,,,,,,,,,,,,,,,,,,,
,,,,,,,,,,stimuli/images/PICTURE_380.png,HONEY,5dcec32a367c6d000a4282c2,06/13/1953,2020-07-09_13h09.58.223,proactive,2020.1.2,Win32,60,5f073de81c76c3308c0e4fb3,5f0778f0b5dc8616cc45da78,6,,,,,,gorilla,,,,,,0,11,11,19,1,2,1,,,,,,,,,,,,,,,,,,,,,,,,,,,,,,,,,,,,,,,,,,,,,,,,,,,,,,,,,,,,,,,,,,,,,,,,,,,
,,,,,,,,,,stimuli/images/PICTURE_750.png,HOTEL,5dcec32a367c6d000a4282c2,06/13/1953,2020-07-09_13h09.58.223,proactive,2020.1.2,Win32,60,5f073de81c76c3308c0e4fb3,5f0778f0b5dc8616cc45da78,6,,,,,,kettle,,,,,,0,12,12,27,1,3,1,,,,,,,,,,,,,,,,,,,,,,,,,,,,,,,,,,,,,,,,,,,,,,,,,,,,,,,,,,,,,,,,,,,,,,,,,,,
,,,,,,,,,,stimuli/images/PICTURE_203.png,NIGHT,5dcec32a367c6d000a4282c2,06/13/1953,2020-07-09_13h09.58.223,proactive,2020.1.2,Win32,60,5f073de81c76c3308c0e4fb3,5f0778f0b5dc8616cc45da78,6,,,,,,cap,,,,,,0,13,13,2,1,1,1,,,,,,,,,,,,,,,,,,,,,,,,,,,,,,,,,,,,,,,,,,,,,,,,,,,,,,,,,,,,,,,,,,,,,,,,,,,
,,,,,,,,,,stimuli/images/PICTURE_504.png,YEAR,5dcec32a367c6d000a4282c2,06/13/1953,2020-07-09_13h09.58.223,proactive,2020.1.2,Win32,60,5f073de81c76c3308c0e4fb3,5f0778f0b5dc8616cc45da78,6,,,,,,wheel,,,,,,0,14,14,13,1,2,1,,,,,,,,,,,,,,,,,,,,,,,,,,,,,,,,,,,,,,,,,,,,,,,,,,,,,,,,,,,,,,,,,,,,,,,,,,,
,,,,,,,,,,stimuli/images/PICTURE_95.png,HONEY,5dcec32a367c6d000a4282c2,06/13/1953,2020-07-09_13h09.58.223,proactive,2020.1.2,Win32,60,5f073de81c76c3308c0e4fb3,5f0778f0b5dc8616cc45da78,6,,,,,,suitcase,,,,,,0,15,15,44,1,5,1,,,,,,,,,,,,,,,,,,,,,,,,,,,,,,,,,,,,,,,,,,,,,,,,,,,,,,,,,,,,,,,,,,,,,,,,,,,
,,,,,,,,,,stimuli/images/PICTURE_2.png,FLIGHT,5dcec32a367c6d000a4282c2,06/13/1953,2020-07-09_13h09.58.223,proactive,2020.1.2,Win32,60,5f073de81c76c3308c0e4fb3,5f0778f0b5dc8616cc45da78,6,,,,,,tyre,,,,,,0,16,16,15,1,2,1,,,,,,,,,,,,,,,,,,,,,,,,,,,,,,,,,,,,,,,,,,,,,,,,,,,,,,,,,,,,,,,,,,,,,,,,,,,
,,,,,,,,,,stimuli/images/PICTURE_654.png,MONTH,5dcec32a367c6d000a4282c2,06/13/1953,2020-07-09_13h09.58.223,proactive,2020.1.2,Win32,60,5f073de81c76c3308c0e4fb3,5f0778f0b5dc8616cc45da78,6,,,,,,pencil,,,,,,0,17,17,29,1,3,1,,,,,,,,,,,,,,,,,,,,,,,,,,,,,,,,,,,,,,,,,,,,,,,,,,,,,,,,,,,,,,,,,,,,,,,,,,,
,,,,,,,,,,stimuli/images/PICTURE_340.png,VALLEY,5dcec32a367c6d000a4282c2,06/13/1953,2020-07-09_13h09.58.223,proactive,2020.1.2,Win32,60,5f073de81c76c3308c0e4fb3,5f0778f0b5dc8616cc45da78,6,,,,,,mirror,,,,,,0,18,18,54,1,6,1,,,,,,,,,,,,,,,,,,,,,,,,,,,,,,,,,,,,,,,,,,,,,,,,,,,,,,,,,,,,,,,,,,,,,,,,,,,
,,,,,,,,,,stimuli/images/PICTURE_233.png,LOTS,5dcec32a367c6d000a4282c2,06/13/1953,2020-07-09_13h09.58.223,proactive,2020.1.2,Win32,60,5f073de81c76c3308c0e4fb3,5f0778f0b5dc8616cc45da78,6,,,,,,salt,,,,,,0,19,19,42,1,5,1,,,,,,,,,,,,,,,,,,,,,,,,,,,,,,,,,,,,,,,,,,,,,,,,,,,,,,,,,,,,,,,,,,,,,,,,,,,
,,,,,,,,,,stimuli/images/PICTURE_467.png,POLICY,5dcec32a367c6d000a4282c2,06/13/1953,2020-07-09_13h09.58.223,proactive,2020.1.2,Win32,60,5f073de81c76c3308c0e4fb3,5f0778f0b5dc8616cc45da78,6,,,,,,peg,,,,,,0,20,20,53,1,6,1,,,,,,,,,,,,,,,,,,,,,,,,,,,,,,,,,,,,,,,,,,,,,,,,,,,,,,,,,,,,,,,,,,,,,,,,,,,
,,,,,,,,,,stimuli/images/PICTURE_380.png,CANDY,5dcec32a367c6d000a4282c2,06/13/1953,2020-07-09_13h09.58.223,proactive,2020.1.2,Win32,60,5f073de81c76c3308c0e4fb3,5f0778f0b5dc8616cc45da78,6,,,,,,gorilla,,,,,,0,21,21,0,1,1,1,,,,,,,,,,,,,,,,,,,,,,,,,,,,,,,,,,,,,,,,,,,,,,,,,,,,,,,,,,,,,,,,,,,,,,,,,,,
,,,,,,,,,,stimuli/images/PICTURE_32.png,PILLS,5dcec32a367c6d000a4282c2,06/13/1953,2020-07-09_13h09.58.223,proactive,2020.1.2,Win32,60,5f073de81c76c3308c0e4fb3,5f0778f0b5dc8616cc45da78,6,,,,,,crown,,,,,,0,22,22,18,1,2,1,,,,,,,,,,,,,,,,,,,,,,,,,,,,,,,,,,,,,,,,,,,,,,,,,,,,,,,,,,,,,,,,,,,,,,,,,,,
,,,,,,,,,,stimuli/images/PICTURE_57.png,MOMENT,5dcec32a367c6d000a4282c2,06/13/1953,2020-07-09_13h09.58.223,proactive,2020.1.2,Win32,60,5f073de81c76c3308c0e4fb3,5f0778f0b5dc8616cc45da78,6,,,,,,stamp,,,,,,0,23,23,37,1,4,1,,,,,,,,,,,,,,,,,,,,,,,,,,,,,,,,,,,,,,,,,,,,,,,,,,,,,,,,,,,,,,,,,,,,,,,,,,,
,,,,,,,,,,stimuli/images/PICTURE_491.png,GLASS,5dcec32a367c6d000a4282c2,06/13/1953,2020-07-09_13h09.58.223,proactive,2020.1.2,Win32,60,5f073de81c76c3308c0e4fb3,5f0778f0b5dc8616cc45da78,6,,,,,,rug,,,,,,0,24,24,14,1,2,1,,,,,,,,,,,,,,,,,,,,,,,,,,,,,,,,,,,,,,,,,,,,,,,,,,,,,,,,,,,,,,,,,,,,,,,,,,,
,,,,,,,,,,stimuli/images/PICTURE_708.png,RECORD,5dcec32a367c6d000a4282c2,06/13/1953,2020-07-09_13h09.58.223,proactive,2020.1.2,Win32,60,5f073de81c76c3308c0e4fb3,5f0778f0b5dc8616cc45da78,6,,,,,,monkey,,,,,,0,25,25,58,1,6,1,,,,,,,,,,,,,,,,,,,,,,,,,,,,,,,,,,,,,,,,,,,,,,,,,,,,,,,,,,,,,,,,,,,,,,,,,,,
,,,,,,,,,,stimuli/images/PICTURE_340.png,LETTER,5dcec32a367c6d000a4282c2,06/13/1953,2020-07-09_13h09.58.223,proactive,2020.1.2,Win32,60,5f073de81c76c3308c0e4fb3,5f0778f0b5dc8616cc45da78,6,,,,,,mirror,,,,,,0,26,26,24,1,3,1,,,,,,,,,,,,,,,,,,,,,,,,,,,,,,,,,,,,,,,,,,,,,,,,,,,,,,,,,,,,,,,,,,,,,,,,,,,
,,,,,,,,,,stimuli/images/PICTURE_68.png,ROOF,5dcec32a367c6d000a4282c2,06/13/1953,2020-07-09_13h09.58.223,proactive,2020.1.2,Win32,60,5f073de81c76c3308c0e4fb3,5f0778f0b5dc8616cc45da78,6,,,,,,candle,,,,,,0,27,27,38,1,4,1,,,,,,,,,,,,,,,,,,,,,,,,,,,,,,,,,,,,,,,,,,,,,,,,,,,,,,,,,,,,,,,,,,,,,,,,,,,
,,,,,,,,,,stimuli/images/PICTURE_564.png,BATH,5dcec32a367c6d000a4282c2,06/13/1953,2020-07-09_13h09.58.223,proactive,2020.1.2,Win32,60,5f073de81c76c3308c0e4fb3,5f0778f0b5dc8616cc45da78,6,,,,,,spoon,,,,,,0,28,28,26,1,3,1,,,,,,,,,,,,,,,,,,,,,,,,,,,,,,,,,,,,,,,,,,,,,,,,,,,,,,,,,,,,,,,,,,,,,,,,,,,
,,,,,,,,,,stimuli/images/PICTURE_504.png,ARTIST,5dcec32a367c6d000a4282c2,06/13/1953,2020-07-09_13h09.58.223,proactive,2020.1.2,Win32,60,5f073de81c76c3308c0e4fb3,5f0778f0b5dc8616cc45da78,6,,,,,,wheel,,,,,,0,29,29,49,1,5,1,,,,,,,,,,,,,,,,,,,,,,,,,,,,,,,,,,,,,,,,,,,,,,,,,,,,,,,,,,,,,,,,,,,,,,,,,,,
,,,,,,,,,,stimuli/images/PICTURE_108.png,FLIGHT,5dcec32a367c6d000a4282c2,06/13/1953,2020-07-09_13h09.58.223,proactive,2020.1.2,Win32,60,5f073de81c76c3308c0e4fb3,5f0778f0b5dc8616cc45da78,6,,,,,,calendar,,,,,,0,30,30,59,1,6,1,,,,,,,,,,,,,,,,,,,,,,,,,,,,,,,,,,,,,,,,,,,,,,,,,,,,,,,,,,,,,,,,,,,,,,,,,,,
,,,,,,,,,,stimuli/images/PICTURE_33.png,FRIEND,5dcec32a367c6d000a4282c2,06/13/1953,2020-07-09_13h09.58.223,proactive,2020.1.2,Win32,60,5f073de81c76c3308c0e4fb3,5f0778f0b5dc8616cc45da78,6,,,,,,frame,,,,,,0,31,31,8,1,1,1,,,,,,,,,,,,,,,,,,,,,,,,,,,,,,,,,,,,,,,,,,,,,,,,,,,,,,,,,,,,,,,,,,,,,,,,,,,
,,,,,,,,,,stimuli/images/PICTURE_469.png,AGENT,5dcec32a367c6d000a4282c2,06/13/1953,2020-07-09_13h09.58.223,proactive,2020.1.2,Win32,60,5f073de81c76c3308c0e4fb3,5f0778f0b5dc8616cc45da78,6,,,,,,stool,,,,,,0,32,32,16,1,2,1,,,,,,,,,,,,,,,,,,,,,,,,,,,,,,,,,,,,,,,,,,,,,,,,,,,,,,,,,,,,,,,,,,,,,,,,,,,
,,,,,,,,,,stimuli/images/PICTURE_85.png,TOILET,5dcec32a367c6d000a4282c2,06/13/1953,2020-07-09_13h09.58.223,proactive,2020.1.2,Win32,60,5f073de81c76c3308c0e4fb3,5f0778f0b5dc8616cc45da78,6,,,,,,diamond,,,,,,0,33,33,48,1,5,1,,,,,,,,,,,,,,,,,,,,,,,,,,,,,,,,,,,,,,,,,,,,,,,,,,,,,,,,,,,,,,,,,,,,,,,,,,,
,,,,,,,,,,stimuli/images/PICTURE_383.png,SERIES,5dcec32a367c6d000a4282c2,06/13/1953,2020-07-09_13h09.58.223,proactive,2020.1.2,Win32,60,5f073de81c76c3308c0e4fb3,5f0778f0b5dc8616cc45da78,6,,,,,,coin,,,,,,0,34,34,46,1,5,1,,,,,,,,,,,,,,,,,,,,,,,,,,,,,,,,,,,,,,,,,,,,,,,,,,,,,,,,,,,,,,,,,,,,,,,,,,,
,,,,,,,,,,stimuli/images/PICTURE_487.png,GIRL,5dcec32a367c6d000a4282c2,06/13/1953,2020-07-09_13h09.58.223,proactive,2020.1.2,Win32,60,5f073de81c76c3308c0e4fb3,5f0778f0b5dc8616cc45da78,6,,,,,,basket,,,,,,0,35,35,45,1,5,1,,,,,,,,,,,,,,,,,,,,,,,,,,,,,,,,,,,,,,,,,,,,,,,,,,,,,,,,,,,,,,,,,,,,,,,,,,,
,,,,,,,,,,stimuli/images/PICTURE_208.png,SYSTEM,5dcec32a367c6d000a4282c2,06/13/1953,2020-07-09_13h09.58.223,proactive,2020.1.2,Win32,60,5f073de81c76c3308c0e4fb3,5f0778f0b5dc8616cc45da78,6,,,,,,microphone,,,,,,0,36,36,32,1,4,1,,,,,,,,,,,,,,,,,,,,,,,,,,,,,,,,,,,,,,,,,,,,,,,,,,,,,,,,,,,,,,,,,,,,,,,,,,,
,,,,,,,,,,stimuli/images/PICTURE_147.png,YEAR,5dcec32a367c6d000a4282c2,06/13/1953,2020-07-09_13h09.58.223,proactive,2020.1.2,Win32,60,5f073de81c76c3308c0e4fb3,5f0778f0b5dc8616cc45da78,6,,,,,,hanger,,,,,,0,37,37,21,1,3,1,,,,,,,,,,,,,,,,,,,,,,,,,,,,,,,,,,,,,,,,,,,,,,,,,,,,,,,,,,,,,,,,,,,,,,,,,,,
,,,,,,,,,,stimuli/images/PICTURE_95.png,MILLER,5dcec32a367c6d000a4282c2,06/13/1953,2020-07-09_13h09.58.223,proactive,2020.1.2,Win32,60,5f073de81c76c3308c0e4fb3,5f0778f0b5dc8616cc45da78,6,,,,,,suitcase,,,,,,0,38,38,56,1,6,1,,,,,,,,,,,,,,,,,,,,,,,,,,,,,,,,,,,,,,,,,,,,,,,,,,,,,,,,,,,,,,,,,,,,,,,,,,,
,,,,,,,,,,stimuli/images/PICTURE_677.png,APPLE,5dcec32a367c6d000a4282c2,06/13/1953,2020-07-09_13h09.58.223,proactive,2020.1.2,Win32,60,5f073de81c76c3308c0e4fb3,5f0778f0b5dc8616cc45da78,6,,,,,,map,,,,,,0,39,39,43,1,5,1,,,,,,,,,,,,,,,,,,,,,,,,,,,,,,,,,,,,,,,,,,,,,,,,,,,,,,,,,,,,,,,,,,,,,,,,,,,
,,,,,,,,,,stimuli/images/PICTURE_744.png,WEAPON,5dcec32a367c6d000a4282c2,06/13/1953,2020-07-09_13h09.58.223,proactive,2020.1.2,Win32,60,5f073de81c76c3308c0e4fb3,5f0778f0b5dc8616cc45da78,6,,,,,,ring,,,,,,0,40,40,50,1,6,1,,,,,,,,,,,,,,,,,,,,,,,,,,,,,,,,,,,,,,,,,,,,,,,,,,,,,,,,,,,,,,,,,,,,,,,,,,,
,,,,,,,,,,stimuli/images/PICTURE_296.png,LIFE,5dcec32a367c6d000a4282c2,06/13/1953,2020-07-09_13h09.58.223,proactive,2020.1.2,Win32,60,5f073de81c76c3308c0e4fb3,5f0778f0b5dc8616cc45da78,6,,,,,,bolt,,,,,,0,41,41,57,1,6,1,,,,,,,,,,,,,,,,,,,,,,,,,,,,,,,,,,,,,,,,,,,,,,,,,,,,,,,,,,,,,,,,,,,,,,,,,,,
,,,,,,,,,,stimuli/images/PICTURE_203.png,GODS,5dcec32a367c6d000a4282c2,06/13/1953,2020-07-09_13h09.58.223,proactive,2020.1.2,Win32,60,5f073de81c76c3308c0e4fb3,5f0778f0b5dc8616cc45da78,6,,,,,,cap,,,,,,0,42,42,30,1,4,1,,,,,,,,,,,,,,,,,,,,,,,,,,,,,,,,,,,,,,,,,,,,,,,,,,,,,,,,,,,,,,,,,,,,,,,,,,,
,,,,,,,,,,stimuli/images/PICTURE_449.png,DUDE,5dcec32a367c6d000a4282c2,06/13/1953,2020-07-09_13h09.58.223,proactive,2020.1.2,Win32,60,5f073de81c76c3308c0e4fb3,5f0778f0b5dc8616cc45da78,6,,,,,,bench,,,,,,0,43,43,17,1,2,1,,,,,,,,,,,,,,,,,,,,,,,,,,,,,,,,,,,,,,,,,,,,,,,,,,,,,,,,,,,,,,,,,,,,,,,,,,,
,,,,,,,,,,stimuli/images/PICTURE_285.png,LIFE,5dcec32a367c6d000a4282c2,06/13/1953,2020-07-09_13h09.58.223,proactive,2020.1.2,Win32,60,5f073de81c76c3308c0e4fb3,5f0778f0b5dc8616cc45da78,6,,,,,,carrot,,,,,,0,44,44,33,1,4,1,,,,,,,,,,,,,,,,,,,,,,,,,,,,,,,,,,,,,,,,,,,,,,,,,,,,,,,,,,,,,,,,,,,,,,,,,,,
,,,,,,,,,,stimuli/images/PICTURE_42.png,BOYS,5dcec32a367c6d000a4282c2,06/13/1953,2020-07-09_13h09.58.223,proactive,2020.1.2,Win32,60,5f073de81c76c3308c0e4fb3,5f0778f0b5dc8616cc45da78,6,,,,,,pear,,,,,,0,45,45,55,1,6,1,,,,,,,,,,,,,,,,,,,,,,,,,,,,,,,,,,,,,,,,,,,,,,,,,,,,,,,,,,,,,,,,,,,,,,,,,,,
,,,,,,,,,,stimuli/images/PICTURE_403.png,WRITER,5dcec32a367c6d000a4282c2,06/13/1953,2020-07-09_13h09.58.223,proactive,2020.1.2,Win32,60,5f073de81c76c3308c0e4fb3,5f0778f0b5dc8616cc45da78,6,,,,,,cathedral,,,,,,0,46,46,31,1,4,1,,,,,,,,,,,,,,,,,,,,,,,,,,,,,,,,,,,,,,,,,,,,,,,,,,,,,,,,,,,,,,,,,,,,,,,,,,,
,,,,,,,,,,stimuli/images/PICTURE_405.png,PLENTY,5dcec32a367c6d000a4282c2,06/13/1953,2020-07-09_13h09.58.223,proactive,2020.1.2,Win32,60,5f073de81c76c3308c0e4fb3,5f0778f0b5dc8616cc45da78,6,,,,,,anchor,,,,,,0,47,47,23,1,3,1,,,,,,,,,,,,,,,,,,,,,,,,,,,,,,,,,,,,,,,,,,,,,,,,,,,,,,,,,,,,,,,,,,,,,,,,,,,
,,,,,,,,,,stimuli/images/PICTURE_403.png,TOILET,5dcec32a367c6d000a4282c2,06/13/1953,2020-07-09_13h09.58.223,proactive,2020.1.2,Win32,60,5f073de81c76c3308c0e4fb3,5f0778f0b5dc8616cc45da78,6,,,,,,cathedral,,,,,,0,48,48,25,1,3,1,,,,,,,,,,,,,,,,,,,,,,,,,,,,,,,,,,,,,,,,,,,,,,,,,,,,,,,,,,,,,,,,,,,,,,,,,,,
,,,,,,,,,,stimuli/images/PICTURE_504.png,COPS,5dcec32a367c6d000a4282c2,06/13/1953,2020-07-09_13h09.58.223,proactive,2020.1.2,Win32,60,5f073de81c76c3308c0e4fb3,5f0778f0b5dc8616cc45da78,6,,,,,,wheel,,,,,,0,49,49,52,1,6,1,,,,,,,,,,,,,,,,,,,,,,,,,,,,,,,,,,,,,,,,,,,,,,,,,,,,,,,,,,,,,,,,,,,,,,,,,,,
,,,,,,,,,,stimuli/images/PICTURE_655.png,TOILET,5dcec32a367c6d000a4282c2,06/13/1953,2020-07-09_13h09.58.223,proactive,2020.1.2,Win32,60,5f073de81c76c3308c0e4fb3,5f0778f0b5dc8616cc45da78,6,,,,,,megaphone,,,,,,0,50,50,12,1,2,1,,,,,,,,,,,,,,,,,,,,,,,,,,,,,,,,,,,,,,,,,,,,,,,,,,,,,,,,,,,,,,,,,,,,,,,,,,,
,,,,,,,,,,stimuli/images/PICTURE_297.png,RIVER,5dcec32a367c6d000a4282c2,06/13/1953,2020-07-09_13h09.58.223,proactive,2020.1.2,Win32,60,5f073de81c76c3308c0e4fb3,5f0778f0b5dc8616cc45da78,6,,,,,,aeroplane,,,,,,0,51,51,39,1,4,1,,,,,,,,,,,,,,,,,,,,,,,,,,,,,,,,,,,,,,,,,,,,,,,,,,,,,,,,,,,,,,,,,,,,,,,,,,,
,,,,,,,,,,stimuli/images/PICTURE_296.png,LOTS,5dcec32a367c6d000a4282c2,06/13/1953,2020-07-09_13h09.58.223,proactive,2020.1.2,Win32,60,5f073de81c76c3308c0e4fb3,5f0778f0b5dc8616cc45da78,6,,,,,,bolt,,,,,,0,52,52,9,1,1,1,,,,,,,,,,,,,,,,,,,,,,,,,,,,,,,,,,,,,,,,,,,,,,,,,,,,,,,,,,,,,,,,,,,,,,,,,,,
,,,,,,,,,,stimuli/images/PICTURE_491.png,RIVER,5dcec32a367c6d000a4282c2,06/13/1953,2020-07-09_13h09.58.223,proactive,2020.1.2,Win32,60,5f073de81c76c3308c0e4fb3,5f0778f0b5dc8616cc45da78,6,,,,,,rug,,,,,,0,53,53,6,1,1,1,,,,,,,,,,,,,,,,,,,,,,,,,,,,,,,,,,,,,,,,,,,,,,,,,,,,,,,,,,,,,,,,,,,,,,,,,,,
,,,,,,,,,,stimuli/images/PICTURE_147.png,WOMEN,5dcec32a367c6d000a4282c2,06/13/1953,2020-07-09_13h09.58.223,proactive,2020.1.2,Win32,60,5f073de81c76c3308c0e4fb3,5f0778f0b5dc8616cc45da78,6,,,,,,hanger,,,,,,0,54,54,7,1,1,1,,,,,,,,,,,,,,,,,,,,,,,,,,,,,,,,,,,,,,,,,,,,,,,,,,,,,,,,,,,,,,,,,,,,,,,,,,,
,,,,,,,,,,stimuli/images/PICTURE_383.png,WRITER,5dcec32a367c6d000a4282c2,06/13/1953,2020-07-09_13h09.58.223,proactive,2020.1.2,Win32,60,5f073de81c76c3308c0e4fb3,5f0778f0b5dc8616cc45da78,6,,,,,,coin,,,,,,0,55,55,28,1,3,1,,,,,,,,,,,,,,,,,,,,,,,,,,,,,,,,,,,,,,,,,,,,,,,,,,,,,,,,,,,,,,,,,,,,,,,,,,,
,,,,,,,,,,stimuli/images/PICTURE_327.png,SERIES,5dcec32a367c6d000a4282c2,06/13/1953,2020-07-09_13h09.58.223,proactive,2020.1.2,Win32,60,5f073de81c76c3308c0e4fb3,5f0778f0b5dc8616cc45da78,6,,,,,,helmet,,,,,,0,56,56,3,1,1,1,,,,,,,,,,,,,,,,,,,,,,,,,,,,,,,,,,,,,,,,,,,,,,,,,,,,,,,,,,,,,,,,,,,,,,,,,,,
,,,,,,,,,,stimuli/images/PICTURE_308.png,FAMILY,5dcec32a367c6d000a4282c2,06/13/1953,2020-07-09_13h09.58.223,proactive,2020.1.2,Win32,60,5f073de81c76c3308c0e4fb3,5f0778f0b5dc8616cc45da78,6,,,,,,dice,,,,,,0,57,57,36,1,4,1,,,,,,,,,,,,,,,,,,,,,,,,,,,,,,,,,,,,,,,,,,,,,,,,,,,,,,,,,,,,,,,,,,,,,,,,,,,
,,,,,,,,,,stimuli/images/PICTURE_177.png,WRITER,5dcec32a367c6d000a4282c2,06/13/1953,2020-07-09_13h09.58.223,proactive,2020.1.2,Win32,60,5f073de81c76c3308c0e4fb3,5f0778f0b5dc8616cc45da78,6,,,,,,mushroom,,,,,,0,58,58,41,1,5,1,,,,,,,,,,,,,,,,,,,,,,,,,,,,,,,,,,,,,,,,,,,,,,,,,,,,,,,,,,,,,,,,,,,,,,,,,,,
,,?,0,0,,,,,,stimuli/images/PICTURE_85.png,NATION,5dcec32a367c6d000a4282c2,06/13/1953,2020-07-09_13h09.58.223,proactive,2020.1.2,Win32,60,5f073de81c76c3308c0e4fb3,5f0778f0b5dc8616cc45da78,6,,,,,,diamond,,,,,,,,,,,1,1,0,0,0,5,1,,,,,,,,,,,,,,,,,,,,,,,,,,,,,,,,,,,,,,,,,,,,,,,,,,,,,,,,,,,,,,,,,,,,,,
,,?,0.001,0,,,,,,stimuli/images/PICTURE_449.png,DUDE,5dcec32a367c6d000a4282c2,06/13/1953,2020-07-09_13h09.58.223,proactive,2020.1.2,Win32,60,5f073de81c76c3308c0e4fb3,5f0778f0b5dc8616cc45da78,6,,,,,,bench,,,,,,,,,,,2,1,0,1,1,17,1,,,,,,,,,,,,,,,,,,,,,,,,,,,,,,,,,,,,,,,,,,,,,,,,,,,,,,,,,,,,,,,,,,,,,,
,,?,0.001,0,,,,,,stimuli/images/PICTURE_208.png,SYSTEM,5dcec32a367c6d000a4282c2,06/13/1953,2020-07-09_13h09.58.223,proactive,2020.1.2,Win32,60,5f073de81c76c3308c0e4fb3,5f0778f0b5dc8616cc45da78,6,,,,,,microphone,,,,,,,,,,,4,1,0,2,2,32,1,,,,,,,,,,,,,,,,,,,,,,,,,,,,,,,,,,,,,,,,,,,,,,,,,,,,,,,,,,,,,,,,,,,,,,
,,?,0.001,0,,,,,,stimuli/images/PICTURE_233.png,LOTS,5dcec32a367c6d000a4282c2,06/13/1953,2020-07-09_13h09.58.223,proactive,2020.1.2,Win32,60,5f073de81c76c3308c0e4fb3,5f0778f0b5dc8616cc45da78,6,,,,,,salt,,,,,,,,,,,5,1,0,3,3,42,1,,,,,,,,,,,,,,,,,,,,,,,,,,,,,,,,,,,,,,,,,,,,,,,,,,,,,,,,,,,,,,,,,,,,,,
,,NOPE,6.882,0,,,,,,stimuli/images/PICTURE_708.png,RECORD,5dcec32a367c6d000a4282c2,06/13/1953,2020-07-09_13h09.58.223,proactive,2020.1.2,Win32,60,5f073de81c76c3308c0e4fb3,5f0778f0b5dc8616cc45da78,6,,,,,,monkey,,,,,,,,,,,6,1,0,4,4,58,1,,,,,,,,,,,,,,,,,,,,,,,,,,,,,,,,,,,,,,,,,,,,,,,,,,,,,,,,,,,,,,,,,,,,,,
,,?,0.006,0,,,,,,stimuli/images/PICTURE_504.png,ARTIST,5dcec32a367c6d000a4282c2,06/13/1953,2020-07-09_13h09.58.223,proactive,2020.1.2,Win32,60,5f073de81c76c3308c0e4fb3,5f0778f0b5dc8616cc45da78,6,,,,,,wheel,,,,,,,,,,,5,1,0,5,5,49,1,,,,,,,,,,,,,,,,,,,,,,,,,,,,,,,,,,,,,,,,,,,,,,,,,,,,,,,,,,,,,,,,,,,,,,
,,?,0,0,,,,,,stimuli/images/PICTURE_2.png,FLIGHT,5dcec32a367c6d000a4282c2,06/13/1953,2020-07-09_13h09.58.223,proactive,2020.1.2,Win32,60,5f073de81c76c3308c0e4fb3,5f0778f0b5dc8616cc45da78,6,,,,,,tyre,,,,,,,,,,,2,1,0,6,6,15,1,,,,,,,,,,,,,,,,,,,,,,,,,,,,,,,,,,,,,,,,,,,,,,,,,,,,,,,,,,,,,,,,,,,,,,
,,?,0.001,0,,,,,,stimuli/images/PICTURE_405.png,YEAR,5dcec32a367c6d000a4282c2,06/13/1953,2020-07-09_13h09.58.223,proactive,2020.1.2,Win32,60,5f073de81c76c3308c0e4fb3,5f0778f0b5dc8616cc45da78,6,,,,,,anchor,,,,,,,,,,,4,1,0,7,7,34,1,,,,,,,,,,,,,,,,,,,,,,,,,,,,,,,,,,,,,,,,,,,,,,,,,,,,,,,,,,,,,,,,,,,,,,
,,?,0.001,0,,,,,,stimuli/images/PICTURE_32.png,PILLS,5dcec32a367c6d000a4282c2,06/13/1953,2020-07-09_13h09.58.223,proactive,2020.1.2,Win32,60,5f073de81c76c3308c0e4fb3,5f0778f0b5dc8616cc45da78,6,,,,,,crown,,,,,,,,,,,2,1,0,8,8,18,1,,,,,,,,,,,,,,,,,,,,,,,,,,,,,,,,,,,,,,,,,,,,,,,,,,,,,,,,,,,,,,,,,,,,,,
,,?,0.001,0,,,,,,stimuli/images/PICTURE_675.png,SALE,5dcec32a367c6d000a4282c2,06/13/1953,2020-07-09_13h09.58.223,proactive,2020.1.2,Win32,60,5f073de81c76c3308c0e4fb3,5f0778f0b5dc8616cc45da78,6,,,,,,windmill,,,,,,,,,,,5,1,0,9,9,47,1,,,,,,,,,,,,,,,,,,,,,,,,,,,,,,,,,,,,,,,,,,,,,,,,,,,,,,,,,,,,,,,,,,,,,,
,,?,0.001,0,,,,,,stimuli/images/PICTURE_108.png,POLICY,5dcec32a367c6d000a4282c2,06/13/1953,2020-07-09_13h09.58.223,proactive,2020.1.2,Win32,60,5f073de81c76c3308c0e4fb3,5f0778f0b5dc8616cc45da78,6,,,,,,calendar,,,,,,,,,,,3,1,0,10,10,22,1,,,,,,,,,,,,,,,,,,,,,,,,,,,,,,,,,,,,,,,,,,,,,,,,,,,,,,,,,,,,,,,,,,,,,,
,,?,0.001,0,,,,,,stimuli/images/PICTURE_750.png,HOTEL,5dcec32a367c6d000a4282c2,06/13/1953,2020-07-09_13h09.58.223,proactive,2020.1.2,Win32,60,5f073de81c76c3308c0e4fb3,5f0778f0b5dc8616cc45da78,6,,,,,,kettle,,,,,,,,,,,3,1,0,11,11,27,1,,,,,,,,,,,,,,,,,,,,,,,,,,,,,,,,,,,,,,,,,,,,,,,,,,,,,,,,,,,,,,,,,,,,,,
,,?,0.002,0,,,,,,stimuli/images/PICTURE_308.png,FAMILY,5dcec32a367c6d000a4282c2,06/13/1953,2020-07-09_13h09.58.223,proactive,2020.1.2,Win32,60,5f073de81c76c3308c0e4fb3,5f0778f0b5dc8616cc45da78,6,,,,,,dice,,,,,,,,,,,4,1,0,12,12,36,1,,,,,,,,,,,,,,,,,,,,,,,,,,,,,,,,,,,,,,,,,,,,,,,,,,,,,,,,,,,,,,,,,,,,,,
,,?,0,0,,,,,,stimuli/images/PICTURE_405.png,PLENTY,5dcec32a367c6d000a4282c2,06/13/1953,2020-07-09_13h09.58.223,proactive,2020.1.2,Win32,60,5f073de81c76c3308c0e4fb3,5f0778f0b5dc8616cc45da78,6,,,,,,anchor,,,,,,,,,,,3,1,0,13,13,23,1,,,,,,,,,,,,,,,,,,,,,,,,,,,,,,,,,,,,,,,,,,,,,,,,,,,,,,,,,,,,,,,,,,,,,,
,,?,0.002,0,,,,,,stimuli/images/PICTURE_685.png,PENNY,5dcec32a367c6d000a4282c2,06/13/1953,2020-07-09_13h09.58.223,proactive,2020.1.2,Win32,60,5f073de81c76c3308c0e4fb3,5f0778f0b5dc8616cc45da78,6,,,,,,goose,,,,,,,,,,,1,1,0,14,14,4,1,,,,,,,,,,,,,,,,,,,,,,,,,,,,,,,,,,,,,,,,,,,,,,,,,,,,,,,,,,,,,,,,,,,,,,
,,?,0.001,0,,,,,,stimuli/images/PICTURE_85.png,TOILET,5dcec32a367c6d000a4282c2,06/13/1953,2020-07-09_13h09.58.223,proactive,2020.1.2,Win32,60,5f073de81c76c3308c0e4fb3,5f0778f0b5dc8616cc45da78,6,,,,,,diamond,,,,,,,,,,,5,1,0,15,15,48,1,,,,,,,,,,,,,,,,,,,,,,,,,,,,,,,,,,,,,,,,,,,,,,,,,,,,,,,,,,,,,,,,,,,,,,
,,?,0.001,0,,,,,,stimuli/images/PICTURE_403.png,TOILET,5dcec32a367c6d000a4282c2,06/13/1953,2020-07-09_13h09.58.223,proactive,2020.1.2,Win32,60,5f073de81c76c3308c0e4fb3,5f0778f0b5dc8616cc45da78,6,,,,,,cathedral,,,,,,,,,,,3,1,0,16,16,25,1,,,,,,,,,,,,,,,,,,,,,,,,,,,,,,,,,,,,,,,,,,,,,,,,,,,,,,,,,,,,,,,,,,,,,,
,,FLIGHT,3.191,1,,,,,,stimuli/images/PICTURE_108.png,FLIGHT,5dcec32a367c6d000a4282c2,06/13/1953,2020-07-09_13h09.58.223,proactive,2020.1.2,Win32,60,5f073de81c76c3308c0e4fb3,5f0778f0b5dc8616cc45da78,6,,,,,,calendar,,,,,,,,,,,6,1,0,17,17,59,1,,,,,,,,,,,,,,,,,,,,,,,,,,,,,,,,,,,,,,,,,,,,,,,,,,,,,,,,,,,,,,,,,,,,,,
,,?,0.005,0,,,,,,stimuli/images/PICTURE_33.png,FRIEND,5dcec32a367c6d000a4282c2,06/13/1953,2020-07-09_13h09.58.223,proactive,2020.1.2,Win32,60,5f073de81c76c3308c0e4fb3,5f0778f0b5dc8616cc45da78,6,,,,,,frame,,,,,,,,,,,1,1,0,18,18,8,1,,,,,,,,,,,,,,,,,,,,,,,,,,,,,,,,,,,,,,,,,,,,,,,,,,,,,,,,,,,,,,,,,,,,,,
,,NEWT,6.975,0,,,,,,stimuli/images/PICTURE_340.png,VALLEY,5dcec32a367c6d000a4282c2,06/13/1953,2020-07-09_13h09.58.223,proactive,2020.1.2,Win32,60,5f073de81c76c3308c0e4fb3,5f0778f0b5dc8616cc45da78,6,,,,,,mirror,,,,,,,,,,,6,1,0,19,19,54,1,,,,,,,,,,,,,,,,,,,,,,,,,,,,,,,,,,,,,,,,,,,,,,,,,,,,,,,,,,,,,,,,,,,,,,
,,?,0.004,0,,,,,,stimuli/images/PICTURE_491.png,GLASS,5dcec32a367c6d000a4282c2,06/13/1953,2020-07-09_13h09.58.223,proactive,2020.1.2,Win32,60,5f073de81c76c3308c0e4fb3,5f0778f0b5dc8616cc45da78,6,,,,,,rug,,,,,,,,,,,2,1,0,20,20,14,1,,,,,,,,,,,,,,,,,,,,,,,,,,,,,,,,,,,,,,,,,,,,,,,,,,,,,,,,,,,,,,,,,,,,,,
,,?,0.001,0,,,,,,stimuli/images/PICTURE_177.png,WRITER,5dcec32a367c6d000a4282c2,06/13/1953,2020-07-09_13h09.58.223,proactive,2020.1.2,Win32,60,5f073de81c76c3308c0e4fb3,5f0778f0b5dc8616cc45da78,6,,,,,,mushroom,,,,,,,,,,,5,1,0,21,21,41,1,,,,,,,,,,,,,,,,,,,,,,,,,,,,,,,,,,,,,,,,,,,,,,,,,,,,,,,,,,,,,,,,,,,,,,
,,WOMAN,7.857,0,,,,,,stimuli/images/PICTURE_42.png,BOYS,5dcec32a367c6d000a4282c2,06/13/1953,2020-07-09_13h09.58.223,proactive,2020.1.2,Win32,60,5f073de81c76c3308c0e4fb3,5f0778f0b5dc8616cc45da78,6,,,,,,pear,,,,,,,,,,,6,1,0,22,22,55,1,,,,,,,,,,,,,,,,,,,,,,,,,,,,,,,,,,,,,,,,,,,,,,,,,,,,,,,,,,,,,,,,,,,,,,
,,?,0.003,0,,,,,,stimuli/images/PICTURE_380.png,CANDY,5dcec32a367c6d000a4282c2,06/13/1953,2020-07-09_13h09.58.223,proactive,2020.1.2,Win32,60,5f073de81c76c3308c0e4fb3,5f0778f0b5dc8616cc45da78,6,,,,,,gorilla,,,,,,,,,,,1,1,0,23,23,0,1,,,,,,,,,,,,,,,,,,,,,,,,,,,,,,,,,,,,,,,,,,,,,,,,,,,,,,,,,,,,,,,,,,,,,,
,,?,0.001,0,,,,,,stimuli/images/PICTURE_95.png,BOYS,5dcec32a367c6d000a4282c2,06/13/1953,2020-07-09_13h09.58.223,proactive,2020.1.2,Win32,60,5f073de81c76c3308c0e4fb3,5f0778f0b5dc8616cc45da78,6,,,,,,suitcase,,,,,,,,,,,1,1,0,24,24,1,1,,,,,,,,,,,,,,,,,,,,,,,,,,,,,,,,,,,,,,,,,,,,,,,,,,,,,,,,,,,,,,,,,,,,,,
,,?,0.002,0,,,,,,stimuli/images/PICTURE_327.png,CASINO,5dcec32a367c6d000a4282c2,06/13/1953,2020-07-09_13h09.58.223,proactive,2020.1.2,Win32,60,5f073de81c76c3308c0e4fb3,5f0778f0b5dc8616cc45da78,6,,,,,,helmet,,,,,,,,,,,3,1,0,25,25,20,1,,,,,,,,,,,,,,,,,,,,,,,,,,,,,,,,,,,,,,,,,,,,,,,,,,,,,,,,,,,,,,,,,,,,,,
,,?,0.001,0,,,,,,stimuli/images/PICTURE_32.png,KIND,5dcec32a367c6d000a4282c2,06/13/1953,2020-07-09_13h09.58.223,proactive,2020.1.2,Win32,60,5f073de81c76c3308c0e4fb3,5f0778f0b5dc8616cc45da78,6,,,,,,crown,,,,,,,,,,,4,1,0,26,26,35,1,,,,,,,,,,,,,,,,,,,,,,,,,,,,,,,,,,,,,,,,,,,,,,,,,,,,,,,,,,,,,,,,,,,,,,
,,?,0,0,,,,,,stimuli/images/PICTURE_403.png,RIVER,5dcec32a367c6d000a4282c2,06/13/1953,2020-07-09_13h09.58.223,proactive,2020.1.2,Win32,60,5f073de81c76c3308c0e4fb3,5f0778f0b5dc8616cc45da78,6,,,,,,cathedral,,,,,,,,,,,5,1,0,27,27,40,1,,,,,,,,,,,,,,,,,,,,,,,,,,,,,,,,,,,,,,,,,,,,,,,,,,,,,,,,,,,,,,,,,,,,,,
,,?,0,0,,,,,,stimuli/images/PICTURE_677.png,APPLE,5dcec32a367c6d000a4282c2,06/13/1953,2020-07-09_13h09.58.223,proactive,2020.1.2,Win32,60,5f073de81c76c3308c0e4fb3,5f0778f0b5dc8616cc45da78,6,,,,,,map,,,,,,,,,,,5,1,0,28,28,43,1,,,,,,,,,,,,,,,,,,,,,,,,,,,,,,,,,,,,,,,,,,,,,,,,,,,,,,,,,,,,,,,,,,,,,,
,,?,0.003,0,,,,,,stimuli/images/PICTURE_57.png,MOMENT,5dcec32a367c6d000a4282c2,06/13/1953,2020-07-09_13h09.58.223,proactive,2020.1.2,Win32,60,5f073de81c76c3308c0e4fb3,5f0778f0b5dc8616cc45da78,6,,,,,,stamp,,,,,,,,,,,4,1,0,29,29,37,1,,,,,,,,,,,,,,,,,,,,,,,,,,,,,,,,,,,,,,,,,,,,,,,,,,,,,,,,,,,,,,,,,,,,,,
,,HANDLE,10.313,0,,,,,,stimuli/images/PICTURE_68.png,MILE,5dcec32a367c6d000a4282c2,06/13/1953,2020-07-09_13h09.58.223,proactive,2020.1.2,Win32,60,5f073de81c76c3308c0e4fb3,5f0778f0b5dc8616cc45da78,6,,,,,,candle,,,,,,,,,,,6,1,0,30,30,51,1,,,,,,,,,,,,,,,,,,,,,,,,,,,,,,,,,,,,,,,,,,,,,,,,,,,,,,,,,,,,,,,,,,,,,,
,,?,0.005,0,,,,,,stimuli/images/PICTURE_95.png,HONEY,5dcec32a367c6d000a4282c2,06/13/1953,2020-07-09_13h09.58.223,proactive,2020.1.2,Win32,60,5f073de81c76c3308c0e4fb3,5f0778f0b5dc8616cc45da78,6,,,,,,suitcase,,,,,,,,,,,5,1,0,31,31,44,1,,,,,,,,,,,,,,,,,,,,,,,,,,,,,,,,,,,,,,,,,,,,,,,,,,,,,,,,,,,,,,,,,,,,,,
,,?,0.001,0,,,,,,stimuli/images/PICTURE_487.png,GIRL,5dcec32a367c6d000a4282c2,06/13/1953,2020-07-09_13h09.58.223,proactive,2020.1.2,Win32,60,5f073de81c76c3308c0e4fb3,5f0778f0b5dc8616cc45da78,6,,,,,,basket,,,,,,,,,,,5,1,0,32,32,45,1,,,,,,,,,,,,,,,,,,,,,,,,,,,,,,,,,,,,,,,,,,,,,,,,,,,,,,,,,,,,,,,,,,,,,,
,,?,0.001,0,,,,,,stimuli/images/PICTURE_655.png,TOILET,5dcec32a367c6d000a4282c2,06/13/1953,2020-07-09_13h09.58.223,proactive,2020.1.2,Win32,60,5f073de81c76c3308c0e4fb3,5f0778f0b5dc8616cc45da78,6,,,,,,megaphone,,,,,,,,,,,2,1,0,33,33,12,1,,,,,,,,,,,,,,,,,,,,,,,,,,,,,,,,,,,,,,,,,,,,,,,,,,,,,,,,,,,,,,,,,,,,,,
,,MAN,4.522,0,,,,,,stimuli/images/PICTURE_467.png,POLICY,5dcec32a367c6d000a4282c2,06/13/1953,2020-07-09_13h09.58.223,proactive,2020.1.2,Win32,60,5f073de81c76c3308c0e4fb3,5f0778f0b5dc8616cc45da78,6,,,,,,peg,,,,,,,,,,,6,1,0,34,34,53,1,,,,,,,,,,,,,,,,,,,,,,,,,,,,,,,,,,,,,,,,,,,,,,,,,,,,,,,,,,,,,,,,,,,,,,
,,?,0.006,0,,,,,,stimuli/images/PICTURE_203.png,NIGHT,5dcec32a367c6d000a4282c2,06/13/1953,2020-07-09_13h09.58.223,proactive,2020.1.2,Win32,60,5f073de81c76c3308c0e4fb3,5f0778f0b5dc8616cc45da78,6,,,,,,cap,,,,,,,,,,,1,1,0,35,35,2,1,,,,,,,,,,,,,,,,,,,,,,,,,,,,,,,,,,,,,,,,,,,,,,,,,,,,,,,,,,,,,,,,,,,,,,
,,?,0,0,,,,,,stimuli/images/PICTURE_340.png,LETTER,5dcec32a367c6d000a4282c2,06/13/1953,2020-07-09_13h09.58.223,proactive,2020.1.2,Win32,60,5f073de81c76c3308c0e4fb3,5f0778f0b5dc8616cc45da78,6,,,,,,mirror,,,,,,,,,,,3,1,0,36,36,24,1,,,,,,,,,,,,,,,,,,,,,,,,,,,,,,,,,,,,,,,,,,,,,,,,,,,,,,,,,,,,,,,,,,,,,,
,,MILE,4.702,0,,,,,,stimuli/images/PICTURE_504.png,COPS,5dcec32a367c6d000a4282c2,06/13/1953,2020-07-09_13h09.58.223,proactive,2020.1.2,Win32,60,5f073de81c76c3308c0e4fb3,5f0778f0b5dc8616cc45da78,6,,,,,,wheel,,,,,,,,,,,6,1,0,37,37,52,1,,,,,,,,,,,,,,,,,,,,,,,,,,,,,,,,,,,,,,,,,,,,,,,,,,,,,,,,,,,,,,,,,,,,,,
,,?,0.004,0,,,,,,stimuli/images/PICTURE_654.png,MONTH,5dcec32a367c6d000a4282c2,06/13/1953,2020-07-09_13h09.58.223,proactive,2020.1.2,Win32,60,5f073de81c76c3308c0e4fb3,5f0778f0b5dc8616cc45da78,6,,,,,,pencil,,,,,,,,,,,3,1,0,38,38,29,1,,,,,,,,,,,,,,,,,,,,,,,,,,,,,,,,,,,,,,,,,,,,,,,,,,,,,,,,,,,,,,,,,,,,,,
,,TIRE,2.826,0,,,,,,stimuli/images/PICTURE_296.png,LIFE,5dcec32a367c6d000a4282c2,06/13/1953,2020-07-09_13h09.58.223,proactive,2020.1.2,Win32,60,5f073de81c76c3308c0e4fb3,5f0778f0b5dc8616cc45da78,6,,,,,,bolt,,,,,,,,,,,6,1,0,39,39,57,1,,,,,,,,,,,,,,,,,,,,,,,,,,,,,,,,,,,,,,,,,,,,,,,,,,,,,,,,,,,,,,,,,,,,,,
,,?,0.002,0,,,,,,stimuli/images/PICTURE_383.png,SERIES,5dcec32a367c6d000a4282c2,06/13/1953,2020-07-09_13h09.58.223,proactive,2020.1.2,Win32,60,5f073de81c76c3308c0e4fb3,5f0778f0b5dc8616cc45da78,6,,,,,,coin,,,,,,,,,,,5,1,0,40,40,46,1,,,,,,,,,,,,,,,,,,,,,,,,,,,,,,,,,,,,,,,,,,,,,,,,,,,,,,,,,,,,,,,,,,,,,,
,,?,0.001,0,,,,,,stimuli/images/PICTURE_297.png,RIVER,5dcec32a367c6d000a4282c2,06/13/1953,2020-07-09_13h09.58.223,proactive,2020.1.2,Win32,60,5f073de81c76c3308c0e4fb3,5f0778f0b5dc8616cc45da78,6,,,,,,aeroplane,,,,,,,,,,,4,1,0,41,41,39,1,,,,,,,,,,,,,,,,,,,,,,,,,,,,,,,,,,,,,,,,,,,,,,,,,,,,,,,,,,,,,,,,,,,,,,
,,MAN,5.606,0,,,,,,stimuli/images/PICTURE_95.png,MILLER,5dcec32a367c6d000a4282c2,06/13/1953,2020-07-09_13h09.58.223,proactive,2020.1.2,Win32,60,5f073de81c76c3308c0e4fb3,5f0778f0b5dc8616cc45da78,6,,,,,,suitcase,,,,,,,,,,,6,1,0,42,42,56,1,,,,,,,,,,,,,,,,,,,,,,,,,,,,,,,,,,,,,,,,,,,,,,,,,,,,,,,,,,,,,,,,,,,,,,
,,?,0.006,0,,,,,,stimuli/images/PICTURE_403.png,WRITER,5dcec32a367c6d000a4282c2,06/13/1953,2020-07-09_13h09.58.223,proactive,2020.1.2,Win32,60,5f073de81c76c3308c0e4fb3,5f0778f0b5dc8616cc45da78,6,,,,,,cathedral,,,,,,,,,,,4,1,0,43,43,31,1,,,,,,,,,,,,,,,,,,,,,,,,,,,,,,,,,,,,,,,,,,,,,,,,,,,,,,,,,,,,,,,,,,,,,,
,,FIGHT,7.225,0,,,,,,stimuli/images/PICTURE_744.png,WEAPON,5dcec32a367c6d000a4282c2,06/13/1953,2020-07-09_13h09.58.223,proactive,2020.1.2,Win32,60,5f073de81c76c3308c0e4fb3,5f0778f0b5dc8616cc45da78,6,,,,,,ring,,,,,,,,,,,6,1,0,44,44,50,1,,,,,,,,,,,,,,,,,,,,,,,,,,,,,,,,,,,,,,,,,,,,,,,,,,,,,,,,,,,,,,,,,,,,,,
,,?,0.007,0,,,,,,stimuli/images/PICTURE_491.png,RIVER,5dcec32a367c6d000a4282c2,06/13/1953,2020-07-09_13h09.58.223,proactive,2020.1.2,Win32,60,5f073de81c76c3308c0e4fb3,5f0778f0b5dc8616cc45da78,6,,,,,,rug,,,,,,,,,,,1,1,0,45,45,6,1,,,,,,,,,,,,,,,,,,,,,,,,,,,,,,,,,,,,,,,,,,,,,,,,,,,,,,,,,,,,,,,,,,,,,,
,,?,0.001,0,,,,,,stimuli/images/PICTURE_339.png,CLIENT,5dcec32a367c6d000a4282c2,06/13/1953,2020-07-09_13h09.58.223,proactive,2020.1.2,Win32,60,5f073de81c76c3308c0e4fb3,5f0778f0b5dc8616cc45da78,6,,,,,,backpack,,,,,,,,,,,2,1,0,46,46,11,1,,,,,,,,,,,,,,,,,,,,,,,,,,,,,,,,,,,,,,,,,,,,,,,,,,,,,,,,,,,,,,,,,,,,,,
,,?,0.002,0,,,,,,stimuli/images/PICTURE_504.png,YEAR,5dcec32a367c6d000a4282c2,06/13/1953,2020-07-09_13h09.58.223,proactive,2020.1.2,Win32,60,5f073de81c76c3308c0e4fb3,5f0778f0b5dc8616cc45da78,6,,,,,,wheel,,,,,,,,,,,2,1,0,47,47,13,1,,,,,,,,,,,,,,,,,,,,,,,,,,,,,,,,,,,,,,,,,,,,,,,,,,,,,,,,,,,,,,,,,,,,,,
,,?,0.002,0,,,,,,stimuli/images/PICTURE_68.png,ROOF,5dcec32a367c6d000a4282c2,06/13/1953,2020-07-09_13h09.58.223,proactive,2020.1.2,Win32,60,5f073de81c76c3308c0e4fb3,5f0778f0b5dc8616cc45da78,6,,,,,,candle,,,,,,,,,,,4,1,0,48,48,38,1,,,,,,,,,,,,,,,,,,,,,,,,,,,,,,,,,,,,,,,,,,,,,,,,,,,,,,,,,,,,,,,,,,,,,,
,,?,0.001,0,,,,,,stimuli/images/PICTURE_147.png,YEAR,5dcec32a367c6d000a4282c2,06/13/1953,2020-07-09_13h09.58.223,proactive,2020.1.2,Win32,60,5f073de81c76c3308c0e4fb3,5f0778f0b5dc8616cc45da78,6,,,,,,hanger,,,,,,,,,,,3,1,0,49,49,21,1,,,,,,,,,,,,,,,,,,,,,,,,,,,,,,,,,,,,,,,,,,,,,,,,,,,,,,,,,,,,,,,,,,,,,,
,,?,0.001,0,,,,,,stimuli/images/PICTURE_147.png,WOMEN,5dcec32a367c6d000a4282c2,06/13/1953,2020-07-09_13h09.58.223,proactive,2020.1.2,Win32,60,5f073de81c76c3308c0e4fb3,5f0778f0b5dc8616cc45da78,6,,,,,,hanger,,,,,,,,,,,1,1,0,50,50,7,1,,,,,,,,,,,,,,,,,,,,,,,,,,,,,,,,,,,,,,,,,,,,,,,,,,,,,,,,,,,,,,,,,,,,,,
,,?,0.001,0,,,,,,stimuli/images/PICTURE_380.png,HONEY,5dcec32a367c6d000a4282c2,06/13/1953,2020-07-09_13h09.58.223,proactive,2020.1.2,Win32,60,5f073de81c76c3308c0e4fb3,5f0778f0b5dc8616cc45da78,6,,,,,,gorilla,,,,,,,,,,,2,1,0,51,51,19,1,,,,,,,,,,,,,,,,,,,,,,,,,,,,,,,,,,,,,,,,,,,,,,,,,,,,,,,,,,,,,,,,,,,,,,
,,?,0.001,0,,,,,,stimuli/images/PICTURE_564.png,BATH,5dcec32a367c6d000a4282c2,06/13/1953,2020-07-09_13h09.58.223,proactive,2020.1.2,Win32,60,5f073de81c76c3308c0e4fb3,5f0778f0b5dc8616cc45da78,6,,,,,,spoon,,,,,,,,,,,3,1,0,52,52,26,1,,,,,,,,,,,,,,,,,,,,,,,,,,,,,,,,,,,,,,,,,,,,,,,,,,,,,,,,,,,,,,,,,,,,,,
,,?,0.002,0,,,,,,stimuli/images/PICTURE_285.png,LIFE,5dcec32a367c6d000a4282c2,06/13/1953,2020-07-09_13h09.58.223,proactive,2020.1.2,Win32,60,5f073de81c76c3308c0e4fb3,5f0778f0b5dc8616cc45da78,6,,,,,,carrot,,,,,,,,,,,4,1,0,53,53,33,1,,,,,,,,,,,,,,,,,,,,,,,,,,,,,,,,,,,,,,,,,,,,,,,,,,,,,,,,,,,,,,,,,,,,,,
,,?,0.002,0,,,,,,stimuli/images/PICTURE_383.png,WRITER,5dcec32a367c6d000a4282c2,06/13/1953,2020-07-09_13h09.58.223,proactive,2020.1.2,Win32,60,5f073de81c76c3308c0e4fb3,5f0778f0b5dc8616cc45da78,6,,,,,,coin,,,,,,,,,,,3,1,0,54,54,28,1,,,,,,,,,,,,,,,,,,,,,,,,,,,,,,,,,,,,,,,,,,,,,,,,,,,,,,,,,,,,,,,,,,,,,,
,,?,0.001,0,,,,,,stimuli/images/PICTURE_667.png,RIVER,5dcec32a367c6d000a4282c2,06/13/1953,2020-07-09_13h09.58.223,proactive,2020.1.2,Win32,60,5f073de81c76c3308c0e4fb3,5f0778f0b5dc8616cc45da78,6,,,,,,daisy,,,,,,,,,,,2,1,0,55,55,10,1,,,,,,,,,,,,,,,,,,,,,,,,,,,,,,,,,,,,,,,,,,,,,,,,,,,,,,,,,,,,,,,,,,,,,,
,,?,0.002,0,,,,,,stimuli/images/PICTURE_469.png,AGENT,5dcec32a367c6d000a4282c2,06/13/1953,2020-07-09_13h09.58.223,proactive,2020.1.2,Win32,60,5f073de81c76c3308c0e4fb3,5f0778f0b5dc8616cc45da78,6,,,,,,stool,,,,,,,,,,,2,1,0,56,56,16,1,,,,,,,,,,,,,,,,,,,,,,,,,,,,,,,,,,,,,,,,,,,,,,,,,,,,,,,,,,,,,,,,,,,,,,
,,?,0.001,0,,,,,,stimuli/images/PICTURE_327.png,SERIES,5dcec32a367c6d000a4282c2,06/13/1953,2020-07-09_13h09.58.223,proactive,2020.1.2,Win32,60,5f073de81c76c3308c0e4fb3,5f0778f0b5dc8616cc45da78,6,,,,,,helmet,,,,,,,,,,,1,1,0,57,57,3,1,,,,,,,,,,,,,,,,,,,,,,,,,,,,,,,,,,,,,,,,,,,,,,,,,,,,,,,,,,,,,,,,,,,,,,
,,?,0.001,0,,,,,,stimuli/images/PICTURE_203.png,GODS,5dcec32a367c6d000a4282c2,06/13/1953,2020-07-09_13h09.58.223,proactive,2020.1.2,Win32,60,5f073de81c76c3308c0e4fb3,5f0778f0b5dc8616cc45da78,6,,,,,,cap,,,,,,,,,,,4,1,0,58,58,30,1,,,,,,,,,,,,,,,,,,,,,,,,,,,,,,,,,,,,,,,,,,,,,,,,,,,,,,,,,,,,,,,,,,,,,,
,,?,0.002,0,,,,,,stimuli/images/PICTURE_296.png,LOTS,5dcec32a367c6d000a4282c2,06/13/1953,2020-07-09_13h09.58.223,proactive,2020.1.2,Win32,60,5f073de81c76c3308c0e4fb3,5f0778f0b5dc8616cc45da78,6,,,,,,bolt,,,,,,,,,,,1,1,0,59,59,9,1,,,,,,,,,,,,,,,,,,,,,,,,,,,,,,,,,,,,,,,,,,,,,,,,,,,,,,,,,,,,,,,,,,,,,,
,,,,,,,,,,,,5dcec32a367c6d000a4282c2,06/13/1953,2020-07-09_13h09.58.223,proactive,2020.1.2,Win32,60,5f073de81c76c3308c0e4fb3,5f0778f0b5dc8616cc45da78,6,,,,,,,,,,,,,,,,,,,,,,,,0,1,1,1,1,stimuli/learn-block2.csv,,,,,,,,,,,,,,,,,,,,,,,,,,,,,,,,,,,,,,,,,,,,,,,,,,,,,,,,,,,,,,,,
,,,,,,,,,,stimuli/images/PICTURE_285.png,WRITER,5dcec32a367c6d000a4282c2,06/13/1953,2020-07-09_13h09.58.223,proactive,2020.1.2,Win32,60,5f073de81c76c3308c0e4fb3,5f0778f0b5dc8616cc45da78,6,,,,,,carrot,,,,,,0,0,0,6,1,1,2,,,,,,,,,,,,,,,,,,,,,,,,,,,,,,,,,,,,,,,,,,,,,,,,,,,,,,,,,,,,,,,,,,,,,,,,,,,
,,,,,,,,,,stimuli/images/PICTURE_18.png,RIVER,5dcec32a367c6d000a4282c2,06/13/1953,2020-07-09_13h09.58.223,proactive,2020.1.2,Win32,60,5f073de81c76c3308c0e4fb3,5f0778f0b5dc8616cc45da78,6,,,,,,planet,,,,,,0,1,1,22,1,3,2,,,,,,,,,,,,,,,,,,,,,,,,,,,,,,,,,,,,,,,,,,,,,,,,,,,,,,,,,,,,,,,,,,,,,,,,,,,
,,,,,,,,,,stimuli/images/PICTURE_509.png,MILLER,5dcec32a367c6d000a4282c2,06/13/1953,2020-07-09_13h09.58.223,proactive,2020.1.2,Win32,60,5f073de81c76c3308c0e4fb3,5f0778f0b5dc8616cc45da78,6,,,,,,telephone,,,,,,0,2,2,49,1,5,2,,,,,,,,,,,,,,,,,,,,,,,,,,,,,,,,,,,,,,,,,,,,,,,,,,,,,,,,,,,,,,,,,,,,,,,,,,,
,,,,,,,,,,stimuli/images/PICTURE_2.png,JUNGLE,5dcec32a367c6d000a4282c2,06/13/1953,2020-07-09_13h09.58.223,proactive,2020.1.2,Win32,60,5f073de81c76c3308c0e4fb3,5f0778f0b5dc8616cc45da78,6,,,,,,tyre,,,,,,0,3,3,1,1,1,2,,,,,,,,,,,,,,,,,,,,,,,,,,,,,,,,,,,,,,,,,,,,,,,,,,,,,,,,,,,,,,,,,,,,,,,,,,,
,,,,,,,,,,stimuli/images/PICTURE_470.png,MOMENT,5dcec32a367c6d000a4282c2,06/13/1953,2020-07-09_13h09.58.223,proactive,2020.1.2,Win32,60,5f073de81c76c3308c0e4fb3,5f0778f0b5dc8616cc45da78,6,,,,,,motorbike,,,,,,0,4,4,40,1,5,2,,,,,,,,,,,,,,,,,,,,,,,,,,,,,,,,,,,,,,,,,,,,,,,,,,,,,,,,,,,,,,,,,,,,,,,,,,,
,,,,,,,,,,stimuli/images/PICTURE_708.png,VALLEY,5dcec32a367c6d000a4282c2,06/13/1953,2020-07-09_13h09.58.223,proactive,2020.1.2,Win32,60,5f073de81c76c3308c0e4fb3,5f0778f0b5dc8616cc45da78,6,,,,,,monkey,,,,,,0,5,5,45,1,5,2,,,,,,,,,,,,,,,,,,,,,,,,,,,,,,,,,,,,,,,,,,,,,,,,,,,,,,,,,,,,,,,,,,,,,,,,,,,
,,,,,,,,,,stimuli/images/PICTURE_356.png,CANDY,5dcec32a367c6d000a4282c2,06/13/1953,2020-07-09_13h09.58.223,proactive,2020.1.2,Win32,60,5f073de81c76c3308c0e4fb3,5f0778f0b5dc8616cc45da78,6,,,,,,pawn,,,,,,0,6,6,46,1,5,2,,,,,,,,,,,,,,,,,,,,,,,,,,,,,,,,,,,,,,,,,,,,,,,,,,,,,,,,,,,,,,,,,,,,,,,,,,,
,,,,,,,,,,stimuli/images/PICTURE_311.png,FLESH,5dcec32a367c6d000a4282c2,06/13/1953,2020-07-09_13h09.58.223,proactive,2020.1.2,Win32,60,5f073de81c76c3308c0e4fb3,5f0778f0b5dc8616cc45da78,6,,,,,,razor,,,,,,0,7,7,3,1,1,2,,,,,,,,,,,,,,,,,,,,,,,,,,,,,,,,,,,,,,,,,,,,,,,,,,,,,,,,,,,,,,,,,,,,,,,,,,,
,,,,,,,,,,stimuli/images/PICTURE_509.png,APPLE,5dcec32a367c6d000a4282c2,06/13/1953,2020-07-09_13h09.58.223,proactive,2020.1.2,Win32,60,5f073de81c76c3308c0e4fb3,5f0778f0b5dc8616cc45da78,6,,,,,,telephone,,,,,,0,8,8,38,1,4,2,,,,,,,,,,,,,,,,,,,,,,,,,,,,,,,,,,,,,,,,,,,,,,,,,,,,,,,,,,,,,,,,,,,,,,,,,,,
,,,,,,,,,,stimuli/images/PICTURE_692.png,DUDE,5dcec32a367c6d000a4282c2,06/13/1953,2020-07-09_13h09.58.223,proactive,2020.1.2,Win32,60,5f073de81c76c3308c0e4fb3,5f0778f0b5dc8616cc45da78,6,,,,,,cherry,,,,,,0,9,9,47,1,5,2,,,,,,,,,,,,,,,,,,,,,,,,,,,,,,,,,,,,,,,,,,,,,,,,,,,,,,,,,,,,,,,,,,,,,,,,,,,
,,,,,,,,,,stimuli/images/PICTURE_2.png,YARD,5dcec32a367c6d000a4282c2,06/13/1953,2020-07-09_13h09.58.223,proactive,2020.1.2,Win32,60,5f073de81c76c3308c0e4fb3,5f0778f0b5dc8616cc45da78,6,,,,,,tyre,,,,,,0,10,10,55,1,6,2,,,,,,,,,,,,,,,,,,,,,,,,,,,,,,,,,,,,,,,,,,,,,,,,,,,,,,,,,,,,,,,,,,,,,,,,,,,
,,,,,,,,,,stimuli/images/PICTURE_348.png,DUDE,5dcec32a367c6d000a4282c2,06/13/1953,2020-07-09_13h09.58.223,proactive,2020.1.2,Win32,60,5f073de81c76c3308c0e4fb3,5f0778f0b5dc8616cc45da78,6,,,,,,pepper,,,,,,0,11,11,59,1,6,2,,,,,,,,,,,,,,,,,,,,,,,,,,,,,,,,,,,,,,,,,,,,,,,,,,,,,,,,,,,,,,,,,,,,,,,,,,,
,,,,,,,,,,stimuli/images/PICTURE_688.png,CLOCK,5dcec32a367c6d000a4282c2,06/13/1953,2020-07-09_13h09.58.223,proactive,2020.1.2,Win32,60,5f073de81c76c3308c0e4fb3,5f0778f0b5dc8616cc45da78,6,,,,,,runner,,,,,,0,12,12,42,1,5,2,,,,,,,,,,,,,,,,,,,,,,,,,,,,,,,,,,,,,,,,,,,,,,,,,,,,,,,,,,,,,,,,,,,,,,,,,,,
,,,,,,,,,,stimuli/images/PICTURE_667.png,GLASS,5dcec32a367c6d000a4282c2,06/13/1953,2020-07-09_13h09.58.223,proactive,2020.1.2,Win32,60,5f073de81c76c3308c0e4fb3,5f0778f0b5dc8616cc45da78,6,,,,,,daisy,,,,,,0,13,13,27,1,3,2,,,,,,,,,,,,,,,,,,,,,,,,,,,,,,,,,,,,,,,,,,,,,,,,,,,,,,,,,,,,,,,,,,,,,,,,,,,
,,,,,,,,,,stimuli/images/PICTURE_208.png,SPIRIT,5dcec32a367c6d000a4282c2,06/13/1953,2020-07-09_13h09.58.223,proactive,2020.1.2,Win32,60,5f073de81c76c3308c0e4fb3,5f0778f0b5dc8616cc45da78,6,,,,,,microphone,,,,,,0,14,14,28,1,3,2,,,,,,,,,,,,,,,,,,,,,,,,,,,,,,,,,,,,,,,,,,,,,,,,,,,,,,,,,,,,,,,,,,,,,,,,,,,
,,,,,,,,,,stimuli/images/PICTURE_564.png,PLENTY,5dcec32a367c6d000a4282c2,06/13/1953,2020-07-09_13h09.58.223,proactive,2020.1.2,Win32,60,5f073de81c76c3308c0e4fb3,5f0778f0b5dc8616cc45da78,6,,,,,,spoon,,,,,,0,15,15,11,1,2,2,,,,,,,,,,,,,,,,,,,,,,,,,,,,,,,,,,,,,,,,,,,,,,,,,,,,,,,,,,,,,,,,,,,,,,,,,,,
,,,,,,,,,,stimuli/images/PICTURE_654.png,YEAR,5dcec32a367c6d000a4282c2,06/13/1953,2020-07-09_13h09.58.223,proactive,2020.1.2,Win32,60,5f073de81c76c3308c0e4fb3,5f0778f0b5dc8616cc45da78,6,,,,,,pencil,,,,,,0,16,16,41,1,5,2,,,,,,,,,,,,,,,,,,,,,,,,,,,,,,,,,,,,,,,,,,,,,,,,,,,,,,,,,,,,,,,,,,,,,,,,,,,
,,,,,,,,,,stimuli/images/PICTURE_509.png,SHOTS,5dcec32a367c6d000a4282c2,06/13/1953,2020-07-09_13h09.58.223,proactive,2020.1.2,Win32,60,5f073de81c76c3308c0e4fb3,5f0778f0b5dc8616cc45da78,6,,,,,,telephone,,,,,,0,17,17,7,1,1,2,,,,,,,,,,,,,,,,,,,,,,,,,,,,,,,,,,,,,,,,,,,,,,,,,,,,,,,,,,,,,,,,,,,,,,,,,,,
,,,,,,,,,,stimuli/images/PICTURE_177.png,HOUSE,5dcec32a367c6d000a4282c2,06/13/1953,2020-07-09_13h09.58.223,proactive,2020.1.2,Win32,60,5f073de81c76c3308c0e4fb3,5f0778f0b5dc8616cc45da78,6,,,,,,mushroom,,,,,,0,18,18,25,1,3,2,,,,,,,,,,,,,,,,,,,,,,,,,,,,,,,,,,,,,,,,,,,,,,,,,,,,,,,,,,,,,,,,,,,,,,,,,,,
,,,,,,,,,,stimuli/images/PICTURE_470.png,BEAUTY,5dcec32a367c6d000a4282c2,06/13/1953,2020-07-09_13h09.58.223,proactive,2020.1.2,Win32,60,5f073de81c76c3308c0e4fb3,5f0778f0b5dc8616cc45da78,6,,,,,,motorbike,,,,,,0,19,19,26,1,3,2,,,,,,,,,,,,,,,,,,,,,,,,,,,,,,,,,,,,,,,,,,,,,,,,,,,,,,,,,,,,,,,,,,,,,,,,,,,
,,,,,,,,,,stimuli/images/PICTURE_405.png,JUNGLE,5dcec32a367c6d000a4282c2,06/13/1953,2020-07-09_13h09.58.223,proactive,2020.1.2,Win32,60,5f073de81c76c3308c0e4fb3,5f0778f0b5dc8616cc45da78,6,,,,,,anchor,,,,,,0,20,20,58,1,6,2,,,,,,,,,,,,,,,,,,,,,,,,,,,,,,,,,,,,,,,,,,,,,,,,,,,,,,,,,,,,,,,,,,,,,,,,,,,
,,,,,,,,,,stimuli/images/PICTURE_141.png,CLIENT,5dcec32a367c6d000a4282c2,06/13/1953,2020-07-09_13h09.58.223,proactive,2020.1.2,Win32,60,5f073de81c76c3308c0e4fb3,5f0778f0b5dc8616cc45da78,6,,,,,,sunflower,,,,,,0,21,21,30,1,4,2,,,,,,,,,,,,,,,,,,,,,,,,,,,,,,,,,,,,,,,,,,,,,,,,,,,,,,,,,,,,,,,,,,,,,,,,,,,
,,,,,,,,,,stimuli/images/PICTURE_504.png,HOUSE,5dcec32a367c6d000a4282c2,06/13/1953,2020-07-09_13h09.58.223,proactive,2020.1.2,Win32,60,5f073de81c76c3308c0e4fb3,5f0778f0b5dc8616cc45da78,6,,,,,,wheel,,,,,,0,22,22,36,1,4,2,,,,,,,,,,,,,,,,,,,,,,,,,,,,,,,,,,,,,,,,,,,,,,,,,,,,,,,,,,,,,,,,,,,,,,,,,,,
,,,,,,,,,,stimuli/images/PICTURE_403.png,FAMILY,5dcec32a367c6d000a4282c2,06/13/1953,2020-07-09_13h09.58.223,proactive,2020.1.2,Win32,60,5f073de81c76c3308c0e4fb3,5f0778f0b5dc8616cc45da78,6,,,,,,cathedral,,,,,,0,23,23,9,1,1,2,,,,,,,,,,,,,,,,,,,,,,,,,,,,,,,,,,,,,,,,,,,,,,,,,,,,,,,,,,,,,,,,,,,,,,,,,,,
,,,,,,,,,,stimuli/images/PICTURE_215.png,BOYS,5dcec32a367c6d000a4282c2,06/13/1953,2020-07-09_13h09.58.223,proactive,2020.1.2,Win32,60,5f073de81c76c3308c0e4fb3,5f0778f0b5dc8616cc45da78,6,,,,,,boot,,,,,,0,24,24,24,1,3,2,,,,,,,,,,,,,,,,,,,,,,,,,,,,,,,,,,,,,,,,,,,,,,,,,,,,,,,,,,,,,,,,,,,,,,,,,,,
,,,,,,,,,,stimuli/images/PICTURE_452.png,COPS,5dcec32a367c6d000a4282c2,06/13/1953,2020-07-09_13h09.58.223,proactive,2020.1.2,Win32,60,5f073de81c76c3308c0e4fb3,5f0778f0b5dc8616cc45da78,6,,,,,,watch,,,,,,0,25,25,0,1,1,2,,,,,,,,,,,,,,,,,,,,,,,,,,,,,,,,,,,,,,,,,,,,,,,,,,,,,,,,,,,,,,,,,,,,,,,,,,,
,,,,,,,,,,stimuli/images/PICTURE_491.png,SERIES,5dcec32a367c6d000a4282c2,06/13/1953,2020-07-09_13h09.58.223,proactive,2020.1.2,Win32,60,5f073de81c76c3308c0e4fb3,5f0778f0b5dc8616cc45da78,6,,,,,,rug,,,,,,0,26,26,39,1,4,2,,,,,,,,,,,,,,,,,,,,,,,,,,,,,,,,,,,,,,,,,,,,,,,,,,,,,,,,,,,,,,,,,,,,,,,,,,,
,,,,,,,,,,stimuli/images/PICTURE_147.png,LEADER,5dcec32a367c6d000a4282c2,06/13/1953,2020-07-09_13h09.58.223,proactive,2020.1.2,Win32,60,5f073de81c76c3308c0e4fb3,5f0778f0b5dc8616cc45da78,6,,,,,,hanger,,,,,,0,27,27,33,1,4,2,,,,,,,,,,,,,,,,,,,,,,,,,,,,,,,,,,,,,,,,,,,,,,,,,,,,,,,,,,,,,,,,,,,,,,,,,,,
,,,,,,,,,,stimuli/images/PICTURE_487.png,ROOF,5dcec32a367c6d000a4282c2,06/13/1953,2020-07-09_13h09.58.223,proactive,2020.1.2,Win32,60,5f073de81c76c3308c0e4fb3,5f0778f0b5dc8616cc45da78,6,,,,,,basket,,,,,,0,28,28,50,1,6,2,,,,,,,,,,,,,,,,,,,,,,,,,,,,,,,,,,,,,,,,,,,,,,,,,,,,,,,,,,,,,,,,,,,,,,,,,,,
,,,,,,,,,,stimuli/images/PICTURE_57.png,NATION,5dcec32a367c6d000a4282c2,06/13/1953,2020-07-09_13h09.58.223,proactive,2020.1.2,Win32,60,5f073de81c76c3308c0e4fb3,5f0778f0b5dc8616cc45da78,6,,,,,,stamp,,,,,,0,29,29,21,1,3,2,,,,,,,,,,,,,,,,,,,,,,,,,,,,,,,,,,,,,,,,,,,,,,,,,,,,,,,,,,,,,,,,,,,,,,,,,,,
,,,,,,,,,,stimuli/images/PICTURE_123.png,SALE,5dcec32a367c6d000a4282c2,06/13/1953,2020-07-09_13h09.58.223,proactive,2020.1.2,Win32,60,5f073de81c76c3308c0e4fb3,5f0778f0b5dc8616cc45da78,6,,,,,,dart,,,,,,0,30,30,8,1,1,2,,,,,,,,,,,,,,,,,,,,,,,,,,,,,,,,,,,,,,,,,,,,,,,,,,,,,,,,,,,,,,,,,,,,,,,,,,,
,,,,,,,,,,stimuli/images/PICTURE_509.png,BATH,5dcec32a367c6d000a4282c2,06/13/1953,2020-07-09_13h09.58.223,proactive,2020.1.2,Win32,60,5f073de81c76c3308c0e4fb3,5f0778f0b5dc8616cc45da78,6,,,,,,telephone,,,,,,0,31,31,15,1,2,2,,,,,,,,,,,,,,,,,,,,,,,,,,,,,,,,,,,,,,,,,,,,,,,,,,,,,,,,,,,,,,,,,,,,,,,,,,,
,,,,,,,,,,stimuli/images/PICTURE_160.png,HOTEL,5dcec32a367c6d000a4282c2,06/13/1953,2020-07-09_13h09.58.223,proactive,2020.1.2,Win32,60,5f073de81c76c3308c0e4fb3,5f0778f0b5dc8616cc45da78,6,,,,,,wheelbarrow,,,,,,0,32,32,16,1,2,2,,,,,,,,,,,,,,,,,,,,,,,,,,,,,,,,,,,,,,,,,,,,,,,,,,,,,,,,,,,,,,,,,,,,,,,,,,,
,,,,,,,,,,stimuli/images/PICTURE_296.png,CLOCK,5dcec32a367c6d000a4282c2,06/13/1953,2020-07-09_13h09.58.223,proactive,2020.1.2,Win32,60,5f073de81c76c3308c0e4fb3,5f0778f0b5dc8616cc45da78,6,,,,,,bolt,,,,,,0,33,33,18,1,2,2,,,,,,,,,,,,,,,,,,,,,,,,,,,,,,,,,,,,,,,,,,,,,,,,,,,,,,,,,,,,,,,,,,,,,,,,,,,
,,,,,,,,,,stimuli/images/PICTURE_453.png,FAMILY,5dcec32a367c6d000a4282c2,06/13/1953,2020-07-09_13h09.58.223,proactive,2020.1.2,Win32,60,5f073de81c76c3308c0e4fb3,5f0778f0b5dc8616cc45da78,6,,,,,,scissors,,,,,,0,34,34,48,1,5,2,,,,,,,,,,,,,,,,,,,,,,,,,,,,,,,,,,,,,,,,,,,,,,,,,,,,,,,,,,,,,,,,,,,,,,,,,,,
,,,,,,,,,,stimuli/images/PICTURE_655.png,SALE,5dcec32a367c6d000a4282c2,06/13/1953,2020-07-09_13h09.58.223,proactive,2020.1.2,Win32,60,5f073de81c76c3308c0e4fb3,5f0778f0b5dc8616cc45da78,6,,,,,,megaphone,,,,,,0,35,35,57,1,6,2,,,,,,,,,,,,,,,,,,,,,,,,,,,,,,,,,,,,,,,,,,,,,,,,,,,,,,,,,,,,,,,,,,,,,,,,,,,
,,,,,,,,,,stimuli/images/PICTURE_255.png,PENNY,5dcec32a367c6d000a4282c2,06/13/1953,2020-07-09_13h09.58.223,proactive,2020.1.2,Win32,60,5f073de81c76c3308c0e4fb3,5f0778f0b5dc8616cc45da78,6,,,,,,shovel,,,,,,0,36,36,19,1,2,2,,,,,,,,,,,,,,,,,,,,,,,,,,,,,,,,,,,,,,,,,,,,,,,,,,,,,,,,,,,,,,,,,,,,,,,,,,,
,,,,,,,,,,stimuli/images/PICTURE_32.png,LETTER,5dcec32a367c6d000a4282c2,06/13/1953,2020-07-09_13h09.58.223,proactive,2020.1.2,Win32,60,5f073de81c76c3308c0e4fb3,5f0778f0b5dc8616cc45da78,6,,,,,,crown,,,,,,0,37,37,56,1,6,2,,,,,,,,,,,,,,,,,,,,,,,,,,,,,,,,,,,,,,,,,,,,,,,,,,,,,,,,,,,,,,,,,,,,,,,,,,,
,,,,,,,,,,stimuli/images/PICTURE_487.png,POLICY,5dcec32a367c6d000a4282c2,06/13/1953,2020-07-09_13h09.58.223,proactive,2020.1.2,Win32,60,5f073de81c76c3308c0e4fb3,5f0778f0b5dc8616cc45da78,6,,,,,,basket,,,,,,0,38,38,34,1,4,2,,,,,,,,,,,,,,,,,,,,,,,,,,,,,,,,,,,,,,,,,,,,,,,,,,,,,,,,,,,,,,,,,,,,,,,,,,,
,,,,,,,,,,stimuli/images/PICTURE_215.png,LEADER,5dcec32a367c6d000a4282c2,06/13/1953,2020-07-09_13h09.58.223,proactive,2020.1.2,Win32,60,5f073de81c76c3308c0e4fb3,5f0778f0b5dc8616cc45da78,6,,,,,,boot,,,,,,0,39,39,43,1,5,2,,,,,,,,,,,,,,,,,,,,,,,,,,,,,,,,,,,,,,,,,,,,,,,,,,,,,,,,,,,,,,,,,,,,,,,,,,,
,,,,,,,,,,stimuli/images/PICTURE_33.png,COPS,5dcec32a367c6d000a4282c2,06/13/1953,2020-07-09_13h09.58.223,proactive,2020.1.2,Win32,60,5f073de81c76c3308c0e4fb3,5f0778f0b5dc8616cc45da78,6,,,,,,frame,,,,,,0,40,40,29,1,3,2,,,,,,,,,,,,,,,,,,,,,,,,,,,,,,,,,,,,,,,,,,,,,,,,,,,,,,,,,,,,,,,,,,,,,,,,,,,
,,,,,,,,,,stimuli/images/PICTURE_297.png,BODY,5dcec32a367c6d000a4282c2,06/13/1953,2020-07-09_13h09.58.223,proactive,2020.1.2,Win32,60,5f073de81c76c3308c0e4fb3,5f0778f0b5dc8616cc45da78,6,,,,,,aeroplane,,,,,,0,41,41,51,1,6,2,,,,,,,,,,,,,,,,,,,,,,,,,,,,,,,,,,,,,,,,,,,,,,,,,,,,,,,,,,,,,,,,,,,,,,,,,,,
,,,,,,,,,,stimuli/images/PICTURE_405.png,JUNGLE,5dcec32a367c6d000a4282c2,06/13/1953,2020-07-09_13h09.58.223,proactive,2020.1.2,Win32,60,5f073de81c76c3308c0e4fb3,5f0778f0b5dc8616cc45da78,6,,,,,,anchor,,,,,,0,42,42,13,1,2,2,,,,,,,,,,,,,,,,,,,,,,,,,,,,,,,,,,,,,,,,,,,,,,,,,,,,,,,,,,,,,,,,,,,,,,,,,,,
,,,,,,,,,,stimuli/images/PICTURE_314.png,SPEECH,5dcec32a367c6d000a4282c2,06/13/1953,2020-07-09_13h09.58.223,proactive,2020.1.2,Win32,60,5f073de81c76c3308c0e4fb3,5f0778f0b5dc8616cc45da78,6,,,,,,perfume,,,,,,0,43,43,35,1,4,2,,,,,,,,,,,,,,,,,,,,,,,,,,,,,,,,,,,,,,,,,,,,,,,,,,,,,,,,,,,,,,,,,,,,,,,,,,,
,,,,,,,,,,stimuli/images/PICTURE_750.png,POLICY,5dcec32a367c6d000a4282c2,06/13/1953,2020-07-09_13h09.58.223,proactive,2020.1.2,Win32,60,5f073de81c76c3308c0e4fb3,5f0778f0b5dc8616cc45da78,6,,,,,,kettle,,,,,,0,44,44,44,1,5,2,,,,,,,,,,,,,,,,,,,,,,,,,,,,,,,,,,,,,,,,,,,,,,,,,,,,,,,,,,,,,,,,,,,,,,,,,,,
,,,,,,,,,,stimuli/images/PICTURE_311.png,TOILET,5dcec32a367c6d000a4282c2,06/13/1953,2020-07-09_13h09.58.223,proactive,2020.1.2,Win32,60,5f073de81c76c3308c0e4fb3,5f0778f0b5dc8616cc45da78,6,,,,,,razor,,,,,,0,45,45,54,1,6,2,,,,,,,,,,,,,,,,,,,,,,,,,,,,,,,,,,,,,,,,,,,,,,,,,,,,,,,,,,,,,,,,,,,,,,,,,,,
,,,,,,,,,,stimuli/images/PICTURE_57.png,CASINO,5dcec32a367c6d000a4282c2,06/13/1953,2020-07-09_13h09.58.223,proactive,2020.1.2,Win32,60,5f073de81c76c3308c0e4fb3,5f0778f0b5dc8616cc45da78,6,,,,,,stamp,,,,,,0,46,46,12,1,2,2,,,,,,,,,,,,,,,,,,,,,,,,,,,,,,,,,,,,,,,,,,,,,,,,,,,,,,,,,,,,,,,,,,,,,,,,,,,
,,,,,,,,,,stimuli/images/PICTURE_327.png,LEADER,5dcec32a367c6d000a4282c2,06/13/1953,2020-07-09_13h09.58.223,proactive,2020.1.2,Win32,60,5f073de81c76c3308c0e4fb3,5f0778f0b5dc8616cc45da78,6,,,,,,helmet,,,,,,0,47,47,17,1,2,2,,,,,,,,,,,,,,,,,,,,,,,,,,,,,,,,,,,,,,,,,,,,,,,,,,,,,,,,,,,,,,,,,,,,,,,,,,,
,,,,,,,,,,stimuli/images/PICTURE_215.png,FOOD,5dcec32a367c6d000a4282c2,06/13/1953,2020-07-09_13h09.58.223,proactive,2020.1.2,Win32,60,5f073de81c76c3308c0e4fb3,5f0778f0b5dc8616cc45da78,6,,,,,,boot,,,,,,0,48,48,5,1,1,2,,,,,,,,,,,,,,,,,,,,,,,,,,,,,,,,,,,,,,,,,,,,,,,,,,,,,,,,,,,,,,,,,,,,,,,,,,,
,,,,,,,,,,stimuli/images/PICTURE_405.png,HOUSE,5dcec32a367c6d000a4282c2,06/13/1953,2020-07-09_13h09.58.223,proactive,2020.1.2,Win32,60,5f073de81c76c3308c0e4fb3,5f0778f0b5dc8616cc45da78,6,,,,,,anchor,,,,,,0,49,49,2,1,1,2,,,,,,,,,,,,,,,,,,,,,,,,,,,,,,,,,,,,,,,,,,,,,,,,,,,,,,,,,,,,,,,,,,,,,,,,,,,
,,,,,,,,,,stimuli/images/PICTURE_68.png,KIND,5dcec32a367c6d000a4282c2,06/13/1953,2020-07-09_13h09.58.223,proactive,2020.1.2,Win32,60,5f073de81c76c3308c0e4fb3,5f0778f0b5dc8616cc45da78,6,,,,,,candle,,,,,,0,50,50,23,1,3,2,,,,,,,,,,,,,,,,,,,,,,,,,,,,,,,,,,,,,,,,,,,,,,,,,,,,,,,,,,,,,,,,,,,,,,,,,,,
,,,,,,,,,,stimuli/images/PICTURE_654.png,COPS,5dcec32a367c6d000a4282c2,06/13/1953,2020-07-09_13h09.58.223,proactive,2020.1.2,Win32,60,5f073de81c76c3308c0e4fb3,5f0778f0b5dc8616cc45da78,6,,,,,,pencil,,,,,,0,51,51,10,1,2,2,,,,,,,,,,,,,,,,,,,,,,,,,,,,,,,,,,,,,,,,,,,,,,,,,,,,,,,,,,,,,,,,,,,,,,,,,,,
,,,,,,,,,,stimuli/images/PICTURE_95.png,NIGHT,5dcec32a367c6d000a4282c2,06/13/1953,2020-07-09_13h09.58.223,proactive,2020.1.2,Win32,60,5f073de81c76c3308c0e4fb3,5f0778f0b5dc8616cc45da78,6,,,,,,suitcase,,,,,,0,52,52,37,1,4,2,,,,,,,,,,,,,,,,,,,,,,,,,,,,,,,,,,,,,,,,,,,,,,,,,,,,,,,,,,,,,,,,,,,,,,,,,,,
,,,,,,,,,,stimuli/images/PICTURE_2.png,AREA,5dcec32a367c6d000a4282c2,06/13/1953,2020-07-09_13h09.58.223,proactive,2020.1.2,Win32,60,5f073de81c76c3308c0e4fb3,5f0778f0b5dc8616cc45da78,6,,,,,,tyre,,,,,,0,53,53,32,1,4,2,,,,,,,,,,,,,,,,,,,,,,,,,,,,,,,,,,,,,,,,,,,,,,,,,,,,,,,,,,,,,,,,,,,,,,,,,,,
,,,,,,,,,,stimuli/images/PICTURE_348.png,TOILET,5dcec32a367c6d000a4282c2,06/13/1953,2020-07-09_13h09.58.223,proactive,2020.1.2,Win32,60,5f073de81c76c3308c0e4fb3,5f0778f0b5dc8616cc45da78,6,,,,,,pepper,,,,,,0,54,54,4,1,1,2,,,,,,,,,,,,,,,,,,,,,,,,,,,,,,,,,,,,,,,,,,,,,,,,,,,,,,,,,,,,,,,,,,,,,,,,,,,
,,,,,,,,,,stimuli/images/PICTURE_677.png,FAMILY,5dcec32a367c6d000a4282c2,06/13/1953,2020-07-09_13h09.58.223,proactive,2020.1.2,Win32,60,5f073de81c76c3308c0e4fb3,5f0778f0b5dc8616cc45da78,6,,,,,,map,,,,,,0,55,55,53,1,6,2,,,,,,,,,,,,,,,,,,,,,,,,,,,,,,,,,,,,,,,,,,,,,,,,,,,,,,,,,,,,,,,,,,,,,,,,,,,
,,,,,,,,,,stimuli/images/PICTURE_677.png,PHOTO,5dcec32a367c6d000a4282c2,06/13/1953,2020-07-09_13h09.58.223,proactive,2020.1.2,Win32,60,5f073de81c76c3308c0e4fb3,5f0778f0b5dc8616cc45da78,6,,,,,,map,,,,,,0,56,56,14,1,2,2,,,,,,,,,,,,,,,,,,,,,,,,,,,,,,,,,,,,,,,,,,,,,,,,,,,,,,,,,,,,,,,,,,,,,,,,,,,
,,,,,,,,,,stimuli/images/PICTURE_57.png,CANDY,5dcec32a367c6d000a4282c2,06/13/1953,2020-07-09_13h09.58.223,proactive,2020.1.2,Win32,60,5f073de81c76c3308c0e4fb3,5f0778f0b5dc8616cc45da78,6,,,,,,stamp,,,,,,0,57,57,52,1,6,2,,,,,,,,,,,,,,,,,,,,,,,,,,,,,,,,,,,,,,,,,,,,,,,,,,,,,,,,,,,,,,,,,,,,,,,,,,,
,,,,,,,,,,stimuli/images/PICTURE_93.png,GIRL,5dcec32a367c6d000a4282c2,06/13/1953,2020-07-09_13h09.58.223,proactive,2020.1.2,Win32,60,5f073de81c76c3308c0e4fb3,5f0778f0b5dc8616cc45da78,6,,,,,,skateboard,,,,,,0,58,58,31,1,4,2,,,,,,,,,,,,,,,,,,,,,,,,,,,,,,,,,,,,,,,,,,,,,,,,,,,,,,,,,,,,,,,,,,,,,,,,,,,
,,?,0.001,0,,,,,,stimuli/images/PICTURE_147.png,LEADER,5dcec32a367c6d000a4282c2,06/13/1953,2020-07-09_13h09.58.223,proactive,2020.1.2,Win32,60,5f073de81c76c3308c0e4fb3,5f0778f0b5dc8616cc45da78,6,,,,,,hanger,,,,,,,,,,,4,2,0,0,0,33,1,,,,,,,,,,,,,,,,,,,,,,,,,,,,,,,,,,,,,,,,,,,,,,,,,,,,,,,,,,,,,,,,,,,,,,
,,?,0.001,0,,,,,,stimuli/images/PICTURE_654.png,YEAR,5dcec32a367c6d000a4282c2,06/13/1953,2020-07-09_13h09.58.223,proactive,2020.1.2,Win32,60,5f073de81c76c3308c0e4fb3,5f0778f0b5dc8616cc45da78,6,,,,,,pencil,,,,,,,,,,,5,2,0,1,1,41,1,,,,,,,,,,,,,,,,,,,,,,,,,,,,,,,,,,,,,,,,,,,,,,,,,,,,,,,,,,,,,,,,,,,,,,
,,?,0.001,0,,,,,,stimuli/images/PICTURE_356.png,CANDY,5dcec32a367c6d000a4282c2,06/13/1953,2020-07-09_13h09.58.223,proactive,2020.1.2,Win32,60,5f073de81c76c3308c0e4fb3,5f0778f0b5dc8616cc45da78,6,,,,,,pawn,,,,,,,,,,,5,2,0,2,2,46,1,,,,,,,,,,,,,,,,,,,,,,,,,,,,,,,,,,,,,,,,,,,,,,,,,,,,,,,,,,,,,,,,,,,,,,
,,?,0,0,,,,,,stimuli/images/PICTURE_348.png,TOILET,5dcec32a367c6d000a4282c2,06/13/1953,2020-07-09_13h09.58.223,proactive,2020.1.2,Win32,60,5f073de81c76c3308c0e4fb3,5f0778f0b5dc8616cc45da78,6,,,,,,pepper,,,,,,,,,,,1,2,0,3,3,4,1,,,,,,,,,,,,,,,,,,,,,,,,,,,,,,,,,,,,,,,,,,,,,,,,,,,,,,,,,,,,,,,,,,,,,,
,,?,0,0,,,,,,stimuli/images/PICTURE_470.png,BEAUTY,5dcec32a367c6d000a4282c2,06/13/1953,2020-07-09_13h09.58.223,proactive,2020.1.2,Win32,60,5f073de81c76c3308c0e4fb3,5f0778f0b5dc8616cc45da78,6,,,,,,motorbike,,,,,,,,,,,3,2,0,4,4,26,1,,,,,,,,,,,,,,,,,,,,,,,,,,,,,,,,,,,,,,,,,,,,,,,,,,,,,,,,,,,,,,,,,,,,,,
,,?,0.001,0,,,,,,stimuli/images/PICTURE_2.png,JUNGLE,5dcec32a367c6d000a4282c2,06/13/1953,2020-07-09_13h09.58.223,proactive,2020.1.2,Win32,60,5f073de81c76c3308c0e4fb3,5f0778f0b5dc8616cc45da78,6,,,,,,tyre,,,,,,,,,,,1,2,0,5,5,1,1,,,,,,,,,,,,,,,,,,,,,,,,,,,,,,,,,,,,,,,,,,,,,,,,,,,,,,,,,,,,,,,,,,,,,,
,,?,0,0,,,,,,stimuli/images/PICTURE_692.png,DUDE,5dcec32a367c6d000a4282c2,06/13/1953,2020-07-09_13h09.58.223,proactive,2020.1.2,Win32,60,5f073de81c76c3308c0e4fb3,5f0778f0b5dc8616cc45da78,6,,,,,,cherry,,,,,,,,,,,5,2,0,6,6,47,1,,,,,,,,,,,,,,,,,,,,,,,,,,,,,,,,,,,,,,,,,,,,,,,,,,,,,,,,,,,,,,,,,,,,,,
,,DUDE,4.575,0,,,,,,stimuli/images/PICTURE_655.png,SALE,5dcec32a367c6d000a4282c2,06/13/1953,2020-07-09_13h09.58.223,proactive,2020.1.2,Win32,60,5f073de81c76c3308c0e4fb3,5f0778f0b5dc8616cc45da78,6,,,,,,megaphone,,,,,,,,,,,6,2,0,7,7,57,1,,,,,,,,,,,,,,,,,,,,,,,,,,,,,,,,,,,,,,,,,,,,,,,,,,,,,,,,,,,,,,,,,,,,,,
,,?,0.005,0,,,,,,stimuli/images/PICTURE_57.png,NATION,5dcec32a367c6d000a4282c2,06/13/1953,2020-07-09_13h09.58.223,proactive,2020.1.2,Win32,60,5f073de81c76c3308c0e4fb3,5f0778f0b5dc8616cc45da78,6,,,,,,stamp,,,,,,,,,,,3,2,0,8,8,21,1,,,,,,,,,,,,,,,,,,,,,,,,,,,,,,,,,,,,,,,,,,,,,,,,,,,,,,,,,,,,,,,,,,,,,,
,,YARD,3.626,0,,,,,,stimuli/images/PICTURE_32.png,LETTER,5dcec32a367c6d000a4282c2,06/13/1953,2020-07-09_13h09.58.223,proactive,2020.1.2,Win32,60,5f073de81c76c3308c0e4fb3,5f0778f0b5dc8616cc45da78,6,,,,,,crown,,,,,,,,,,,6,2,0,9,9,56,1,,,,,,,,,,,,,,,,,,,,,,,,,,,,,,,,,,,,,,,,,,,,,,,,,,,,,,,,,,,,,,,,,,,,,,
,,?,0.005,0,,,,,,stimuli/images/PICTURE_453.png,FAMILY,5dcec32a367c6d000a4282c2,06/13/1953,2020-07-09_13h09.58.223,proactive,2020.1.2,Win32,60,5f073de81c76c3308c0e4fb3,5f0778f0b5dc8616cc45da78,6,,,,,,scissors,,,,,,,,,,,5,2,0,10,10,48,1,,,,,,,,,,,,,,,,,,,,,,,,,,,,,,,,,,,,,,,,,,,,,,,,,,,,,,,,,,,,,,,,,,,,,,
,,FAMILY,4.84,0,,,,,,stimuli/images/PICTURE_297.png,BODY,5dcec32a367c6d000a4282c2,06/13/1953,2020-07-09_13h09.58.223,proactive,2020.1.2,Win32,60,5f073de81c76c3308c0e4fb3,5f0778f0b5dc8616cc45da78,6,,,,,,aeroplane,,,,,,,,,,,6,2,0,11,11,51,1,,,,,,,,,,,,,,,,,,,,,,,,,,,,,,,,,,,,,,,,,,,,,,,,,,,,,,,,,,,,,,,,,,,,,,
,,?,0.005,0,,,,,,stimuli/images/PICTURE_33.png,COPS,5dcec32a367c6d000a4282c2,06/13/1953,2020-07-09_13h09.58.223,proactive,2020.1.2,Win32,60,5f073de81c76c3308c0e4fb3,5f0778f0b5dc8616cc45da78,6,,,,,,frame,,,,,,,,,,,3,2,0,12,12,29,1,,,,,,,,,,,,,,,,,,,,,,,,,,,,,,,,,,,,,,,,,,,,,,,,,,,,,,,,,,,,,,,,,,,,,,
,,?,0,0,,,,,,stimuli/images/PICTURE_215.png,FOOD,5dcec32a367c6d000a4282c2,06/13/1953,2020-07-09_13h09.58.223,proactive,2020.1.2,Win32,60,5f073de81c76c3308c0e4fb3,5f0778f0b5dc8616cc45da78,6,,,,,,boot,,,,,,,,,,,1,2,0,13,13,5,1,,,,,,,,,,,,,,,,,,,,,,,,,,,,,,,,,,,,,,,,,,,,,,,,,,,,,,,,,,,,,,,,,,,,,,
,,?,0.001,0,,,,,,stimuli/images/PICTURE_677.png,PHOTO,5dcec32a367c6d000a4282c2,06/13/1953,2020-07-09_13h09.58.223,proactive,2020.1.2,Win32,60,5f073de81c76c3308c0e4fb3,5f0778f0b5dc8616cc45da78,6,,,,,,map,,,,,,,,,,,2,2,0,14,14,14,1,,,,,,,,,,,,,,,,,,,,,,,,,,,,,,,,,,,,,,,,,,,,,,,,,,,,,,,,,,,,,,,,,,,,,,
,,ROOF,8.239,0,,,,,,stimuli/images/PICTURE_311.png,TOILET,5dcec32a367c6d000a4282c2,06/13/1953,2020-07-09_13h09.58.223,proactive,2020.1.2,Win32,60,5f073de81c76c3308c0e4fb3,5f0778f0b5dc8616cc45da78,6,,,,,,razor,,,,,,,,,,,6,2,0,15,15,54,1,,,,,,,,,,,,,,,,,,,,,,,,,,,,,,,,,,,,,,,,,,,,,,,,,,,,,,,,,,,,,,,,,,,,,,
,,?,0.006,0,,,,,,stimuli/images/PICTURE_750.png,POLICY,5dcec32a367c6d000a4282c2,06/13/1953,2020-07-09_13h09.58.223,proactive,2020.1.2,Win32,60,5f073de81c76c3308c0e4fb3,5f0778f0b5dc8616cc45da78,6,,,,,,kettle,,,,,,,,,,,5,2,0,16,16,44,1,,,,,,,,,,,,,,,,,,,,,,,,,,,,,,,,,,,,,,,,,,,,,,,,,,,,,,,,,,,,,,,,,,,,,,
,,?,0.001,0,,,,,,stimuli/images/PICTURE_95.png,NIGHT,5dcec32a367c6d000a4282c2,06/13/1953,2020-07-09_13h09.58.223,proactive,2020.1.2,Win32,60,5f073de81c76c3308c0e4fb3,5f0778f0b5dc8616cc45da78,6,,,,,,suitcase,,,,,,,,,,,4,2,0,17,17,37,1,,,,,,,,,,,,,,,,,,,,,,,,,,,,,,,,,,,,,,,,,,,,,,,,,,,,,,,,,,,,,,,,,,,,,,
,,?,0.001,0,,,,,,stimuli/images/PICTURE_285.png,WRITER,5dcec32a367c6d000a4282c2,06/13/1953,2020-07-09_13h09.58.223,proactive,2020.1.2,Win32,60,5f073de81c76c3308c0e4fb3,5f0778f0b5dc8616cc45da78,6,,,,,,carrot,,,,,,,,,,,1,2,0,18,18,6,1,,,,,,,,,,,,,,,,,,,,,,,,,,,,,,,,,,,,,,,,,,,,,,,,,,,,,,,,,,,,,,,,,,,,,,
