consent_key.keys,consent_key.rt,recalled,recalled_rt,recall_acc,example_recall.thisRepN,example_recall.thisTrialN,example_recall.thisN,example_recall.thisIndex,example_recall.ran,file,word,participant,please enter your date of birth (dd/mm/yyyy),date,expName,psychopyVersion,OS,frameRate,STUDY_ID,SESSION_ID,list,prac_learn_study_loop.thisRepN,prac_learn_study_loop.thisTrialN,prac_learn_study_loop.thisN,prac_learn_study_loop.thisIndex,prac_learn_study_loop.ran,image,prac_learn_test_loop.thisRepN,prac_learn_test_loop.thisTrialN,prac_learn_test_loop.thisN,prac_learn_test_loop.thisIndex,prac_learn_test_loop.ran,learn_study_loop.thisRepN,learn_study_loop.thisTrialN,learn_study_loop.thisN,learn_study_loop.thisIndex,learn_study_loop.ran,list_no,block_no,learn_test_loop.thisRepN,learn_test_loop.thisTrialN,learn_test_loop.thisN,learn_test_loop.thisIndex,learn_test_loop.ran,learn_blocks.thisRepN,learn_blocks.thisTrialN,learn_blocks.thisN,learn_blocks.thisIndex,learn_blocks.ran,block_csv,key_resp_13.keys,key_resp_13.rt,learn_blocks_loop.thisRepN,learn_blocks_loop.thisTrialN,learn_blocks_loop.thisN,learn_blocks_loop.thisIndex,learn_blocks_loop.ran,final_learn_test.thisRepN,final_learn_test.thisTrialN,final_learn_test.thisN,final_learn_test.thisIndex,final_learn_test.ran,prac_wm_test_loop.thisRepN,prac_wm_test_loop.thisTrialN,prac_wm_test_loop.thisN,prac_wm_test_loop.thisIndex,prac_wm_test_loop.ran,wm_recalled1,wm_recall_rt1,wm_probed1,wm_recall_acc1,wm_recalled2,wm_recall_rt2,wm_probed2,wm_recall_acc2,wm_recalled3,wm_recall_rt3,wm_probed3,wm_recall_acc3,wm_recalled4,wm_recall_rt4,wm_probed4,wm_recall_acc4,prac_wm_trial_loop.thisRepN,prac_wm_trial_loop.thisTrialN,prac_wm_trial_loop.thisN,prac_wm_trial_loop.thisIndex,prac_wm_trial_loop.ran,word1,image1,file1,item_type1,word2,image2,file2,item_type2,word4,image4,file4,item_type4,word3,image3,file3,item_type3,wm_test_loop.thisRepN,wm_test_loop.thisTrialN,wm_test_loop.thisN,wm_test_loop.thisIndex,wm_test_loop.ran,wm_trial_loop.thisRepN,wm_trial_loop.thisTrialN,wm_trial_loop.thisN,wm_trial_loop.thisIndex,wm_trial_loop.ran
y,70.98539,TUB,11.43033,0,0,0,0,0,1,stimuli/images/PICTURE_747.png,TOUGH,5dd0f134670d1a1a46632755,26/07/1947,2020-07-09_18h04.09.381,proactive,2020.1.2,Linux aarch64,60,5f073de81c76c3308c0e4fb3,5f0794309a486b18178ddc2b,2,,,,,,,,,,,,,,,,,,,,,,,,,,,,,,,,,,,,,,,,,,,,,,,,,,,,,,,,,,,,,,,,,,,,,,,,,,,,,,,,,,,,,,,,,,,,,
,,,,,,,,,,stimuli/images/PICTURE_378.png,LOSS,5dd0f134670d1a1a46632755,26/07/1947,2020-07-09_18h04.09.381,proactive,2020.1.2,Linux aarch64,60,5f073de81c76c3308c0e4fb3,5f0794309a486b18178ddc2b,2,0,0,0,2,1,lobster,,,,,,,,,,,,,,,,,,,,,,,,,,,,,,,,,,,,,,,,,,,,,,,,,,,,,,,,,,,,,,,,,,,,,,,,,,,,,,,,,,,,,,,
,,,,,,,,,,stimuli/images/PICTURE_697.png,KILLER,5dd0f134670d1a1a46632755,26/07/1947,2020-07-09_18h04.09.381,proactive,2020.1.2,Linux aarch64,60,5f073de81c76c3308c0e4fb3,5f0794309a486b18178ddc2b,2,0,1,1,4,1,peach,,,,,,,,,,,,,,,,,,,,,,,,,,,,,,,,,,,,,,,,,,,,,,,,,,,,,,,,,,,,,,,,,,,,,,,,,,,,,,,,,,,,,,,
,,,,,,,,,,stimuli/images/PICTURE_658.png,DEVIL,5dd0f134670d1a1a46632755,26/07/1947,2020-07-09_18h04.09.381,proactive,2020.1.2,Linux aarch64,60,5f073de81c76c3308c0e4fb3,5f0794309a486b18178ddc2b,2,0,2,2,3,1,crow,,,,,,,,,,,,,,,,,,,,,,,,,,,,,,,,,,,,,,,,,,,,,,,,,,,,,,,,,,,,,,,,,,,,,,,,,,,,,,,,,,,,,,,
,,,,,,,,,,stimuli/images/PICTURE_727.png,CELL,5dd0f134670d1a1a46632755,26/07/1947,2020-07-09_18h04.09.381,proactive,2020.1.2,Linux aarch64,60,5f073de81c76c3308c0e4fb3,5f0794309a486b18178ddc2b,2,0,3,3,1,1,hose,,,,,,,,,,,,,,,,,,,,,,,,,,,,,,,,,,,,,,,,,,,,,,,,,,,,,,,,,,,,,,,,,,,,,,,,,,,,,,,,,,,,,,,
,,LOSS,11.23487,0,,,,,,stimuli/images/PICTURE_658.png,DEVIL,5dd0f134670d1a1a46632755,26/07/1947,2020-07-09_18h04.09.381,proactive,2020.1.2,Linux aarch64,60,5f073de81c76c3308c0e4fb3,5f0794309a486b18178ddc2b,2,,,,,,crow,0,0,0,3,1,,,,,,,,,,,,,,,,,,,,,,,,,,,,,,,,,,,,,,,,,,,,,,,,,,,,,,,,,,,,,,,,,,,,,,,,,,,,,,,,,,
,,LOSS,6.115165,0,,,,,,stimuli/images/PICTURE_727.png,CELL,5dd0f134670d1a1a46632755,26/07/1947,2020-07-09_18h04.09.381,proactive,2020.1.2,Linux aarch64,60,5f073de81c76c3308c0e4fb3,5f0794309a486b18178ddc2b,2,,,,,,hose,0,1,1,1,1,,,,,,,,,,,,,,,,,,,,,,,,,,,,,,,,,,,,,,,,,,,,,,,,,,,,,,,,,,,,,,,,,,,,,,,,,,,,,,,,,,
,,?,3.69416,0,,,,,,stimuli/images/PICTURE_697.png,KILLER,5dd0f134670d1a1a46632755,26/07/1947,2020-07-09_18h04.09.381,proactive,2020.1.2,Linux aarch64,60,5f073de81c76c3308c0e4fb3,5f0794309a486b18178ddc2b,2,,,,,,peach,0,2,2,4,1,,,,,,,,,,,,,,,,,,,,,,,,,,,,,,,,,,,,,,,,,,,,,,,,,,,,,,,,,,,,,,,,,,,,,,,,,,,,,,,,,,
,,?,6.66706,0,,,,,,stimuli/images/PICTURE_269.png,GENIUS,5dd0f134670d1a1a46632755,26/07/1947,2020-07-09_18h04.09.381,proactive,2020.1.2,Linux aarch64,60,5f073de81c76c3308c0e4fb3,5f0794309a486b18178ddc2b,2,,,,,,chameleon,0,3,3,0,1,,,,,,,,,,,,,,,,,,,,,,,,,,,,,,,,,,,,,,,,,,,,,,,,,,,,,,,,,,,,,,,,,,,,,,,,,,,,,,,,,,
,,LOSS,4.19176,1,,,,,,stimuli/images/PICTURE_378.png,LOSS,5dd0f134670d1a1a46632755,26/07/1947,2020-07-09_18h04.09.381,proactive,2020.1.2,Linux aarch64,60,5f073de81c76c3308c0e4fb3,5f0794309a486b18178ddc2b,2,,,,,,lobster,0,4,4,2,1,,,,,,,,,,,,,,,,,,,,,,,,,,,,,,,,,,,,,,,,,,,,,,,,,,,,,,,,,,,,,,,,,,,,,,,,,,,,,,,,,,
,,,,,,,,,,stimuli/images/PICTURE_108.png,FLIGHT,5dd0f134670d1a1a46632755,26/07/1947,2020-07-09_18h04.09.381,proactive,2020.1.2,Linux aarch64,60,5f073de81c76c3308c0e4fb3,5f0794309a486b18178ddc2b,2,,,,,,calendar,,,,,,0,0,0,59,1,6,1,,,,,,,,,,,,,,,,,,,,,,,,,,,,,,,,,,,,,,,,,,,,,,,,,,,,,,,,,,,,,,,,,,,,,,,,,,,
,,,,,,,,,,stimuli/images/PICTURE_85.png,TOILET,5dd0f134670d1a1a46632755,26/07/1947,2020-07-09_18h04.09.381,proactive,2020.1.2,Linux aarch64,60,5f073de81c76c3308c0e4fb3,5f0794309a486b18178ddc2b,2,,,,,,diamond,,,,,,0,1,1,48,1,5,1,,,,,,,,,,,,,,,,,,,,,,,,,,,,,,,,,,,,,,,,,,,,,,,,,,,,,,,,,,,,,,,,,,,,,,,,,,,
,,,,,,,,,,stimuli/images/PICTURE_32.png,PILLS,5dd0f134670d1a1a46632755,26/07/1947,2020-07-09_18h04.09.381,proactive,2020.1.2,Linux aarch64,60,5f073de81c76c3308c0e4fb3,5f0794309a486b18178ddc2b,2,,,,,,crown,,,,,,0,2,2,18,1,2,1,,,,,,,,,,,,,,,,,,,,,,,,,,,,,,,,,,,,,,,,,,,,,,,,,,,,,,,,,,,,,,,,,,,,,,,,,,,
,,,,,,,,,,stimuli/images/PICTURE_487.png,GIRL,5dd0f134670d1a1a46632755,26/07/1947,2020-07-09_18h04.09.381,proactive,2020.1.2,Linux aarch64,60,5f073de81c76c3308c0e4fb3,5f0794309a486b18178ddc2b,2,,,,,,basket,,,,,,0,3,3,45,1,5,1,,,,,,,,,,,,,,,,,,,,,,,,,,,,,,,,,,,,,,,,,,,,,,,,,,,,,,,,,,,,,,,,,,,,,,,,,,,
,,,,,,,,,,stimuli/images/PICTURE_327.png,SERIES,5dd0f134670d1a1a46632755,26/07/1947,2020-07-09_18h04.09.381,proactive,2020.1.2,Linux aarch64,60,5f073de81c76c3308c0e4fb3,5f0794309a486b18178ddc2b,2,,,,,,helmet,,,,,,0,4,4,3,1,1,1,,,,,,,,,,,,,,,,,,,,,,,,,,,,,,,,,,,,,,,,,,,,,,,,,,,,,,,,,,,,,,,,,,,,,,,,,,,
,,,,,,,,,,stimuli/images/PICTURE_750.png,HOTEL,5dd0f134670d1a1a46632755,26/07/1947,2020-07-09_18h04.09.381,proactive,2020.1.2,Linux aarch64,60,5f073de81c76c3308c0e4fb3,5f0794309a486b18178ddc2b,2,,,,,,kettle,,,,,,0,5,5,27,1,3,1,,,,,,,,,,,,,,,,,,,,,,,,,,,,,,,,,,,,,,,,,,,,,,,,,,,,,,,,,,,,,,,,,,,,,,,,,,,
,,,,,,,,,,stimuli/images/PICTURE_327.png,CASINO,5dd0f134670d1a1a46632755,26/07/1947,2020-07-09_18h04.09.381,proactive,2020.1.2,Linux aarch64,60,5f073de81c76c3308c0e4fb3,5f0794309a486b18178ddc2b,2,,,,,,helmet,,,,,,0,6,6,20,1,3,1,,,,,,,,,,,,,,,,,,,,,,,,,,,,,,,,,,,,,,,,,,,,,,,,,,,,,,,,,,,,,,,,,,,,,,,,,,,
,,,,,,,,,,stimuli/images/PICTURE_708.png,RECORD,5dd0f134670d1a1a46632755,26/07/1947,2020-07-09_18h04.09.381,proactive,2020.1.2,Linux aarch64,60,5f073de81c76c3308c0e4fb3,5f0794309a486b18178ddc2b,2,,,,,,monkey,,,,,,0,7,7,58,1,6,1,,,,,,,,,,,,,,,,,,,,,,,,,,,,,,,,,,,,,,,,,,,,,,,,,,,,,,,,,,,,,,,,,,,,,,,,,,,
,,,,,,,,,,stimuli/images/PICTURE_203.png,NIGHT,5dd0f134670d1a1a46632755,26/07/1947,2020-07-09_18h04.09.381,proactive,2020.1.2,Linux aarch64,60,5f073de81c76c3308c0e4fb3,5f0794309a486b18178ddc2b,2,,,,,,cap,,,,,,0,8,8,2,1,1,1,,,,,,,,,,,,,,,,,,,,,,,,,,,,,,,,,,,,,,,,,,,,,,,,,,,,,,,,,,,,,,,,,,,,,,,,,,,
,,,,,,,,,,stimuli/images/PICTURE_203.png,GODS,5dd0f134670d1a1a46632755,26/07/1947,2020-07-09_18h04.09.381,proactive,2020.1.2,Linux aarch64,60,5f073de81c76c3308c0e4fb3,5f0794309a486b18178ddc2b,2,,,,,,cap,,,,,,0,9,9,30,1,4,1,,,,,,,,,,,,,,,,,,,,,,,,,,,,,,,,,,,,,,,,,,,,,,,,,,,,,,,,,,,,,,,,,,,,,,,,,,,
,,,,,,,,,,stimuli/images/PICTURE_147.png,YEAR,5dd0f134670d1a1a46632755,26/07/1947,2020-07-09_18h04.09.381,proactive,2020.1.2,Linux aarch64,60,5f073de81c76c3308c0e4fb3,5f0794309a486b18178ddc2b,2,,,,,,hanger,,,,,,0,10,10,21,1,3,1,,,,,,,,,,,,,,,,,,,,,,,,,,,,,,,,,,,,,,,,,,,,,,,,,,,,,,,,,,,,,,,,,,,,,,,,,,,
,,,,,,,,,,stimuli/images/PICTURE_655.png,TOILET,5dd0f134670d1a1a46632755,26/07/1947,2020-07-09_18h04.09.381,proactive,2020.1.2,Linux aarch64,60,5f073de81c76c3308c0e4fb3,5f0794309a486b18178ddc2b,2,,,,,,megaphone,,,,,,0,11,11,12,1,2,1,,,,,,,,,,,,,,,,,,,,,,,,,,,,,,,,,,,,,,,,,,,,,,,,,,,,,,,,,,,,,,,,,,,,,,,,,,,
,,,,,,,,,,stimuli/images/PICTURE_491.png,RIVER,5dd0f134670d1a1a46632755,26/07/1947,2020-07-09_18h04.09.381,proactive,2020.1.2,Linux aarch64,60,5f073de81c76c3308c0e4fb3,5f0794309a486b18178ddc2b,2,,,,,,rug,,,,,,0,12,12,6,1,1,1,,,,,,,,,,,,,,,,,,,,,,,,,,,,,,,,,,,,,,,,,,,,,,,,,,,,,,,,,,,,,,,,,,,,,,,,,,,
,,,,,,,,,,stimuli/images/PICTURE_33.png,FRIEND,5dd0f134670d1a1a46632755,26/07/1947,2020-07-09_18h04.09.381,proactive,2020.1.2,Linux aarch64,60,5f073de81c76c3308c0e4fb3,5f0794309a486b18178ddc2b,2,,,,,,frame,,,,,,0,13,13,8,1,1,1,,,,,,,,,,,,,,,,,,,,,,,,,,,,,,,,,,,,,,,,,,,,,,,,,,,,,,,,,,,,,,,,,,,,,,,,,,,
,,,,,,,,,,stimuli/images/PICTURE_340.png,VALLEY,5dd0f134670d1a1a46632755,26/07/1947,2020-07-09_18h04.09.381,proactive,2020.1.2,Linux aarch64,60,5f073de81c76c3308c0e4fb3,5f0794309a486b18178ddc2b,2,,,,,,mirror,,,,,,0,14,14,54,1,6,1,,,,,,,,,,,,,,,,,,,,,,,,,,,,,,,,,,,,,,,,,,,,,,,,,,,,,,,,,,,,,,,,,,,,,,,,,,,
,,,,,,,,,,stimuli/images/PICTURE_297.png,RIVER,5dd0f134670d1a1a46632755,26/07/1947,2020-07-09_18h04.09.381,proactive,2020.1.2,Linux aarch64,60,5f073de81c76c3308c0e4fb3,5f0794309a486b18178ddc2b,2,,,,,,aeroplane,,,,,,0,15,15,39,1,4,1,,,,,,,,,,,,,,,,,,,,,,,,,,,,,,,,,,,,,,,,,,,,,,,,,,,,,,,,,,,,,,,,,,,,,,,,,,,
,,,,,,,,,,stimuli/images/PICTURE_108.png,POLICY,5dd0f134670d1a1a46632755,26/07/1947,2020-07-09_18h04.09.381,proactive,2020.1.2,Linux aarch64,60,5f073de81c76c3308c0e4fb3,5f0794309a486b18178ddc2b,2,,,,,,calendar,,,,,,0,16,16,22,1,3,1,,,,,,,,,,,,,,,,,,,,,,,,,,,,,,,,,,,,,,,,,,,,,,,,,,,,,,,,,,,,,,,,,,,,,,,,,,,
,,,,,,,,,,stimuli/images/PICTURE_677.png,APPLE,5dd0f134670d1a1a46632755,26/07/1947,2020-07-09_18h04.09.381,proactive,2020.1.2,Linux aarch64,60,5f073de81c76c3308c0e4fb3,5f0794309a486b18178ddc2b,2,,,,,,map,,,,,,0,17,17,43,1,5,1,,,,,,,,,,,,,,,,,,,,,,,,,,,,,,,,,,,,,,,,,,,,,,,,,,,,,,,,,,,,,,,,,,,,,,,,,,,
,,,,,,,,,,stimuli/images/PICTURE_285.png,LIFE,5dd0f134670d1a1a46632755,26/07/1947,2020-07-09_18h04.09.381,proactive,2020.1.2,Linux aarch64,60,5f073de81c76c3308c0e4fb3,5f0794309a486b18178ddc2b,2,,,,,,carrot,,,,,,0,18,18,33,1,4,1,,,,,,,,,,,,,,,,,,,,,,,,,,,,,,,,,,,,,,,,,,,,,,,,,,,,,,,,,,,,,,,,,,,,,,,,,,,
,,,,,,,,,,stimuli/images/PICTURE_95.png,HONEY,5dd0f134670d1a1a46632755,26/07/1947,2020-07-09_18h04.09.381,proactive,2020.1.2,Linux aarch64,60,5f073de81c76c3308c0e4fb3,5f0794309a486b18178ddc2b,2,,,,,,suitcase,,,,,,0,19,19,44,1,5,1,,,,,,,,,,,,,,,,,,,,,,,,,,,,,,,,,,,,,,,,,,,,,,,,,,,,,,,,,,,,,,,,,,,,,,,,,,,
,,,,,,,,,,stimuli/images/PICTURE_405.png,PLENTY,5dd0f134670d1a1a46632755,26/07/1947,2020-07-09_18h04.09.381,proactive,2020.1.2,Linux aarch64,60,5f073de81c76c3308c0e4fb3,5f0794309a486b18178ddc2b,2,,,,,,anchor,,,,,,0,20,20,23,1,3,1,,,,,,,,,,,,,,,,,,,,,,,,,,,,,,,,,,,,,,,,,,,,,,,,,,,,,,,,,,,,,,,,,,,,,,,,,,,
,,,,,,,,,,stimuli/images/PICTURE_403.png,RIVER,5dd0f134670d1a1a46632755,26/07/1947,2020-07-09_18h04.09.381,proactive,2020.1.2,Linux aarch64,60,5f073de81c76c3308c0e4fb3,5f0794309a486b18178ddc2b,2,,,,,,cathedral,,,,,,0,21,21,40,1,5,1,,,,,,,,,,,,,,,,,,,,,,,,,,,,,,,,,,,,,,,,,,,,,,,,,,,,,,,,,,,,,,,,,,,,,,,,,,,
,,,,,,,,,,stimuli/images/PICTURE_380.png,HONEY,5dd0f134670d1a1a46632755,26/07/1947,2020-07-09_18h04.09.381,proactive,2020.1.2,Linux aarch64,60,5f073de81c76c3308c0e4fb3,5f0794309a486b18178ddc2b,2,,,,,,gorilla,,,,,,0,22,22,19,1,2,1,,,,,,,,,,,,,,,,,,,,,,,,,,,,,,,,,,,,,,,,,,,,,,,,,,,,,,,,,,,,,,,,,,,,,,,,,,,
,,,,,,,,,,stimuli/images/PICTURE_383.png,WRITER,5dd0f134670d1a1a46632755,26/07/1947,2020-07-09_18h04.09.381,proactive,2020.1.2,Linux aarch64,60,5f073de81c76c3308c0e4fb3,5f0794309a486b18178ddc2b,2,,,,,,coin,,,,,,0,23,23,28,1,3,1,,,,,,,,,,,,,,,,,,,,,,,,,,,,,,,,,,,,,,,,,,,,,,,,,,,,,,,,,,,,,,,,,,,,,,,,,,,
,,,,,,,,,,stimuli/images/PICTURE_504.png,YEAR,5dd0f134670d1a1a46632755,26/07/1947,2020-07-09_18h04.09.381,proactive,2020.1.2,Linux aarch64,60,5f073de81c76c3308c0e4fb3,5f0794309a486b18178ddc2b,2,,,,,,wheel,,,,,,0,24,24,13,1,2,1,,,,,,,,,,,,,,,,,,,,,,,,,,,,,,,,,,,,,,,,,,,,,,,,,,,,,,,,,,,,,,,,,,,,,,,,,,,
,,,,,,,,,,stimuli/images/PICTURE_339.png,CLIENT,5dd0f134670d1a1a46632755,26/07/1947,2020-07-09_18h04.09.381,proactive,2020.1.2,Linux aarch64,60,5f073de81c76c3308c0e4fb3,5f0794309a486b18178ddc2b,2,,,,,,backpack,,,,,,0,25,25,11,1,2,1,,,,,,,,,,,,,,,,,,,,,,,,,,,,,,,,,,,,,,,,,,,,,,,,,,,,,,,,,,,,,,,,,,,,,,,,,,,
,,,,,,,,,,stimuli/images/PICTURE_147.png,WOMEN,5dd0f134670d1a1a46632755,26/07/1947,2020-07-09_18h04.09.381,proactive,2020.1.2,Linux aarch64,60,5f073de81c76c3308c0e4fb3,5f0794309a486b18178ddc2b,2,,,,,,hanger,,,,,,0,26,26,7,1,1,1,,,,,,,,,,,,,,,,,,,,,,,,,,,,,,,,,,,,,,,,,,,,,,,,,,,,,,,,,,,,,,,,,,,,,,,,,,,
,,,,,,,,,,stimuli/images/PICTURE_2.png,FLIGHT,5dd0f134670d1a1a46632755,26/07/1947,2020-07-09_18h04.09.381,proactive,2020.1.2,Linux aarch64,60,5f073de81c76c3308c0e4fb3,5f0794309a486b18178ddc2b,2,,,,,,tyre,,,,,,0,27,27,15,1,2,1,,,,,,,,,,,,,,,,,,,,,,,,,,,,,,,,,,,,,,,,,,,,,,,,,,,,,,,,,,,,,,,,,,,,,,,,,,,
,,,,,,,,,,stimuli/images/PICTURE_744.png,WEAPON,5dd0f134670d1a1a46632755,26/07/1947,2020-07-09_18h04.09.381,proactive,2020.1.2,Linux aarch64,60,5f073de81c76c3308c0e4fb3,5f0794309a486b18178ddc2b,2,,,,,,ring,,,,,,0,28,28,50,1,6,1,,,,,,,,,,,,,,,,,,,,,,,,,,,,,,,,,,,,,,,,,,,,,,,,,,,,,,,,,,,,,,,,,,,,,,,,,,,
,,,,,,,,,,stimuli/images/PICTURE_405.png,YEAR,5dd0f134670d1a1a46632755,26/07/1947,2020-07-09_18h04.09.381,proactive,2020.1.2,Linux aarch64,60,5f073de81c76c3308c0e4fb3,5f0794309a486b18178ddc2b,2,,,,,,anchor,,,,,,0,29,29,34,1,4,1,,,,,,,,,,,,,,,,,,,,,,,,,,,,,,,,,,,,,,,,,,,,,,,,,,,,,,,,,,,,,,,,,,,,,,,,,,,
,,,,,,,,,,stimuli/images/PICTURE_675.png,SALE,5dd0f134670d1a1a46632755,26/07/1947,2020-07-09_18h04.09.381,proactive,2020.1.2,Linux aarch64,60,5f073de81c76c3308c0e4fb3,5f0794309a486b18178ddc2b,2,,,,,,windmill,,,,,,0,30,30,47,1,5,1,,,,,,,,,,,,,,,,,,,,,,,,,,,,,,,,,,,,,,,,,,,,,,,,,,,,,,,,,,,,,,,,,,,,,,,,,,,
,,,,,,,,,,stimuli/images/PICTURE_403.png,WRITER,5dd0f134670d1a1a46632755,26/07/1947,2020-07-09_18h04.09.381,proactive,2020.1.2,Linux aarch64,60,5f073de81c76c3308c0e4fb3,5f0794309a486b18178ddc2b,2,,,,,,cathedral,,,,,,0,31,31,31,1,4,1,,,,,,,,,,,,,,,,,,,,,,,,,,,,,,,,,,,,,,,,,,,,,,,,,,,,,,,,,,,,,,,,,,,,,,,,,,,
,,,,,,,,,,stimuli/images/PICTURE_685.png,PENNY,5dd0f134670d1a1a46632755,26/07/1947,2020-07-09_18h04.09.381,proactive,2020.1.2,Linux aarch64,60,5f073de81c76c3308c0e4fb3,5f0794309a486b18178ddc2b,2,,,,,,goose,,,,,,0,32,32,4,1,1,1,,,,,,,,,,,,,,,,,,,,,,,,,,,,,,,,,,,,,,,,,,,,,,,,,,,,,,,,,,,,,,,,,,,,,,,,,,,
,,,,,,,,,,stimuli/images/PICTURE_469.png,AGENT,5dd0f134670d1a1a46632755,26/07/1947,2020-07-09_18h04.09.381,proactive,2020.1.2,Linux aarch64,60,5f073de81c76c3308c0e4fb3,5f0794309a486b18178ddc2b,2,,,,,,stool,,,,,,0,33,33,16,1,2,1,,,,,,,,,,,,,,,,,,,,,,,,,,,,,,,,,,,,,,,,,,,,,,,,,,,,,,,,,,,,,,,,,,,,,,,,,,,
,,,,,,,,,,stimuli/images/PICTURE_32.png,KIND,5dd0f134670d1a1a46632755,26/07/1947,2020-07-09_18h04.09.381,proactive,2020.1.2,Linux aarch64,60,5f073de81c76c3308c0e4fb3,5f0794309a486b18178ddc2b,2,,,,,,crown,,,,,,0,34,34,35,1,4,1,,,,,,,,,,,,,,,,,,,,,,,,,,,,,,,,,,,,,,,,,,,,,,,,,,,,,,,,,,,,,,,,,,,,,,,,,,,
,,,,,,,,,,stimuli/images/PICTURE_504.png,ARTIST,5dd0f134670d1a1a46632755,26/07/1947,2020-07-09_18h04.09.381,proactive,2020.1.2,Linux aarch64,60,5f073de81c76c3308c0e4fb3,5f0794309a486b18178ddc2b,2,,,,,,wheel,,,,,,0,35,35,49,1,5,1,,,,,,,,,,,,,,,,,,,,,,,,,,,,,,,,,,,,,,,,,,,,,,,,,,,,,,,,,,,,,,,,,,,,,,,,,,,
,,,,,,,,,,stimuli/images/PICTURE_296.png,LOTS,5dd0f134670d1a1a46632755,26/07/1947,2020-07-09_18h04.09.381,proactive,2020.1.2,Linux aarch64,60,5f073de81c76c3308c0e4fb3,5f0794309a486b18178ddc2b,2,,,,,,bolt,,,,,,0,36,36,9,1,1,1,,,,,,,,,,,,,,,,,,,,,,,,,,,,,,,,,,,,,,,,,,,,,,,,,,,,,,,,,,,,,,,,,,,,,,,,,,,
,,,,,,,,,,stimuli/images/PICTURE_340.png,LETTER,5dd0f134670d1a1a46632755,26/07/1947,2020-07-09_18h04.09.381,proactive,2020.1.2,Linux aarch64,60,5f073de81c76c3308c0e4fb3,5f0794309a486b18178ddc2b,2,,,,,,mirror,,,,,,0,37,37,24,1,3,1,,,,,,,,,,,,,,,,,,,,,,,,,,,,,,,,,,,,,,,,,,,,,,,,,,,,,,,,,,,,,,,,,,,,,,,,,,,
,,,,,,,,,,stimuli/images/PICTURE_296.png,LIFE,5dd0f134670d1a1a46632755,26/07/1947,2020-07-09_18h04.09.381,proactive,2020.1.2,Linux aarch64,60,5f073de81c76c3308c0e4fb3,5f0794309a486b18178ddc2b,2,,,,,,bolt,,,,,,0,38,38,57,1,6,1,,,,,,,,,,,,,,,,,,,,,,,,,,,,,,,,,,,,,,,,,,,,,,,,,,,,,,,,,,,,,,,,,,,,,,,,,,,
,,,,,,,,,,stimuli/images/PICTURE_68.png,ROOF,5dd0f134670d1a1a46632755,26/07/1947,2020-07-09_18h04.09.381,proactive,2020.1.2,Linux aarch64,60,5f073de81c76c3308c0e4fb3,5f0794309a486b18178ddc2b,2,,,,,,candle,,,,,,0,39,39,38,1,4,1,,,,,,,,,,,,,,,,,,,,,,,,,,,,,,,,,,,,,,,,,,,,,,,,,,,,,,,,,,,,,,,,,,,,,,,,,,,
,,,,,,,,,,stimuli/images/PICTURE_42.png,BOYS,5dd0f134670d1a1a46632755,26/07/1947,2020-07-09_18h04.09.381,proactive,2020.1.2,Linux aarch64,60,5f073de81c76c3308c0e4fb3,5f0794309a486b18178ddc2b,2,,,,,,pear,,,,,,0,40,40,55,1,6,1,,,,,,,,,,,,,,,,,,,,,,,,,,,,,,,,,,,,,,,,,,,,,,,,,,,,,,,,,,,,,,,,,,,,,,,,,,,
,,,,,,,,,,stimuli/images/PICTURE_564.png,BATH,5dd0f134670d1a1a46632755,26/07/1947,2020-07-09_18h04.09.381,proactive,2020.1.2,Linux aarch64,60,5f073de81c76c3308c0e4fb3,5f0794309a486b18178ddc2b,2,,,,,,spoon,,,,,,0,41,41,26,1,3,1,,,,,,,,,,,,,,,,,,,,,,,,,,,,,,,,,,,,,,,,,,,,,,,,,,,,,,,,,,,,,,,,,,,,,,,,,,,
,,,,,,,,,,stimuli/images/PICTURE_467.png,POLICY,5dd0f134670d1a1a46632755,26/07/1947,2020-07-09_18h04.09.381,proactive,2020.1.2,Linux aarch64,60,5f073de81c76c3308c0e4fb3,5f0794309a486b18178ddc2b,2,,,,,,peg,,,,,,0,42,42,53,1,6,1,,,,,,,,,,,,,,,,,,,,,,,,,,,,,,,,,,,,,,,,,,,,,,,,,,,,,,,,,,,,,,,,,,,,,,,,,,,
,,,,,,,,,,stimuli/images/PICTURE_380.png,CANDY,5dd0f134670d1a1a46632755,26/07/1947,2020-07-09_18h04.09.381,proactive,2020.1.2,Linux aarch64,60,5f073de81c76c3308c0e4fb3,5f0794309a486b18178ddc2b,2,,,,,,gorilla,,,,,,0,43,43,0,1,1,1,,,,,,,,,,,,,,,,,,,,,,,,,,,,,,,,,,,,,,,,,,,,,,,,,,,,,,,,,,,,,,,,,,,,,,,,,,,
,,,,,,,,,,stimuli/images/PICTURE_654.png,MONTH,5dd0f134670d1a1a46632755,26/07/1947,2020-07-09_18h04.09.381,proactive,2020.1.2,Linux aarch64,60,5f073de81c76c3308c0e4fb3,5f0794309a486b18178ddc2b,2,,,,,,pencil,,,,,,0,44,44,29,1,3,1,,,,,,,,,,,,,,,,,,,,,,,,,,,,,,,,,,,,,,,,,,,,,,,,,,,,,,,,,,,,,,,,,,,,,,,,,,,
,,,,,,,,,,stimuli/images/PICTURE_233.png,LOTS,5dd0f134670d1a1a46632755,26/07/1947,2020-07-09_18h04.09.381,proactive,2020.1.2,Linux aarch64,60,5f073de81c76c3308c0e4fb3,5f0794309a486b18178ddc2b,2,,,,,,salt,,,,,,0,45,45,42,1,5,1,,,,,,,,,,,,,,,,,,,,,,,,,,,,,,,,,,,,,,,,,,,,,,,,,,,,,,,,,,,,,,,,,,,,,,,,,,,
,,,,,,,,,,stimuli/images/PICTURE_177.png,WRITER,5dd0f134670d1a1a46632755,26/07/1947,2020-07-09_18h04.09.381,proactive,2020.1.2,Linux aarch64,60,5f073de81c76c3308c0e4fb3,5f0794309a486b18178ddc2b,2,,,,,,mushroom,,,,,,0,46,46,41,1,5,1,,,,,,,,,,,,,,,,,,,,,,,,,,,,,,,,,,,,,,,,,,,,,,,,,,,,,,,,,,,,,,,,,,,,,,,,,,,
,,,,,,,,,,stimuli/images/PICTURE_308.png,FAMILY,5dd0f134670d1a1a46632755,26/07/1947,2020-07-09_18h04.09.381,proactive,2020.1.2,Linux aarch64,60,5f073de81c76c3308c0e4fb3,5f0794309a486b18178ddc2b,2,,,,,,dice,,,,,,0,47,47,36,1,4,1,,,,,,,,,,,,,,,,,,,,,,,,,,,,,,,,,,,,,,,,,,,,,,,,,,,,,,,,,,,,,,,,,,,,,,,,,,,
,,,,,,,,,,stimuli/images/PICTURE_57.png,MOMENT,5dd0f134670d1a1a46632755,26/07/1947,2020-07-09_18h04.09.381,proactive,2020.1.2,Linux aarch64,60,5f073de81c76c3308c0e4fb3,5f0794309a486b18178ddc2b,2,,,,,,stamp,,,,,,0,48,48,37,1,4,1,,,,,,,,,,,,,,,,,,,,,,,,,,,,,,,,,,,,,,,,,,,,,,,,,,,,,,,,,,,,,,,,,,,,,,,,,,,
,,,,,,,,,,stimuli/images/PICTURE_504.png,COPS,5dd0f134670d1a1a46632755,26/07/1947,2020-07-09_18h04.09.381,proactive,2020.1.2,Linux aarch64,60,5f073de81c76c3308c0e4fb3,5f0794309a486b18178ddc2b,2,,,,,,wheel,,,,,,0,49,49,52,1,6,1,,,,,,,,,,,,,,,,,,,,,,,,,,,,,,,,,,,,,,,,,,,,,,,,,,,,,,,,,,,,,,,,,,,,,,,,,,,
,,,,,,,,,,stimuli/images/PICTURE_85.png,NATION,5dd0f134670d1a1a46632755,26/07/1947,2020-07-09_18h04.09.381,proactive,2020.1.2,Linux aarch64,60,5f073de81c76c3308c0e4fb3,5f0794309a486b18178ddc2b,2,,,,,,diamond,,,,,,0,50,50,5,1,1,1,,,,,,,,,,,,,,,,,,,,,,,,,,,,,,,,,,,,,,,,,,,,,,,,,,,,,,,,,,,,,,,,,,,,,,,,,,,
,,,,,,,,,,stimuli/images/PICTURE_383.png,SERIES,5dd0f134670d1a1a46632755,26/07/1947,2020-07-09_18h04.09.381,proactive,2020.1.2,Linux aarch64,60,5f073de81c76c3308c0e4fb3,5f0794309a486b18178ddc2b,2,,,,,,coin,,,,,,0,51,51,46,1,5,1,,,,,,,,,,,,,,,,,,,,,,,,,,,,,,,,,,,,,,,,,,,,,,,,,,,,,,,,,,,,,,,,,,,,,,,,,,,
,,,,,,,,,,stimuli/images/PICTURE_68.png,MILE,5dd0f134670d1a1a46632755,26/07/1947,2020-07-09_18h04.09.381,proactive,2020.1.2,Linux aarch64,60,5f073de81c76c3308c0e4fb3,5f0794309a486b18178ddc2b,2,,,,,,candle,,,,,,0,52,52,51,1,6,1,,,,,,,,,,,,,,,,,,,,,,,,,,,,,,,,,,,,,,,,,,,,,,,,,,,,,,,,,,,,,,,,,,,,,,,,,,,
,,,,,,,,,,stimuli/images/PICTURE_95.png,BOYS,5dd0f134670d1a1a46632755,26/07/1947,2020-07-09_18h04.09.381,proactive,2020.1.2,Linux aarch64,60,5f073de81c76c3308c0e4fb3,5f0794309a486b18178ddc2b,2,,,,,,suitcase,,,,,,0,53,53,1,1,1,1,,,,,,,,,,,,,,,,,,,,,,,,,,,,,,,,,,,,,,,,,,,,,,,,,,,,,,,,,,,,,,,,,,,,,,,,,,,
,,,,,,,,,,stimuli/images/PICTURE_667.png,RIVER,5dd0f134670d1a1a46632755,26/07/1947,2020-07-09_18h04.09.381,proactive,2020.1.2,Linux aarch64,60,5f073de81c76c3308c0e4fb3,5f0794309a486b18178ddc2b,2,,,,,,daisy,,,,,,0,54,54,10,1,2,1,,,,,,,,,,,,,,,,,,,,,,,,,,,,,,,,,,,,,,,,,,,,,,,,,,,,,,,,,,,,,,,,,,,,,,,,,,,
,,,,,,,,,,stimuli/images/PICTURE_449.png,DUDE,5dd0f134670d1a1a46632755,26/07/1947,2020-07-09_18h04.09.381,proactive,2020.1.2,Linux aarch64,60,5f073de81c76c3308c0e4fb3,5f0794309a486b18178ddc2b,2,,,,,,bench,,,,,,0,55,55,17,1,2,1,,,,,,,,,,,,,,,,,,,,,,,,,,,,,,,,,,,,,,,,,,,,,,,,,,,,,,,,,,,,,,,,,,,,,,,,,,,
,,,,,,,,,,stimuli/images/PICTURE_208.png,SYSTEM,5dd0f134670d1a1a46632755,26/07/1947,2020-07-09_18h04.09.381,proactive,2020.1.2,Linux aarch64,60,5f073de81c76c3308c0e4fb3,5f0794309a486b18178ddc2b,2,,,,,,microphone,,,,,,0,56,56,32,1,4,1,,,,,,,,,,,,,,,,,,,,,,,,,,,,,,,,,,,,,,,,,,,,,,,,,,,,,,,,,,,,,,,,,,,,,,,,,,,
,,,,,,,,,,stimuli/images/PICTURE_95.png,MILLER,5dd0f134670d1a1a46632755,26/07/1947,2020-07-09_18h04.09.381,proactive,2020.1.2,Linux aarch64,60,5f073de81c76c3308c0e4fb3,5f0794309a486b18178ddc2b,2,,,,,,suitcase,,,,,,0,57,57,56,1,6,1,,,,,,,,,,,,,,,,,,,,,,,,,,,,,,,,,,,,,,,,,,,,,,,,,,,,,,,,,,,,,,,,,,,,,,,,,,,
,,,,,,,,,,stimuli/images/PICTURE_491.png,GLASS,5dd0f134670d1a1a46632755,26/07/1947,2020-07-09_18h04.09.381,proactive,2020.1.2,Linux aarch64,60,5f073de81c76c3308c0e4fb3,5f0794309a486b18178ddc2b,2,,,,,,rug,,,,,,0,58,58,14,1,2,1,,,,,,,,,,,,,,,,,,,,,,,,,,,,,,,,,,,,,,,,,,,,,,,,,,,,,,,,,,,,,,,,,,,,,,,,,,,
,,?,0.001745,0,,,,,,stimuli/images/PICTURE_405.png,YEAR,5dd0f134670d1a1a46632755,26/07/1947,2020-07-09_18h04.09.381,proactive,2020.1.2,Linux aarch64,60,5f073de81c76c3308c0e4fb3,5f0794309a486b18178ddc2b,2,,,,,,anchor,,,,,,,,,,,4,1,0,0,0,34,1,,,,,,,,,,,,,,,,,,,,,,,,,,,,,,,,,,,,,,,,,,,,,,,,,,,,,,,,,,,,,,,,,,,,,,
,,?,0.001765,0,,,,,,stimuli/images/PICTURE_380.png,CANDY,5dd0f134670d1a1a46632755,26/07/1947,2020-07-09_18h04.09.381,proactive,2020.1.2,Linux aarch64,60,5f073de81c76c3308c0e4fb3,5f0794309a486b18178ddc2b,2,,,,,,gorilla,,,,,,,,,,,1,1,0,1,1,0,1,,,,,,,,,,,,,,,,,,,,,,,,,,,,,,,,,,,,,,,,,,,,,,,,,,,,,,,,,,,,,,,,,,,,,,
,,?,0.001505,0,,,,,,stimuli/images/PICTURE_677.png,APPLE,5dd0f134670d1a1a46632755,26/07/1947,2020-07-09_18h04.09.381,proactive,2020.1.2,Linux aarch64,60,5f073de81c76c3308c0e4fb3,5f0794309a486b18178ddc2b,2,,,,,,map,,,,,,,,,,,5,1,0,2,2,43,1,,,,,,,,,,,,,,,,,,,,,,,,,,,,,,,,,,,,,,,,,,,,,,,,,,,,,,,,,,,,,,,,,,,,,,
,,?,0.00195,0,,,,,,stimuli/images/PICTURE_340.png,LETTER,5dd0f134670d1a1a46632755,26/07/1947,2020-07-09_18h04.09.381,proactive,2020.1.2,Linux aarch64,60,5f073de81c76c3308c0e4fb3,5f0794309a486b18178ddc2b,2,,,,,,mirror,,,,,,,,,,,3,1,0,3,3,24,1,,,,,,,,,,,,,,,,,,,,,,,,,,,,,,,,,,,,,,,,,,,,,,,,,,,,,,,,,,,,,,,,,,,,,,
,,?,0.001495,0,,,,,,stimuli/images/PICTURE_675.png,SALE,5dd0f134670d1a1a46632755,26/07/1947,2020-07-09_18h04.09.381,proactive,2020.1.2,Linux aarch64,60,5f073de81c76c3308c0e4fb3,5f0794309a486b18178ddc2b,2,,,,,,windmill,,,,,,,,,,,5,1,0,4,4,47,1,,,,,,,,,,,,,,,,,,,,,,,,,,,,,,,,,,,,,,,,,,,,,,,,,,,,,,,,,,,,,,,,,,,,,,
,,?,0.0016,0,,,,,,stimuli/images/PICTURE_297.png,RIVER,5dd0f134670d1a1a46632755,26/07/1947,2020-07-09_18h04.09.381,proactive,2020.1.2,Linux aarch64,60,5f073de81c76c3308c0e4fb3,5f0794309a486b18178ddc2b,2,,,,,,aeroplane,,,,,,,,,,,4,1,0,5,5,39,1,,,,,,,,,,,,,,,,,,,,,,,,,,,,,,,,,,,,,,,,,,,,,,,,,,,,,,,,,,,,,,,,,,,,,,
,,?,0.00161,0,,,,,,stimuli/images/PICTURE_685.png,PENNY,5dd0f134670d1a1a46632755,26/07/1947,2020-07-09_18h04.09.381,proactive,2020.1.2,Linux aarch64,60,5f073de81c76c3308c0e4fb3,5f0794309a486b18178ddc2b,2,,,,,,goose,,,,,,,,,,,1,1,0,6,6,4,1,,,,,,,,,,,,,,,,,,,,,,,,,,,,,,,,,,,,,,,,,,,,,,,,,,,,,,,,,,,,,,,,,,,,,,
,,GLASS,5.421505,1,,,,,,stimuli/images/PICTURE_491.png,GLASS,5dd0f134670d1a1a46632755,26/07/1947,2020-07-09_18h04.09.381,proactive,2020.1.2,Linux aarch64,60,5f073de81c76c3308c0e4fb3,5f0794309a486b18178ddc2b,2,,,,,,rug,,,,,,,,,,,2,1,0,7,7,14,1,,,,,,,,,,,,,,,,,,,,,,,,,,,,,,,,,,,,,,,,,,,,,,,,,,,,,,,,,,,,,,,,,,,,,,
,,?,0.00329,0,,,,,,stimuli/images/PICTURE_85.png,TOILET,5dd0f134670d1a1a46632755,26/07/1947,2020-07-09_18h04.09.381,proactive,2020.1.2,Linux aarch64,60,5f073de81c76c3308c0e4fb3,5f0794309a486b18178ddc2b,2,,,,,,diamond,,,,,,,,,,,5,1,0,8,8,48,1,,,,,,,,,,,,,,,,,,,,,,,,,,,,,,,,,,,,,,,,,,,,,,,,,,,,,,,,,,,,,,,,,,,,,,
,,?,0.004585,0,,,,,,stimuli/images/PICTURE_42.png,BOYS,5dd0f134670d1a1a46632755,26/07/1947,2020-07-09_18h04.09.381,proactive,2020.1.2,Linux aarch64,60,5f073de81c76c3308c0e4fb3,5f0794309a486b18178ddc2b,2,,,,,,pear,,,,,,,,,,,6,1,0,9,9,55,1,,,,,,,,,,,,,,,,,,,,,,,,,,,,,,,,,,,,,,,,,,,,,,,,,,,,,,,,,,,,,,,,,,,,,,
,,?,0.00374,0,,,,,,stimuli/images/PICTURE_340.png,VALLEY,5dd0f134670d1a1a46632755,26/07/1947,2020-07-09_18h04.09.381,proactive,2020.1.2,Linux aarch64,60,5f073de81c76c3308c0e4fb3,5f0794309a486b18178ddc2b,2,,,,,,mirror,,,,,,,,,,,6,1,0,10,10,54,1,,,,,,,,,,,,,,,,,,,,,,,,,,,,,,,,,,,,,,,,,,,,,,,,,,,,,,,,,,,,,,,,,,,,,,
,,?,0.00177,0,,,,,,stimuli/images/PICTURE_108.png,POLICY,5dd0f134670d1a1a46632755,26/07/1947,2020-07-09_18h04.09.381,proactive,2020.1.2,Linux aarch64,60,5f073de81c76c3308c0e4fb3,5f0794309a486b18178ddc2b,2,,,,,,calendar,,,,,,,,,,,3,1,0,11,11,22,1,,,,,,,,,,,,,,,,,,,,,,,,,,,,,,,,,,,,,,,,,,,,,,,,,,,,,,,,,,,,,,,,,,,,,,
,,?,0.00139,0,,,,,,stimuli/images/PICTURE_403.png,TOILET,5dd0f134670d1a1a46632755,26/07/1947,2020-07-09_18h04.09.381,proactive,2020.1.2,Linux aarch64,60,5f073de81c76c3308c0e4fb3,5f0794309a486b18178ddc2b,2,,,,,,cathedral,,,,,,,,,,,3,1,0,12,12,25,1,,,,,,,,,,,,,,,,,,,,,,,,,,,,,,,,,,,,,,,,,,,,,,,,,,,,,,,,,,,,,,,,,,,,,,
,,?,0.001405,0,,,,,,stimuli/images/PICTURE_203.png,NIGHT,5dd0f134670d1a1a46632755,26/07/1947,2020-07-09_18h04.09.381,proactive,2020.1.2,Linux aarch64,60,5f073de81c76c3308c0e4fb3,5f0794309a486b18178ddc2b,2,,,,,,cap,,,,,,,,,,,1,1,0,13,13,2,1,,,,,,,,,,,,,,,,,,,,,,,,,,,,,,,,,,,,,,,,,,,,,,,,,,,,,,,,,,,,,,,,,,,,,,
,,?,0.001335,0,,,,,,stimuli/images/PICTURE_203.png,GODS,5dd0f134670d1a1a46632755,26/07/1947,2020-07-09_18h04.09.381,proactive,2020.1.2,Linux aarch64,60,5f073de81c76c3308c0e4fb3,5f0794309a486b18178ddc2b,2,,,,,,cap,,,,,,,,,,,4,1,0,14,14,30,1,,,,,,,,,,,,,,,,,,,,,,,,,,,,,,,,,,,,,,,,,,,,,,,,,,,,,,,,,,,,,,,,,,,,,,
,,?,0.001475,0,,,,,,stimuli/images/PICTURE_487.png,GIRL,5dd0f134670d1a1a46632755,26/07/1947,2020-07-09_18h04.09.381,proactive,2020.1.2,Linux aarch64,60,5f073de81c76c3308c0e4fb3,5f0794309a486b18178ddc2b,2,,,,,,basket,,,,,,,,,,,5,1,0,15,15,45,1,,,,,,,,,,,,,,,,,,,,,,,,,,,,,,,,,,,,,,,,,,,,,,,,,,,,,,,,,,,,,,,,,,,,,,
,,?,0.00169,0,,,,,,stimuli/images/PICTURE_403.png,WRITER,5dd0f134670d1a1a46632755,26/07/1947,2020-07-09_18h04.09.381,proactive,2020.1.2,Linux aarch64,60,5f073de81c76c3308c0e4fb3,5f0794309a486b18178ddc2b,2,,,,,,cathedral,,,,,,,,,,,4,1,0,16,16,31,1,,,,,,,,,,,,,,,,,,,,,,,,,,,,,,,,,,,,,,,,,,,,,,,,,,,,,,,,,,,,,,,,,,,,,,
,,?,0.00168,0,,,,,,stimuli/images/PICTURE_32.png,KIND,5dd0f134670d1a1a46632755,26/07/1947,2020-07-09_18h04.09.381,proactive,2020.1.2,Linux aarch64,60,5f073de81c76c3308c0e4fb3,5f0794309a486b18178ddc2b,2,,,,,,crown,,,,,,,,,,,4,1,0,17,17,35,1,,,,,,,,,,,,,,,,,,,,,,,,,,,,,,,,,,,,,,,,,,,,,,,,,,,,,,,,,,,,,,,,,,,,,,
,,?,0.00451,0,,,,,,stimuli/images/PICTURE_405.png,PLENTY,5dd0f134670d1a1a46632755,26/07/1947,2020-07-09_18h04.09.381,proactive,2020.1.2,Linux aarch64,60,5f073de81c76c3308c0e4fb3,5f0794309a486b18178ddc2b,2,,,,,,anchor,,,,,,,,,,,3,1,0,18,18,23,1,,,,,,,,,,,,,,,,,,,,,,,,,,,,,,,,,,,,,,,,,,,,,,,,,,,,,,,,,,,,,,,,,,,,,,
,,?,0.001425,0,,,,,,stimuli/images/PICTURE_708.png,RECORD,5dd0f134670d1a1a46632755,26/07/1947,2020-07-09_18h04.09.381,proactive,2020.1.2,Linux aarch64,60,5f073de81c76c3308c0e4fb3,5f0794309a486b18178ddc2b,2,,,,,,monkey,,,,,,,,,,,6,1,0,19,19,58,1,,,,,,,,,,,,,,,,,,,,,,,,,,,,,,,,,,,,,,,,,,,,,,,,,,,,,,,,,,,,,,,,,,,,,,
,,?,0.001375,0,,,,,,stimuli/images/PICTURE_744.png,WEAPON,5dd0f134670d1a1a46632755,26/07/1947,2020-07-09_18h04.09.381,proactive,2020.1.2,Linux aarch64,60,5f073de81c76c3308c0e4fb3,5f0794309a486b18178ddc2b,2,,,,,,ring,,,,,,,,,,,6,1,0,20,20,50,1,,,,,,,,,,,,,,,,,,,,,,,,,,,,,,,,,,,,,,,,,,,,,,,,,,,,,,,,,,,,,,,,,,,,,,
,,?,0.00138,0,,,,,,stimuli/images/PICTURE_491.png,RIVER,5dd0f134670d1a1a46632755,26/07/1947,2020-07-09_18h04.09.381,proactive,2020.1.2,Linux aarch64,60,5f073de81c76c3308c0e4fb3,5f0794309a486b18178ddc2b,2,,,,,,rug,,,,,,,,,,,1,1,0,21,21,6,1,,,,,,,,,,,,,,,,,,,,,,,,,,,,,,,,,,,,,,,,,,,,,,,,,,,,,,,,,,,,,,,,,,,,,,
,,?,0.001465,0,,,,,,stimuli/images/PICTURE_296.png,LIFE,5dd0f134670d1a1a46632755,26/07/1947,2020-07-09_18h04.09.381,proactive,2020.1.2,Linux aarch64,60,5f073de81c76c3308c0e4fb3,5f0794309a486b18178ddc2b,2,,,,,,bolt,,,,,,,,,,,6,1,0,22,22,57,1,,,,,,,,,,,,,,,,,,,,,,,,,,,,,,,,,,,,,,,,,,,,,,,,,,,,,,,,,,,,,,,,,,,,,,
,,?,0.00139,0,,,,,,stimuli/images/PICTURE_68.png,ROOF,5dd0f134670d1a1a46632755,26/07/1947,2020-07-09_18h04.09.381,proactive,2020.1.2,Linux aarch64,60,5f073de81c76c3308c0e4fb3,5f0794309a486b18178ddc2b,2,,,,,,candle,,,,,,,,,,,4,1,0,23,23,38,1,,,,,,,,,,,,,,,,,,,,,,,,,,,,,,,,,,,,,,,,,,,,,,,,,,,,,,,,,,,,,,,,,,,,,,
,,?,0.001445,0,,,,,,stimuli/images/PICTURE_147.png,YEAR,5dd0f134670d1a1a46632755,26/07/1947,2020-07-09_18h04.09.381,proactive,2020.1.2,Linux aarch64,60,5f073de81c76c3308c0e4fb3,5f0794309a486b18178ddc2b,2,,,,,,hanger,,,,,,,,,,,3,1,0,24,24,21,1,,,,,,,,,,,,,,,,,,,,,,,,,,,,,,,,,,,,,,,,,,,,,,,,,,,,,,,,,,,,,,,,,,,,,,
,,?,0.00148,0,,,,,,stimuli/images/PICTURE_383.png,WRITER,5dd0f134670d1a1a46632755,26/07/1947,2020-07-09_18h04.09.381,proactive,2020.1.2,Linux aarch64,60,5f073de81c76c3308c0e4fb3,5f0794309a486b18178ddc2b,2,,,,,,coin,,,,,,,,,,,3,1,0,25,25,28,1,,,,,,,,,,,,,,,,,,,,,,,,,,,,,,,,,,,,,,,,,,,,,,,,,,,,,,,,,,,,,,,,,,,,,,
,,FLIGHT,9.36495,1,,,,,,stimuli/images/PICTURE_2.png,FLIGHT,5dd0f134670d1a1a46632755,26/07/1947,2020-07-09_18h04.09.381,proactive,2020.1.2,Linux aarch64,60,5f073de81c76c3308c0e4fb3,5f0794309a486b18178ddc2b,2,,,,,,tyre,,,,,,,,,,,2,1,0,26,26,15,1,,,,,,,,,,,,,,,,,,,,,,,,,,,,,,,,,,,,,,,,,,,,,,,,,,,,,,,,,,,,,,,,,,,,,,
,,?,0.003435,0,,,,,,stimuli/images/PICTURE_327.png,SERIES,5dd0f134670d1a1a46632755,26/07/1947,2020-07-09_18h04.09.381,proactive,2020.1.2,Linux aarch64,60,5f073de81c76c3308c0e4fb3,5f0794309a486b18178ddc2b,2,,,,,,helmet,,,,,,,,,,,1,1,0,27,27,3,1,,,,,,,,,,,,,,,,,,,,,,,,,,,,,,,,,,,,,,,,,,,,,,,,,,,,,,,,,,,,,,,,,,,,,,
,,?,0.003895,0,,,,,,stimuli/images/PICTURE_383.png,SERIES,5dd0f134670d1a1a46632755,26/07/1947,2020-07-09_18h04.09.381,proactive,2020.1.2,Linux aarch64,60,5f073de81c76c3308c0e4fb3,5f0794309a486b18178ddc2b,2,,,,,,coin,,,,,,,,,,,5,1,0,28,28,46,1,,,,,,,,,,,,,,,,,,,,,,,,,,,,,,,,,,,,,,,,,,,,,,,,,,,,,,,,,,,,,,,,,,,,,,
,,?,0.003675,0,,,,,,stimuli/images/PICTURE_403.png,RIVER,5dd0f134670d1a1a46632755,26/07/1947,2020-07-09_18h04.09.381,proactive,2020.1.2,Linux aarch64,60,5f073de81c76c3308c0e4fb3,5f0794309a486b18178ddc2b,2,,,,,,cathedral,,,,,,,,,,,5,1,0,29,29,40,1,,,,,,,,,,,,,,,,,,,,,,,,,,,,,,,,,,,,,,,,,,,,,,,,,,,,,,,,,,,,,,,,,,,,,,
,,?,0.0022,0,,,,,,stimuli/images/PICTURE_296.png,LOTS,5dd0f134670d1a1a46632755,26/07/1947,2020-07-09_18h04.09.381,proactive,2020.1.2,Linux aarch64,60,5f073de81c76c3308c0e4fb3,5f0794309a486b18178ddc2b,2,,,,,,bolt,,,,,,,,,,,1,1,0,30,30,9,1,,,,,,,,,,,,,,,,,,,,,,,,,,,,,,,,,,,,,,,,,,,,,,,,,,,,,,,,,,,,,,,,,,,,,,
,,?,8.9551,0,,,,,,stimuli/images/PICTURE_655.png,TOILET,5dd0f134670d1a1a46632755,26/07/1947,2020-07-09_18h04.09.381,proactive,2020.1.2,Linux aarch64,60,5f073de81c76c3308c0e4fb3,5f0794309a486b18178ddc2b,2,,,,,,megaphone,,,,,,,,,,,2,1,0,31,31,12,1,,,,,,,,,,,,,,,,,,,,,,,,,,,,,,,,,,,,,,,,,,,,,,,,,,,,,,,,,,,,,,,,,,,,,,
,,?,0.00344,0,,,,,,stimuli/images/PICTURE_108.png,FLIGHT,5dd0f134670d1a1a46632755,26/07/1947,2020-07-09_18h04.09.381,proactive,2020.1.2,Linux aarch64,60,5f073de81c76c3308c0e4fb3,5f0794309a486b18178ddc2b,2,,,,,,calendar,,,,,,,,,,,6,1,0,32,32,59,1,,,,,,,,,,,,,,,,,,,,,,,,,,,,,,,,,,,,,,,,,,,,,,,,,,,,,,,,,,,,,,,,,,,,,,
,,?,0.004495,0,,,,,,stimuli/images/PICTURE_308.png,FAMILY,5dd0f134670d1a1a46632755,26/07/1947,2020-07-09_18h04.09.381,proactive,2020.1.2,Linux aarch64,60,5f073de81c76c3308c0e4fb3,5f0794309a486b18178ddc2b,2,,,,,,dice,,,,,,,,,,,4,1,0,33,33,36,1,,,,,,,,,,,,,,,,,,,,,,,,,,,,,,,,,,,,,,,,,,,,,,,,,,,,,,,,,,,,,,,,,,,,,,
,,?,0.003005,0,,,,,,stimuli/images/PICTURE_208.png,SYSTEM,5dd0f134670d1a1a46632755,26/07/1947,2020-07-09_18h04.09.381,proactive,2020.1.2,Linux aarch64,60,5f073de81c76c3308c0e4fb3,5f0794309a486b18178ddc2b,2,,,,,,microphone,,,,,,,,,,,4,1,0,34,34,32,1,,,,,,,,,,,,,,,,,,,,,,,,,,,,,,,,,,,,,,,,,,,,,,,,,,,,,,,,,,,,,,,,,,,,,,
,,?,0.00135,0,,,,,,stimuli/images/PICTURE_33.png,FRIEND,5dd0f134670d1a1a46632755,26/07/1947,2020-07-09_18h04.09.381,proactive,2020.1.2,Linux aarch64,60,5f073de81c76c3308c0e4fb3,5f0794309a486b18178ddc2b,2,,,,,,frame,,,,,,,,,,,1,1,0,35,35,8,1,,,,,,,,,,,,,,,,,,,,,,,,,,,,,,,,,,,,,,,,,,,,,,,,,,,,,,,,,,,,,,,,,,,,,,
,,CLIENT,7.96251,1,,,,,,stimuli/images/PICTURE_339.png,CLIENT,5dd0f134670d1a1a46632755,26/07/1947,2020-07-09_18h04.09.381,proactive,2020.1.2,Linux aarch64,60,5f073de81c76c3308c0e4fb3,5f0794309a486b18178ddc2b,2,,,,,,backpack,,,,,,,,,,,2,1,0,36,36,11,1,,,,,,,,,,,,,,,,,,,,,,,,,,,,,,,,,,,,,,,,,,,,,,,,,,,,,,,,,,,,,,,,,,,,,,
,,?,0.00325,0,,,,,,stimuli/images/PICTURE_327.png,CASINO,5dd0f134670d1a1a46632755,26/07/1947,2020-07-09_18h04.09.381,proactive,2020.1.2,Linux aarch64,60,5f073de81c76c3308c0e4fb3,5f0794309a486b18178ddc2b,2,,,,,,helmet,,,,,,,,,,,3,1,0,37,37,20,1,,,,,,,,,,,,,,,,,,,,,,,,,,,,,,,,,,,,,,,,,,,,,,,,,,,,,,,,,,,,,,,,,,,,,,
,,?,5.04735,0,,,,,,stimuli/images/PICTURE_32.png,PILLS,5dd0f134670d1a1a46632755,26/07/1947,2020-07-09_18h04.09.381,proactive,2020.1.2,Linux aarch64,60,5f073de81c76c3308c0e4fb3,5f0794309a486b18178ddc2b,2,,,,,,crown,,,,,,,,,,,2,1,0,38,38,18,1,,,,,,,,,,,,,,,,,,,,,,,,,,,,,,,,,,,,,,,,,,,,,,,,,,,,,,,,,,,,,,,,,,,,,,
,,?,0.01039,0,,,,,,stimuli/images/PICTURE_177.png,WRITER,5dd0f134670d1a1a46632755,26/07/1947,2020-07-09_18h04.09.381,proactive,2020.1.2,Linux aarch64,60,5f073de81c76c3308c0e4fb3,5f0794309a486b18178ddc2b,2,,,,,,mushroom,,,,,,,,,,,5,1,0,39,39,41,1,,,,,,,,,,,,,,,,,,,,,,,,,,,,,,,,,,,,,,,,,,,,,,,,,,,,,,,,,,,,,,,,,,,,,,
,,?,6.960855,0,,,,,,stimuli/images/PICTURE_449.png,DUDE,5dd0f134670d1a1a46632755,26/07/1947,2020-07-09_18h04.09.381,proactive,2020.1.2,Linux aarch64,60,5f073de81c76c3308c0e4fb3,5f0794309a486b18178ddc2b,2,,,,,,bench,,,,,,,,,,,2,1,0,40,40,17,1,,,,,,,,,,,,,,,,,,,,,,,,,,,,,,,,,,,,,,,,,,,,,,,,,,,,,,,,,,,,,,,,,,,,,,
,,HONEY,9.38237,1,,,,,,stimuli/images/PICTURE_380.png,HONEY,5dd0f134670d1a1a46632755,26/07/1947,2020-07-09_18h04.09.381,proactive,2020.1.2,Linux aarch64,60,5f073de81c76c3308c0e4fb3,5f0794309a486b18178ddc2b,2,,,,,,gorilla,,,,,,,,,,,2,1,0,41,41,19,1,,,,,,,,,,,,,,,,,,,,,,,,,,,,,,,,,,,,,,,,,,,,,,,,,,,,,,,,,,,,,,,,,,,,,,
,,?,0.003075,0,,,,,,stimuli/images/PICTURE_504.png,ARTIST,5dd0f134670d1a1a46632755,26/07/1947,2020-07-09_18h04.09.381,proactive,2020.1.2,Linux aarch64,60,5f073de81c76c3308c0e4fb3,5f0794309a486b18178ddc2b,2,,,,,,wheel,,,,,,,,,,,5,1,0,42,42,49,1,,,,,,,,,,,,,,,,,,,,,,,,,,,,,,,,,,,,,,,,,,,,,,,,,,,,,,,,,,,,,,,,,,,,,,
,,?,0.00334,0,,,,,,stimuli/images/PICTURE_57.png,MOMENT,5dd0f134670d1a1a46632755,26/07/1947,2020-07-09_18h04.09.381,proactive,2020.1.2,Linux aarch64,60,5f073de81c76c3308c0e4fb3,5f0794309a486b18178ddc2b,2,,,,,,stamp,,,,,,,,,,,4,1,0,43,43,37,1,,,,,,,,,,,,,,,,,,,,,,,,,,,,,,,,,,,,,,,,,,,,,,,,,,,,,,,,,,,,,,,,,,,,,,
,,RIVER,8.969745,1,,,,,,stimuli/images/PICTURE_667.png,RIVER,5dd0f134670d1a1a46632755,26/07/1947,2020-07-09_18h04.09.381,proactive,2020.1.2,Linux aarch64,60,5f073de81c76c3308c0e4fb3,5f0794309a486b18178ddc2b,2,,,,,,daisy,,,,,,,,,,,2,1,0,44,44,10,1,,,,,,,,,,,,,,,,,,,,,,,,,,,,,,,,,,,,,,,,,,,,,,,,,,,,,,,,,,,,,,,,,,,,,,
,,?,5.82381,0,,,,,,stimuli/images/PICTURE_469.png,AGENT,5dd0f134670d1a1a46632755,26/07/1947,2020-07-09_18h04.09.381,proactive,2020.1.2,Linux aarch64,60,5f073de81c76c3308c0e4fb3,5f0794309a486b18178ddc2b,2,,,,,,stool,,,,,,,,,,,2,1,0,45,45,16,1,,,,,,,,,,,,,,,,,,,,,,,,,,,,,,,,,,,,,,,,,,,,,,,,,,,,,,,,,,,,,,,,,,,,,,
,,?,0.00138,0,,,,,,stimuli/images/PICTURE_467.png,POLICY,5dd0f134670d1a1a46632755,26/07/1947,2020-07-09_18h04.09.381,proactive,2020.1.2,Linux aarch64,60,5f073de81c76c3308c0e4fb3,5f0794309a486b18178ddc2b,2,,,,,,peg,,,,,,,,,,,6,1,0,46,46,53,1,,,,,,,,,,,,,,,,,,,,,,,,,,,,,,,,,,,,,,,,,,,,,,,,,,,,,,,,,,,,,,,,,,,,,,
,,?,0.001345,0,,,,,,stimuli/images/PICTURE_147.png,WOMEN,5dd0f134670d1a1a46632755,26/07/1947,2020-07-09_18h04.09.381,proactive,2020.1.2,Linux aarch64,60,5f073de81c76c3308c0e4fb3,5f0794309a486b18178ddc2b,2,,,,,,hanger,,,,,,,,,,,1,1,0,47,47,7,1,,,,,,,,,,,,,,,,,,,,,,,,,,,,,,,,,,,,,,,,,,,,,,,,,,,,,,,,,,,,,,,,,,,,,,
,,?,0.001315,0,,,,,,stimuli/images/PICTURE_504.png,COPS,5dd0f134670d1a1a46632755,26/07/1947,2020-07-09_18h04.09.381,proactive,2020.1.2,Linux aarch64,60,5f073de81c76c3308c0e4fb3,5f0794309a486b18178ddc2b,2,,,,,,wheel,,,,,,,,,,,6,1,0,48,48,52,1,,,,,,,,,,,,,,,,,,,,,,,,,,,,,,,,,,,,,,,,,,,,,,,,,,,,,,,,,,,,,,,,,,,,,,
,,?,0.00148,0,,,,,,stimuli/images/PICTURE_750.png,HOTEL,5dd0f134670d1a1a46632755,26/07/1947,2020-07-09_18h04.09.381,proactive,2020.1.2,Linux aarch64,60,5f073de81c76c3308c0e4fb3,5f0794309a486b18178ddc2b,2,,,,,,kettle,,,,,,,,,,,3,1,0,49,49,27,1,,,,,,,,,,,,,,,,,,,,,,,,,,,,,,,,,,,,,,,,,,,,,,,,,,,,,,,,,,,,,,,,,,,,,,
,,?,0.001285,0,,,,,,stimuli/images/PICTURE_95.png,MILLER,5dd0f134670d1a1a46632755,26/07/1947,2020-07-09_18h04.09.381,proactive,2020.1.2,Linux aarch64,60,5f073de81c76c3308c0e4fb3,5f0794309a486b18178ddc2b,2,,,,,,suitcase,,,,,,,,,,,6,1,0,50,50,56,1,,,,,,,,,,,,,,,,,,,,,,,,,,,,,,,,,,,,,,,,,,,,,,,,,,,,,,,,,,,,,,,,,,,,,,
,,?,0.00157,0,,,,,,stimuli/images/PICTURE_564.png,BATH,5dd0f134670d1a1a46632755,26/07/1947,2020-07-09_18h04.09.381,proactive,2020.1.2,Linux aarch64,60,5f073de81c76c3308c0e4fb3,5f0794309a486b18178ddc2b,2,,,,,,spoon,,,,,,,,,,,3,1,0,51,51,26,1,,,,,,,,,,,,,,,,,,,,,,,,,,,,,,,,,,,,,,,,,,,,,,,,,,,,,,,,,,,,,,,,,,,,,,
,,?,0.001545,0,,,,,,stimuli/images/PICTURE_85.png,NATION,5dd0f134670d1a1a46632755,26/07/1947,2020-07-09_18h04.09.381,proactive,2020.1.2,Linux aarch64,60,5f073de81c76c3308c0e4fb3,5f0794309a486b18178ddc2b,2,,,,,,diamond,,,,,,,,,,,1,1,0,52,52,5,1,,,,,,,,,,,,,,,,,,,,,,,,,,,,,,,,,,,,,,,,,,,,,,,,,,,,,,,,,,,,,,,,,,,,,,
,,?,0.0016,0,,,,,,stimuli/images/PICTURE_285.png,LIFE,5dd0f134670d1a1a46632755,26/07/1947,2020-07-09_18h04.09.381,proactive,2020.1.2,Linux aarch64,60,5f073de81c76c3308c0e4fb3,5f0794309a486b18178ddc2b,2,,,,,,carrot,,,,,,,,,,,4,1,0,53,53,33,1,,,,,,,,,,,,,,,,,,,,,,,,,,,,,,,,,,,,,,,,,,,,,,,,,,,,,,,,,,,,,,,,,,,,,,
,,?,0.00153,0,,,,,,stimuli/images/PICTURE_654.png,MONTH,5dd0f134670d1a1a46632755,26/07/1947,2020-07-09_18h04.09.381,proactive,2020.1.2,Linux aarch64,60,5f073de81c76c3308c0e4fb3,5f0794309a486b18178ddc2b,2,,,,,,pencil,,,,,,,,,,,3,1,0,54,54,29,1,,,,,,,,,,,,,,,,,,,,,,,,,,,,,,,,,,,,,,,,,,,,,,,,,,,,,,,,,,,,,,,,,,,,,,
,,?,0.001535,0,,,,,,stimuli/images/PICTURE_95.png,HONEY,5dd0f134670d1a1a46632755,26/07/1947,2020-07-09_18h04.09.381,proactive,2020.1.2,Linux aarch64,60,5f073de81c76c3308c0e4fb3,5f0794309a486b18178ddc2b,2,,,,,,suitcase,,,,,,,,,,,5,1,0,55,55,44,1,,,,,,,,,,,,,,,,,,,,,,,,,,,,,,,,,,,,,,,,,,,,,,,,,,,,,,,,,,,,,,,,,,,,,,
,,?,0.0015,0,,,,,,stimuli/images/PICTURE_68.png,MILE,5dd0f134670d1a1a46632755,26/07/1947,2020-07-09_18h04.09.381,proactive,2020.1.2,Linux aarch64,60,5f073de81c76c3308c0e4fb3,5f0794309a486b18178ddc2b,2,,,,,,candle,,,,,,,,,,,6,1,0,56,56,51,1,,,,,,,,,,,,,,,,,,,,,,,,,,,,,,,,,,,,,,,,,,,,,,,,,,,,,,,,,,,,,,,,,,,,,,
,,?,0.001355,0,,,,,,stimuli/images/PICTURE_95.png,BOYS,5dd0f134670d1a1a46632755,26/07/1947,2020-07-09_18h04.09.381,proactive,2020.1.2,Linux aarch64,60,5f073de81c76c3308c0e4fb3,5f0794309a486b18178ddc2b,2,,,,,,suitcase,,,,,,,,,,,1,1,0,57,57,1,1,,,,,,,,,,,,,,,,,,,,,,,,,,,,,,,,,,,,,,,,,,,,,,,,,,,,,,,,,,,,,,,,,,,,,,
,,?,0.00135,0,,,,,,stimuli/images/PICTURE_233.png,LOTS,5dd0f134670d1a1a46632755,26/07/1947,2020-07-09_18h04.09.381,proactive,2020.1.2,Linux aarch64,60,5f073de81c76c3308c0e4fb3,5f0794309a486b18178ddc2b,2,,,,,,salt,,,,,,,,,,,5,1,0,58,58,42,1,,,,,,,,,,,,,,,,,,,,,,,,,,,,,,,,,,,,,,,,,,,,,,,,,,,,,,,,,,,,,,,,,,,,,,
,,?,6.190365,0,,,,,,stimuli/images/PICTURE_504.png,YEAR,5dd0f134670d1a1a46632755,26/07/1947,2020-07-09_18h04.09.381,proactive,2020.1.2,Linux aarch64,60,5f073de81c76c3308c0e4fb3,5f0794309a486b18178ddc2b,2,,,,,,wheel,,,,,,,,,,,2,1,0,59,59,13,1,,,,,,,,,,,,,,,,,,,,,,,,,,,,,,,,,,,,,,,,,,,,,,,,,,,,,,,,,,,,,,,,,,,,,,
,,,,,,,,,,,,5dd0f134670d1a1a46632755,26/07/1947,2020-07-09_18h04.09.381,proactive,2020.1.2,Linux aarch64,60,5f073de81c76c3308c0e4fb3,5f0794309a486b18178ddc2b,2,,,,,,,,,,,,,,,,,,,,,,,,0,0,0,1,1,stimuli/learn-block2.csv,,,,,,,,,,,,,,,,,,,,,,,,,,,,,,,,,,,,,,,,,,,,,,,,,,,,,,,,,,,,,,,,
,,,,,,,,,,stimuli/images/PICTURE_453.png,FAMILY,5dd0f134670d1a1a46632755,26/07/1947,2020-07-09_18h04.09.381,proactive,2020.1.2,Linux aarch64,60,5f073de81c76c3308c0e4fb3,5f0794309a486b18178ddc2b,2,,,,,,scissors,,,,,,0,0,0,48,1,5,2,,,,,,,,,,,,,,,,,,,,,,,,,,,,,,,,,,,,,,,,,,,,,,,,,,,,,,,,,,,,,,,,,,,,,,,,,,,
,,,,,,,,,,stimuli/images/PICTURE_708.png,VALLEY,5dd0f134670d1a1a46632755,26/07/1947,2020-07-09_18h04.09.381,proactive,2020.1.2,Linux aarch64,60,5f073de81c76c3308c0e4fb3,5f0794309a486b18178ddc2b,2,,,,,,monkey,,,,,,0,1,1,45,1,5,2,,,,,,,,,,,,,,,,,,,,,,,,,,,,,,,,,,,,,,,,,,,,,,,,,,,,,,,,,,,,,,,,,,,,,,,,,,,
,,,,,,,,,,stimuli/images/PICTURE_688.png,CLOCK,5dd0f134670d1a1a46632755,26/07/1947,2020-07-09_18h04.09.381,proactive,2020.1.2,Linux aarch64,60,5f073de81c76c3308c0e4fb3,5f0794309a486b18178ddc2b,2,,,,,,runner,,,,,,0,2,2,42,1,5,2,,,,,,,,,,,,,,,,,,,,,,,,,,,,,,,,,,,,,,,,,,,,,,,,,,,,,,,,,,,,,,,,,,,,,,,,,,,
,,,,,,,,,,stimuli/images/PICTURE_177.png,HOUSE,5dd0f134670d1a1a46632755,26/07/1947,2020-07-09_18h04.09.381,proactive,2020.1.2,Linux aarch64,60,5f073de81c76c3308c0e4fb3,5f0794309a486b18178ddc2b,2,,,,,,mushroom,,,,,,0,3,3,25,1,3,2,,,,,,,,,,,,,,,,,,,,,,,,,,,,,,,,,,,,,,,,,,,,,,,,,,,,,,,,,,,,,,,,,,,,,,,,,,,
,,,,,,,,,,stimuli/images/PICTURE_2.png,YARD,5dd0f134670d1a1a46632755,26/07/1947,2020-07-09_18h04.09.381,proactive,2020.1.2,Linux aarch64,60,5f073de81c76c3308c0e4fb3,5f0794309a486b18178ddc2b,2,,,,,,tyre,,,,,,0,4,4,55,1,6,2,,,,,,,,,,,,,,,,,,,,,,,,,,,,,,,,,,,,,,,,,,,,,,,,,,,,,,,,,,,,,,,,,,,,,,,,,,,
,,,,,,,,,,stimuli/images/PICTURE_285.png,WRITER,5dd0f134670d1a1a46632755,26/07/1947,2020-07-09_18h04.09.381,proactive,2020.1.2,Linux aarch64,60,5f073de81c76c3308c0e4fb3,5f0794309a486b18178ddc2b,2,,,,,,carrot,,,,,,0,5,5,6,1,1,2,,,,,,,,,,,,,,,,,,,,,,,,,,,,,,,,,,,,,,,,,,,,,,,,,,,,,,,,,,,,,,,,,,,,,,,,,,,
,,,,,,,,,,stimuli/images/PICTURE_667.png,GLASS,5dd0f134670d1a1a46632755,26/07/1947,2020-07-09_18h04.09.381,proactive,2020.1.2,Linux aarch64,60,5f073de81c76c3308c0e4fb3,5f0794309a486b18178ddc2b,2,,,,,,daisy,,,,,,0,6,6,27,1,3,2,,,,,,,,,,,,,,,,,,,,,,,,,,,,,,,,,,,,,,,,,,,,,,,,,,,,,,,,,,,,,,,,,,,,,,,,,,,
,,,,,,,,,,stimuli/images/PICTURE_215.png,BOYS,5dd0f134670d1a1a46632755,26/07/1947,2020-07-09_18h04.09.381,proactive,2020.1.2,Linux aarch64,60,5f073de81c76c3308c0e4fb3,5f0794309a486b18178ddc2b,2,,,,,,boot,,,,,,0,7,7,24,1,3,2,,,,,,,,,,,,,,,,,,,,,,,,,,,,,,,,,,,,,,,,,,,,,,,,,,,,,,,,,,,,,,,,,,,,,,,,,,,
,,,,,,,,,,stimuli/images/PICTURE_405.png,JUNGLE,5dd0f134670d1a1a46632755,26/07/1947,2020-07-09_18h04.09.381,proactive,2020.1.2,Linux aarch64,60,5f073de81c76c3308c0e4fb3,5f0794309a486b18178ddc2b,2,,,,,,anchor,,,,,,0,8,8,58,1,6,2,,,,,,,,,,,,,,,,,,,,,,,,,,,,,,,,,,,,,,,,,,,,,,,,,,,,,,,,,,,,,,,,,,,,,,,,,,,
,,,,,,,,,,stimuli/images/PICTURE_311.png,TOILET,5dd0f134670d1a1a46632755,26/07/1947,2020-07-09_18h04.09.381,proactive,2020.1.2,Linux aarch64,60,5f073de81c76c3308c0e4fb3,5f0794309a486b18178ddc2b,2,,,,,,razor,,,,,,0,9,9,54,1,6,2,,,,,,,,,,,,,,,,,,,,,,,,,,,,,,,,,,,,,,,,,,,,,,,,,,,,,,,,,,,,,,,,,,,,,,,,,,,
,,,,,,,,,,stimuli/images/PICTURE_57.png,NATION,5dd0f134670d1a1a46632755,26/07/1947,2020-07-09_18h04.09.381,proactive,2020.1.2,Linux aarch64,60,5f073de81c76c3308c0e4fb3,5f0794309a486b18178ddc2b,2,,,,,,stamp,,,,,,0,10,10,21,1,3,2,,,,,,,,,,,,,,,,,,,,,,,,,,,,,,,,,,,,,,,,,,,,,,,,,,,,,,,,,,,,,,,,,,,,,,,,,,,
,,,,,,,,,,stimuli/images/PICTURE_2.png,AREA,5dd0f134670d1a1a46632755,26/07/1947,2020-07-09_18h04.09.381,proactive,2020.1.2,Linux aarch64,60,5f073de81c76c3308c0e4fb3,5f0794309a486b18178ddc2b,2,,,,,,tyre,,,,,,0,11,11,32,1,4,2,,,,,,,,,,,,,,,,,,,,,,,,,,,,,,,,,,,,,,,,,,,,,,,,,,,,,,,,,,,,,,,,,,,,,,,,,,,
,,,,,,,,,,stimuli/images/PICTURE_487.png,POLICY,5dd0f134670d1a1a46632755,26/07/1947,2020-07-09_18h04.09.381,proactive,2020.1.2,Linux aarch64,60,5f073de81c76c3308c0e4fb3,5f0794309a486b18178ddc2b,2,,,,,,basket,,,,,,0,12,12,34,1,4,2,,,,,,,,,,,,,,,,,,,,,,,,,,,,,,,,,,,,,,,,,,,,,,,,,,,,,,,,,,,,,,,,,,,,,,,,,,,
,,,,,,,,,,stimuli/images/PICTURE_405.png,JUNGLE,5dd0f134670d1a1a46632755,26/07/1947,2020-07-09_18h04.09.381,proactive,2020.1.2,Linux aarch64,60,5f073de81c76c3308c0e4fb3,5f0794309a486b18178ddc2b,2,,,,,,anchor,,,,,,0,13,13,13,1,2,2,,,,,,,,,,,,,,,,,,,,,,,,,,,,,,,,,,,,,,,,,,,,,,,,,,,,,,,,,,,,,,,,,,,,,,,,,,,
,,,,,,,,,,stimuli/images/PICTURE_2.png,JUNGLE,5dd0f134670d1a1a46632755,26/07/1947,2020-07-09_18h04.09.381,proactive,2020.1.2,Linux aarch64,60,5f073de81c76c3308c0e4fb3,5f0794309a486b18178ddc2b,2,,,,,,tyre,,,,,,0,14,14,1,1,1,2,,,,,,,,,,,,,,,,,,,,,,,,,,,,,,,,,,,,,,,,,,,,,,,,,,,,,,,,,,,,,,,,,,,,,,,,,,,
,,,,,,,,,,stimuli/images/PICTURE_470.png,MOMENT,5dd0f134670d1a1a46632755,26/07/1947,2020-07-09_18h04.09.381,proactive,2020.1.2,Linux aarch64,60,5f073de81c76c3308c0e4fb3,5f0794309a486b18178ddc2b,2,,,,,,motorbike,,,,,,0,15,15,40,1,5,2,,,,,,,,,,,,,,,,,,,,,,,,,,,,,,,,,,,,,,,,,,,,,,,,,,,,,,,,,,,,,,,,,,,,,,,,,,,
,,,,,,,,,,stimuli/images/PICTURE_33.png,COPS,5dd0f134670d1a1a46632755,26/07/1947,2020-07-09_18h04.09.381,proactive,2020.1.2,Linux aarch64,60,5f073de81c76c3308c0e4fb3,5f0794309a486b18178ddc2b,2,,,,,,frame,,,,,,0,16,16,29,1,3,2,,,,,,,,,,,,,,,,,,,,,,,,,,,,,,,,,,,,,,,,,,,,,,,,,,,,,,,,,,,,,,,,,,,,,,,,,,,
,,,,,,,,,,stimuli/images/PICTURE_57.png,CANDY,5dd0f134670d1a1a46632755,26/07/1947,2020-07-09_18h04.09.381,proactive,2020.1.2,Linux aarch64,60,5f073de81c76c3308c0e4fb3,5f0794309a486b18178ddc2b,2,,,,,,stamp,,,,,,0,17,17,52,1,6,2,,,,,,,,,,,,,,,,,,,,,,,,,,,,,,,,,,,,,,,,,,,,,,,,,,,,,,,,,,,,,,,,,,,,,,,,,,,
,,,,,,,,,,stimuli/images/PICTURE_564.png,PLENTY,5dd0f134670d1a1a46632755,26/07/1947,2020-07-09_18h04.09.381,proactive,2020.1.2,Linux aarch64,60,5f073de81c76c3308c0e4fb3,5f0794309a486b18178ddc2b,2,,,,,,spoon,,,,,,0,18,18,11,1,2,2,,,,,,,,,,,,,,,,,,,,,,,,,,,,,,,,,,,,,,,,,,,,,,,,,,,,,,,,,,,,,,,,,,,,,,,,,,,
,,,,,,,,,,stimuli/images/PICTURE_123.png,SALE,5dd0f134670d1a1a46632755,26/07/1947,2020-07-09_18h04.09.381,proactive,2020.1.2,Linux aarch64,60,5f073de81c76c3308c0e4fb3,5f0794309a486b18178ddc2b,2,,,,,,dart,,,,,,0,19,19,8,1,1,2,,,,,,,,,,,,,,,,,,,,,,,,,,,,,,,,,,,,,,,,,,,,,,,,,,,,,,,,,,,,,,,,,,,,,,,,,,,
,,,,,,,,,,stimuli/images/PICTURE_18.png,RIVER,5dd0f134670d1a1a46632755,26/07/1947,2020-07-09_18h04.09.381,proactive,2020.1.2,Linux aarch64,60,5f073de81c76c3308c0e4fb3,5f0794309a486b18178ddc2b,2,,,,,,planet,,,,,,0,20,20,22,1,3,2,,,,,,,,,,,,,,,,,,,,,,,,,,,,,,,,,,,,,,,,,,,,,,,,,,,,,,,,,,,,,,,,,,,,,,,,,,,
,,,,,,,,,,stimuli/images/PICTURE_68.png,KIND,5dd0f134670d1a1a46632755,26/07/1947,2020-07-09_18h04.09.381,proactive,2020.1.2,Linux aarch64,60,5f073de81c76c3308c0e4fb3,5f0794309a486b18178ddc2b,2,,,,,,candle,,,,,,0,21,21,23,1,3,2,,,,,,,,,,,,,,,,,,,,,,,,,,,,,,,,,,,,,,,,,,,,,,,,,,,,,,,,,,,,,,,,,,,,,,,,,,,
,,,,,,,,,,stimuli/images/PICTURE_255.png,PENNY,5dd0f134670d1a1a46632755,26/07/1947,2020-07-09_18h04.09.381,proactive,2020.1.2,Linux aarch64,60,5f073de81c76c3308c0e4fb3,5f0794309a486b18178ddc2b,2,,,,,,shovel,,,,,,0,22,22,19,1,2,2,,,,,,,,,,,,,,,,,,,,,,,,,,,,,,,,,,,,,,,,,,,,,,,,,,,,,,,,,,,,,,,,,,,,,,,,,,,
,,,,,,,,,,stimuli/images/PICTURE_509.png,MILLER,5dd0f134670d1a1a46632755,26/07/1947,2020-07-09_18h04.09.381,proactive,2020.1.2,Linux aarch64,60,5f073de81c76c3308c0e4fb3,5f0794309a486b18178ddc2b,2,,,,,,telephone,,,,,,0,23,23,49,1,5,2,,,,,,,,,,,,,,,,,,,,,,,,,,,,,,,,,,,,,,,,,,,,,,,,,,,,,,,,,,,,,,,,,,,,,,,,,,,
,,,,,,,,,,stimuli/images/PICTURE_208.png,SPIRIT,5dd0f134670d1a1a46632755,26/07/1947,2020-07-09_18h04.09.381,proactive,2020.1.2,Linux aarch64,60,5f073de81c76c3308c0e4fb3,5f0794309a486b18178ddc2b,2,,,,,,microphone,,,,,,0,24,24,28,1,3,2,,,,,,,,,,,,,,,,,,,,,,,,,,,,,,,,,,,,,,,,,,,,,,,,,,,,,,,,,,,,,,,,,,,,,,,,,,,
,,,,,,,,,,stimuli/images/PICTURE_403.png,FAMILY,5dd0f134670d1a1a46632755,26/07/1947,2020-07-09_18h04.09.381,proactive,2020.1.2,Linux aarch64,60,5f073de81c76c3308c0e4fb3,5f0794309a486b18178ddc2b,2,,,,,,cathedral,,,,,,0,25,25,9,1,1,2,,,,,,,,,,,,,,,,,,,,,,,,,,,,,,,,,,,,,,,,,,,,,,,,,,,,,,,,,,,,,,,,,,,,,,,,,,,
,,,,,,,,,,stimuli/images/PICTURE_297.png,BODY,5dd0f134670d1a1a46632755,26/07/1947,2020-07-09_18h04.09.381,proactive,2020.1.2,Linux aarch64,60,5f073de81c76c3308c0e4fb3,5f0794309a486b18178ddc2b,2,,,,,,aeroplane,,,,,,0,26,26,51,1,6,2,,,,,,,,,,,,,,,,,,,,,,,,,,,,,,,,,,,,,,,,,,,,,,,,,,,,,,,,,,,,,,,,,,,,,,,,,,,
,,,,,,,,,,stimuli/images/PICTURE_348.png,TOILET,5dd0f134670d1a1a46632755,26/07/1947,2020-07-09_18h04.09.381,proactive,2020.1.2,Linux aarch64,60,5f073de81c76c3308c0e4fb3,5f0794309a486b18178ddc2b,2,,,,,,pepper,,,,,,0,27,27,4,1,1,2,,,,,,,,,,,,,,,,,,,,,,,,,,,,,,,,,,,,,,,,,,,,,,,,,,,,,,,,,,,,,,,,,,,,,,,,,,,
,,,,,,,,,,stimuli/images/PICTURE_93.png,GIRL,5dd0f134670d1a1a46632755,26/07/1947,2020-07-09_18h04.09.381,proactive,2020.1.2,Linux aarch64,60,5f073de81c76c3308c0e4fb3,5f0794309a486b18178ddc2b,2,,,,,,skateboard,,,,,,0,28,28,31,1,4,2,,,,,,,,,,,,,,,,,,,,,,,,,,,,,,,,,,,,,,,,,,,,,,,,,,,,,,,,,,,,,,,,,,,,,,,,,,,
,,,,,,,,,,stimuli/images/PICTURE_311.png,FLESH,5dd0f134670d1a1a46632755,26/07/1947,2020-07-09_18h04.09.381,proactive,2020.1.2,Linux aarch64,60,5f073de81c76c3308c0e4fb3,5f0794309a486b18178ddc2b,2,,,,,,razor,,,,,,0,29,29,3,1,1,2,,,,,,,,,,,,,,,,,,,,,,,,,,,,,,,,,,,,,,,,,,,,,,,,,,,,,,,,,,,,,,,,,,,,,,,,,,,
,,,,,,,,,,stimuli/images/PICTURE_327.png,LEADER,5dd0f134670d1a1a46632755,26/07/1947,2020-07-09_18h04.09.381,proactive,2020.1.2,Linux aarch64,60,5f073de81c76c3308c0e4fb3,5f0794309a486b18178ddc2b,2,,,,,,helmet,,,,,,0,30,30,17,1,2,2,,,,,,,,,,,,,,,,,,,,,,,,,,,,,,,,,,,,,,,,,,,,,,,,,,,,,,,,,,,,,,,,,,,,,,,,,,,
,,,,,,,,,,stimuli/images/PICTURE_32.png,LETTER,5dd0f134670d1a1a46632755,26/07/1947,2020-07-09_18h04.09.381,proactive,2020.1.2,Linux aarch64,60,5f073de81c76c3308c0e4fb3,5f0794309a486b18178ddc2b,2,,,,,,crown,,,,,,0,31,31,56,1,6,2,,,,,,,,,,,,,,,,,,,,,,,,,,,,,,,,,,,,,,,,,,,,,,,,,,,,,,,,,,,,,,,,,,,,,,,,,,,
,,,,,,,,,,stimuli/images/PICTURE_215.png,FOOD,5dd0f134670d1a1a46632755,26/07/1947,2020-07-09_18h04.09.381,proactive,2020.1.2,Linux aarch64,60,5f073de81c76c3308c0e4fb3,5f0794309a486b18178ddc2b,2,,,,,,boot,,,,,,0,32,32,5,1,1,2,,,,,,,,,,,,,,,,,,,,,,,,,,,,,,,,,,,,,,,,,,,,,,,,,,,,,,,,,,,,,,,,,,,,,,,,,,,
,,,,,,,,,,stimuli/images/PICTURE_509.png,APPLE,5dd0f134670d1a1a46632755,26/07/1947,2020-07-09_18h04.09.381,proactive,2020.1.2,Linux aarch64,60,5f073de81c76c3308c0e4fb3,5f0794309a486b18178ddc2b,2,,,,,,telephone,,,,,,0,33,33,38,1,4,2,,,,,,,,,,,,,,,,,,,,,,,,,,,,,,,,,,,,,,,,,,,,,,,,,,,,,,,,,,,,,,,,,,,,,,,,,,,
,,,,,,,,,,stimuli/images/PICTURE_692.png,DUDE,5dd0f134670d1a1a46632755,26/07/1947,2020-07-09_18h04.09.381,proactive,2020.1.2,Linux aarch64,60,5f073de81c76c3308c0e4fb3,5f0794309a486b18178ddc2b,2,,,,,,cherry,,,,,,0,34,34,47,1,5,2,,,,,,,,,,,,,,,,,,,,,,,,,,,,,,,,,,,,,,,,,,,,,,,,,,,,,,,,,,,,,,,,,,,,,,,,,,,
,,,,,,,,,,stimuli/images/PICTURE_141.png,CLIENT,5dd0f134670d1a1a46632755,26/07/1947,2020-07-09_18h04.09.381,proactive,2020.1.2,Linux aarch64,60,5f073de81c76c3308c0e4fb3,5f0794309a486b18178ddc2b,2,,,,,,sunflower,,,,,,0,35,35,30,1,4,2,,,,,,,,,,,,,,,,,,,,,,,,,,,,,,,,,,,,,,,,,,,,,,,,,,,,,,,,,,,,,,,,,,,,,,,,,,,
,,,,,,,,,,stimuli/images/PICTURE_314.png,SPEECH,5dd0f134670d1a1a46632755,26/07/1947,2020-07-09_18h04.09.381,proactive,2020.1.2,Linux aarch64,60,5f073de81c76c3308c0e4fb3,5f0794309a486b18178ddc2b,2,,,,,,perfume,,,,,,0,36,36,35,1,4,2,,,,,,,,,,,,,,,,,,,,,,,,,,,,,,,,,,,,,,,,,,,,,,,,,,,,,,,,,,,,,,,,,,,,,,,,,,,
,,,,,,,,,,stimuli/images/PICTURE_504.png,HOUSE,5dd0f134670d1a1a46632755,26/07/1947,2020-07-09_18h04.09.381,proactive,2020.1.2,Linux aarch64,60,5f073de81c76c3308c0e4fb3,5f0794309a486b18178ddc2b,2,,,,,,wheel,,,,,,0,37,37,36,1,4,2,,,,,,,,,,,,,,,,,,,,,,,,,,,,,,,,,,,,,,,,,,,,,,,,,,,,,,,,,,,,,,,,,,,,,,,,,,,
,,,,,,,,,,stimuli/images/PICTURE_654.png,COPS,5dd0f134670d1a1a46632755,26/07/1947,2020-07-09_18h04.09.381,proactive,2020.1.2,Linux aarch64,60,5f073de81c76c3308c0e4fb3,5f0794309a486b18178ddc2b,2,,,,,,pencil,,,,,,0,38,38,10,1,2,2,,,,,,,,,,,,,,,,,,,,,,,,,,,,,,,,,,,,,,,,,,,,,,,,,,,,,,,,,,,,,,,,,,,,,,,,,,,
,,,,,,,,,,stimuli/images/PICTURE_356.png,CANDY,5dd0f134670d1a1a46632755,26/07/1947,2020-07-09_18h04.09.381,proactive,2020.1.2,Linux aarch64,60,5f073de81c76c3308c0e4fb3,5f0794309a486b18178ddc2b,2,,,,,,pawn,,,,,,0,39,39,46,1,5,2,,,,,,,,,,,,,,,,,,,,,,,,,,,,,,,,,,,,,,,,,,,,,,,,,,,,,,,,,,,,,,,,,,,,,,,,,,,
,,,,,,,,,,stimuli/images/PICTURE_296.png,CLOCK,5dd0f134670d1a1a46632755,26/07/1947,2020-07-09_18h04.09.381,proactive,2020.1.2,Linux aarch64,60,5f073de81c76c3308c0e4fb3,5f0794309a486b18178ddc2b,2,,,,,,bolt,,,,,,0,40,40,18,1,2,2,,,,,,,,,,,,,,,,,,,,,,,,,,,,,,,,,,,,,,,,,,,,,,,,,,,,,,,,,,,,,,,,,,,,,,,,,,,
,,,,,,,,,,stimuli/images/PICTURE_57.png,CASINO,5dd0f134670d1a1a46632755,26/07/1947,2020-07-09_18h04.09.381,proactive,2020.1.2,Linux aarch64,60,5f073de81c76c3308c0e4fb3,5f0794309a486b18178ddc2b,2,,,,,,stamp,,,,,,0,41,41,12,1,2,2,,,,,,,,,,,,,,,,,,,,,,,,,,,,,,,,,,,,,,,,,,,,,,,,,,,,,,,,,,,,,,,,,,,,,,,,,,,
,,,,,,,,,,stimuli/images/PICTURE_160.png,HOTEL,5dd0f134670d1a1a46632755,26/07/1947,2020-07-09_18h04.09.381,proactive,2020.1.2,Linux aarch64,60,5f073de81c76c3308c0e4fb3,5f0794309a486b18178ddc2b,2,,,,,,wheelbarrow,,,,,,0,42,42,16,1,2,2,,,,,,,,,,,,,,,,,,,,,,,,,,,,,,,,,,,,,,,,,,,,,,,,,,,,,,,,,,,,,,,,,,,,,,,,,,,
,,,,,,,,,,stimuli/images/PICTURE_405.png,HOUSE,5dd0f134670d1a1a46632755,26/07/1947,2020-07-09_18h04.09.381,proactive,2020.1.2,Linux aarch64,60,5f073de81c76c3308c0e4fb3,5f0794309a486b18178ddc2b,2,,,,,,anchor,,,,,,0,43,43,2,1,1,2,,,,,,,,,,,,,,,,,,,,,,,,,,,,,,,,,,,,,,,,,,,,,,,,,,,,,,,,,,,,,,,,,,,,,,,,,,,
,,,,,,,,,,stimuli/images/PICTURE_509.png,SHOTS,5dd0f134670d1a1a46632755,26/07/1947,2020-07-09_18h04.09.381,proactive,2020.1.2,Linux aarch64,60,5f073de81c76c3308c0e4fb3,5f0794309a486b18178ddc2b,2,,,,,,telephone,,,,,,0,44,44,7,1,1,2,,,,,,,,,,,,,,,,,,,,,,,,,,,,,,,,,,,,,,,,,,,,,,,,,,,,,,,,,,,,,,,,,,,,,,,,,,,
,,,,,,,,,,stimuli/images/PICTURE_348.png,DUDE,5dd0f134670d1a1a46632755,26/07/1947,2020-07-09_18h04.09.381,proactive,2020.1.2,Linux aarch64,60,5f073de81c76c3308c0e4fb3,5f0794309a486b18178ddc2b,2,,,,,,pepper,,,,,,0,45,45,59,1,6,2,,,,,,,,,,,,,,,,,,,,,,,,,,,,,,,,,,,,,,,,,,,,,,,,,,,,,,,,,,,,,,,,,,,,,,,,,,,
,,,,,,,,,,stimuli/images/PICTURE_95.png,NIGHT,5dd0f134670d1a1a46632755,26/07/1947,2020-07-09_18h04.09.381,proactive,2020.1.2,Linux aarch64,60,5f073de81c76c3308c0e4fb3,5f0794309a486b18178ddc2b,2,,,,,,suitcase,,,,,,0,46,46,37,1,4,2,,,,,,,,,,,,,,,,,,,,,,,,,,,,,,,,,,,,,,,,,,,,,,,,,,,,,,,,,,,,,,,,,,,,,,,,,,,
,,,,,,,,,,stimuli/images/PICTURE_677.png,FAMILY,5dd0f134670d1a1a46632755,26/07/1947,2020-07-09_18h04.09.381,proactive,2020.1.2,Linux aarch64,60,5f073de81c76c3308c0e4fb3,5f0794309a486b18178ddc2b,2,,,,,,map,,,,,,0,47,47,53,1,6,2,,,,,,,,,,,,,,,,,,,,,,,,,,,,,,,,,,,,,,,,,,,,,,,,,,,,,,,,,,,,,,,,,,,,,,,,,,,
,,,,,,,,,,stimuli/images/PICTURE_654.png,YEAR,5dd0f134670d1a1a46632755,26/07/1947,2020-07-09_18h04.09.381,proactive,2020.1.2,Linux aarch64,60,5f073de81c76c3308c0e4fb3,5f0794309a486b18178ddc2b,2,,,,,,pencil,,,,,,0,48,48,41,1,5,2,,,,,,,,,,,,,,,,,,,,,,,,,,,,,,,,,,,,,,,,,,,,,,,,,,,,,,,,,,,,,,,,,,,,,,,,,,,
,,,,,,,,,,stimuli/images/PICTURE_509.png,BATH,5dd0f134670d1a1a46632755,26/07/1947,2020-07-09_18h04.09.381,proactive,2020.1.2,Linux aarch64,60,5f073de81c76c3308c0e4fb3,5f0794309a486b18178ddc2b,2,,,,,,telephone,,,,,,0,49,49,15,1,2,2,,,,,,,,,,,,,,,,,,,,,,,,,,,,,,,,,,,,,,,,,,,,,,,,,,,,,,,,,,,,,,,,,,,,,,,,,,,
,,,,,,,,,,stimuli/images/PICTURE_750.png,POLICY,5dd0f134670d1a1a46632755,26/07/1947,2020-07-09_18h04.09.381,proactive,2020.1.2,Linux aarch64,60,5f073de81c76c3308c0e4fb3,5f0794309a486b18178ddc2b,2,,,,,,kettle,,,,,,0,50,50,44,1,5,2,,,,,,,,,,,,,,,,,,,,,,,,,,,,,,,,,,,,,,,,,,,,,,,,,,,,,,,,,,,,,,,,,,,,,,,,,,,
,,,,,,,,,,stimuli/images/PICTURE_491.png,SERIES,5dd0f134670d1a1a46632755,26/07/1947,2020-07-09_18h04.09.381,proactive,2020.1.2,Linux aarch64,60,5f073de81c76c3308c0e4fb3,5f0794309a486b18178ddc2b,2,,,,,,rug,,,,,,0,51,51,39,1,4,2,,,,,,,,,,,,,,,,,,,,,,,,,,,,,,,,,,,,,,,,,,,,,,,,,,,,,,,,,,,,,,,,,,,,,,,,,,,
,,,,,,,,,,stimuli/images/PICTURE_285.png,PRINCE,5dd0f134670d1a1a46632755,26/07/1947,2020-07-09_18h04.09.381,proactive,2020.1.2,Linux aarch64,60,5f073de81c76c3308c0e4fb3,5f0794309a486b18178ddc2b,2,,,,,,carrot,,,,,,0,52,52,20,1,3,2,,,,,,,,,,,,,,,,,,,,,,,,,,,,,,,,,,,,,,,,,,,,,,,,,,,,,,,,,,,,,,,,,,,,,,,,,,,
,,,,,,,,,,stimuli/images/PICTURE_677.png,PHOTO,5dd0f134670d1a1a46632755,26/07/1947,2020-07-09_18h04.09.381,proactive,2020.1.2,Linux aarch64,60,5f073de81c76c3308c0e4fb3,5f0794309a486b18178ddc2b,2,,,,,,map,,,,,,0,53,53,14,1,2,2,,,,,,,,,,,,,,,,,,,,,,,,,,,,,,,,,,,,,,,,,,,,,,,,,,,,,,,,,,,,,,,,,,,,,,,,,,,
,,,,,,,,,,stimuli/images/PICTURE_655.png,SALE,5dd0f134670d1a1a46632755,26/07/1947,2020-07-09_18h04.09.381,proactive,2020.1.2,Linux aarch64,60,5f073de81c76c3308c0e4fb3,5f0794309a486b18178ddc2b,2,,,,,,megaphone,,,,,,0,54,54,57,1,6,2,,,,,,,,,,,,,,,,,,,,,,,,,,,,,,,,,,,,,,,,,,,,,,,,,,,,,,,,,,,,,,,,,,,,,,,,,,,
,,,,,,,,,,stimuli/images/PICTURE_487.png,ROOF,5dd0f134670d1a1a46632755,26/07/1947,2020-07-09_18h04.09.381,proactive,2020.1.2,Linux aarch64,60,5f073de81c76c3308c0e4fb3,5f0794309a486b18178ddc2b,2,,,,,,basket,,,,,,0,55,55,50,1,6,2,,,,,,,,,,,,,,,,,,,,,,,,,,,,,,,,,,,,,,,,,,,,,,,,,,,,,,,,,,,,,,,,,,,,,,,,,,,
,,,,,,,,,,stimuli/images/PICTURE_147.png,LEADER,5dd0f134670d1a1a46632755,26/07/1947,2020-07-09_18h04.09.381,proactive,2020.1.2,Linux aarch64,60,5f073de81c76c3308c0e4fb3,5f0794309a486b18178ddc2b,2,,,,,,hanger,,,,,,0,56,56,33,1,4,2,,,,,,,,,,,,,,,,,,,,,,,,,,,,,,,,,,,,,,,,,,,,,,,,,,,,,,,,,,,,,,,,,,,,,,,,,,,
,,,,,,,,,,stimuli/images/PICTURE_215.png,LEADER,5dd0f134670d1a1a46632755,26/07/1947,2020-07-09_18h04.09.381,proactive,2020.1.2,Linux aarch64,60,5f073de81c76c3308c0e4fb3,5f0794309a486b18178ddc2b,2,,,,,,boot,,,,,,0,57,57,43,1,5,2,,,,,,,,,,,,,,,,,,,,,,,,,,,,,,,,,,,,,,,,,,,,,,,,,,,,,,,,,,,,,,,,,,,,,,,,,,,
,,,,,,,,,,stimuli/images/PICTURE_452.png,COPS,5dd0f134670d1a1a46632755,26/07/1947,2020-07-09_18h04.09.381,proactive,2020.1.2,Linux aarch64,60,5f073de81c76c3308c0e4fb3,5f0794309a486b18178ddc2b,2,,,,,,watch,,,,,,0,58,58,0,1,1,2,,,,,,,,,,,,,,,,,,,,,,,,,,,,,,,,,,,,,,,,,,,,,,,,,,,,,,,,,,,,,,,,,,,,,,,,,,,
,,?,0.00168,0,,,,,,stimuli/images/PICTURE_491.png,SERIES,5dd0f134670d1a1a46632755,26/07/1947,2020-07-09_18h04.09.381,proactive,2020.1.2,Linux aarch64,60,5f073de81c76c3308c0e4fb3,5f0794309a486b18178ddc2b,2,,,,,,rug,,,,,,,,,,,4,2,0,0,0,39,1,,,,,,,,,,,,,,,,,,,,,,,,,,,,,,,,,,,,,,,,,,,,,,,,,,,,,,,,,,,,,,,,,,,,,,
,,?,0.00145,0,,,,,,stimuli/images/PICTURE_655.png,SALE,5dd0f134670d1a1a46632755,26/07/1947,2020-07-09_18h04.09.381,proactive,2020.1.2,Linux aarch64,60,5f073de81c76c3308c0e4fb3,5f0794309a486b18178ddc2b,2,,,,,,megaphone,,,,,,,,,,,6,2,0,1,1,57,1,,,,,,,,,,,,,,,,,,,,,,,,,,,,,,,,,,,,,,,,,,,,,,,,,,,,,,,,,,,,,,,,,,,,,,
,,?,0.003775,0,,,,,,stimuli/images/PICTURE_750.png,POLICY,5dd0f134670d1a1a46632755,26/07/1947,2020-07-09_18h04.09.381,proactive,2020.1.2,Linux aarch64,60,5f073de81c76c3308c0e4fb3,5f0794309a486b18178ddc2b,2,,,,,,kettle,,,,,,,,,,,5,2,0,2,2,44,1,,,,,,,,,,,,,,,,,,,,,,,,,,,,,,,,,,,,,,,,,,,,,,,,,,,,,,,,,,,,,,,,,,,,,,
,,?,0.001385,0,,,,,,stimuli/images/PICTURE_487.png,POLICY,5dd0f134670d1a1a46632755,26/07/1947,2020-07-09_18h04.09.381,proactive,2020.1.2,Linux aarch64,60,5f073de81c76c3308c0e4fb3,5f0794309a486b18178ddc2b,2,,,,,,basket,,,,,,,,,,,4,2,0,3,3,34,1,,,,,,,,,,,,,,,,,,,,,,,,,,,,,,,,,,,,,,,,,,,,,,,,,,,,,,,,,,,,,,,,,,,,,,
,,?,0.001525,0,,,,,,stimuli/images/PICTURE_504.png,HOUSE,5dd0f134670d1a1a46632755,26/07/1947,2020-07-09_18h04.09.381,proactive,2020.1.2,Linux aarch64,60,5f073de81c76c3308c0e4fb3,5f0794309a486b18178ddc2b,2,,,,,,wheel,,,,,,,,,,,4,2,0,4,4,36,1,,,,,,,,,,,,,,,,,,,,,,,,,,,,,,,,,,,,,,,,,,,,,,,,,,,,,,,,,,,,,,,,,,,,,,
,,?,10.795415,0,,,,,,stimuli/images/PICTURE_405.png,JUNGLE,5dd0f134670d1a1a46632755,26/07/1947,2020-07-09_18h04.09.381,proactive,2020.1.2,Linux aarch64,60,5f073de81c76c3308c0e4fb3,5f0794309a486b18178ddc2b,2,,,,,,anchor,,,,,,,,,,,2,2,0,5,5,13,1,,,,,,,,,,,,,,,,,,,,,,,,,,,,,,,,,,,,,,,,,,,,,,,,,,,,,,,,,,,,,,,,,,,,,,
,,?,0.00324,0,,,,,,stimuli/images/PICTURE_68.png,KIND,5dd0f134670d1a1a46632755,26/07/1947,2020-07-09_18h04.09.381,proactive,2020.1.2,Linux aarch64,60,5f073de81c76c3308c0e4fb3,5f0794309a486b18178ddc2b,2,,,,,,candle,,,,,,,,,,,3,2,0,6,6,23,1,,,,,,,,,,,,,,,,,,,,,,,,,,,,,,,,,,,,,,,,,,,,,,,,,,,,,,,,,,,,,,,,,,,,,,
,,?,0.003865,0,,,,,,stimuli/images/PICTURE_509.png,APPLE,5dd0f134670d1a1a46632755,26/07/1947,2020-07-09_18h04.09.381,proactive,2020.1.2,Linux aarch64,60,5f073de81c76c3308c0e4fb3,5f0794309a486b18178ddc2b,2,,,,,,telephone,,,,,,,,,,,4,2,0,7,7,38,1,,,,,,,,,,,,,,,,,,,,,,,,,,,,,,,,,,,,,,,,,,,,,,,,,,,,,,,,,,,,,,,,,,,,,,
,,?,0.003895,0,,,,,,stimuli/images/PICTURE_314.png,SPEECH,5dd0f134670d1a1a46632755,26/07/1947,2020-07-09_18h04.09.381,proactive,2020.1.2,Linux aarch64,60,5f073de81c76c3308c0e4fb3,5f0794309a486b18178ddc2b,2,,,,,,perfume,,,,,,,,,,,4,2,0,8,8,35,1,,,,,,,,,,,,,,,,,,,,,,,,,,,,,,,,,,,,,,,,,,,,,,,,,,,,,,,,,,,,,,,,,,,,,,
,,?,0.001375,0,,,,,,stimuli/images/PICTURE_356.png,CANDY,5dd0f134670d1a1a46632755,26/07/1947,2020-07-09_18h04.09.381,proactive,2020.1.2,Linux aarch64,60,5f073de81c76c3308c0e4fb3,5f0794309a486b18178ddc2b,2,,,,,,pawn,,,,,,,,,,,5,2,0,9,9,46,1,,,,,,,,,,,,,,,,,,,,,,,,,,,,,,,,,,,,,,,,,,,,,,,,,,,,,,,,,,,,,,,,,,,,,,
,,?,0.00141,0,,,,,,stimuli/images/PICTURE_2.png,JUNGLE,5dd0f134670d1a1a46632755,26/07/1947,2020-07-09_18h04.09.381,proactive,2020.1.2,Linux aarch64,60,5f073de81c76c3308c0e4fb3,5f0794309a486b18178ddc2b,2,,,,,,tyre,,,,,,,,,,,1,2,0,10,10,1,1,,,,,,,,,,,,,,,,,,,,,,,,,,,,,,,,,,,,,,,,,,,,,,,,,,,,,,,,,,,,,,,,,,,,,,
,,?,0.001385,0,,,,,,stimuli/images/PICTURE_141.png,CLIENT,5dd0f134670d1a1a46632755,26/07/1947,2020-07-09_18h04.09.381,proactive,2020.1.2,Linux aarch64,60,5f073de81c76c3308c0e4fb3,5f0794309a486b18178ddc2b,2,,,,,,sunflower,,,,,,,,,,,4,2,0,11,11,30,1,,,,,,,,,,,,,,,,,,,,,,,,,,,,,,,,,,,,,,,,,,,,,,,,,,,,,,,,,,,,,,,,,,,,,,
,,BATH,8.9787,1,,,,,,stimuli/images/PICTURE_509.png,BATH,5dd0f134670d1a1a46632755,26/07/1947,2020-07-09_18h04.09.381,proactive,2020.1.2,Linux aarch64,60,5f073de81c76c3308c0e4fb3,5f0794309a486b18178ddc2b,2,,,,,,telephone,,,,,,,,,,,2,2,0,12,12,15,1,,,,,,,,,,,,,,,,,,,,,,,,,,,,,,,,,,,,,,,,,,,,,,,,,,,,,,,,,,,,,,,,,,,,,,
,,?,0.00322,0,,,,,,stimuli/images/PICTURE_57.png,NATION,5dd0f134670d1a1a46632755,26/07/1947,2020-07-09_18h04.09.381,proactive,2020.1.2,Linux aarch64,60,5f073de81c76c3308c0e4fb3,5f0794309a486b18178ddc2b,2,,,,,,stamp,,,,,,,,,,,3,2,0,13,13,21,1,,,,,,,,,,,,,,,,,,,,,,,,,,,,,,,,,,,,,,,,,,,,,,,,,,,,,,,,,,,,,,,,,,,,,,
,,?,5.28932,0,,,,,,stimuli/images/PICTURE_255.png,PENNY,5dd0f134670d1a1a46632755,26/07/1947,2020-07-09_18h04.09.381,proactive,2020.1.2,Linux aarch64,60,5f073de81c76c3308c0e4fb3,5f0794309a486b18178ddc2b,2,,,,,,shovel,,,,,,,,,,,2,2,0,14,14,19,1,,,,,,,,,,,,,,,,,,,,,,,,,,,,,,,,,,,,,,,,,,,,,,,,,,,,,,,,,,,,,,,,,,,,,,
,,?,0.00124,0,,,,,,stimuli/images/PICTURE_57.png,CANDY,5dd0f134670d1a1a46632755,26/07/1947,2020-07-09_18h04.09.381,proactive,2020.1.2,Linux aarch64,60,5f073de81c76c3308c0e4fb3,5f0794309a486b18178ddc2b,2,,,,,,stamp,,,,,,,,,,,6,2,0,15,15,52,1,,,,,,,,,,,,,,,,,,,,,,,,,,,,,,,,,,,,,,,,,,,,,,,,,,,,,,,,,,,,,,,,,,,,,,
,,?,9.3208,0,,,,,,stimuli/images/PICTURE_327.png,LEADER,5dd0f134670d1a1a46632755,26/07/1947,2020-07-09_18h04.09.381,proactive,2020.1.2,Linux aarch64,60,5f073de81c76c3308c0e4fb3,5f0794309a486b18178ddc2b,2,,,,,,helmet,,,,,,,,,,,2,2,0,16,16,17,1,,,,,,,,,,,,,,,,,,,,,,,,,,,,,,,,,,,,,,,,,,,,,,,,,,,,,,,,,,,,,,,,,,,,,,
,,PLENTY,7.807535,1,,,,,,stimuli/images/PICTURE_564.png,PLENTY,5dd0f134670d1a1a46632755,26/07/1947,2020-07-09_18h04.09.381,proactive,2020.1.2,Linux aarch64,60,5f073de81c76c3308c0e4fb3,5f0794309a486b18178ddc2b,2,,,,,,spoon,,,,,,,,,,,2,2,0,17,17,11,1,,,,,,,,,,,,,,,,,,,,,,,,,,,,,,,,,,,,,,,,,,,,,,,,,,,,,,,,,,,,,,,,,,,,,,
,,?,0.003145,0,,,,,,stimuli/images/PICTURE_311.png,TOILET,5dd0f134670d1a1a46632755,26/07/1947,2020-07-09_18h04.09.381,proactive,2020.1.2,Linux aarch64,60,5f073de81c76c3308c0e4fb3,5f0794309a486b18178ddc2b,2,,,,,,razor,,,,,,,,,,,6,2,0,18,18,54,1,,,,,,,,,,,,,,,,,,,,,,,,,,,,,,,,,,,,,,,,,,,,,,,,,,,,,,,,,,,,,,,,,,,,,,
,,?,0.003065,0,,,,,,stimuli/images/PICTURE_405.png,HOUSE,5dd0f134670d1a1a46632755,26/07/1947,2020-07-09_18h04.09.381,proactive,2020.1.2,Linux aarch64,60,5f073de81c76c3308c0e4fb3,5f0794309a486b18178ddc2b,2,,,,,,anchor,,,,,,,,,,,1,2,0,19,19,2,1,,,,,,,,,,,,,,,,,,,,,,,,,,,,,,,,,,,,,,,,,,,,,,,,,,,,,,,,,,,,,,,,,,,,,,
,,?,0.00351,0,,,,,,stimuli/images/PICTURE_95.png,NIGHT,5dd0f134670d1a1a46632755,26/07/1947,2020-07-09_18h04.09.381,proactive,2020.1.2,Linux aarch64,60,5f073de81c76c3308c0e4fb3,5f0794309a486b18178ddc2b,2,,,,,,suitcase,,,,,,,,,,,4,2,0,20,20,37,1,,,,,,,,,,,,,,,,,,,,,,,,,,,,,,,,,,,,,,,,,,,,,,,,,,,,,,,,,,,,,,,,,,,,,,
,,?,0.004715,0,,,,,,stimuli/images/PICTURE_405.png,JUNGLE,5dd0f134670d1a1a46632755,26/07/1947,2020-07-09_18h04.09.381,proactive,2020.1.2,Linux aarch64,60,5f073de81c76c3308c0e4fb3,5f0794309a486b18178ddc2b,2,,,,,,anchor,,,,,,,,,,,6,2,0,21,21,58,1,,,,,,,,,,,,,,,,,,,,,,,,,,,,,,,,,,,,,,,,,,,,,,,,,,,,,,,,,,,,,,,,,,,,,,
,,?,0.00139,0,,,,,,stimuli/images/PICTURE_509.png,MILLER,5dd0f134670d1a1a46632755,26/07/1947,2020-07-09_18h04.09.381,proactive,2020.1.2,Linux aarch64,60,5f073de81c76c3308c0e4fb3,5f0794309a486b18178ddc2b,2,,,,,,telephone,,,,,,,,,,,5,2,0,22,22,49,1,,,,,,,,,,,,,,,,,,,,,,,,,,,,,,,,,,,,,,,,,,,,,,,,,,,,,,,,,,,,,,,,,,,,,,
,,?,0.001345,0,,,,,,stimuli/images/PICTURE_452.png,COPS,5dd0f134670d1a1a46632755,26/07/1947,2020-07-09_18h04.09.381,proactive,2020.1.2,Linux aarch64,60,5f073de81c76c3308c0e4fb3,5f0794309a486b18178ddc2b,2,,,,,,watch,,,,,,,,,,,1,2,0,23,23,0,1,,,,,,,,,,,,,,,,,,,,,,,,,,,,,,,,,,,,,,,,,,,,,,,,,,,,,,,,,,,,,,,,,,,,,,
,,?,0.00131,0,,,,,,stimuli/images/PICTURE_453.png,FAMILY,5dd0f134670d1a1a46632755,26/07/1947,2020-07-09_18h04.09.381,proactive,2020.1.2,Linux aarch64,60,5f073de81c76c3308c0e4fb3,5f0794309a486b18178ddc2b,2,,,,,,scissors,,,,,,,,,,,5,2,0,24,24,48,1,,,,,,,,,,,,,,,,,,,,,,,,,,,,,,,,,,,,,,,,,,,,,,,,,,,,,,,,,,,,,,,,,,,,,,
,,?,0.00173,0,,,,,,stimuli/images/PICTURE_2.png,YARD,5dd0f134670d1a1a46632755,26/07/1947,2020-07-09_18h04.09.381,proactive,2020.1.2,Linux aarch64,60,5f073de81c76c3308c0e4fb3,5f0794309a486b18178ddc2b,2,,,,,,tyre,,,,,,,,,,,6,2,0,25,25,55,1,,,,,,,,,,,,,,,,,,,,,,,,,,,,,,,,,,,,,,,,,,,,,,,,,,,,,,,,,,,,,,,,,,,,,,
,,?,0.00127,0,,,,,,stimuli/images/PICTURE_654.png,YEAR,5dd0f134670d1a1a46632755,26/07/1947,2020-07-09_18h04.09.381,proactive,2020.1.2,Linux aarch64,60,5f073de81c76c3308c0e4fb3,5f0794309a486b18178ddc2b,2,,,,,,pencil,,,,,,,,,,,5,2,0,26,26,41,1,,,,,,,,,,,,,,,,,,,,,,,,,,,,,,,,,,,,,,,,,,,,,,,,,,,,,,,,,,,,,,,,,,,,,,
,,PHOTO,6.61175,1,,,,,,stimuli/images/PICTURE_677.png,PHOTO,5dd0f134670d1a1a46632755,26/07/1947,2020-07-09_18h04.09.381,proactive,2020.1.2,Linux aarch64,60,5f073de81c76c3308c0e4fb3,5f0794309a486b18178ddc2b,2,,,,,,map,,,,,,,,,,,2,2,0,27,27,14,1,,,,,,,,,,,,,,,,,,,,,,,,,,,,,,,,,,,,,,,,,,,,,,,,,,,,,,,,,,,,,,,,,,,,,,
,,?,0.003155,0,,,,,,stimuli/images/PICTURE_487.png,ROOF,5dd0f134670d1a1a46632755,26/07/1947,2020-07-09_18h04.09.381,proactive,2020.1.2,Linux aarch64,60,5f073de81c76c3308c0e4fb3,5f0794309a486b18178ddc2b,2,,,,,,basket,,,,,,,,,,,6,2,0,28,28,50,1,,,,,,,,,,,,,,,,,,,,,,,,,,,,,,,,,,,,,,,,,,,,,,,,,,,,,,,,,,,,,,,,,,,,,,
,,?,0.003755,0,,,,,,stimuli/images/PICTURE_509.png,SHOTS,5dd0f134670d1a1a46632755,26/07/1947,2020-07-09_18h04.09.381,proactive,2020.1.2,Linux aarch64,60,5f073de81c76c3308c0e4fb3,5f0794309a486b18178ddc2b,2,,,,,,telephone,,,,,,,,,,,1,2,0,29,29,7,1,,,,,,,,,,,,,,,,,,,,,,,,,,,,,,,,,,,,,,,,,,,,,,,,,,,,,,,,,,,,,,,,,,,,,,
,,?,0.003885,0,,,,,,stimuli/images/PICTURE_123.png,SALE,5dd0f134670d1a1a46632755,26/07/1947,2020-07-09_18h04.09.381,proactive,2020.1.2,Linux aarch64,60,5f073de81c76c3308c0e4fb3,5f0794309a486b18178ddc2b,2,,,,,,dart,,,,,,,,,,,1,2,0,30,30,8,1,,,,,,,,,,,,,,,,,,,,,,,,,,,,,,,,,,,,,,,,,,,,,,,,,,,,,,,,,,,,,,,,,,,,,,
,,?,0.00521,0,,,,,,stimuli/images/PICTURE_177.png,HOUSE,5dd0f134670d1a1a46632755,26/07/1947,2020-07-09_18h04.09.381,proactive,2020.1.2,Linux aarch64,60,5f073de81c76c3308c0e4fb3,5f0794309a486b18178ddc2b,2,,,,,,mushroom,,,,,,,,,,,3,2,0,31,31,25,1,,,,,,,,,,,,,,,,,,,,,,,,,,,,,,,,,,,,,,,,,,,,,,,,,,,,,,,,,,,,,,,,,,,,,,
,,?,0.001535,0,,,,,,stimuli/images/PICTURE_215.png,LEADER,5dd0f134670d1a1a46632755,26/07/1947,2020-07-09_18h04.09.381,proactive,2020.1.2,Linux aarch64,60,5f073de81c76c3308c0e4fb3,5f0794309a486b18178ddc2b,2,,,,,,boot,,,,,,,,,,,5,2,0,32,32,43,1,,,,,,,,,,,,,,,,,,,,,,,,,,,,,,,,,,,,,,,,,,,,,,,,,,,,,,,,,,,,,,,,,,,,,,
,,?,0.0014,0,,,,,,stimuli/images/PICTURE_147.png,LEADER,5dd0f134670d1a1a46632755,26/07/1947,2020-07-09_18h04.09.381,proactive,2020.1.2,Linux aarch64,60,5f073de81c76c3308c0e4fb3,5f0794309a486b18178ddc2b,2,,,,,,hanger,,,,,,,,,,,4,2,0,33,33,33,1,,,,,,,,,,,,,,,,,,,,,,,,,,,,,,,,,,,,,,,,,,,,,,,,,,,,,,,,,,,,,,,,,,,,,,
,,?,0.00129,0,,,,,,stimuli/images/PICTURE_215.png,BOYS,5dd0f134670d1a1a46632755,26/07/1947,2020-07-09_18h04.09.381,proactive,2020.1.2,Linux aarch64,60,5f073de81c76c3308c0e4fb3,5f0794309a486b18178ddc2b,2,,,,,,boot,,,,,,,,,,,3,2,0,34,34,24,1,,,,,,,,,,,,,,,,,,,,,,,,,,,,,,,,,,,,,,,,,,,,,,,,,,,,,,,,,,,,,,,,,,,,,,
,,?,0.00144,0,,,,,,stimuli/images/PICTURE_470.png,MOMENT,5dd0f134670d1a1a46632755,26/07/1947,2020-07-09_18h04.09.381,proactive,2020.1.2,Linux aarch64,60,5f073de81c76c3308c0e4fb3,5f0794309a486b18178ddc2b,2,,,,,,motorbike,,,,,,,,,,,5,2,0,35,35,40,1,,,,,,,,,,,,,,,,,,,,,,,,,,,,,,,,,,,,,,,,,,,,,,,,,,,,,,,,,,,,,,,,,,,,,,
,,?,0.00134,0,,,,,,stimuli/images/PICTURE_348.png,TOILET,5dd0f134670d1a1a46632755,26/07/1947,2020-07-09_18h04.09.381,proactive,2020.1.2,Linux aarch64,60,5f073de81c76c3308c0e4fb3,5f0794309a486b18178ddc2b,2,,,,,,pepper,,,,,,,,,,,1,2,0,36,36,4,1,,,,,,,,,,,,,,,,,,,,,,,,,,,,,,,,,,,,,,,,,,,,,,,,,,,,,,,,,,,,,,,,,,,,,,
,,?,0.0013,0,,,,,,stimuli/images/PICTURE_208.png,SPIRIT,5dd0f134670d1a1a46632755,26/07/1947,2020-07-09_18h04.09.381,proactive,2020.1.2,Linux aarch64,60,5f073de81c76c3308c0e4fb3,5f0794309a486b18178ddc2b,2,,,,,,microphone,,,,,,,,,,,3,2,0,37,37,28,1,,,,,,,,,,,,,,,,,,,,,,,,,,,,,,,,,,,,,,,,,,,,,,,,,,,,,,,,,,,,,,,,,,,,,,
,,CASINO,10.374825,1,,,,,,stimuli/images/PICTURE_57.png,CASINO,5dd0f134670d1a1a46632755,26/07/1947,2020-07-09_18h04.09.381,proactive,2020.1.2,Linux aarch64,60,5f073de81c76c3308c0e4fb3,5f0794309a486b18178ddc2b,2,,,,,,stamp,,,,,,,,,,,2,2,0,38,38,12,1,,,,,,,,,,,,,,,,,,,,,,,,,,,,,,,,,,,,,,,,,,,,,,,,,,,,,,,,,,,,,,,,,,,,,,
,,?,0.002955,0,,,,,,stimuli/images/PICTURE_93.png,GIRL,5dd0f134670d1a1a46632755,26/07/1947,2020-07-09_18h04.09.381,proactive,2020.1.2,Linux aarch64,60,5f073de81c76c3308c0e4fb3,5f0794309a486b18178ddc2b,2,,,,,,skateboard,,,,,,,,,,,4,2,0,39,39,31,1,,,,,,,,,,,,,,,,,,,,,,,,,,,,,,,,,,,,,,,,,,,,,,,,,,,,,,,,,,,,,,,,,,,,,,
,,?,0.003385,0,,,,,,stimuli/images/PICTURE_297.png,BODY,5dd0f134670d1a1a46632755,26/07/1947,2020-07-09_18h04.09.381,proactive,2020.1.2,Linux aarch64,60,5f073de81c76c3308c0e4fb3,5f0794309a486b18178ddc2b,2,,,,,,aeroplane,,,,,,,,,,,6,2,0,40,40,51,1,,,,,,,,,,,,,,,,,,,,,,,,,,,,,,,,,,,,,,,,,,,,,,,,,,,,,,,,,,,,,,,,,,,,,,
,,?,0.00271,0,,,,,,stimuli/images/PICTURE_18.png,RIVER,5dd0f134670d1a1a46632755,26/07/1947,2020-07-09_18h04.09.381,proactive,2020.1.2,Linux aarch64,60,5f073de81c76c3308c0e4fb3,5f0794309a486b18178ddc2b,2,,,,,,planet,,,,,,,,,,,3,2,0,41,41,22,1,,,,,,,,,,,,,,,,,,,,,,,,,,,,,,,,,,,,,,,,,,,,,,,,,,,,,,,,,,,,,,,,,,,,,,
,,?,0.00275,0,,,,,,stimuli/images/PICTURE_692.png,DUDE,5dd0f134670d1a1a46632755,26/07/1947,2020-07-09_18h04.09.381,proactive,2020.1.2,Linux aarch64,60,5f073de81c76c3308c0e4fb3,5f0794309a486b18178ddc2b,2,,,,,,cherry,,,,,,,,,,,5,2,0,42,42,47,1,,,,,,,,,,,,,,,,,,,,,,,,,,,,,,,,,,,,,,,,,,,,,,,,,,,,,,,,,,,,,,,,,,,,,,
,,?,0.004355,0,,,,,,stimuli/images/PICTURE_32.png,LETTER,5dd0f134670d1a1a46632755,26/07/1947,2020-07-09_18h04.09.381,proactive,2020.1.2,Linux aarch64,60,5f073de81c76c3308c0e4fb3,5f0794309a486b18178ddc2b,2,,,,,,crown,,,,,,,,,,,6,2,0,43,43,56,1,,,,,,,,,,,,,,,,,,,,,,,,,,,,,,,,,,,,,,,,,,,,,,,,,,,,,,,,,,,,,,,,,,,,,,
,,?,0.001405,0,,,,,,stimuli/images/PICTURE_688.png,CLOCK,5dd0f134670d1a1a46632755,26/07/1947,2020-07-09_18h04.09.381,proactive,2020.1.2,Linux aarch64,60,5f073de81c76c3308c0e4fb3,5f0794309a486b18178ddc2b,2,,,,,,runner,,,,,,,,,,,5,2,0,44,44,42,1,,,,,,,,,,,,,,,,,,,,,,,,,,,,,,,,,,,,,,,,,,,,,,,,,,,,,,,,,,,,,,,,,,,,,,
,,?,0.001675,0,,,,,,stimuli/images/PICTURE_33.png,COPS,5dd0f134670d1a1a46632755,26/07/1947,2020-07-09_18h04.09.381,proactive,2020.1.2,Linux aarch64,60,5f073de81c76c3308c0e4fb3,5f0794309a486b18178ddc2b,2,,,,,,frame,,,,,,,,,,,3,2,0,45,45,29,1,,,,,,,,,,,,,,,,,,,,,,,,,,,,,,,,,,,,,,,,,,,,,,,,,,,,,,,,,,,,,,,,,,,,,,
,,?,0.001865,0,,,,,,stimuli/images/PICTURE_285.png,WRITER,5dd0f134670d1a1a46632755,26/07/1947,2020-07-09_18h04.09.381,proactive,2020.1.2,Linux aarch64,60,5f073de81c76c3308c0e4fb3,5f0794309a486b18178ddc2b,2,,,,,,carrot,,,,,,,,,,,1,2,0,46,46,6,1,,,,,,,,,,,,,,,,,,,,,,,,,,,,,,,,,,,,,,,,,,,,,,,,,,,,,,,,,,,,,,,,,,,,,,
,,?,3.116775,0,,,,,,stimuli/images/PICTURE_296.png,CLOCK,5dd0f134670d1a1a46632755,26/07/1947,2020-07-09_18h04.09.381,proactive,2020.1.2,Linux aarch64,60,5f073de81c76c3308c0e4fb3,5f0794309a486b18178ddc2b,2,,,,,,bolt,,,,,,,,,,,2,2,0,47,47,18,1,,,,,,,,,,,,,,,,,,,,,,,,,,,,,,,,,,,,,,,,,,,,,,,,,,,,,,,,,,,,,,,,,,,,,,
,,?,0.003145,0,,,,,,stimuli/images/PICTURE_285.png,PRINCE,5dd0f134670d1a1a46632755,26/07/1947,2020-07-09_18h04.09.381,proactive,2020.1.2,Linux aarch64,60,5f073de81c76c3308c0e4fb3,5f0794309a486b18178ddc2b,2,,,,,,carrot,,,,,,,,,,,3,2,0,48,48,20,1,,,,,,,,,,,,,,,,,,,,,,,,,,,,,,,,,,,,,,,,,,,,,,,,,,,,,,,,,,,,,,,,,,,,,,
,,?,0.003665,0,,,,,,stimuli/images/PICTURE_348.png,DUDE,5dd0f134670d1a1a46632755,26/07/1947,2020-07-09_18h04.09.381,proactive,2020.1.2,Linux aarch64,60,5f073de81c76c3308c0e4fb3,5f0794309a486b18178ddc2b,2,,,,,,pepper,,,,,,,,,,,6,2,0,49,49,59,1,,,,,,,,,,,,,,,,,,,,,,,,,,,,,,,,,,,,,,,,,,,,,,,,,,,,,,,,,,,,,,,,,,,,,,
,,?,0.002675,0,,,,,,stimuli/images/PICTURE_403.png,FAMILY,5dd0f134670d1a1a46632755,26/07/1947,2020-07-09_18h04.09.381,proactive,2020.1.2,Linux aarch64,60,5f073de81c76c3308c0e4fb3,5f0794309a486b18178ddc2b,2,,,,,,cathedral,,,,,,,,,,,1,2,0,50,50,9,1,,,,,,,,,,,,,,,,,,,,,,,,,,,,,,,,,,,,,,,,,,,,,,,,,,,,,,,,,,,,,,,,,,,,,,
,,?,5.81162,0,,,,,,stimuli/images/PICTURE_160.png,HOTEL,5dd0f134670d1a1a46632755,26/07/1947,2020-07-09_18h04.09.381,proactive,2020.1.2,Linux aarch64,60,5f073de81c76c3308c0e4fb3,5f0794309a486b18178ddc2b,2,,,,,,wheelbarrow,,,,,,,,,,,2,2,0,51,51,16,1,,,,,,,,,,,,,,,,,,,,,,,,,,,,,,,,,,,,,,,,,,,,,,,,,,,,,,,,,,,,,,,,,,,,,,
,,?,0.003335,0,,,,,,stimuli/images/PICTURE_2.png,AREA,5dd0f134670d1a1a46632755,26/07/1947,2020-07-09_18h04.09.381,proactive,2020.1.2,Linux aarch64,60,5f073de81c76c3308c0e4fb3,5f0794309a486b18178ddc2b,2,,,,,,tyre,,,,,,,,,,,4,2,0,52,52,32,1,,,,,,,,,,,,,,,,,,,,,,,,,,,,,,,,,,,,,,,,,,,,,,,,,,,,,,,,,,,,,,,,,,,,,,
,,CUPS,11.895765,0,,,,,,stimuli/images/PICTURE_654.png,COPS,5dd0f134670d1a1a46632755,26/07/1947,2020-07-09_18h04.09.381,proactive,2020.1.2,Linux aarch64,60,5f073de81c76c3308c0e4fb3,5f0794309a486b18178ddc2b,2,,,,,,pencil,,,,,,,,,,,2,2,0,53,53,10,1,,,,,,,,,,,,,,,,,,,,,,,,,,,,,,,,,,,,,,,,,,,,,,,,,,,,,,,,,,,,,,,,,,,,,,
,,?,0.00315,0,,,,,,stimuli/images/PICTURE_677.png,FAMILY,5dd0f134670d1a1a46632755,26/07/1947,2020-07-09_18h04.09.381,proactive,2020.1.2,Linux aarch64,60,5f073de81c76c3308c0e4fb3,5f0794309a486b18178ddc2b,2,,,,,,map,,,,,,,,,,,6,2,0,54,54,53,1,,,,,,,,,,,,,,,,,,,,,,,,,,,,,,,,,,,,,,,,,,,,,,,,,,,,,,,,,,,,,,,,,,,,,,
,,?,0.003765,0,,,,,,stimuli/images/PICTURE_708.png,VALLEY,5dd0f134670d1a1a46632755,26/07/1947,2020-07-09_18h04.09.381,proactive,2020.1.2,Linux aarch64,60,5f073de81c76c3308c0e4fb3,5f0794309a486b18178ddc2b,2,,,,,,monkey,,,,,,,,,,,5,2,0,55,55,45,1,,,,,,,,,,,,,,,,,,,,,,,,,,,,,,,,,,,,,,,,,,,,,,,,,,,,,,,,,,,,,,,,,,,,,,
,,?,0.003525,0,,,,,,stimuli/images/PICTURE_311.png,FLESH,5dd0f134670d1a1a46632755,26/07/1947,2020-07-09_18h04.09.381,proactive,2020.1.2,Linux aarch64,60,5f073de81c76c3308c0e4fb3,5f0794309a486b18178ddc2b,2,,,,,,razor,,,,,,,,,,,1,2,0,56,56,3,1,,,,,,,,,,,,,,,,,,,,,,,,,,,,,,,,,,,,,,,,,,,,,,,,,,,,,,,,,,,,,,,,,,,,,,
,,?,0.00307,0,,,,,,stimuli/images/PICTURE_215.png,FOOD,5dd0f134670d1a1a46632755,26/07/1947,2020-07-09_18h04.09.381,proactive,2020.1.2,Linux aarch64,60,5f073de81c76c3308c0e4fb3,5f0794309a486b18178ddc2b,2,,,,,,boot,,,,,,,,,,,1,2,0,57,57,5,1,,,,,,,,,,,,,,,,,,,,,,,,,,,,,,,,,,,,,,,,,,,,,,,,,,,,,,,,,,,,,,,,,,,,,,
,,?,0.001265,0,,,,,,stimuli/images/PICTURE_470.png,BEAUTY,5dd0f134670d1a1a46632755,26/07/1947,2020-07-09_18h04.09.381,proactive,2020.1.2,Linux aarch64,60,5f073de81c76c3308c0e4fb3,5f0794309a486b18178ddc2b,2,,,,,,motorbike,,,,,,,,,,,3,2,0,58,58,26,1,,,,,,,,,,,,,,,,,,,,,,,,,,,,,,,,,,,,,,,,,,,,,,,,,,,,,,,,,,,,,,,,,,,,,,
,,?,0.00146,0,,,,,,stimuli/images/PICTURE_667.png,GLASS,5dd0f134670d1a1a46632755,26/07/1947,2020-07-09_18h04.09.381,proactive,2020.1.2,Linux aarch64,60,5f073de81c76c3308c0e4fb3,5f0794309a486b18178ddc2b,2,,,,,,daisy,,,,,,,,,,,3,2,0,59,59,27,1,,,,,,,,,,,,,,,,,,,,,,,,,,,,,,,,,,,,,,,,,,,,,,,,,,,,,,,,,,,,,,,,,,,,,,
,,,,,,,,,,,,5dd0f134670d1a1a46632755,26/07/1947,2020-07-09_18h04.09.381,proactive,2020.1.2,Linux aarch64,60,5f073de81c76c3308c0e4fb3,5f0794309a486b18178ddc2b,2,,,,,,,,,,,,,,,,,,,,,,,,0,1,1,2,1,stimuli/learn-block3.csv,,,,,,,,,,,,,,,,,,,,,,,,,,,,,,,,,,,,,,,,,,,,,,,,,,,,,,,,,,,,,,,,
,,,,,,,,,,stimuli/images/PICTURE_449.png,THING,5dd0f134670d1a1a46632755,26/07/1947,2020-07-09_18h04.09.381,proactive,2020.1.2,Linux aarch64,60,5f073de81c76c3308c0e4fb3,5f0794309a486b18178ddc2b,2,,,,,,bench,,,,,,0,0,0,59,1,6,0,,,,,,,,,,,,,,,,,,,,,,,,,,,,,,,,,,,,,,,,,,,,,,,,,,,,,,,,,,,,,,,,,,,,,,,,,,,
,,,,,,,,,,stimuli/images/PICTURE_453.png,DUDE,5dd0f134670d1a1a46632755,26/07/1947,2020-07-09_18h04.09.381,proactive,2020.1.2,Linux aarch64,60,5f073de81c76c3308c0e4fb3,5f0794309a486b18178ddc2b,2,,,,,,scissors,,,,,,0,1,1,27,1,3,0,,,,,,,,,,,,,,,,,,,,,,,,,,,,,,,,,,,,,,,,,,,,,,,,,,,,,,,,,,,,,,,,,,,,,,,,,,,
,,,,,,,,,,stimuli/images/PICTURE_32.png,JUNGLE,5dd0f134670d1a1a46632755,26/07/1947,2020-07-09_18h04.09.381,proactive,2020.1.2,Linux aarch64,60,5f073de81c76c3308c0e4fb3,5f0794309a486b18178ddc2b,2,,,,,,crown,,,,,,0,2,2,45,1,5,0,,,,,,,,,,,,,,,,,,,,,,,,,,,,,,,,,,,,,,,,,,,,,,,,,,,,,,,,,,,,,,,,,,,,,,,,,,,
,,,,,,,,,,stimuli/images/PICTURE_654.png,VALLEY,5dd0f134670d1a1a46632755,26/07/1947,2020-07-09_18h04.09.381,proactive,2020.1.2,Linux aarch64,60,5f073de81c76c3308c0e4fb3,5f0794309a486b18178ddc2b,2,,,,,,pencil,,,,,,0,3,3,1,1,1,0,,,,,,,,,,,,,,,,,,,,,,,,,,,,,,,,,,,,,,,,,,,,,,,,,,,,,,,,,,,,,,,,,,,,,,,,,,,
,,,,,,,,,,stimuli/images/PICTURE_248.png,DOZEN,5dd0f134670d1a1a46632755,26/07/1947,2020-07-09_18h04.09.381,proactive,2020.1.2,Linux aarch64,60,5f073de81c76c3308c0e4fb3,5f0794309a486b18178ddc2b,2,,,,,,cart,,,,,,0,4,4,39,1,4,0,,,,,,,,,,,,,,,,,,,,,,,,,,,,,,,,,,,,,,,,,,,,,,,,,,,,,,,,,,,,,,,,,,,,,,,,,,,
,,,,,,,,,,stimuli/images/PICTURE_255.png,AREA,5dd0f134670d1a1a46632755,26/07/1947,2020-07-09_18h04.09.381,proactive,2020.1.2,Linux aarch64,60,5f073de81c76c3308c0e4fb3,5f0794309a486b18178ddc2b,2,,,,,,shovel,,,,,,0,5,5,22,1,3,0,,,,,,,,,,,,,,,,,,,,,,,,,,,,,,,,,,,,,,,,,,,,,,,,,,,,,,,,,,,,,,,,,,,,,,,,,,,
,,,,,,,,,,stimuli/images/PICTURE_708.png,PENNY,5dd0f134670d1a1a46632755,26/07/1947,2020-07-09_18h04.09.381,proactive,2020.1.2,Linux aarch64,60,5f073de81c76c3308c0e4fb3,5f0794309a486b18178ddc2b,2,,,,,,monkey,,,,,,0,6,6,31,1,4,0,,,,,,,,,,,,,,,,,,,,,,,,,,,,,,,,,,,,,,,,,,,,,,,,,,,,,,,,,,,,,,,,,,,,,,,,,,,
,,,,,,,,,,stimuli/images/PICTURE_688.png,CASINO,5dd0f134670d1a1a46632755,26/07/1947,2020-07-09_18h04.09.381,proactive,2020.1.2,Linux aarch64,60,5f073de81c76c3308c0e4fb3,5f0794309a486b18178ddc2b,2,,,,,,runner,,,,,,0,7,7,2,1,1,0,,,,,,,,,,,,,,,,,,,,,,,,,,,,,,,,,,,,,,,,,,,,,,,,,,,,,,,,,,,,,,,,,,,,,,,,,,,
,,,,,,,,,,stimuli/images/PICTURE_203.png,ARTIST,5dd0f134670d1a1a46632755,26/07/1947,2020-07-09_18h04.09.381,proactive,2020.1.2,Linux aarch64,60,5f073de81c76c3308c0e4fb3,5f0794309a486b18178ddc2b,2,,,,,,cap,,,,,,0,8,8,26,1,3,0,,,,,,,,,,,,,,,,,,,,,,,,,,,,,,,,,,,,,,,,,,,,,,,,,,,,,,,,,,,,,,,,,,,,,,,,,,,
,,,,,,,,,,stimuli/images/PICTURE_339.png,PLENTY,5dd0f134670d1a1a46632755,26/07/1947,2020-07-09_18h04.09.381,proactive,2020.1.2,Linux aarch64,60,5f073de81c76c3308c0e4fb3,5f0794309a486b18178ddc2b,2,,,,,,backpack,,,,,,0,9,9,0,1,1,0,,,,,,,,,,,,,,,,,,,,,,,,,,,,,,,,,,,,,,,,,,,,,,,,,,,,,,,,,,,,,,,,,,,,,,,,,,,
,,,,,,,,,,stimuli/images/PICTURE_123.png,ADVICE,5dd0f134670d1a1a46632755,26/07/1947,2020-07-09_18h04.09.381,proactive,2020.1.2,Linux aarch64,60,5f073de81c76c3308c0e4fb3,5f0794309a486b18178ddc2b,2,,,,,,dart,,,,,,0,10,10,50,1,6,0,,,,,,,,,,,,,,,,,,,,,,,,,,,,,,,,,,,,,,,,,,,,,,,,,,,,,,,,,,,,,,,,,,,,,,,,,,,
,,,,,,,,,,stimuli/images/PICTURE_688.png,WOMEN,5dd0f134670d1a1a46632755,26/07/1947,2020-07-09_18h04.09.381,proactive,2020.1.2,Linux aarch64,60,5f073de81c76c3308c0e4fb3,5f0794309a486b18178ddc2b,2,,,,,,runner,,,,,,0,11,11,14,1,2,0,,,,,,,,,,,,,,,,,,,,,,,,,,,,,,,,,,,,,,,,,,,,,,,,,,,,,,,,,,,,,,,,,,,,,,,,,,,
,,,,,,,,,,stimuli/images/PICTURE_708.png,YARD,5dd0f134670d1a1a46632755,26/07/1947,2020-07-09_18h04.09.381,proactive,2020.1.2,Linux aarch64,60,5f073de81c76c3308c0e4fb3,5f0794309a486b18178ddc2b,2,,,,,,monkey,,,,,,0,12,12,29,1,3,0,,,,,,,,,,,,,,,,,,,,,,,,,,,,,,,,,,,,,,,,,,,,,,,,,,,,,,,,,,,,,,,,,,,,,,,,,,,
,,,,,,,,,,stimuli/images/PICTURE_85.png,THING,5dd0f134670d1a1a46632755,26/07/1947,2020-07-09_18h04.09.381,proactive,2020.1.2,Linux aarch64,60,5f073de81c76c3308c0e4fb3,5f0794309a486b18178ddc2b,2,,,,,,diamond,,,,,,0,13,13,15,1,2,0,,,,,,,,,,,,,,,,,,,,,,,,,,,,,,,,,,,,,,,,,,,,,,,,,,,,,,,,,,,,,,,,,,,,,,,,,,,
,,,,,,,,,,stimuli/images/PICTURE_285.png,ADVICE,5dd0f134670d1a1a46632755,26/07/1947,2020-07-09_18h04.09.381,proactive,2020.1.2,Linux aarch64,60,5f073de81c76c3308c0e4fb3,5f0794309a486b18178ddc2b,2,,,,,,carrot,,,,,,0,14,14,12,1,2,0,,,,,,,,,,,,,,,,,,,,,,,,,,,,,,,,,,,,,,,,,,,,,,,,,,,,,,,,,,,,,,,,,,,,,,,,,,,
,,,,,,,,,,stimuli/images/PICTURE_470.png,CASINO,5dd0f134670d1a1a46632755,26/07/1947,2020-07-09_18h04.09.381,proactive,2020.1.2,Linux aarch64,60,5f073de81c76c3308c0e4fb3,5f0794309a486b18178ddc2b,2,,,,,,motorbike,,,,,,0,15,15,36,1,4,0,,,,,,,,,,,,,,,,,,,,,,,,,,,,,,,,,,,,,,,,,,,,,,,,,,,,,,,,,,,,,,,,,,,,,,,,,,,
,,,,,,,,,,stimuli/images/PICTURE_208.png,THING,5dd0f134670d1a1a46632755,26/07/1947,2020-07-09_18h04.09.381,proactive,2020.1.2,Linux aarch64,60,5f073de81c76c3308c0e4fb3,5f0794309a486b18178ddc2b,2,,,,,,microphone,,,,,,0,16,16,47,1,5,0,,,,,,,,,,,,,,,,,,,,,,,,,,,,,,,,,,,,,,,,,,,,,,,,,,,,,,,,,,,,,,,,,,,,,,,,,,,
,,,,,,,,,,stimuli/images/PICTURE_147.png,MOMENT,5dd0f134670d1a1a46632755,26/07/1947,2020-07-09_18h04.09.381,proactive,2020.1.2,Linux aarch64,60,5f073de81c76c3308c0e4fb3,5f0794309a486b18178ddc2b,2,,,,,,hanger,,,,,,0,17,17,51,1,6,0,,,,,,,,,,,,,,,,,,,,,,,,,,,,,,,,,,,,,,,,,,,,,,,,,,,,,,,,,,,,,,,,,,,,,,,,,,,
,,,,,,,,,,stimuli/images/PICTURE_208.png,MONTH,5dd0f134670d1a1a46632755,26/07/1947,2020-07-09_18h04.09.381,proactive,2020.1.2,Linux aarch64,60,5f073de81c76c3308c0e4fb3,5f0794309a486b18178ddc2b,2,,,,,,microphone,,,,,,0,18,18,53,1,6,0,,,,,,,,,,,,,,,,,,,,,,,,,,,,,,,,,,,,,,,,,,,,,,,,,,,,,,,,,,,,,,,,,,,,,,,,,,,
,,,,,,,,,,stimuli/images/PICTURE_314.png,GODS,5dd0f134670d1a1a46632755,26/07/1947,2020-07-09_18h04.09.381,proactive,2020.1.2,Linux aarch64,60,5f073de81c76c3308c0e4fb3,5f0794309a486b18178ddc2b,2,,,,,,perfume,,,,,,0,19,19,11,1,2,0,,,,,,,,,,,,,,,,,,,,,,,,,,,,,,,,,,,,,,,,,,,,,,,,,,,,,,,,,,,,,,,,,,,,,,,,,,,
,,,,,,,,,,stimuli/images/PICTURE_469.png,ARTIST,5dd0f134670d1a1a46632755,26/07/1947,2020-07-09_18h04.09.381,proactive,2020.1.2,Linux aarch64,60,5f073de81c76c3308c0e4fb3,5f0794309a486b18178ddc2b,2,,,,,,stool,,,,,,0,20,20,6,1,1,0,,,,,,,,,,,,,,,,,,,,,,,,,,,,,,,,,,,,,,,,,,,,,,,,,,,,,,,,,,,,,,,,,,,,,,,,,,,
,,,,,,,,,,stimuli/images/PICTURE_95.png,STYLE,5dd0f134670d1a1a46632755,26/07/1947,2020-07-09_18h04.09.381,proactive,2020.1.2,Linux aarch64,60,5f073de81c76c3308c0e4fb3,5f0794309a486b18178ddc2b,2,,,,,,suitcase,,,,,,0,21,21,25,1,3,0,,,,,,,,,,,,,,,,,,,,,,,,,,,,,,,,,,,,,,,,,,,,,,,,,,,,,,,,,,,,,,,,,,,,,,,,,,,
,,,,,,,,,,stimuli/images/PICTURE_311.png,BEAUTY,5dd0f134670d1a1a46632755,26/07/1947,2020-07-09_18h04.09.381,proactive,2020.1.2,Linux aarch64,60,5f073de81c76c3308c0e4fb3,5f0794309a486b18178ddc2b,2,,,,,,razor,,,,,,0,22,22,13,1,2,0,,,,,,,,,,,,,,,,,,,,,,,,,,,,,,,,,,,,,,,,,,,,,,,,,,,,,,,,,,,,,,,,,,,,,,,,,,,
,,,,,,,,,,stimuli/images/PICTURE_208.png,LOTS,5dd0f134670d1a1a46632755,26/07/1947,2020-07-09_18h04.09.381,proactive,2020.1.2,Linux aarch64,60,5f073de81c76c3308c0e4fb3,5f0794309a486b18178ddc2b,2,,,,,,microphone,,,,,,0,23,23,10,1,2,0,,,,,,,,,,,,,,,,,,,,,,,,,,,,,,,,,,,,,,,,,,,,,,,,,,,,,,,,,,,,,,,,,,,,,,,,,,,
,,,,,,,,,,stimuli/images/PICTURE_491.png,ROOF,5dd0f134670d1a1a46632755,26/07/1947,2020-07-09_18h04.09.381,proactive,2020.1.2,Linux aarch64,60,5f073de81c76c3308c0e4fb3,5f0794309a486b18178ddc2b,2,,,,,,rug,,,,,,0,24,24,24,1,3,0,,,,,,,,,,,,,,,,,,,,,,,,,,,,,,,,,,,,,,,,,,,,,,,,,,,,,,,,,,,,,,,,,,,,,,,,,,,
,,,,,,,,,,stimuli/images/PICTURE_160.png,FEET,5dd0f134670d1a1a46632755,26/07/1947,2020-07-09_18h04.09.381,proactive,2020.1.2,Linux aarch64,60,5f073de81c76c3308c0e4fb3,5f0794309a486b18178ddc2b,2,,,,,,wheelbarrow,,,,,,0,25,25,58,1,6,0,,,,,,,,,,,,,,,,,,,,,,,,,,,,,,,,,,,,,,,,,,,,,,,,,,,,,,,,,,,,,,,,,,,,,,,,,,,
,,,,,,,,,,stimuli/images/PICTURE_302.png,FAMILY,5dd0f134670d1a1a46632755,26/07/1947,2020-07-09_18h04.09.381,proactive,2020.1.2,Linux aarch64,60,5f073de81c76c3308c0e4fb3,5f0794309a486b18178ddc2b,2,,,,,,taxi,,,,,,0,26,26,18,1,2,0,,,,,,,,,,,,,,,,,,,,,,,,,,,,,,,,,,,,,,,,,,,,,,,,,,,,,,,,,,,,,,,,,,,,,,,,,,,
,,,,,,,,,,stimuli/images/PICTURE_744.png,SYSTEM,5dd0f134670d1a1a46632755,26/07/1947,2020-07-09_18h04.09.381,proactive,2020.1.2,Linux aarch64,60,5f073de81c76c3308c0e4fb3,5f0794309a486b18178ddc2b,2,,,,,,ring,,,,,,0,27,27,43,1,5,0,,,,,,,,,,,,,,,,,,,,,,,,,,,,,,,,,,,,,,,,,,,,,,,,,,,,,,,,,,,,,,,,,,,,,,,,,,,
,,,,,,,,,,stimuli/images/PICTURE_667.png,PLENTY,5dd0f134670d1a1a46632755,26/07/1947,2020-07-09_18h04.09.381,proactive,2020.1.2,Linux aarch64,60,5f073de81c76c3308c0e4fb3,5f0794309a486b18178ddc2b,2,,,,,,daisy,,,,,,0,28,28,41,1,5,0,,,,,,,,,,,,,,,,,,,,,,,,,,,,,,,,,,,,,,,,,,,,,,,,,,,,,,,,,,,,,,,,,,,,,,,,,,,
,,,,,,,,,,stimuli/images/PICTURE_469.png,LETTER,5dd0f134670d1a1a46632755,26/07/1947,2020-07-09_18h04.09.381,proactive,2020.1.2,Linux aarch64,60,5f073de81c76c3308c0e4fb3,5f0794309a486b18178ddc2b,2,,,,,,stool,,,,,,0,29,29,42,1,5,0,,,,,,,,,,,,,,,,,,,,,,,,,,,,,,,,,,,,,,,,,,,,,,,,,,,,,,,,,,,,,,,,,,,,,,,,,,,
,,,,,,,,,,stimuli/images/PICTURE_744.png,SAKE,5dd0f134670d1a1a46632755,26/07/1947,2020-07-09_18h04.09.381,proactive,2020.1.2,Linux aarch64,60,5f073de81c76c3308c0e4fb3,5f0794309a486b18178ddc2b,2,,,,,,ring,,,,,,0,30,30,17,1,2,0,,,,,,,,,,,,,,,,,,,,,,,,,,,,,,,,,,,,,,,,,,,,,,,,,,,,,,,,,,,,,,,,,,,,,,,,,,,
,,,,,,,,,,stimuli/images/PICTURE_504.png,BODY,5dd0f134670d1a1a46632755,26/07/1947,2020-07-09_18h04.09.381,proactive,2020.1.2,Linux aarch64,60,5f073de81c76c3308c0e4fb3,5f0794309a486b18178ddc2b,2,,,,,,wheel,,,,,,0,31,31,8,1,1,0,,,,,,,,,,,,,,,,,,,,,,,,,,,,,,,,,,,,,,,,,,,,,,,,,,,,,,,,,,,,,,,,,,,,,,,,,,,
,,,,,,,,,,stimuli/images/PICTURE_215.png,PLENTY,5dd0f134670d1a1a46632755,26/07/1947,2020-07-09_18h04.09.381,proactive,2020.1.2,Linux aarch64,60,5f073de81c76c3308c0e4fb3,5f0794309a486b18178ddc2b,2,,,,,,boot,,,,,,0,32,32,37,1,4,0,,,,,,,,,,,,,,,,,,,,,,,,,,,,,,,,,,,,,,,,,,,,,,,,,,,,,,,,,,,,,,,,,,,,,,,,,,,
,,,,,,,,,,stimuli/images/PICTURE_491.png,WRITER,5dd0f134670d1a1a46632755,26/07/1947,2020-07-09_18h04.09.381,proactive,2020.1.2,Linux aarch64,60,5f073de81c76c3308c0e4fb3,5f0794309a486b18178ddc2b,2,,,,,,rug,,,,,,0,33,33,57,1,6,0,,,,,,,,,,,,,,,,,,,,,,,,,,,,,,,,,,,,,,,,,,,,,,,,,,,,,,,,,,,,,,,,,,,,,,,,,,,
,,,,,,,,,,stimuli/images/PICTURE_380.png,DEATH,5dd0f134670d1a1a46632755,26/07/1947,2020-07-09_18h04.09.381,proactive,2020.1.2,Linux aarch64,60,5f073de81c76c3308c0e4fb3,5f0794309a486b18178ddc2b,2,,,,,,gorilla,,,,,,0,34,34,49,1,5,0,,,,,,,,,,,,,,,,,,,,,,,,,,,,,,,,,,,,,,,,,,,,,,,,,,,,,,,,,,,,,,,,,,,,,,,,,,,
,,,,,,,,,,stimuli/images/PICTURE_348.png,SPEECH,5dd0f134670d1a1a46632755,26/07/1947,2020-07-09_18h04.09.381,proactive,2020.1.2,Linux aarch64,60,5f073de81c76c3308c0e4fb3,5f0794309a486b18178ddc2b,2,,,,,,pepper,,,,,,0,35,35,20,1,3,0,,,,,,,,,,,,,,,,,,,,,,,,,,,,,,,,,,,,,,,,,,,,,,,,,,,,,,,,,,,,,,,,,,,,,,,,,,,
,,,,,,,,,,stimuli/images/PICTURE_311.png,FRIEND,5dd0f134670d1a1a46632755,26/07/1947,2020-07-09_18h04.09.381,proactive,2020.1.2,Linux aarch64,60,5f073de81c76c3308c0e4fb3,5f0794309a486b18178ddc2b,2,,,,,,razor,,,,,,0,36,36,34,1,4,0,,,,,,,,,,,,,,,,,,,,,,,,,,,,,,,,,,,,,,,,,,,,,,,,,,,,,,,,,,,,,,,,,,,,,,,,,,,
,,,,,,,,,,stimuli/images/PICTURE_708.png,CLIENT,5dd0f134670d1a1a46632755,26/07/1947,2020-07-09_18h04.09.381,proactive,2020.1.2,Linux aarch64,60,5f073de81c76c3308c0e4fb3,5f0794309a486b18178ddc2b,2,,,,,,monkey,,,,,,0,37,37,5,1,1,0,,,,,,,,,,,,,,,,,,,,,,,,,,,,,,,,,,,,,,,,,,,,,,,,,,,,,,,,,,,,,,,,,,,,,,,,,,,
,,,,,,,,,,stimuli/images/PICTURE_509.png,PHOTO,5dd0f134670d1a1a46632755,26/07/1947,2020-07-09_18h04.09.381,proactive,2020.1.2,Linux aarch64,60,5f073de81c76c3308c0e4fb3,5f0794309a486b18178ddc2b,2,,,,,,telephone,,,,,,0,38,38,21,1,3,0,,,,,,,,,,,,,,,,,,,,,,,,,,,,,,,,,,,,,,,,,,,,,,,,,,,,,,,,,,,,,,,,,,,,,,,,,,,
,,,,,,,,,,stimuli/images/PICTURE_487.png,FLIGHT,5dd0f134670d1a1a46632755,26/07/1947,2020-07-09_18h04.09.381,proactive,2020.1.2,Linux aarch64,60,5f073de81c76c3308c0e4fb3,5f0794309a486b18178ddc2b,2,,,,,,basket,,,,,,0,39,39,9,1,1,0,,,,,,,,,,,,,,,,,,,,,,,,,,,,,,,,,,,,,,,,,,,,,,,,,,,,,,,,,,,,,,,,,,,,,,,,,,,
,,,,,,,,,,stimuli/images/PICTURE_123.png,ADVICE,5dd0f134670d1a1a46632755,26/07/1947,2020-07-09_18h04.09.381,proactive,2020.1.2,Linux aarch64,60,5f073de81c76c3308c0e4fb3,5f0794309a486b18178ddc2b,2,,,,,,dart,,,,,,0,40,40,40,1,5,0,,,,,,,,,,,,,,,,,,,,,,,,,,,,,,,,,,,,,,,,,,,,,,,,,,,,,,,,,,,,,,,,,,,,,,,,,,,
,,,,,,,,,,stimuli/images/PICTURE_380.png,PHOTO,5dd0f134670d1a1a46632755,26/07/1947,2020-07-09_18h04.09.381,proactive,2020.1.2,Linux aarch64,60,5f073de81c76c3308c0e4fb3,5f0794309a486b18178ddc2b,2,,,,,,gorilla,,,,,,0,41,41,52,1,6,0,,,,,,,,,,,,,,,,,,,,,,,,,,,,,,,,,,,,,,,,,,,,,,,,,,,,,,,,,,,,,,,,,,,,,,,,,,,
,,,,,,,,,,stimuli/images/PICTURE_308.png,ESTATE,5dd0f134670d1a1a46632755,26/07/1947,2020-07-09_18h04.09.381,proactive,2020.1.2,Linux aarch64,60,5f073de81c76c3308c0e4fb3,5f0794309a486b18178ddc2b,2,,,,,,dice,,,,,,0,42,42,46,1,5,0,,,,,,,,,,,,,,,,,,,,,,,,,,,,,,,,,,,,,,,,,,,,,,,,,,,,,,,,,,,,,,,,,,,,,,,,,,,
,,,,,,,,,,stimuli/images/PICTURE_356.png,DANGER,5dd0f134670d1a1a46632755,26/07/1947,2020-07-09_18h04.09.381,proactive,2020.1.2,Linux aarch64,60,5f073de81c76c3308c0e4fb3,5f0794309a486b18178ddc2b,2,,,,,,pawn,,,,,,0,43,43,55,1,6,0,,,,,,,,,,,,,,,,,,,,,,,,,,,,,,,,,,,,,,,,,,,,,,,,,,,,,,,,,,,,,,,,,,,,,,,,,,,
,,,,,,,,,,stimuli/images/PICTURE_467.png,DEMON,5dd0f134670d1a1a46632755,26/07/1947,2020-07-09_18h04.09.381,proactive,2020.1.2,Linux aarch64,60,5f073de81c76c3308c0e4fb3,5f0794309a486b18178ddc2b,2,,,,,,peg,,,,,,0,44,44,23,1,3,0,,,,,,,,,,,,,,,,,,,,,,,,,,,,,,,,,,,,,,,,,,,,,,,,,,,,,,,,,,,,,,,,,,,,,,,,,,,
,,,,,,,,,,stimuli/images/PICTURE_677.png,MILE,5dd0f134670d1a1a46632755,26/07/1947,2020-07-09_18h04.09.381,proactive,2020.1.2,Linux aarch64,60,5f073de81c76c3308c0e4fb3,5f0794309a486b18178ddc2b,2,,,,,,map,,,,,,0,45,45,30,1,4,0,,,,,,,,,,,,,,,,,,,,,,,,,,,,,,,,,,,,,,,,,,,,,,,,,,,,,,,,,,,,,,,,,,,,,,,,,,,
,,,,,,,,,,stimuli/images/PICTURE_177.png,CARS,5dd0f134670d1a1a46632755,26/07/1947,2020-07-09_18h04.09.381,proactive,2020.1.2,Linux aarch64,60,5f073de81c76c3308c0e4fb3,5f0794309a486b18178ddc2b,2,,,,,,mushroom,,,,,,0,46,46,35,1,4,0,,,,,,,,,,,,,,,,,,,,,,,,,,,,,,,,,,,,,,,,,,,,,,,,,,,,,,,,,,,,,,,,,,,,,,,,,,,
,,,,,,,,,,stimuli/images/PICTURE_488.png,STYLE,5dd0f134670d1a1a46632755,26/07/1947,2020-07-09_18h04.09.381,proactive,2020.1.2,Linux aarch64,60,5f073de81c76c3308c0e4fb3,5f0794309a486b18178ddc2b,2,,,,,,sun,,,,,,0,47,47,33,1,4,0,,,,,,,,,,,,,,,,,,,,,,,,,,,,,,,,,,,,,,,,,,,,,,,,,,,,,,,,,,,,,,,,,,,,,,,,,,,
,,,,,,,,,,stimuli/images/PICTURE_327.png,BEAUTY,5dd0f134670d1a1a46632755,26/07/1947,2020-07-09_18h04.09.381,proactive,2020.1.2,Linux aarch64,60,5f073de81c76c3308c0e4fb3,5f0794309a486b18178ddc2b,2,,,,,,helmet,,,,,,0,48,48,48,1,5,0,,,,,,,,,,,,,,,,,,,,,,,,,,,,,,,,,,,,,,,,,,,,,,,,,,,,,,,,,,,,,,,,,,,,,,,,,,,
,,,,,,,,,,stimuli/images/PICTURE_68.png,MILE,5dd0f134670d1a1a46632755,26/07/1947,2020-07-09_18h04.09.381,proactive,2020.1.2,Linux aarch64,60,5f073de81c76c3308c0e4fb3,5f0794309a486b18178ddc2b,2,,,,,,candle,,,,,,0,49,49,44,1,5,0,,,,,,,,,,,,,,,,,,,,,,,,,,,,,,,,,,,,,,,,,,,,,,,,,,,,,,,,,,,,,,,,,,,,,,,,,,,
,,,,,,,,,,stimuli/images/PICTURE_233.png,WOMEN,5dd0f134670d1a1a46632755,26/07/1947,2020-07-09_18h04.09.381,proactive,2020.1.2,Linux aarch64,60,5f073de81c76c3308c0e4fb3,5f0794309a486b18178ddc2b,2,,,,,,salt,,,,,,0,50,50,38,1,4,0,,,,,,,,,,,,,,,,,,,,,,,,,,,,,,,,,,,,,,,,,,,,,,,,,,,,,,,,,,,,,,,,,,,,,,,,,,,
,,,,,,,,,,stimuli/images/PICTURE_233.png,IDEAS,5dd0f134670d1a1a46632755,26/07/1947,2020-07-09_18h04.09.381,proactive,2020.1.2,Linux aarch64,60,5f073de81c76c3308c0e4fb3,5f0794309a486b18178ddc2b,2,,,,,,salt,,,,,,0,51,51,28,1,3,0,,,,,,,,,,,,,,,,,,,,,,,,,,,,,,,,,,,,,,,,,,,,,,,,,,,,,,,,,,,,,,,,,,,,,,,,,,,
,,,,,,,,,,stimuli/images/PICTURE_314.png,SAKE,5dd0f134670d1a1a46632755,26/07/1947,2020-07-09_18h04.09.381,proactive,2020.1.2,Linux aarch64,60,5f073de81c76c3308c0e4fb3,5f0794309a486b18178ddc2b,2,,,,,,perfume,,,,,,0,52,52,7,1,1,0,,,,,,,,,,,,,,,,,,,,,,,,,,,,,,,,,,,,,,,,,,,,,,,,,,,,,,,,,,,,,,,,,,,,,,,,,,,
,,,,,,,,,,stimuli/images/PICTURE_675.png,WEAPON,5dd0f134670d1a1a46632755,26/07/1947,2020-07-09_18h04.09.381,proactive,2020.1.2,Linux aarch64,60,5f073de81c76c3308c0e4fb3,5f0794309a486b18178ddc2b,2,,,,,,windmill,,,,,,0,53,53,32,1,4,0,,,,,,,,,,,,,,,,,,,,,,,,,,,,,,,,,,,,,,,,,,,,,,,,,,,,,,,,,,,,,,,,,,,,,,,,,,,
,,,,,,,,,,stimuli/images/PICTURE_151.png,GIRL,5dd0f134670d1a1a46632755,26/07/1947,2020-07-09_18h04.09.381,proactive,2020.1.2,Linux aarch64,60,5f073de81c76c3308c0e4fb3,5f0794309a486b18178ddc2b,2,,,,,,tray,,,,,,0,54,54,19,1,2,0,,,,,,,,,,,,,,,,,,,,,,,,,,,,,,,,,,,,,,,,,,,,,,,,,,,,,,,,,,,,,,,,,,,,,,,,,,,
,,,,,,,,,,stimuli/images/PICTURE_692.png,MONTH,5dd0f134670d1a1a46632755,26/07/1947,2020-07-09_18h04.09.381,proactive,2020.1.2,Linux aarch64,60,5f073de81c76c3308c0e4fb3,5f0794309a486b18178ddc2b,2,,,,,,cherry,,,,,,0,55,55,16,1,2,0,,,,,,,,,,,,,,,,,,,,,,,,,,,,,,,,,,,,,,,,,,,,,,,,,,,,,,,,,,,,,,,,,,,,,,,,,,,
,,,,,,,,,,stimuli/images/PICTURE_453.png,PLENTY,5dd0f134670d1a1a46632755,26/07/1947,2020-07-09_18h04.09.381,proactive,2020.1.2,Linux aarch64,60,5f073de81c76c3308c0e4fb3,5f0794309a486b18178ddc2b,2,,,,,,scissors,,,,,,0,56,56,56,1,6,0,,,,,,,,,,,,,,,,,,,,,,,,,,,,,,,,,,,,,,,,,,,,,,,,,,,,,,,,,,,,,,,,,,,,,,,,,,,
,,,,,,,,,,stimuli/images/PICTURE_160.png,LEADER,5dd0f134670d1a1a46632755,26/07/1947,2020-07-09_18h04.09.381,proactive,2020.1.2,Linux aarch64,60,5f073de81c76c3308c0e4fb3,5f0794309a486b18178ddc2b,2,,,,,,wheelbarrow,,,,,,0,57,57,3,1,1,0,,,,,,,,,,,,,,,,,,,,,,,,,,,,,,,,,,,,,,,,,,,,,,,,,,,,,,,,,,,,,,,,,,,,,,,,,,,
,,,,,,,,,,stimuli/images/PICTURE_667.png,BATH,5dd0f134670d1a1a46632755,26/07/1947,2020-07-09_18h04.09.381,proactive,2020.1.2,Linux aarch64,60,5f073de81c76c3308c0e4fb3,5f0794309a486b18178ddc2b,2,,,,,,daisy,,,,,,0,58,58,4,1,1,0,,,,,,,,,,,,,,,,,,,,,,,,,,,,,,,,,,,,,,,,,,,,,,,,,,,,,,,,,,,,,,,,,,,,,,,,,,,
,,?,0.001595,0,,,,,,stimuli/images/PICTURE_470.png,CASINO,5dd0f134670d1a1a46632755,26/07/1947,2020-07-09_18h04.09.381,proactive,2020.1.2,Linux aarch64,60,5f073de81c76c3308c0e4fb3,5f0794309a486b18178ddc2b,2,,,,,,motorbike,,,,,,,,,,,4,0,0,0,0,36,1,,,,,,,,,,,,,,,,,,,,,,,,,,,,,,,,,,,,,,,,,,,,,,,,,,,,,,,,,,,,,,,,,,,,,,
,,?,0.00135,0,,,,,,stimuli/images/PICTURE_339.png,PLENTY,5dd0f134670d1a1a46632755,26/07/1947,2020-07-09_18h04.09.381,proactive,2020.1.2,Linux aarch64,60,5f073de81c76c3308c0e4fb3,5f0794309a486b18178ddc2b,2,,,,,,backpack,,,,,,,,,,,1,0,0,1,1,0,1,,,,,,,,,,,,,,,,,,,,,,,,,,,,,,,,,,,,,,,,,,,,,,,,,,,,,,,,,,,,,,,,,,,,,,
,,GIRL,10.44345,1,,,,,,stimuli/images/PICTURE_151.png,GIRL,5dd0f134670d1a1a46632755,26/07/1947,2020-07-09_18h04.09.381,proactive,2020.1.2,Linux aarch64,60,5f073de81c76c3308c0e4fb3,5f0794309a486b18178ddc2b,2,,,,,,tray,,,,,,,,,,,2,0,0,2,2,19,1,,,,,,,,,,,,,,,,,,,,,,,,,,,,,,,,,,,,,,,,,,,,,,,,,,,,,,,,,,,,,,,,,,,,,,
,,?,0.00295,0,,,,,,stimuli/images/PICTURE_708.png,YARD,5dd0f134670d1a1a46632755,26/07/1947,2020-07-09_18h04.09.381,proactive,2020.1.2,Linux aarch64,60,5f073de81c76c3308c0e4fb3,5f0794309a486b18178ddc2b,2,,,,,,monkey,,,,,,,,,,,3,0,0,3,3,29,1,,,,,,,,,,,,,,,,,,,,,,,,,,,,,,,,,,,,,,,,,,,,,,,,,,,,,,,,,,,,,,,,,,,,,,
,,?,0.00406,0,,,,,,stimuli/images/PICTURE_160.png,LEADER,5dd0f134670d1a1a46632755,26/07/1947,2020-07-09_18h04.09.381,proactive,2020.1.2,Linux aarch64,60,5f073de81c76c3308c0e4fb3,5f0794309a486b18178ddc2b,2,,,,,,wheelbarrow,,,,,,,,,,,1,0,0,4,4,3,1,,,,,,,,,,,,,,,,,,,,,,,,,,,,,,,,,,,,,,,,,,,,,,,,,,,,,,,,,,,,,,,,,,,,,,
,,?,0.00342,0,,,,,,stimuli/images/PICTURE_654.png,VALLEY,5dd0f134670d1a1a46632755,26/07/1947,2020-07-09_18h04.09.381,proactive,2020.1.2,Linux aarch64,60,5f073de81c76c3308c0e4fb3,5f0794309a486b18178ddc2b,2,,,,,,pencil,,,,,,,,,,,1,0,0,5,5,1,1,,,,,,,,,,,,,,,,,,,,,,,,,,,,,,,,,,,,,,,,,,,,,,,,,,,,,,,,,,,,,,,,,,,,,,
,,THING,8.44932,1,,,,,,stimuli/images/PICTURE_85.png,THING,5dd0f134670d1a1a46632755,26/07/1947,2020-07-09_18h04.09.381,proactive,2020.1.2,Linux aarch64,60,5f073de81c76c3308c0e4fb3,5f0794309a486b18178ddc2b,2,,,,,,diamond,,,,,,,,,,,2,0,0,6,6,15,1,,,,,,,,,,,,,,,,,,,,,,,,,,,,,,,,,,,,,,,,,,,,,,,,,,,,,,,,,,,,,,,,,,,,,,
,,?,0.00297,0,,,,,,stimuli/images/PICTURE_147.png,MOMENT,5dd0f134670d1a1a46632755,26/07/1947,2020-07-09_18h04.09.381,proactive,2020.1.2,Linux aarch64,60,5f073de81c76c3308c0e4fb3,5f0794309a486b18178ddc2b,2,,,,,,hanger,,,,,,,,,,,6,0,0,7,7,51,1,,,,,,,,,,,,,,,,,,,,,,,,,,,,,,,,,,,,,,,,,,,,,,,,,,,,,,,,,,,,,,,,,,,,,,
,,?,0.00368,0,,,,,,stimuli/images/PICTURE_667.png,PLENTY,5dd0f134670d1a1a46632755,26/07/1947,2020-07-09_18h04.09.381,proactive,2020.1.2,Linux aarch64,60,5f073de81c76c3308c0e4fb3,5f0794309a486b18178ddc2b,2,,,,,,daisy,,,,,,,,,,,5,0,0,8,8,41,1,,,,,,,,,,,,,,,,,,,,,,,,,,,,,,,,,,,,,,,,,,,,,,,,,,,,,,,,,,,,,,,,,,,,,,
