consent_key.keys,consent_key.rt,recalled,recalled_rt,recall_acc,example_recall.thisRepN,example_recall.thisTrialN,example_recall.thisN,example_recall.thisIndex,example_recall.ran,file,word,participant,please enter your date of birth (dd/mm/yyyy),date,expName,psychopyVersion,OS,frameRate,STUDY_ID,SESSION_ID,list,prac_learn_study_loop.thisRepN,prac_learn_study_loop.thisTrialN,prac_learn_study_loop.thisN,prac_learn_study_loop.thisIndex,prac_learn_study_loop.ran,image,prac_learn_test_loop.thisRepN,prac_learn_test_loop.thisTrialN,prac_learn_test_loop.thisN,prac_learn_test_loop.thisIndex,prac_learn_test_loop.ran,learn_study_loop.thisRepN,learn_study_loop.thisTrialN,learn_study_loop.thisN,learn_study_loop.thisIndex,learn_study_loop.ran,list_no,block_no,learn_test_loop.thisRepN,learn_test_loop.thisTrialN,learn_test_loop.thisN,learn_test_loop.thisIndex,learn_test_loop.ran,learn_blocks.thisRepN,learn_blocks.thisTrialN,learn_blocks.thisN,learn_blocks.thisIndex,learn_blocks.ran,block_csv,key_resp_13.keys,key_resp_13.rt,learn_blocks_loop.thisRepN,learn_blocks_loop.thisTrialN,learn_blocks_loop.thisN,learn_blocks_loop.thisIndex,learn_blocks_loop.ran,final_learn_test.thisRepN,final_learn_test.thisTrialN,final_learn_test.thisN,final_learn_test.thisIndex,final_learn_test.ran,prac_wm_test_loop.thisRepN,prac_wm_test_loop.thisTrialN,prac_wm_test_loop.thisN,prac_wm_test_loop.thisIndex,prac_wm_test_loop.ran,wm_recalled1,wm_recall_rt1,wm_probed1,wm_recall_acc1,wm_recalled2,wm_recall_rt2,wm_probed2,wm_recall_acc2,wm_recalled3,wm_recall_rt3,wm_probed3,wm_recall_acc3,wm_recalled4,wm_recall_rt4,wm_probed4,wm_recall_acc4,prac_wm_trial_loop.thisRepN,prac_wm_trial_loop.thisTrialN,prac_wm_trial_loop.thisN,prac_wm_trial_loop.thisIndex,prac_wm_trial_loop.ran,word1,image1,file1,item_type1,word2,image2,file2,item_type2,word4,image4,file4,item_type4,word3,image3,file3,item_type3,wm_test_loop.thisRepN,wm_test_loop.thisTrialN,wm_test_loop.thisN,wm_test_loop.thisIndex,wm_test_loop.ran,wm_trial_loop.thisRepN,wm_trial_loop.thisTrialN,wm_trial_loop.thisN,wm_trial_loop.thisIndex,wm_trial_loop.ran
y,22.93304,TOUGH,7.97528,1,0,0,0,0,1,stimuli/images/PICTURE_747.png,TOUGH,5ddcd77f23f9f1c2c45d6c18,01/09/1954,2020-07-09_16h05.37.612,proactive,2020.1.2,Win32,60,5f073de81c76c3308c0e4fb3,5f07777097216d18cd87951e,1,,,,,,,,,,,,,,,,,,,,,,,,,,,,,,,,,,,,,,,,,,,,,,,,,,,,,,,,,,,,,,,,,,,,,,,,,,,,,,,,,,,,,,,,,,,,,
,,,,,,,,,,stimuli/images/PICTURE_269.png,GENIUS,5ddcd77f23f9f1c2c45d6c18,01/09/1954,2020-07-09_16h05.37.612,proactive,2020.1.2,Win32,60,5f073de81c76c3308c0e4fb3,5f07777097216d18cd87951e,1,0,0,0,0,1,chameleon,,,,,,,,,,,,,,,,,,,,,,,,,,,,,,,,,,,,,,,,,,,,,,,,,,,,,,,,,,,,,,,,,,,,,,,,,,,,,,,,,,,,,,,
,,,,,,,,,,stimuli/images/PICTURE_727.png,CELL,5ddcd77f23f9f1c2c45d6c18,01/09/1954,2020-07-09_16h05.37.612,proactive,2020.1.2,Win32,60,5f073de81c76c3308c0e4fb3,5f07777097216d18cd87951e,1,0,1,1,1,1,hose,,,,,,,,,,,,,,,,,,,,,,,,,,,,,,,,,,,,,,,,,,,,,,,,,,,,,,,,,,,,,,,,,,,,,,,,,,,,,,,,,,,,,,,
,,,,,,,,,,stimuli/images/PICTURE_697.png,KILLER,5ddcd77f23f9f1c2c45d6c18,01/09/1954,2020-07-09_16h05.37.612,proactive,2020.1.2,Win32,60,5f073de81c76c3308c0e4fb3,5f07777097216d18cd87951e,1,0,2,2,4,1,peach,,,,,,,,,,,,,,,,,,,,,,,,,,,,,,,,,,,,,,,,,,,,,,,,,,,,,,,,,,,,,,,,,,,,,,,,,,,,,,,,,,,,,,,
,,,,,,,,,,stimuli/images/PICTURE_658.png,DEVIL,5ddcd77f23f9f1c2c45d6c18,01/09/1954,2020-07-09_16h05.37.612,proactive,2020.1.2,Win32,60,5f073de81c76c3308c0e4fb3,5f07777097216d18cd87951e,1,0,3,3,3,1,crow,,,,,,,,,,,,,,,,,,,,,,,,,,,,,,,,,,,,,,,,,,,,,,,,,,,,,,,,,,,,,,,,,,,,,,,,,,,,,,,,,,,,,,,
,,KILLER,3.49826,1,,,,,,stimuli/images/PICTURE_697.png,KILLER,5ddcd77f23f9f1c2c45d6c18,01/09/1954,2020-07-09_16h05.37.612,proactive,2020.1.2,Win32,60,5f073de81c76c3308c0e4fb3,5f07777097216d18cd87951e,1,,,,,,peach,0,0,0,4,1,,,,,,,,,,,,,,,,,,,,,,,,,,,,,,,,,,,,,,,,,,,,,,,,,,,,,,,,,,,,,,,,,,,,,,,,,,,,,,,,,,
,,?,4.47304,0,,,,,,stimuli/images/PICTURE_658.png,DEVIL,5ddcd77f23f9f1c2c45d6c18,01/09/1954,2020-07-09_16h05.37.612,proactive,2020.1.2,Win32,60,5f073de81c76c3308c0e4fb3,5f07777097216d18cd87951e,1,,,,,,crow,0,1,1,3,1,,,,,,,,,,,,,,,,,,,,,,,,,,,,,,,,,,,,,,,,,,,,,,,,,,,,,,,,,,,,,,,,,,,,,,,,,,,,,,,,,,
,,GENIOUS,5.3236,0,,,,,,stimuli/images/PICTURE_269.png,GENIUS,5ddcd77f23f9f1c2c45d6c18,01/09/1954,2020-07-09_16h05.37.612,proactive,2020.1.2,Win32,60,5f073de81c76c3308c0e4fb3,5f07777097216d18cd87951e,1,,,,,,chameleon,0,2,2,0,1,,,,,,,,,,,,,,,,,,,,,,,,,,,,,,,,,,,,,,,,,,,,,,,,,,,,,,,,,,,,,,,,,,,,,,,,,,,,,,,,,,
,,CELL,5.68761,1,,,,,,stimuli/images/PICTURE_727.png,CELL,5ddcd77f23f9f1c2c45d6c18,01/09/1954,2020-07-09_16h05.37.612,proactive,2020.1.2,Win32,60,5f073de81c76c3308c0e4fb3,5f07777097216d18cd87951e,1,,,,,,hose,0,3,3,1,1,,,,,,,,,,,,,,,,,,,,,,,,,,,,,,,,,,,,,,,,,,,,,,,,,,,,,,,,,,,,,,,,,,,,,,,,,,,,,,,,,,
,,LOSS,3.086575,1,,,,,,stimuli/images/PICTURE_378.png,LOSS,5ddcd77f23f9f1c2c45d6c18,01/09/1954,2020-07-09_16h05.37.612,proactive,2020.1.2,Win32,60,5f073de81c76c3308c0e4fb3,5f07777097216d18cd87951e,1,,,,,,lobster,0,4,4,2,1,,,,,,,,,,,,,,,,,,,,,,,,,,,,,,,,,,,,,,,,,,,,,,,,,,,,,,,,,,,,,,,,,,,,,,,,,,,,,,,,,,
,,,,,,,,,,stimuli/images/PICTURE_685.png,PENNY,5ddcd77f23f9f1c2c45d6c18,01/09/1954,2020-07-09_16h05.37.612,proactive,2020.1.2,Win32,60,5f073de81c76c3308c0e4fb3,5f07777097216d18cd87951e,1,,,,,,goose,,,,,,0,0,0,4,1,1,1,,,,,,,,,,,,,,,,,,,,,,,,,,,,,,,,,,,,,,,,,,,,,,,,,,,,,,,,,,,,,,,,,,,,,,,,,,,
,,,,,,,,,,stimuli/images/PICTURE_147.png,WOMEN,5ddcd77f23f9f1c2c45d6c18,01/09/1954,2020-07-09_16h05.37.612,proactive,2020.1.2,Win32,60,5f073de81c76c3308c0e4fb3,5f07777097216d18cd87951e,1,,,,,,hanger,,,,,,0,1,1,7,1,1,1,,,,,,,,,,,,,,,,,,,,,,,,,,,,,,,,,,,,,,,,,,,,,,,,,,,,,,,,,,,,,,,,,,,,,,,,,,,
,,,,,,,,,,stimuli/images/PICTURE_504.png,COPS,5ddcd77f23f9f1c2c45d6c18,01/09/1954,2020-07-09_16h05.37.612,proactive,2020.1.2,Win32,60,5f073de81c76c3308c0e4fb3,5f07777097216d18cd87951e,1,,,,,,wheel,,,,,,0,2,2,52,1,6,1,,,,,,,,,,,,,,,,,,,,,,,,,,,,,,,,,,,,,,,,,,,,,,,,,,,,,,,,,,,,,,,,,,,,,,,,,,,
,,,,,,,,,,stimuli/images/PICTURE_469.png,AGENT,5ddcd77f23f9f1c2c45d6c18,01/09/1954,2020-07-09_16h05.37.612,proactive,2020.1.2,Win32,60,5f073de81c76c3308c0e4fb3,5f07777097216d18cd87951e,1,,,,,,stool,,,,,,0,3,3,16,1,2,1,,,,,,,,,,,,,,,,,,,,,,,,,,,,,,,,,,,,,,,,,,,,,,,,,,,,,,,,,,,,,,,,,,,,,,,,,,,
,,,,,,,,,,stimuli/images/PICTURE_708.png,RECORD,5ddcd77f23f9f1c2c45d6c18,01/09/1954,2020-07-09_16h05.37.612,proactive,2020.1.2,Win32,60,5f073de81c76c3308c0e4fb3,5f07777097216d18cd87951e,1,,,,,,monkey,,,,,,0,4,4,58,1,6,1,,,,,,,,,,,,,,,,,,,,,,,,,,,,,,,,,,,,,,,,,,,,,,,,,,,,,,,,,,,,,,,,,,,,,,,,,,,
,,,,,,,,,,stimuli/images/PICTURE_405.png,PLENTY,5ddcd77f23f9f1c2c45d6c18,01/09/1954,2020-07-09_16h05.37.612,proactive,2020.1.2,Win32,60,5f073de81c76c3308c0e4fb3,5f07777097216d18cd87951e,1,,,,,,anchor,,,,,,0,5,5,23,1,3,1,,,,,,,,,,,,,,,,,,,,,,,,,,,,,,,,,,,,,,,,,,,,,,,,,,,,,,,,,,,,,,,,,,,,,,,,,,,
,,,,,,,,,,stimuli/images/PICTURE_467.png,POLICY,5ddcd77f23f9f1c2c45d6c18,01/09/1954,2020-07-09_16h05.37.612,proactive,2020.1.2,Win32,60,5f073de81c76c3308c0e4fb3,5f07777097216d18cd87951e,1,,,,,,peg,,,,,,0,6,6,53,1,6,1,,,,,,,,,,,,,,,,,,,,,,,,,,,,,,,,,,,,,,,,,,,,,,,,,,,,,,,,,,,,,,,,,,,,,,,,,,,
,,,,,,,,,,stimuli/images/PICTURE_667.png,RIVER,5ddcd77f23f9f1c2c45d6c18,01/09/1954,2020-07-09_16h05.37.612,proactive,2020.1.2,Win32,60,5f073de81c76c3308c0e4fb3,5f07777097216d18cd87951e,1,,,,,,daisy,,,,,,0,7,7,10,1,2,1,,,,,,,,,,,,,,,,,,,,,,,,,,,,,,,,,,,,,,,,,,,,,,,,,,,,,,,,,,,,,,,,,,,,,,,,,,,
,,,,,,,,,,stimuli/images/PICTURE_297.png,RIVER,5ddcd77f23f9f1c2c45d6c18,01/09/1954,2020-07-09_16h05.37.612,proactive,2020.1.2,Win32,60,5f073de81c76c3308c0e4fb3,5f07777097216d18cd87951e,1,,,,,,aeroplane,,,,,,0,8,8,39,1,4,1,,,,,,,,,,,,,,,,,,,,,,,,,,,,,,,,,,,,,,,,,,,,,,,,,,,,,,,,,,,,,,,,,,,,,,,,,,,
,,,,,,,,,,stimuli/images/PICTURE_308.png,FAMILY,5ddcd77f23f9f1c2c45d6c18,01/09/1954,2020-07-09_16h05.37.612,proactive,2020.1.2,Win32,60,5f073de81c76c3308c0e4fb3,5f07777097216d18cd87951e,1,,,,,,dice,,,,,,0,9,9,36,1,4,1,,,,,,,,,,,,,,,,,,,,,,,,,,,,,,,,,,,,,,,,,,,,,,,,,,,,,,,,,,,,,,,,,,,,,,,,,,,
,,,,,,,,,,stimuli/images/PICTURE_403.png,TOILET,5ddcd77f23f9f1c2c45d6c18,01/09/1954,2020-07-09_16h05.37.612,proactive,2020.1.2,Win32,60,5f073de81c76c3308c0e4fb3,5f07777097216d18cd87951e,1,,,,,,cathedral,,,,,,0,10,10,25,1,3,1,,,,,,,,,,,,,,,,,,,,,,,,,,,,,,,,,,,,,,,,,,,,,,,,,,,,,,,,,,,,,,,,,,,,,,,,,,,
,,,,,,,,,,stimuli/images/PICTURE_203.png,NIGHT,5ddcd77f23f9f1c2c45d6c18,01/09/1954,2020-07-09_16h05.37.612,proactive,2020.1.2,Win32,60,5f073de81c76c3308c0e4fb3,5f07777097216d18cd87951e,1,,,,,,cap,,,,,,0,11,11,2,1,1,1,,,,,,,,,,,,,,,,,,,,,,,,,,,,,,,,,,,,,,,,,,,,,,,,,,,,,,,,,,,,,,,,,,,,,,,,,,,
,,,,,,,,,,stimuli/images/PICTURE_177.png,WRITER,5ddcd77f23f9f1c2c45d6c18,01/09/1954,2020-07-09_16h05.37.612,proactive,2020.1.2,Win32,60,5f073de81c76c3308c0e4fb3,5f07777097216d18cd87951e,1,,,,,,mushroom,,,,,,0,12,12,41,1,5,1,,,,,,,,,,,,,,,,,,,,,,,,,,,,,,,,,,,,,,,,,,,,,,,,,,,,,,,,,,,,,,,,,,,,,,,,,,,
,,,,,,,,,,stimuli/images/PICTURE_33.png,FRIEND,5ddcd77f23f9f1c2c45d6c18,01/09/1954,2020-07-09_16h05.37.612,proactive,2020.1.2,Win32,60,5f073de81c76c3308c0e4fb3,5f07777097216d18cd87951e,1,,,,,,frame,,,,,,0,13,13,8,1,1,1,,,,,,,,,,,,,,,,,,,,,,,,,,,,,,,,,,,,,,,,,,,,,,,,,,,,,,,,,,,,,,,,,,,,,,,,,,,
,,,,,,,,,,stimuli/images/PICTURE_32.png,KIND,5ddcd77f23f9f1c2c45d6c18,01/09/1954,2020-07-09_16h05.37.612,proactive,2020.1.2,Win32,60,5f073de81c76c3308c0e4fb3,5f07777097216d18cd87951e,1,,,,,,crown,,,,,,0,14,14,35,1,4,1,,,,,,,,,,,,,,,,,,,,,,,,,,,,,,,,,,,,,,,,,,,,,,,,,,,,,,,,,,,,,,,,,,,,,,,,,,,
,,,,,,,,,,stimuli/images/PICTURE_85.png,TOILET,5ddcd77f23f9f1c2c45d6c18,01/09/1954,2020-07-09_16h05.37.612,proactive,2020.1.2,Win32,60,5f073de81c76c3308c0e4fb3,5f07777097216d18cd87951e,1,,,,,,diamond,,,,,,0,15,15,48,1,5,1,,,,,,,,,,,,,,,,,,,,,,,,,,,,,,,,,,,,,,,,,,,,,,,,,,,,,,,,,,,,,,,,,,,,,,,,,,,
,,,,,,,,,,stimuli/images/PICTURE_147.png,YEAR,5ddcd77f23f9f1c2c45d6c18,01/09/1954,2020-07-09_16h05.37.612,proactive,2020.1.2,Win32,60,5f073de81c76c3308c0e4fb3,5f07777097216d18cd87951e,1,,,,,,hanger,,,,,,0,16,16,21,1,3,1,,,,,,,,,,,,,,,,,,,,,,,,,,,,,,,,,,,,,,,,,,,,,,,,,,,,,,,,,,,,,,,,,,,,,,,,,,,
,,,,,,,,,,stimuli/images/PICTURE_233.png,LOTS,5ddcd77f23f9f1c2c45d6c18,01/09/1954,2020-07-09_16h05.37.612,proactive,2020.1.2,Win32,60,5f073de81c76c3308c0e4fb3,5f07777097216d18cd87951e,1,,,,,,salt,,,,,,0,17,17,42,1,5,1,,,,,,,,,,,,,,,,,,,,,,,,,,,,,,,,,,,,,,,,,,,,,,,,,,,,,,,,,,,,,,,,,,,,,,,,,,,
,,,,,,,,,,stimuli/images/PICTURE_383.png,WRITER,5ddcd77f23f9f1c2c45d6c18,01/09/1954,2020-07-09_16h05.37.612,proactive,2020.1.2,Win32,60,5f073de81c76c3308c0e4fb3,5f07777097216d18cd87951e,1,,,,,,coin,,,,,,0,18,18,28,1,3,1,,,,,,,,,,,,,,,,,,,,,,,,,,,,,,,,,,,,,,,,,,,,,,,,,,,,,,,,,,,,,,,,,,,,,,,,,,,
,,,,,,,,,,stimuli/images/PICTURE_564.png,BATH,5ddcd77f23f9f1c2c45d6c18,01/09/1954,2020-07-09_16h05.37.612,proactive,2020.1.2,Win32,60,5f073de81c76c3308c0e4fb3,5f07777097216d18cd87951e,1,,,,,,spoon,,,,,,0,19,19,26,1,3,1,,,,,,,,,,,,,,,,,,,,,,,,,,,,,,,,,,,,,,,,,,,,,,,,,,,,,,,,,,,,,,,,,,,,,,,,,,,
,,,,,,,,,,stimuli/images/PICTURE_380.png,HONEY,5ddcd77f23f9f1c2c45d6c18,01/09/1954,2020-07-09_16h05.37.612,proactive,2020.1.2,Win32,60,5f073de81c76c3308c0e4fb3,5f07777097216d18cd87951e,1,,,,,,gorilla,,,,,,0,20,20,19,1,2,1,,,,,,,,,,,,,,,,,,,,,,,,,,,,,,,,,,,,,,,,,,,,,,,,,,,,,,,,,,,,,,,,,,,,,,,,,,,
,,,,,,,,,,stimuli/images/PICTURE_95.png,BOYS,5ddcd77f23f9f1c2c45d6c18,01/09/1954,2020-07-09_16h05.37.612,proactive,2020.1.2,Win32,60,5f073de81c76c3308c0e4fb3,5f07777097216d18cd87951e,1,,,,,,suitcase,,,,,,0,21,21,1,1,1,1,,,,,,,,,,,,,,,,,,,,,,,,,,,,,,,,,,,,,,,,,,,,,,,,,,,,,,,,,,,,,,,,,,,,,,,,,,,
,,,,,,,,,,stimuli/images/PICTURE_296.png,LIFE,5ddcd77f23f9f1c2c45d6c18,01/09/1954,2020-07-09_16h05.37.612,proactive,2020.1.2,Win32,60,5f073de81c76c3308c0e4fb3,5f07777097216d18cd87951e,1,,,,,,bolt,,,,,,0,22,22,57,1,6,1,,,,,,,,,,,,,,,,,,,,,,,,,,,,,,,,,,,,,,,,,,,,,,,,,,,,,,,,,,,,,,,,,,,,,,,,,,,
,,,,,,,,,,stimuli/images/PICTURE_85.png,NATION,5ddcd77f23f9f1c2c45d6c18,01/09/1954,2020-07-09_16h05.37.612,proactive,2020.1.2,Win32,60,5f073de81c76c3308c0e4fb3,5f07777097216d18cd87951e,1,,,,,,diamond,,,,,,0,23,23,5,1,1,1,,,,,,,,,,,,,,,,,,,,,,,,,,,,,,,,,,,,,,,,,,,,,,,,,,,,,,,,,,,,,,,,,,,,,,,,,,,
,,,,,,,,,,stimuli/images/PICTURE_744.png,WEAPON,5ddcd77f23f9f1c2c45d6c18,01/09/1954,2020-07-09_16h05.37.612,proactive,2020.1.2,Win32,60,5f073de81c76c3308c0e4fb3,5f07777097216d18cd87951e,1,,,,,,ring,,,,,,0,24,24,50,1,6,1,,,,,,,,,,,,,,,,,,,,,,,,,,,,,,,,,,,,,,,,,,,,,,,,,,,,,,,,,,,,,,,,,,,,,,,,,,,
,,,,,,,,,,stimuli/images/PICTURE_95.png,HONEY,5ddcd77f23f9f1c2c45d6c18,01/09/1954,2020-07-09_16h05.37.612,proactive,2020.1.2,Win32,60,5f073de81c76c3308c0e4fb3,5f07777097216d18cd87951e,1,,,,,,suitcase,,,,,,0,25,25,44,1,5,1,,,,,,,,,,,,,,,,,,,,,,,,,,,,,,,,,,,,,,,,,,,,,,,,,,,,,,,,,,,,,,,,,,,,,,,,,,,
,,,,,,,,,,stimuli/images/PICTURE_68.png,ROOF,5ddcd77f23f9f1c2c45d6c18,01/09/1954,2020-07-09_16h05.37.612,proactive,2020.1.2,Win32,60,5f073de81c76c3308c0e4fb3,5f07777097216d18cd87951e,1,,,,,,candle,,,,,,0,26,26,38,1,4,1,,,,,,,,,,,,,,,,,,,,,,,,,,,,,,,,,,,,,,,,,,,,,,,,,,,,,,,,,,,,,,,,,,,,,,,,,,,
,,,,,,,,,,stimuli/images/PICTURE_504.png,ARTIST,5ddcd77f23f9f1c2c45d6c18,01/09/1954,2020-07-09_16h05.37.612,proactive,2020.1.2,Win32,60,5f073de81c76c3308c0e4fb3,5f07777097216d18cd87951e,1,,,,,,wheel,,,,,,0,27,27,49,1,5,1,,,,,,,,,,,,,,,,,,,,,,,,,,,,,,,,,,,,,,,,,,,,,,,,,,,,,,,,,,,,,,,,,,,,,,,,,,,
,,,,,,,,,,stimuli/images/PICTURE_750.png,HOTEL,5ddcd77f23f9f1c2c45d6c18,01/09/1954,2020-07-09_16h05.37.612,proactive,2020.1.2,Win32,60,5f073de81c76c3308c0e4fb3,5f07777097216d18cd87951e,1,,,,,,kettle,,,,,,0,28,28,27,1,3,1,,,,,,,,,,,,,,,,,,,,,,,,,,,,,,,,,,,,,,,,,,,,,,,,,,,,,,,,,,,,,,,,,,,,,,,,,,,
,,,,,,,,,,stimuli/images/PICTURE_449.png,DUDE,5ddcd77f23f9f1c2c45d6c18,01/09/1954,2020-07-09_16h05.37.612,proactive,2020.1.2,Win32,60,5f073de81c76c3308c0e4fb3,5f07777097216d18cd87951e,1,,,,,,bench,,,,,,0,29,29,17,1,2,1,,,,,,,,,,,,,,,,,,,,,,,,,,,,,,,,,,,,,,,,,,,,,,,,,,,,,,,,,,,,,,,,,,,,,,,,,,,
,,,,,,,,,,stimuli/images/PICTURE_340.png,LETTER,5ddcd77f23f9f1c2c45d6c18,01/09/1954,2020-07-09_16h05.37.612,proactive,2020.1.2,Win32,60,5f073de81c76c3308c0e4fb3,5f07777097216d18cd87951e,1,,,,,,mirror,,,,,,0,30,30,24,1,3,1,,,,,,,,,,,,,,,,,,,,,,,,,,,,,,,,,,,,,,,,,,,,,,,,,,,,,,,,,,,,,,,,,,,,,,,,,,,
,,,,,,,,,,stimuli/images/PICTURE_383.png,SERIES,5ddcd77f23f9f1c2c45d6c18,01/09/1954,2020-07-09_16h05.37.612,proactive,2020.1.2,Win32,60,5f073de81c76c3308c0e4fb3,5f07777097216d18cd87951e,1,,,,,,coin,,,,,,0,31,31,46,1,5,1,,,,,,,,,,,,,,,,,,,,,,,,,,,,,,,,,,,,,,,,,,,,,,,,,,,,,,,,,,,,,,,,,,,,,,,,,,,
,,,,,,,,,,stimuli/images/PICTURE_95.png,MILLER,5ddcd77f23f9f1c2c45d6c18,01/09/1954,2020-07-09_16h05.37.612,proactive,2020.1.2,Win32,60,5f073de81c76c3308c0e4fb3,5f07777097216d18cd87951e,1,,,,,,suitcase,,,,,,0,32,32,56,1,6,1,,,,,,,,,,,,,,,,,,,,,,,,,,,,,,,,,,,,,,,,,,,,,,,,,,,,,,,,,,,,,,,,,,,,,,,,,,,
,,,,,,,,,,stimuli/images/PICTURE_677.png,APPLE,5ddcd77f23f9f1c2c45d6c18,01/09/1954,2020-07-09_16h05.37.612,proactive,2020.1.2,Win32,60,5f073de81c76c3308c0e4fb3,5f07777097216d18cd87951e,1,,,,,,map,,,,,,0,33,33,43,1,5,1,,,,,,,,,,,,,,,,,,,,,,,,,,,,,,,,,,,,,,,,,,,,,,,,,,,,,,,,,,,,,,,,,,,,,,,,,,,
,,,,,,,,,,stimuli/images/PICTURE_655.png,TOILET,5ddcd77f23f9f1c2c45d6c18,01/09/1954,2020-07-09_16h05.37.612,proactive,2020.1.2,Win32,60,5f073de81c76c3308c0e4fb3,5f07777097216d18cd87951e,1,,,,,,megaphone,,,,,,0,34,34,12,1,2,1,,,,,,,,,,,,,,,,,,,,,,,,,,,,,,,,,,,,,,,,,,,,,,,,,,,,,,,,,,,,,,,,,,,,,,,,,,,
,,,,,,,,,,stimuli/images/PICTURE_340.png,VALLEY,5ddcd77f23f9f1c2c45d6c18,01/09/1954,2020-07-09_16h05.37.612,proactive,2020.1.2,Win32,60,5f073de81c76c3308c0e4fb3,5f07777097216d18cd87951e,1,,,,,,mirror,,,,,,0,35,35,54,1,6,1,,,,,,,,,,,,,,,,,,,,,,,,,,,,,,,,,,,,,,,,,,,,,,,,,,,,,,,,,,,,,,,,,,,,,,,,,,,
,,,,,,,,,,stimuli/images/PICTURE_491.png,GLASS,5ddcd77f23f9f1c2c45d6c18,01/09/1954,2020-07-09_16h05.37.612,proactive,2020.1.2,Win32,60,5f073de81c76c3308c0e4fb3,5f07777097216d18cd87951e,1,,,,,,rug,,,,,,0,36,36,14,1,2,1,,,,,,,,,,,,,,,,,,,,,,,,,,,,,,,,,,,,,,,,,,,,,,,,,,,,,,,,,,,,,,,,,,,,,,,,,,,
,,,,,,,,,,stimuli/images/PICTURE_491.png,RIVER,5ddcd77f23f9f1c2c45d6c18,01/09/1954,2020-07-09_16h05.37.612,proactive,2020.1.2,Win32,60,5f073de81c76c3308c0e4fb3,5f07777097216d18cd87951e,1,,,,,,rug,,,,,,0,37,37,6,1,1,1,,,,,,,,,,,,,,,,,,,,,,,,,,,,,,,,,,,,,,,,,,,,,,,,,,,,,,,,,,,,,,,,,,,,,,,,,,,
,,,,,,,,,,stimuli/images/PICTURE_339.png,CLIENT,5ddcd77f23f9f1c2c45d6c18,01/09/1954,2020-07-09_16h05.37.612,proactive,2020.1.2,Win32,60,5f073de81c76c3308c0e4fb3,5f07777097216d18cd87951e,1,,,,,,backpack,,,,,,0,38,38,11,1,2,1,,,,,,,,,,,,,,,,,,,,,,,,,,,,,,,,,,,,,,,,,,,,,,,,,,,,,,,,,,,,,,,,,,,,,,,,,,,
,,,,,,,,,,stimuli/images/PICTURE_108.png,FLIGHT,5ddcd77f23f9f1c2c45d6c18,01/09/1954,2020-07-09_16h05.37.612,proactive,2020.1.2,Win32,60,5f073de81c76c3308c0e4fb3,5f07777097216d18cd87951e,1,,,,,,calendar,,,,,,0,39,39,59,1,6,1,,,,,,,,,,,,,,,,,,,,,,,,,,,,,,,,,,,,,,,,,,,,,,,,,,,,,,,,,,,,,,,,,,,,,,,,,,,
,,,,,,,,,,stimuli/images/PICTURE_42.png,BOYS,5ddcd77f23f9f1c2c45d6c18,01/09/1954,2020-07-09_16h05.37.612,proactive,2020.1.2,Win32,60,5f073de81c76c3308c0e4fb3,5f07777097216d18cd87951e,1,,,,,,pear,,,,,,0,40,40,55,1,6,1,,,,,,,,,,,,,,,,,,,,,,,,,,,,,,,,,,,,,,,,,,,,,,,,,,,,,,,,,,,,,,,,,,,,,,,,,,,
,,,,,,,,,,stimuli/images/PICTURE_675.png,SALE,5ddcd77f23f9f1c2c45d6c18,01/09/1954,2020-07-09_16h05.37.612,proactive,2020.1.2,Win32,60,5f073de81c76c3308c0e4fb3,5f07777097216d18cd87951e,1,,,,,,windmill,,,,,,0,41,41,47,1,5,1,,,,,,,,,,,,,,,,,,,,,,,,,,,,,,,,,,,,,,,,,,,,,,,,,,,,,,,,,,,,,,,,,,,,,,,,,,,
,,,,,,,,,,stimuli/images/PICTURE_203.png,GODS,5ddcd77f23f9f1c2c45d6c18,01/09/1954,2020-07-09_16h05.37.612,proactive,2020.1.2,Win32,60,5f073de81c76c3308c0e4fb3,5f07777097216d18cd87951e,1,,,,,,cap,,,,,,0,42,42,30,1,4,1,,,,,,,,,,,,,,,,,,,,,,,,,,,,,,,,,,,,,,,,,,,,,,,,,,,,,,,,,,,,,,,,,,,,,,,,,,,
,,,,,,,,,,stimuli/images/PICTURE_654.png,MONTH,5ddcd77f23f9f1c2c45d6c18,01/09/1954,2020-07-09_16h05.37.612,proactive,2020.1.2,Win32,60,5f073de81c76c3308c0e4fb3,5f07777097216d18cd87951e,1,,,,,,pencil,,,,,,0,43,43,29,1,3,1,,,,,,,,,,,,,,,,,,,,,,,,,,,,,,,,,,,,,,,,,,,,,,,,,,,,,,,,,,,,,,,,,,,,,,,,,,,
,,,,,,,,,,stimuli/images/PICTURE_403.png,RIVER,5ddcd77f23f9f1c2c45d6c18,01/09/1954,2020-07-09_16h05.37.612,proactive,2020.1.2,Win32,60,5f073de81c76c3308c0e4fb3,5f07777097216d18cd87951e,1,,,,,,cathedral,,,,,,0,44,44,40,1,5,1,,,,,,,,,,,,,,,,,,,,,,,,,,,,,,,,,,,,,,,,,,,,,,,,,,,,,,,,,,,,,,,,,,,,,,,,,,,
,,,,,,,,,,stimuli/images/PICTURE_405.png,YEAR,5ddcd77f23f9f1c2c45d6c18,01/09/1954,2020-07-09_16h05.37.612,proactive,2020.1.2,Win32,60,5f073de81c76c3308c0e4fb3,5f07777097216d18cd87951e,1,,,,,,anchor,,,,,,0,45,45,34,1,4,1,,,,,,,,,,,,,,,,,,,,,,,,,,,,,,,,,,,,,,,,,,,,,,,,,,,,,,,,,,,,,,,,,,,,,,,,,,,
,,,,,,,,,,stimuli/images/PICTURE_327.png,SERIES,5ddcd77f23f9f1c2c45d6c18,01/09/1954,2020-07-09_16h05.37.612,proactive,2020.1.2,Win32,60,5f073de81c76c3308c0e4fb3,5f07777097216d18cd87951e,1,,,,,,helmet,,,,,,0,46,46,3,1,1,1,,,,,,,,,,,,,,,,,,,,,,,,,,,,,,,,,,,,,,,,,,,,,,,,,,,,,,,,,,,,,,,,,,,,,,,,,,,
,,,,,,,,,,stimuli/images/PICTURE_208.png,SYSTEM,5ddcd77f23f9f1c2c45d6c18,01/09/1954,2020-07-09_16h05.37.612,proactive,2020.1.2,Win32,60,5f073de81c76c3308c0e4fb3,5f07777097216d18cd87951e,1,,,,,,microphone,,,,,,0,47,47,32,1,4,1,,,,,,,,,,,,,,,,,,,,,,,,,,,,,,,,,,,,,,,,,,,,,,,,,,,,,,,,,,,,,,,,,,,,,,,,,,,
,,,,,,,,,,stimuli/images/PICTURE_68.png,MILE,5ddcd77f23f9f1c2c45d6c18,01/09/1954,2020-07-09_16h05.37.612,proactive,2020.1.2,Win32,60,5f073de81c76c3308c0e4fb3,5f07777097216d18cd87951e,1,,,,,,candle,,,,,,0,48,48,51,1,6,1,,,,,,,,,,,,,,,,,,,,,,,,,,,,,,,,,,,,,,,,,,,,,,,,,,,,,,,,,,,,,,,,,,,,,,,,,,,
,,,,,,,,,,stimuli/images/PICTURE_403.png,WRITER,5ddcd77f23f9f1c2c45d6c18,01/09/1954,2020-07-09_16h05.37.612,proactive,2020.1.2,Win32,60,5f073de81c76c3308c0e4fb3,5f07777097216d18cd87951e,1,,,,,,cathedral,,,,,,0,49,49,31,1,4,1,,,,,,,,,,,,,,,,,,,,,,,,,,,,,,,,,,,,,,,,,,,,,,,,,,,,,,,,,,,,,,,,,,,,,,,,,,,
,,,,,,,,,,stimuli/images/PICTURE_57.png,MOMENT,5ddcd77f23f9f1c2c45d6c18,01/09/1954,2020-07-09_16h05.37.612,proactive,2020.1.2,Win32,60,5f073de81c76c3308c0e4fb3,5f07777097216d18cd87951e,1,,,,,,stamp,,,,,,0,50,50,37,1,4,1,,,,,,,,,,,,,,,,,,,,,,,,,,,,,,,,,,,,,,,,,,,,,,,,,,,,,,,,,,,,,,,,,,,,,,,,,,,
,,,,,,,,,,stimuli/images/PICTURE_296.png,LOTS,5ddcd77f23f9f1c2c45d6c18,01/09/1954,2020-07-09_16h05.37.612,proactive,2020.1.2,Win32,60,5f073de81c76c3308c0e4fb3,5f07777097216d18cd87951e,1,,,,,,bolt,,,,,,0,51,51,9,1,1,1,,,,,,,,,,,,,,,,,,,,,,,,,,,,,,,,,,,,,,,,,,,,,,,,,,,,,,,,,,,,,,,,,,,,,,,,,,,
,,,,,,,,,,stimuli/images/PICTURE_32.png,PILLS,5ddcd77f23f9f1c2c45d6c18,01/09/1954,2020-07-09_16h05.37.612,proactive,2020.1.2,Win32,60,5f073de81c76c3308c0e4fb3,5f07777097216d18cd87951e,1,,,,,,crown,,,,,,0,52,52,18,1,2,1,,,,,,,,,,,,,,,,,,,,,,,,,,,,,,,,,,,,,,,,,,,,,,,,,,,,,,,,,,,,,,,,,,,,,,,,,,,
,,,,,,,,,,stimuli/images/PICTURE_504.png,YEAR,5ddcd77f23f9f1c2c45d6c18,01/09/1954,2020-07-09_16h05.37.612,proactive,2020.1.2,Win32,60,5f073de81c76c3308c0e4fb3,5f07777097216d18cd87951e,1,,,,,,wheel,,,,,,0,53,53,13,1,2,1,,,,,,,,,,,,,,,,,,,,,,,,,,,,,,,,,,,,,,,,,,,,,,,,,,,,,,,,,,,,,,,,,,,,,,,,,,,
,,,,,,,,,,stimuli/images/PICTURE_108.png,POLICY,5ddcd77f23f9f1c2c45d6c18,01/09/1954,2020-07-09_16h05.37.612,proactive,2020.1.2,Win32,60,5f073de81c76c3308c0e4fb3,5f07777097216d18cd87951e,1,,,,,,calendar,,,,,,0,54,54,22,1,3,1,,,,,,,,,,,,,,,,,,,,,,,,,,,,,,,,,,,,,,,,,,,,,,,,,,,,,,,,,,,,,,,,,,,,,,,,,,,
,,,,,,,,,,stimuli/images/PICTURE_380.png,CANDY,5ddcd77f23f9f1c2c45d6c18,01/09/1954,2020-07-09_16h05.37.612,proactive,2020.1.2,Win32,60,5f073de81c76c3308c0e4fb3,5f07777097216d18cd87951e,1,,,,,,gorilla,,,,,,0,55,55,0,1,1,1,,,,,,,,,,,,,,,,,,,,,,,,,,,,,,,,,,,,,,,,,,,,,,,,,,,,,,,,,,,,,,,,,,,,,,,,,,,
,,,,,,,,,,stimuli/images/PICTURE_285.png,LIFE,5ddcd77f23f9f1c2c45d6c18,01/09/1954,2020-07-09_16h05.37.612,proactive,2020.1.2,Win32,60,5f073de81c76c3308c0e4fb3,5f07777097216d18cd87951e,1,,,,,,carrot,,,,,,0,56,56,33,1,4,1,,,,,,,,,,,,,,,,,,,,,,,,,,,,,,,,,,,,,,,,,,,,,,,,,,,,,,,,,,,,,,,,,,,,,,,,,,,
,,,,,,,,,,stimuli/images/PICTURE_2.png,FLIGHT,5ddcd77f23f9f1c2c45d6c18,01/09/1954,2020-07-09_16h05.37.612,proactive,2020.1.2,Win32,60,5f073de81c76c3308c0e4fb3,5f07777097216d18cd87951e,1,,,,,,tyre,,,,,,0,57,57,15,1,2,1,,,,,,,,,,,,,,,,,,,,,,,,,,,,,,,,,,,,,,,,,,,,,,,,,,,,,,,,,,,,,,,,,,,,,,,,,,,
,,,,,,,,,,stimuli/images/PICTURE_487.png,GIRL,5ddcd77f23f9f1c2c45d6c18,01/09/1954,2020-07-09_16h05.37.612,proactive,2020.1.2,Win32,60,5f073de81c76c3308c0e4fb3,5f07777097216d18cd87951e,1,,,,,,basket,,,,,,0,58,58,45,1,5,1,,,,,,,,,,,,,,,,,,,,,,,,,,,,,,,,,,,,,,,,,,,,,,,,,,,,,,,,,,,,,,,,,,,,,,,,,,,
,,?,0.002485,0,,,,,,stimuli/images/PICTURE_296.png,LIFE,5ddcd77f23f9f1c2c45d6c18,01/09/1954,2020-07-09_16h05.37.612,proactive,2020.1.2,Win32,60,5f073de81c76c3308c0e4fb3,5f07777097216d18cd87951e,1,,,,,,bolt,,,,,,,,,,,6,1,0,0,0,57,1,,,,,,,,,,,,,,,,,,,,,,,,,,,,,,,,,,,,,,,,,,,,,,,,,,,,,,,,,,,,,,,,,,,,,,
,,?,0.002575,0,,,,,,stimuli/images/PICTURE_504.png,ARTIST,5ddcd77f23f9f1c2c45d6c18,01/09/1954,2020-07-09_16h05.37.612,proactive,2020.1.2,Win32,60,5f073de81c76c3308c0e4fb3,5f07777097216d18cd87951e,1,,,,,,wheel,,,,,,,,,,,5,1,0,1,1,49,1,,,,,,,,,,,,,,,,,,,,,,,,,,,,,,,,,,,,,,,,,,,,,,,,,,,,,,,,,,,,,,,,,,,,,,
,,?,0.00233,0,,,,,,stimuli/images/PICTURE_405.png,YEAR,5ddcd77f23f9f1c2c45d6c18,01/09/1954,2020-07-09_16h05.37.612,proactive,2020.1.2,Win32,60,5f073de81c76c3308c0e4fb3,5f07777097216d18cd87951e,1,,,,,,anchor,,,,,,,,,,,4,1,0,2,2,34,1,,,,,,,,,,,,,,,,,,,,,,,,,,,,,,,,,,,,,,,,,,,,,,,,,,,,,,,,,,,,,,,,,,,,,,
,,?,0.00223,0,,,,,,stimuli/images/PICTURE_42.png,BOYS,5ddcd77f23f9f1c2c45d6c18,01/09/1954,2020-07-09_16h05.37.612,proactive,2020.1.2,Win32,60,5f073de81c76c3308c0e4fb3,5f07777097216d18cd87951e,1,,,,,,pear,,,,,,,,,,,6,1,0,3,3,55,1,,,,,,,,,,,,,,,,,,,,,,,,,,,,,,,,,,,,,,,,,,,,,,,,,,,,,,,,,,,,,,,,,,,,,,
,,RIVER,3.3414,1,,,,,,stimuli/images/PICTURE_491.png,RIVER,5ddcd77f23f9f1c2c45d6c18,01/09/1954,2020-07-09_16h05.37.612,proactive,2020.1.2,Win32,60,5f073de81c76c3308c0e4fb3,5f07777097216d18cd87951e,1,,,,,,rug,,,,,,,,,,,1,1,0,4,4,6,1,,,,,,,,,,,,,,,,,,,,,,,,,,,,,,,,,,,,,,,,,,,,,,,,,,,,,,,,,,,,,,,,,,,,,,
,,?,0.002415,0,,,,,,stimuli/images/PICTURE_32.png,KIND,5ddcd77f23f9f1c2c45d6c18,01/09/1954,2020-07-09_16h05.37.612,proactive,2020.1.2,Win32,60,5f073de81c76c3308c0e4fb3,5f07777097216d18cd87951e,1,,,,,,crown,,,,,,,,,,,4,1,0,5,5,35,1,,,,,,,,,,,,,,,,,,,,,,,,,,,,,,,,,,,,,,,,,,,,,,,,,,,,,,,,,,,,,,,,,,,,,,
,,?,0.002265,0,,,,,,stimuli/images/PICTURE_308.png,FAMILY,5ddcd77f23f9f1c2c45d6c18,01/09/1954,2020-07-09_16h05.37.612,proactive,2020.1.2,Win32,60,5f073de81c76c3308c0e4fb3,5f07777097216d18cd87951e,1,,,,,,dice,,,,,,,,,,,4,1,0,6,6,36,1,,,,,,,,,,,,,,,,,,,,,,,,,,,,,,,,,,,,,,,,,,,,,,,,,,,,,,,,,,,,,,,,,,,,,,
,,?,0.002315,0,,,,,,stimuli/images/PICTURE_95.png,MILLER,5ddcd77f23f9f1c2c45d6c18,01/09/1954,2020-07-09_16h05.37.612,proactive,2020.1.2,Win32,60,5f073de81c76c3308c0e4fb3,5f07777097216d18cd87951e,1,,,,,,suitcase,,,,,,,,,,,6,1,0,7,7,56,1,,,,,,,,,,,,,,,,,,,,,,,,,,,,,,,,,,,,,,,,,,,,,,,,,,,,,,,,,,,,,,,,,,,,,,
,,?,0.00223,0,,,,,,stimuli/images/PICTURE_487.png,GIRL,5ddcd77f23f9f1c2c45d6c18,01/09/1954,2020-07-09_16h05.37.612,proactive,2020.1.2,Win32,60,5f073de81c76c3308c0e4fb3,5f07777097216d18cd87951e,1,,,,,,basket,,,,,,,,,,,5,1,0,8,8,45,1,,,,,,,,,,,,,,,,,,,,,,,,,,,,,,,,,,,,,,,,,,,,,,,,,,,,,,,,,,,,,,,,,,,,,,
,,?,0.00262,0,,,,,,stimuli/images/PICTURE_233.png,LOTS,5ddcd77f23f9f1c2c45d6c18,01/09/1954,2020-07-09_16h05.37.612,proactive,2020.1.2,Win32,60,5f073de81c76c3308c0e4fb3,5f07777097216d18cd87951e,1,,,,,,salt,,,,,,,,,,,5,1,0,9,9,42,1,,,,,,,,,,,,,,,,,,,,,,,,,,,,,,,,,,,,,,,,,,,,,,,,,,,,,,,,,,,,,,,,,,,,,,
,,?,0.002515,0,,,,,,stimuli/images/PICTURE_340.png,LETTER,5ddcd77f23f9f1c2c45d6c18,01/09/1954,2020-07-09_16h05.37.612,proactive,2020.1.2,Win32,60,5f073de81c76c3308c0e4fb3,5f07777097216d18cd87951e,1,,,,,,mirror,,,,,,,,,,,3,1,0,10,10,24,1,,,,,,,,,,,,,,,,,,,,,,,,,,,,,,,,,,,,,,,,,,,,,,,,,,,,,,,,,,,,,,,,,,,,,,
,,WOMAN,3.328565,0,,,,,,stimuli/images/PICTURE_147.png,WOMEN,5ddcd77f23f9f1c2c45d6c18,01/09/1954,2020-07-09_16h05.37.612,proactive,2020.1.2,Win32,60,5f073de81c76c3308c0e4fb3,5f07777097216d18cd87951e,1,,,,,,hanger,,,,,,,,,,,1,1,0,11,11,7,1,,,,,,,,,,,,,,,,,,,,,,,,,,,,,,,,,,,,,,,,,,,,,,,,,,,,,,,,,,,,,,,,,,,,,,
,,?,0.002335,0,,,,,,stimuli/images/PICTURE_403.png,RIVER,5ddcd77f23f9f1c2c45d6c18,01/09/1954,2020-07-09_16h05.37.612,proactive,2020.1.2,Win32,60,5f073de81c76c3308c0e4fb3,5f07777097216d18cd87951e,1,,,,,,cathedral,,,,,,,,,,,5,1,0,12,12,40,1,,,,,,,,,,,,,,,,,,,,,,,,,,,,,,,,,,,,,,,,,,,,,,,,,,,,,,,,,,,,,,,,,,,,,,
,,NATION,4.130345,1,,,,,,stimuli/images/PICTURE_85.png,NATION,5ddcd77f23f9f1c2c45d6c18,01/09/1954,2020-07-09_16h05.37.612,proactive,2020.1.2,Win32,60,5f073de81c76c3308c0e4fb3,5f07777097216d18cd87951e,1,,,,,,diamond,,,,,,,,,,,1,1,0,13,13,5,1,,,,,,,,,,,,,,,,,,,,,,,,,,,,,,,,,,,,,,,,,,,,,,,,,,,,,,,,,,,,,,,,,,,,,,
,,?,0.002305,0,,,,,,stimuli/images/PICTURE_403.png,TOILET,5ddcd77f23f9f1c2c45d6c18,01/09/1954,2020-07-09_16h05.37.612,proactive,2020.1.2,Win32,60,5f073de81c76c3308c0e4fb3,5f07777097216d18cd87951e,1,,,,,,cathedral,,,,,,,,,,,3,1,0,14,14,25,1,,,,,,,,,,,,,,,,,,,,,,,,,,,,,,,,,,,,,,,,,,,,,,,,,,,,,,,,,,,,,,,,,,,,,,
,,?,0.002255,0,,,,,,stimuli/images/PICTURE_677.png,APPLE,5ddcd77f23f9f1c2c45d6c18,01/09/1954,2020-07-09_16h05.37.612,proactive,2020.1.2,Win32,60,5f073de81c76c3308c0e4fb3,5f07777097216d18cd87951e,1,,,,,,map,,,,,,,,,,,5,1,0,15,15,43,1,,,,,,,,,,,,,,,,,,,,,,,,,,,,,,,,,,,,,,,,,,,,,,,,,,,,,,,,,,,,,,,,,,,,,,
,,?,0.00485,0,,,,,,stimuli/images/PICTURE_380.png,HONEY,5ddcd77f23f9f1c2c45d6c18,01/09/1954,2020-07-09_16h05.37.612,proactive,2020.1.2,Win32,60,5f073de81c76c3308c0e4fb3,5f07777097216d18cd87951e,1,,,,,,gorilla,,,,,,,,,,,2,1,0,16,16,19,1,,,,,,,,,,,,,,,,,,,,,,,,,,,,,,,,,,,,,,,,,,,,,,,,,,,,,,,,,,,,,,,,,,,,,,
,,?,0.003905,0,,,,,,stimuli/images/PICTURE_285.png,LIFE,5ddcd77f23f9f1c2c45d6c18,01/09/1954,2020-07-09_16h05.37.612,proactive,2020.1.2,Win32,60,5f073de81c76c3308c0e4fb3,5f07777097216d18cd87951e,1,,,,,,carrot,,,,,,,,,,,4,1,0,17,17,33,1,,,,,,,,,,,,,,,,,,,,,,,,,,,,,,,,,,,,,,,,,,,,,,,,,,,,,,,,,,,,,,,,,,,,,,
,,?,0.00238,0,,,,,,stimuli/images/PICTURE_32.png,PILLS,5ddcd77f23f9f1c2c45d6c18,01/09/1954,2020-07-09_16h05.37.612,proactive,2020.1.2,Win32,60,5f073de81c76c3308c0e4fb3,5f07777097216d18cd87951e,1,,,,,,crown,,,,,,,,,,,2,1,0,18,18,18,1,,,,,,,,,,,,,,,,,,,,,,,,,,,,,,,,,,,,,,,,,,,,,,,,,,,,,,,,,,,,,,,,,,,,,,
,,?,0.00221,0,,,,,,stimuli/images/PICTURE_340.png,VALLEY,5ddcd77f23f9f1c2c45d6c18,01/09/1954,2020-07-09_16h05.37.612,proactive,2020.1.2,Win32,60,5f073de81c76c3308c0e4fb3,5f07777097216d18cd87951e,1,,,,,,mirror,,,,,,,,,,,6,1,0,19,19,54,1,,,,,,,,,,,,,,,,,,,,,,,,,,,,,,,,,,,,,,,,,,,,,,,,,,,,,,,,,,,,,,,,,,,,,,
,,?,0.002295,0,,,,,,stimuli/images/PICTURE_95.png,HONEY,5ddcd77f23f9f1c2c45d6c18,01/09/1954,2020-07-09_16h05.37.612,proactive,2020.1.2,Win32,60,5f073de81c76c3308c0e4fb3,5f07777097216d18cd87951e,1,,,,,,suitcase,,,,,,,,,,,5,1,0,20,20,44,1,,,,,,,,,,,,,,,,,,,,,,,,,,,,,,,,,,,,,,,,,,,,,,,,,,,,,,,,,,,,,,,,,,,,,,
,,FRIEND,4.061555,1,,,,,,stimuli/images/PICTURE_33.png,FRIEND,5ddcd77f23f9f1c2c45d6c18,01/09/1954,2020-07-09_16h05.37.612,proactive,2020.1.2,Win32,60,5f073de81c76c3308c0e4fb3,5f07777097216d18cd87951e,1,,,,,,frame,,,,,,,,,,,1,1,0,21,21,8,1,,,,,,,,,,,,,,,,,,,,,,,,,,,,,,,,,,,,,,,,,,,,,,,,,,,,,,,,,,,,,,,,,,,,,,
,,?,0.00221,0,,,,,,stimuli/images/PICTURE_327.png,CASINO,5ddcd77f23f9f1c2c45d6c18,01/09/1954,2020-07-09_16h05.37.612,proactive,2020.1.2,Win32,60,5f073de81c76c3308c0e4fb3,5f07777097216d18cd87951e,1,,,,,,helmet,,,,,,,,,,,3,1,0,22,22,20,1,,,,,,,,,,,,,,,,,,,,,,,,,,,,,,,,,,,,,,,,,,,,,,,,,,,,,,,,,,,,,,,,,,,,,,
,,?,0.00216,0,,,,,,stimuli/images/PICTURE_654.png,MONTH,5ddcd77f23f9f1c2c45d6c18,01/09/1954,2020-07-09_16h05.37.612,proactive,2020.1.2,Win32,60,5f073de81c76c3308c0e4fb3,5f07777097216d18cd87951e,1,,,,,,pencil,,,,,,,,,,,3,1,0,23,23,29,1,,,,,,,,,,,,,,,,,,,,,,,,,,,,,,,,,,,,,,,,,,,,,,,,,,,,,,,,,,,,,,,,,,,,,,
,,?,0.00357,0,,,,,,stimuli/images/PICTURE_2.png,FLIGHT,5ddcd77f23f9f1c2c45d6c18,01/09/1954,2020-07-09_16h05.37.612,proactive,2020.1.2,Win32,60,5f073de81c76c3308c0e4fb3,5f07777097216d18cd87951e,1,,,,,,tyre,,,,,,,,,,,2,1,0,24,24,15,1,,,,,,,,,,,,,,,,,,,,,,,,,,,,,,,,,,,,,,,,,,,,,,,,,,,,,,,,,,,,,,,,,,,,,,
,,?,0.0025,0,,,,,,stimuli/images/PICTURE_108.png,FLIGHT,5ddcd77f23f9f1c2c45d6c18,01/09/1954,2020-07-09_16h05.37.612,proactive,2020.1.2,Win32,60,5f073de81c76c3308c0e4fb3,5f07777097216d18cd87951e,1,,,,,,calendar,,,,,,,,,,,6,1,0,25,25,59,1,,,,,,,,,,,,,,,,,,,,,,,,,,,,,,,,,,,,,,,,,,,,,,,,,,,,,,,,,,,,,,,,,,,,,,
,,?,0.002375,0,,,,,,stimuli/images/PICTURE_750.png,HOTEL,5ddcd77f23f9f1c2c45d6c18,01/09/1954,2020-07-09_16h05.37.612,proactive,2020.1.2,Win32,60,5f073de81c76c3308c0e4fb3,5f07777097216d18cd87951e,1,,,,,,kettle,,,,,,,,,,,3,1,0,26,26,27,1,,,,,,,,,,,,,,,,,,,,,,,,,,,,,,,,,,,,,,,,,,,,,,,,,,,,,,,,,,,,,,,,,,,,,,
,,?,0.00246,0,,,,,,stimuli/images/PICTURE_57.png,MOMENT,5ddcd77f23f9f1c2c45d6c18,01/09/1954,2020-07-09_16h05.37.612,proactive,2020.1.2,Win32,60,5f073de81c76c3308c0e4fb3,5f07777097216d18cd87951e,1,,,,,,stamp,,,,,,,,,,,4,1,0,27,27,37,1,,,,,,,,,,,,,,,,,,,,,,,,,,,,,,,,,,,,,,,,,,,,,,,,,,,,,,,,,,,,,,,,,,,,,,
,,?,0.002345,0,,,,,,stimuli/images/PICTURE_655.png,TOILET,5ddcd77f23f9f1c2c45d6c18,01/09/1954,2020-07-09_16h05.37.612,proactive,2020.1.2,Win32,60,5f073de81c76c3308c0e4fb3,5f07777097216d18cd87951e,1,,,,,,megaphone,,,,,,,,,,,2,1,0,28,28,12,1,,,,,,,,,,,,,,,,,,,,,,,,,,,,,,,,,,,,,,,,,,,,,,,,,,,,,,,,,,,,,,,,,,,,,,
,,?,0.00236,0,,,,,,stimuli/images/PICTURE_469.png,AGENT,5ddcd77f23f9f1c2c45d6c18,01/09/1954,2020-07-09_16h05.37.612,proactive,2020.1.2,Win32,60,5f073de81c76c3308c0e4fb3,5f07777097216d18cd87951e,1,,,,,,stool,,,,,,,,,,,2,1,0,29,29,16,1,,,,,,,,,,,,,,,,,,,,,,,,,,,,,,,,,,,,,,,,,,,,,,,,,,,,,,,,,,,,,,,,,,,,,,
,,?,0.002225,0,,,,,,stimuli/images/PICTURE_504.png,COPS,5ddcd77f23f9f1c2c45d6c18,01/09/1954,2020-07-09_16h05.37.612,proactive,2020.1.2,Win32,60,5f073de81c76c3308c0e4fb3,5f07777097216d18cd87951e,1,,,,,,wheel,,,,,,,,,,,6,1,0,30,30,52,1,,,,,,,,,,,,,,,,,,,,,,,,,,,,,,,,,,,,,,,,,,,,,,,,,,,,,,,,,,,,,,,,,,,,,,
,,LOTS,4.1767,1,,,,,,stimuli/images/PICTURE_296.png,LOTS,5ddcd77f23f9f1c2c45d6c18,01/09/1954,2020-07-09_16h05.37.612,proactive,2020.1.2,Win32,60,5f073de81c76c3308c0e4fb3,5f07777097216d18cd87951e,1,,,,,,bolt,,,,,,,,,,,1,1,0,31,31,9,1,,,,,,,,,,,,,,,,,,,,,,,,,,,,,,,,,,,,,,,,,,,,,,,,,,,,,,,,,,,,,,,,,,,,,,
,,?,0.00225,0,,,,,,stimuli/images/PICTURE_177.png,WRITER,5ddcd77f23f9f1c2c45d6c18,01/09/1954,2020-07-09_16h05.37.612,proactive,2020.1.2,Win32,60,5f073de81c76c3308c0e4fb3,5f07777097216d18cd87951e,1,,,,,,mushroom,,,,,,,,,,,5,1,0,32,32,41,1,,,,,,,,,,,,,,,,,,,,,,,,,,,,,,,,,,,,,,,,,,,,,,,,,,,,,,,,,,,,,,,,,,,,,,
,,?,0.002225,0,,,,,,stimuli/images/PICTURE_85.png,TOILET,5ddcd77f23f9f1c2c45d6c18,01/09/1954,2020-07-09_16h05.37.612,proactive,2020.1.2,Win32,60,5f073de81c76c3308c0e4fb3,5f07777097216d18cd87951e,1,,,,,,diamond,,,,,,,,,,,5,1,0,33,33,48,1,,,,,,,,,,,,,,,,,,,,,,,,,,,,,,,,,,,,,,,,,,,,,,,,,,,,,,,,,,,,,,,,,,,,,,
,,?,0.00267,0,,,,,,stimuli/images/PICTURE_297.png,RIVER,5ddcd77f23f9f1c2c45d6c18,01/09/1954,2020-07-09_16h05.37.612,proactive,2020.1.2,Win32,60,5f073de81c76c3308c0e4fb3,5f07777097216d18cd87951e,1,,,,,,aeroplane,,,,,,,,,,,4,1,0,34,34,39,1,,,,,,,,,,,,,,,,,,,,,,,,,,,,,,,,,,,,,,,,,,,,,,,,,,,,,,,,,,,,,,,,,,,,,,
,,?,0.00249,0,,,,,,stimuli/images/PICTURE_667.png,RIVER,5ddcd77f23f9f1c2c45d6c18,01/09/1954,2020-07-09_16h05.37.612,proactive,2020.1.2,Win32,60,5f073de81c76c3308c0e4fb3,5f07777097216d18cd87951e,1,,,,,,daisy,,,,,,,,,,,2,1,0,35,35,10,1,,,,,,,,,,,,,,,,,,,,,,,,,,,,,,,,,,,,,,,,,,,,,,,,,,,,,,,,,,,,,,,,,,,,,,
,,PENNY,5.26044,1,,,,,,stimuli/images/PICTURE_685.png,PENNY,5ddcd77f23f9f1c2c45d6c18,01/09/1954,2020-07-09_16h05.37.612,proactive,2020.1.2,Win32,60,5f073de81c76c3308c0e4fb3,5f07777097216d18cd87951e,1,,,,,,goose,,,,,,,,,,,1,1,0,36,36,4,1,,,,,,,,,,,,,,,,,,,,,,,,,,,,,,,,,,,,,,,,,,,,,,,,,,,,,,,,,,,,,,,,,,,,,,
,,?,0.002185,0,,,,,,stimuli/images/PICTURE_449.png,DUDE,5ddcd77f23f9f1c2c45d6c18,01/09/1954,2020-07-09_16h05.37.612,proactive,2020.1.2,Win32,60,5f073de81c76c3308c0e4fb3,5f07777097216d18cd87951e,1,,,,,,bench,,,,,,,,,,,2,1,0,37,37,17,1,,,,,,,,,,,,,,,,,,,,,,,,,,,,,,,,,,,,,,,,,,,,,,,,,,,,,,,,,,,,,,,,,,,,,,
,,?,0.00215,0,,,,,,stimuli/images/PICTURE_339.png,CLIENT,5ddcd77f23f9f1c2c45d6c18,01/09/1954,2020-07-09_16h05.37.612,proactive,2020.1.2,Win32,60,5f073de81c76c3308c0e4fb3,5f07777097216d18cd87951e,1,,,,,,backpack,,,,,,,,,,,2,1,0,38,38,11,1,,,,,,,,,,,,,,,,,,,,,,,,,,,,,,,,,,,,,,,,,,,,,,,,,,,,,,,,,,,,,,,,,,,,,,
,,?,0.002185,0,,,,,,stimuli/images/PICTURE_405.png,PLENTY,5ddcd77f23f9f1c2c45d6c18,01/09/1954,2020-07-09_16h05.37.612,proactive,2020.1.2,Win32,60,5f073de81c76c3308c0e4fb3,5f07777097216d18cd87951e,1,,,,,,anchor,,,,,,,,,,,3,1,0,39,39,23,1,,,,,,,,,,,,,,,,,,,,,,,,,,,,,,,,,,,,,,,,,,,,,,,,,,,,,,,,,,,,,,,,,,,,,,
,,BOYS,3.686235,1,,,,,,stimuli/images/PICTURE_95.png,BOYS,5ddcd77f23f9f1c2c45d6c18,01/09/1954,2020-07-09_16h05.37.612,proactive,2020.1.2,Win32,60,5f073de81c76c3308c0e4fb3,5f07777097216d18cd87951e,1,,,,,,suitcase,,,,,,,,,,,1,1,0,40,40,1,1,,,,,,,,,,,,,,,,,,,,,,,,,,,,,,,,,,,,,,,,,,,,,,,,,,,,,,,,,,,,,,,,,,,,,,
,,?,0.00221,0,,,,,,stimuli/images/PICTURE_491.png,GLASS,5ddcd77f23f9f1c2c45d6c18,01/09/1954,2020-07-09_16h05.37.612,proactive,2020.1.2,Win32,60,5f073de81c76c3308c0e4fb3,5f07777097216d18cd87951e,1,,,,,,rug,,,,,,,,,,,2,1,0,41,41,14,1,,,,,,,,,,,,,,,,,,,,,,,,,,,,,,,,,,,,,,,,,,,,,,,,,,,,,,,,,,,,,,,,,,,,,,
,,CANDY,3.898525,1,,,,,,stimuli/images/PICTURE_380.png,CANDY,5ddcd77f23f9f1c2c45d6c18,01/09/1954,2020-07-09_16h05.37.612,proactive,2020.1.2,Win32,60,5f073de81c76c3308c0e4fb3,5f07777097216d18cd87951e,1,,,,,,gorilla,,,,,,,,,,,1,1,0,42,42,0,1,,,,,,,,,,,,,,,,,,,,,,,,,,,,,,,,,,,,,,,,,,,,,,,,,,,,,,,,,,,,,,,,,,,,,,
,,?,0.00223,0,,,,,,stimuli/images/PICTURE_383.png,WRITER,5ddcd77f23f9f1c2c45d6c18,01/09/1954,2020-07-09_16h05.37.612,proactive,2020.1.2,Win32,60,5f073de81c76c3308c0e4fb3,5f07777097216d18cd87951e,1,,,,,,coin,,,,,,,,,,,3,1,0,43,43,28,1,,,,,,,,,,,,,,,,,,,,,,,,,,,,,,,,,,,,,,,,,,,,,,,,,,,,,,,,,,,,,,,,,,,,,,
,,?,0.002075,0,,,,,,stimuli/images/PICTURE_504.png,YEAR,5ddcd77f23f9f1c2c45d6c18,01/09/1954,2020-07-09_16h05.37.612,proactive,2020.1.2,Win32,60,5f073de81c76c3308c0e4fb3,5f07777097216d18cd87951e,1,,,,,,wheel,,,,,,,,,,,2,1,0,44,44,13,1,,,,,,,,,,,,,,,,,,,,,,,,,,,,,,,,,,,,,,,,,,,,,,,,,,,,,,,,,,,,,,,,,,,,,,
,,NIGHT,4.82851,1,,,,,,stimuli/images/PICTURE_203.png,NIGHT,5ddcd77f23f9f1c2c45d6c18,01/09/1954,2020-07-09_16h05.37.612,proactive,2020.1.2,Win32,60,5f073de81c76c3308c0e4fb3,5f07777097216d18cd87951e,1,,,,,,cap,,,,,,,,,,,1,1,0,45,45,2,1,,,,,,,,,,,,,,,,,,,,,,,,,,,,,,,,,,,,,,,,,,,,,,,,,,,,,,,,,,,,,,,,,,,,,,
,,?,0.00216,0,,,,,,stimuli/images/PICTURE_108.png,POLICY,5ddcd77f23f9f1c2c45d6c18,01/09/1954,2020-07-09_16h05.37.612,proactive,2020.1.2,Win32,60,5f073de81c76c3308c0e4fb3,5f07777097216d18cd87951e,1,,,,,,calendar,,,,,,,,,,,3,1,0,46,46,22,1,,,,,,,,,,,,,,,,,,,,,,,,,,,,,,,,,,,,,,,,,,,,,,,,,,,,,,,,,,,,,,,,,,,,,,
,,?,0.00216,0,,,,,,stimuli/images/PICTURE_147.png,YEAR,5ddcd77f23f9f1c2c45d6c18,01/09/1954,2020-07-09_16h05.37.612,proactive,2020.1.2,Win32,60,5f073de81c76c3308c0e4fb3,5f07777097216d18cd87951e,1,,,,,,hanger,,,,,,,,,,,3,1,0,47,47,21,1,,,,,,,,,,,,,,,,,,,,,,,,,,,,,,,,,,,,,,,,,,,,,,,,,,,,,,,,,,,,,,,,,,,,,,
,,?,0.00214,0,,,,,,stimuli/images/PICTURE_208.png,SYSTEM,5ddcd77f23f9f1c2c45d6c18,01/09/1954,2020-07-09_16h05.37.612,proactive,2020.1.2,Win32,60,5f073de81c76c3308c0e4fb3,5f07777097216d18cd87951e,1,,,,,,microphone,,,,,,,,,,,4,1,0,48,48,32,1,,,,,,,,,,,,,,,,,,,,,,,,,,,,,,,,,,,,,,,,,,,,,,,,,,,,,,,,,,,,,,,,,,,,,,
,,?,0.00289,0,,,,,,stimuli/images/PICTURE_203.png,GODS,5ddcd77f23f9f1c2c45d6c18,01/09/1954,2020-07-09_16h05.37.612,proactive,2020.1.2,Win32,60,5f073de81c76c3308c0e4fb3,5f07777097216d18cd87951e,1,,,,,,cap,,,,,,,,,,,4,1,0,49,49,30,1,,,,,,,,,,,,,,,,,,,,,,,,,,,,,,,,,,,,,,,,,,,,,,,,,,,,,,,,,,,,,,,,,,,,,,
,,?,0.00212,0,,,,,,stimuli/images/PICTURE_383.png,SERIES,5ddcd77f23f9f1c2c45d6c18,01/09/1954,2020-07-09_16h05.37.612,proactive,2020.1.2,Win32,60,5f073de81c76c3308c0e4fb3,5f07777097216d18cd87951e,1,,,,,,coin,,,,,,,,,,,5,1,0,50,50,46,1,,,,,,,,,,,,,,,,,,,,,,,,,,,,,,,,,,,,,,,,,,,,,,,,,,,,,,,,,,,,,,,,,,,,,,
,,?,0.00206,0,,,,,,stimuli/images/PICTURE_68.png,ROOF,5ddcd77f23f9f1c2c45d6c18,01/09/1954,2020-07-09_16h05.37.612,proactive,2020.1.2,Win32,60,5f073de81c76c3308c0e4fb3,5f07777097216d18cd87951e,1,,,,,,candle,,,,,,,,,,,4,1,0,51,51,38,1,,,,,,,,,,,,,,,,,,,,,,,,,,,,,,,,,,,,,,,,,,,,,,,,,,,,,,,,,,,,,,,,,,,,,,
,,?,0.002395,0,,,,,,stimuli/images/PICTURE_708.png,RECORD,5ddcd77f23f9f1c2c45d6c18,01/09/1954,2020-07-09_16h05.37.612,proactive,2020.1.2,Win32,60,5f073de81c76c3308c0e4fb3,5f07777097216d18cd87951e,1,,,,,,monkey,,,,,,,,,,,6,1,0,52,52,58,1,,,,,,,,,,,,,,,,,,,,,,,,,,,,,,,,,,,,,,,,,,,,,,,,,,,,,,,,,,,,,,,,,,,,,,
,,?,0.002215,0,,,,,,stimuli/images/PICTURE_675.png,SALE,5ddcd77f23f9f1c2c45d6c18,01/09/1954,2020-07-09_16h05.37.612,proactive,2020.1.2,Win32,60,5f073de81c76c3308c0e4fb3,5f07777097216d18cd87951e,1,,,,,,windmill,,,,,,,,,,,5,1,0,53,53,47,1,,,,,,,,,,,,,,,,,,,,,,,,,,,,,,,,,,,,,,,,,,,,,,,,,,,,,,,,,,,,,,,,,,,,,,
,,?,0.00207,0,,,,,,stimuli/images/PICTURE_403.png,WRITER,5ddcd77f23f9f1c2c45d6c18,01/09/1954,2020-07-09_16h05.37.612,proactive,2020.1.2,Win32,60,5f073de81c76c3308c0e4fb3,5f07777097216d18cd87951e,1,,,,,,cathedral,,,,,,,,,,,4,1,0,54,54,31,1,,,,,,,,,,,,,,,,,,,,,,,,,,,,,,,,,,,,,,,,,,,,,,,,,,,,,,,,,,,,,,,,,,,,,,
,,?,0.002065,0,,,,,,stimuli/images/PICTURE_744.png,WEAPON,5ddcd77f23f9f1c2c45d6c18,01/09/1954,2020-07-09_16h05.37.612,proactive,2020.1.2,Win32,60,5f073de81c76c3308c0e4fb3,5f07777097216d18cd87951e,1,,,,,,ring,,,,,,,,,,,6,1,0,55,55,50,1,,,,,,,,,,,,,,,,,,,,,,,,,,,,,,,,,,,,,,,,,,,,,,,,,,,,,,,,,,,,,,,,,,,,,,
,,SERIES,4.193405,1,,,,,,stimuli/images/PICTURE_327.png,SERIES,5ddcd77f23f9f1c2c45d6c18,01/09/1954,2020-07-09_16h05.37.612,proactive,2020.1.2,Win32,60,5f073de81c76c3308c0e4fb3,5f07777097216d18cd87951e,1,,,,,,helmet,,,,,,,,,,,1,1,0,56,56,3,1,,,,,,,,,,,,,,,,,,,,,,,,,,,,,,,,,,,,,,,,,,,,,,,,,,,,,,,,,,,,,,,,,,,,,,
,,?,0.00213,0,,,,,,stimuli/images/PICTURE_68.png,MILE,5ddcd77f23f9f1c2c45d6c18,01/09/1954,2020-07-09_16h05.37.612,proactive,2020.1.2,Win32,60,5f073de81c76c3308c0e4fb3,5f07777097216d18cd87951e,1,,,,,,candle,,,,,,,,,,,6,1,0,57,57,51,1,,,,,,,,,,,,,,,,,,,,,,,,,,,,,,,,,,,,,,,,,,,,,,,,,,,,,,,,,,,,,,,,,,,,,,
,,?,0.00202,0,,,,,,stimuli/images/PICTURE_564.png,BATH,5ddcd77f23f9f1c2c45d6c18,01/09/1954,2020-07-09_16h05.37.612,proactive,2020.1.2,Win32,60,5f073de81c76c3308c0e4fb3,5f07777097216d18cd87951e,1,,,,,,spoon,,,,,,,,,,,3,1,0,58,58,26,1,,,,,,,,,,,,,,,,,,,,,,,,,,,,,,,,,,,,,,,,,,,,,,,,,,,,,,,,,,,,,,,,,,,,,,
,,?,0.002485,0,,,,,,stimuli/images/PICTURE_467.png,POLICY,5ddcd77f23f9f1c2c45d6c18,01/09/1954,2020-07-09_16h05.37.612,proactive,2020.1.2,Win32,60,5f073de81c76c3308c0e4fb3,5f07777097216d18cd87951e,1,,,,,,peg,,,,,,,,,,,6,1,0,59,59,53,1,,,,,,,,,,,,,,,,,,,,,,,,,,,,,,,,,,,,,,,,,,,,,,,,,,,,,,,,,,,,,,,,,,,,,,
,,,,,,,,,,,,5ddcd77f23f9f1c2c45d6c18,01/09/1954,2020-07-09_16h05.37.612,proactive,2020.1.2,Win32,60,5f073de81c76c3308c0e4fb3,5f07777097216d18cd87951e,1,,,,,,,,,,,,,,,,,,,,,,,,0,0,0,1,1,stimuli/learn-block2.csv,,,,,,,,,,,,,,,,,,,,,,,,,,,,,,,,,,,,,,,,,,,,,,,,,,,,,,,,,,,,,,,,
,,,,,,,,,,stimuli/images/PICTURE_2.png,YARD,5ddcd77f23f9f1c2c45d6c18,01/09/1954,2020-07-09_16h05.37.612,proactive,2020.1.2,Win32,60,5f073de81c76c3308c0e4fb3,5f07777097216d18cd87951e,1,,,,,,tyre,,,,,,0,0,0,55,1,6,2,,,,,,,,,,,,,,,,,,,,,,,,,,,,,,,,,,,,,,,,,,,,,,,,,,,,,,,,,,,,,,,,,,,,,,,,,,,
,,,,,,,,,,stimuli/images/PICTURE_297.png,BODY,5ddcd77f23f9f1c2c45d6c18,01/09/1954,2020-07-09_16h05.37.612,proactive,2020.1.2,Win32,60,5f073de81c76c3308c0e4fb3,5f07777097216d18cd87951e,1,,,,,,aeroplane,,,,,,0,1,1,51,1,6,2,,,,,,,,,,,,,,,,,,,,,,,,,,,,,,,,,,,,,,,,,,,,,,,,,,,,,,,,,,,,,,,,,,,,,,,,,,,
,,,,,,,,,,stimuli/images/PICTURE_564.png,PLENTY,5ddcd77f23f9f1c2c45d6c18,01/09/1954,2020-07-09_16h05.37.612,proactive,2020.1.2,Win32,60,5f073de81c76c3308c0e4fb3,5f07777097216d18cd87951e,1,,,,,,spoon,,,,,,0,2,2,11,1,2,2,,,,,,,,,,,,,,,,,,,,,,,,,,,,,,,,,,,,,,,,,,,,,,,,,,,,,,,,,,,,,,,,,,,,,,,,,,,
,,,,,,,,,,stimuli/images/PICTURE_655.png,SALE,5ddcd77f23f9f1c2c45d6c18,01/09/1954,2020-07-09_16h05.37.612,proactive,2020.1.2,Win32,60,5f073de81c76c3308c0e4fb3,5f07777097216d18cd87951e,1,,,,,,megaphone,,,,,,0,3,3,57,1,6,2,,,,,,,,,,,,,,,,,,,,,,,,,,,,,,,,,,,,,,,,,,,,,,,,,,,,,,,,,,,,,,,,,,,,,,,,,,,
,,,,,,,,,,stimuli/images/PICTURE_667.png,GLASS,5ddcd77f23f9f1c2c45d6c18,01/09/1954,2020-07-09_16h05.37.612,proactive,2020.1.2,Win32,60,5f073de81c76c3308c0e4fb3,5f07777097216d18cd87951e,1,,,,,,daisy,,,,,,0,4,4,27,1,3,2,,,,,,,,,,,,,,,,,,,,,,,,,,,,,,,,,,,,,,,,,,,,,,,,,,,,,,,,,,,,,,,,,,,,,,,,,,,
,,,,,,,,,,stimuli/images/PICTURE_57.png,NATION,5ddcd77f23f9f1c2c45d6c18,01/09/1954,2020-07-09_16h05.37.612,proactive,2020.1.2,Win32,60,5f073de81c76c3308c0e4fb3,5f07777097216d18cd87951e,1,,,,,,stamp,,,,,,0,5,5,21,1,3,2,,,,,,,,,,,,,,,,,,,,,,,,,,,,,,,,,,,,,,,,,,,,,,,,,,,,,,,,,,,,,,,,,,,,,,,,,,,
,,,,,,,,,,stimuli/images/PICTURE_32.png,LETTER,5ddcd77f23f9f1c2c45d6c18,01/09/1954,2020-07-09_16h05.37.612,proactive,2020.1.2,Win32,60,5f073de81c76c3308c0e4fb3,5f07777097216d18cd87951e,1,,,,,,crown,,,,,,0,6,6,56,1,6,2,,,,,,,,,,,,,,,,,,,,,,,,,,,,,,,,,,,,,,,,,,,,,,,,,,,,,,,,,,,,,,,,,,,,,,,,,,,
,,,,,,,,,,stimuli/images/PICTURE_348.png,TOILET,5ddcd77f23f9f1c2c45d6c18,01/09/1954,2020-07-09_16h05.37.612,proactive,2020.1.2,Win32,60,5f073de81c76c3308c0e4fb3,5f07777097216d18cd87951e,1,,,,,,pepper,,,,,,0,7,7,4,1,1,2,,,,,,,,,,,,,,,,,,,,,,,,,,,,,,,,,,,,,,,,,,,,,,,,,,,,,,,,,,,,,,,,,,,,,,,,,,,
,,,,,,,,,,stimuli/images/PICTURE_405.png,JUNGLE,5ddcd77f23f9f1c2c45d6c18,01/09/1954,2020-07-09_16h05.37.612,proactive,2020.1.2,Win32,60,5f073de81c76c3308c0e4fb3,5f07777097216d18cd87951e,1,,,,,,anchor,,,,,,0,8,8,13,1,2,2,,,,,,,,,,,,,,,,,,,,,,,,,,,,,,,,,,,,,,,,,,,,,,,,,,,,,,,,,,,,,,,,,,,,,,,,,,,
,,,,,,,,,,stimuli/images/PICTURE_296.png,CLOCK,5ddcd77f23f9f1c2c45d6c18,01/09/1954,2020-07-09_16h05.37.612,proactive,2020.1.2,Win32,60,5f073de81c76c3308c0e4fb3,5f07777097216d18cd87951e,1,,,,,,bolt,,,,,,0,9,9,18,1,2,2,,,,,,,,,,,,,,,,,,,,,,,,,,,,,,,,,,,,,,,,,,,,,,,,,,,,,,,,,,,,,,,,,,,,,,,,,,,
,,,,,,,,,,stimuli/images/PICTURE_654.png,COPS,5ddcd77f23f9f1c2c45d6c18,01/09/1954,2020-07-09_16h05.37.612,proactive,2020.1.2,Win32,60,5f073de81c76c3308c0e4fb3,5f07777097216d18cd87951e,1,,,,,,pencil,,,,,,0,10,10,10,1,2,2,,,,,,,,,,,,,,,,,,,,,,,,,,,,,,,,,,,,,,,,,,,,,,,,,,,,,,,,,,,,,,,,,,,,,,,,,,,
,,,,,,,,,,stimuli/images/PICTURE_68.png,KIND,5ddcd77f23f9f1c2c45d6c18,01/09/1954,2020-07-09_16h05.37.612,proactive,2020.1.2,Win32,60,5f073de81c76c3308c0e4fb3,5f07777097216d18cd87951e,1,,,,,,candle,,,,,,0,11,11,23,1,3,2,,,,,,,,,,,,,,,,,,,,,,,,,,,,,,,,,,,,,,,,,,,,,,,,,,,,,,,,,,,,,,,,,,,,,,,,,,,
,,,,,,,,,,stimuli/images/PICTURE_750.png,POLICY,5ddcd77f23f9f1c2c45d6c18,01/09/1954,2020-07-09_16h05.37.612,proactive,2020.1.2,Win32,60,5f073de81c76c3308c0e4fb3,5f07777097216d18cd87951e,1,,,,,,kettle,,,,,,0,12,12,44,1,5,2,,,,,,,,,,,,,,,,,,,,,,,,,,,,,,,,,,,,,,,,,,,,,,,,,,,,,,,,,,,,,,,,,,,,,,,,,,,
,,,,,,,,,,stimuli/images/PICTURE_141.png,CLIENT,5ddcd77f23f9f1c2c45d6c18,01/09/1954,2020-07-09_16h05.37.612,proactive,2020.1.2,Win32,60,5f073de81c76c3308c0e4fb3,5f07777097216d18cd87951e,1,,,,,,sunflower,,,,,,0,13,13,30,1,4,2,,,,,,,,,,,,,,,,,,,,,,,,,,,,,,,,,,,,,,,,,,,,,,,,,,,,,,,,,,,,,,,,,,,,,,,,,,,
,,,,,,,,,,stimuli/images/PICTURE_285.png,PRINCE,5ddcd77f23f9f1c2c45d6c18,01/09/1954,2020-07-09_16h05.37.612,proactive,2020.1.2,Win32,60,5f073de81c76c3308c0e4fb3,5f07777097216d18cd87951e,1,,,,,,carrot,,,,,,0,14,14,20,1,3,2,,,,,,,,,,,,,,,,,,,,,,,,,,,,,,,,,,,,,,,,,,,,,,,,,,,,,,,,,,,,,,,,,,,,,,,,,,,
,,,,,,,,,,stimuli/images/PICTURE_356.png,CANDY,5ddcd77f23f9f1c2c45d6c18,01/09/1954,2020-07-09_16h05.37.612,proactive,2020.1.2,Win32,60,5f073de81c76c3308c0e4fb3,5f07777097216d18cd87951e,1,,,,,,pawn,,,,,,0,15,15,46,1,5,2,,,,,,,,,,,,,,,,,,,,,,,,,,,,,,,,,,,,,,,,,,,,,,,,,,,,,,,,,,,,,,,,,,,,,,,,,,,
,,,,,,,,,,stimuli/images/PICTURE_452.png,COPS,5ddcd77f23f9f1c2c45d6c18,01/09/1954,2020-07-09_16h05.37.612,proactive,2020.1.2,Win32,60,5f073de81c76c3308c0e4fb3,5f07777097216d18cd87951e,1,,,,,,watch,,,,,,0,16,16,0,1,1,2,,,,,,,,,,,,,,,,,,,,,,,,,,,,,,,,,,,,,,,,,,,,,,,,,,,,,,,,,,,,,,,,,,,,,,,,,,,
,,,,,,,,,,stimuli/images/PICTURE_677.png,FAMILY,5ddcd77f23f9f1c2c45d6c18,01/09/1954,2020-07-09_16h05.37.612,proactive,2020.1.2,Win32,60,5f073de81c76c3308c0e4fb3,5f07777097216d18cd87951e,1,,,,,,map,,,,,,0,17,17,53,1,6,2,,,,,,,,,,,,,,,,,,,,,,,,,,,,,,,,,,,,,,,,,,,,,,,,,,,,,,,,,,,,,,,,,,,,,,,,,,,
,,,,,,,,,,stimuli/images/PICTURE_33.png,COPS,5ddcd77f23f9f1c2c45d6c18,01/09/1954,2020-07-09_16h05.37.612,proactive,2020.1.2,Win32,60,5f073de81c76c3308c0e4fb3,5f07777097216d18cd87951e,1,,,,,,frame,,,,,,0,18,18,29,1,3,2,,,,,,,,,,,,,,,,,,,,,,,,,,,,,,,,,,,,,,,,,,,,,,,,,,,,,,,,,,,,,,,,,,,,,,,,,,,
,,,,,,,,,,stimuli/images/PICTURE_160.png,HOTEL,5ddcd77f23f9f1c2c45d6c18,01/09/1954,2020-07-09_16h05.37.612,proactive,2020.1.2,Win32,60,5f073de81c76c3308c0e4fb3,5f07777097216d18cd87951e,1,,,,,,wheelbarrow,,,,,,0,19,19,16,1,2,2,,,,,,,,,,,,,,,,,,,,,,,,,,,,,,,,,,,,,,,,,,,,,,,,,,,,,,,,,,,,,,,,,,,,,,,,,,,
,,,,,,,,,,stimuli/images/PICTURE_509.png,MILLER,5ddcd77f23f9f1c2c45d6c18,01/09/1954,2020-07-09_16h05.37.612,proactive,2020.1.2,Win32,60,5f073de81c76c3308c0e4fb3,5f07777097216d18cd87951e,1,,,,,,telephone,,,,,,0,20,20,49,1,5,2,,,,,,,,,,,,,,,,,,,,,,,,,,,,,,,,,,,,,,,,,,,,,,,,,,,,,,,,,,,,,,,,,,,,,,,,,,,
,,,,,,,,,,stimuli/images/PICTURE_2.png,AREA,5ddcd77f23f9f1c2c45d6c18,01/09/1954,2020-07-09_16h05.37.612,proactive,2020.1.2,Win32,60,5f073de81c76c3308c0e4fb3,5f07777097216d18cd87951e,1,,,,,,tyre,,,,,,0,21,21,32,1,4,2,,,,,,,,,,,,,,,,,,,,,,,,,,,,,,,,,,,,,,,,,,,,,,,,,,,,,,,,,,,,,,,,,,,,,,,,,,,
,,,,,,,,,,stimuli/images/PICTURE_509.png,SHOTS,5ddcd77f23f9f1c2c45d6c18,01/09/1954,2020-07-09_16h05.37.612,proactive,2020.1.2,Win32,60,5f073de81c76c3308c0e4fb3,5f07777097216d18cd87951e,1,,,,,,telephone,,,,,,0,22,22,7,1,1,2,,,,,,,,,,,,,,,,,,,,,,,,,,,,,,,,,,,,,,,,,,,,,,,,,,,,,,,,,,,,,,,,,,,,,,,,,,,
,,,,,,,,,,stimuli/images/PICTURE_215.png,LEADER,5ddcd77f23f9f1c2c45d6c18,01/09/1954,2020-07-09_16h05.37.612,proactive,2020.1.2,Win32,60,5f073de81c76c3308c0e4fb3,5f07777097216d18cd87951e,1,,,,,,boot,,,,,,0,23,23,43,1,5,2,,,,,,,,,,,,,,,,,,,,,,,,,,,,,,,,,,,,,,,,,,,,,,,,,,,,,,,,,,,,,,,,,,,,,,,,,,,
,,,,,,,,,,stimuli/images/PICTURE_403.png,FAMILY,5ddcd77f23f9f1c2c45d6c18,01/09/1954,2020-07-09_16h05.37.612,proactive,2020.1.2,Win32,60,5f073de81c76c3308c0e4fb3,5f07777097216d18cd87951e,1,,,,,,cathedral,,,,,,0,24,24,9,1,1,2,,,,,,,,,,,,,,,,,,,,,,,,,,,,,,,,,,,,,,,,,,,,,,,,,,,,,,,,,,,,,,,,,,,,,,,,,,,
,,,,,,,,,,stimuli/images/PICTURE_405.png,HOUSE,5ddcd77f23f9f1c2c45d6c18,01/09/1954,2020-07-09_16h05.37.612,proactive,2020.1.2,Win32,60,5f073de81c76c3308c0e4fb3,5f07777097216d18cd87951e,1,,,,,,anchor,,,,,,0,25,25,2,1,1,2,,,,,,,,,,,,,,,,,,,,,,,,,,,,,,,,,,,,,,,,,,,,,,,,,,,,,,,,,,,,,,,,,,,,,,,,,,,
,,,,,,,,,,stimuli/images/PICTURE_95.png,NIGHT,5ddcd77f23f9f1c2c45d6c18,01/09/1954,2020-07-09_16h05.37.612,proactive,2020.1.2,Win32,60,5f073de81c76c3308c0e4fb3,5f07777097216d18cd87951e,1,,,,,,suitcase,,,,,,0,26,26,37,1,4,2,,,,,,,,,,,,,,,,,,,,,,,,,,,,,,,,,,,,,,,,,,,,,,,,,,,,,,,,,,,,,,,,,,,,,,,,,,,
,,,,,,,,,,stimuli/images/PICTURE_453.png,FAMILY,5ddcd77f23f9f1c2c45d6c18,01/09/1954,2020-07-09_16h05.37.612,proactive,2020.1.2,Win32,60,5f073de81c76c3308c0e4fb3,5f07777097216d18cd87951e,1,,,,,,scissors,,,,,,0,27,27,48,1,5,2,,,,,,,,,,,,,,,,,,,,,,,,,,,,,,,,,,,,,,,,,,,,,,,,,,,,,,,,,,,,,,,,,,,,,,,,,,,
,,,,,,,,,,stimuli/images/PICTURE_57.png,CANDY,5ddcd77f23f9f1c2c45d6c18,01/09/1954,2020-07-09_16h05.37.612,proactive,2020.1.2,Win32,60,5f073de81c76c3308c0e4fb3,5f07777097216d18cd87951e,1,,,,,,stamp,,,,,,0,28,28,52,1,6,2,,,,,,,,,,,,,,,,,,,,,,,,,,,,,,,,,,,,,,,,,,,,,,,,,,,,,,,,,,,,,,,,,,,,,,,,,,,
,,,,,,,,,,stimuli/images/PICTURE_470.png,MOMENT,5ddcd77f23f9f1c2c45d6c18,01/09/1954,2020-07-09_16h05.37.612,proactive,2020.1.2,Win32,60,5f073de81c76c3308c0e4fb3,5f07777097216d18cd87951e,1,,,,,,motorbike,,,,,,0,29,29,40,1,5,2,,,,,,,,,,,,,,,,,,,,,,,,,,,,,,,,,,,,,,,,,,,,,,,,,,,,,,,,,,,,,,,,,,,,,,,,,,,
,,,,,,,,,,stimuli/images/PICTURE_504.png,HOUSE,5ddcd77f23f9f1c2c45d6c18,01/09/1954,2020-07-09_16h05.37.612,proactive,2020.1.2,Win32,60,5f073de81c76c3308c0e4fb3,5f07777097216d18cd87951e,1,,,,,,wheel,,,,,,0,30,30,36,1,4,2,,,,,,,,,,,,,,,,,,,,,,,,,,,,,,,,,,,,,,,,,,,,,,,,,,,,,,,,,,,,,,,,,,,,,,,,,,,
,,,,,,,,,,stimuli/images/PICTURE_487.png,POLICY,5ddcd77f23f9f1c2c45d6c18,01/09/1954,2020-07-09_16h05.37.612,proactive,2020.1.2,Win32,60,5f073de81c76c3308c0e4fb3,5f07777097216d18cd87951e,1,,,,,,basket,,,,,,0,31,31,34,1,4,2,,,,,,,,,,,,,,,,,,,,,,,,,,,,,,,,,,,,,,,,,,,,,,,,,,,,,,,,,,,,,,,,,,,,,,,,,,,
,,,,,,,,,,stimuli/images/PICTURE_327.png,LEADER,5ddcd77f23f9f1c2c45d6c18,01/09/1954,2020-07-09_16h05.37.612,proactive,2020.1.2,Win32,60,5f073de81c76c3308c0e4fb3,5f07777097216d18cd87951e,1,,,,,,helmet,,,,,,0,32,32,17,1,2,2,,,,,,,,,,,,,,,,,,,,,,,,,,,,,,,,,,,,,,,,,,,,,,,,,,,,,,,,,,,,,,,,,,,,,,,,,,,
,,,,,,,,,,stimuli/images/PICTURE_677.png,PHOTO,5ddcd77f23f9f1c2c45d6c18,01/09/1954,2020-07-09_16h05.37.612,proactive,2020.1.2,Win32,60,5f073de81c76c3308c0e4fb3,5f07777097216d18cd87951e,1,,,,,,map,,,,,,0,33,33,14,1,2,2,,,,,,,,,,,,,,,,,,,,,,,,,,,,,,,,,,,,,,,,,,,,,,,,,,,,,,,,,,,,,,,,,,,,,,,,,,,
,,,,,,,,,,stimuli/images/PICTURE_93.png,GIRL,5ddcd77f23f9f1c2c45d6c18,01/09/1954,2020-07-09_16h05.37.612,proactive,2020.1.2,Win32,60,5f073de81c76c3308c0e4fb3,5f07777097216d18cd87951e,1,,,,,,skateboard,,,,,,0,34,34,31,1,4,2,,,,,,,,,,,,,,,,,,,,,,,,,,,,,,,,,,,,,,,,,,,,,,,,,,,,,,,,,,,,,,,,,,,,,,,,,,,
,,,,,,,,,,stimuli/images/PICTURE_509.png,BATH,5ddcd77f23f9f1c2c45d6c18,01/09/1954,2020-07-09_16h05.37.612,proactive,2020.1.2,Win32,60,5f073de81c76c3308c0e4fb3,5f07777097216d18cd87951e,1,,,,,,telephone,,,,,,0,35,35,15,1,2,2,,,,,,,,,,,,,,,,,,,,,,,,,,,,,,,,,,,,,,,,,,,,,,,,,,,,,,,,,,,,,,,,,,,,,,,,,,,
,,,,,,,,,,stimuli/images/PICTURE_708.png,VALLEY,5ddcd77f23f9f1c2c45d6c18,01/09/1954,2020-07-09_16h05.37.612,proactive,2020.1.2,Win32,60,5f073de81c76c3308c0e4fb3,5f07777097216d18cd87951e,1,,,,,,monkey,,,,,,0,36,36,45,1,5,2,,,,,,,,,,,,,,,,,,,,,,,,,,,,,,,,,,,,,,,,,,,,,,,,,,,,,,,,,,,,,,,,,,,,,,,,,,,
,,,,,,,,,,stimuli/images/PICTURE_255.png,PENNY,5ddcd77f23f9f1c2c45d6c18,01/09/1954,2020-07-09_16h05.37.612,proactive,2020.1.2,Win32,60,5f073de81c76c3308c0e4fb3,5f07777097216d18cd87951e,1,,,,,,shovel,,,,,,0,37,37,19,1,2,2,,,,,,,,,,,,,,,,,,,,,,,,,,,,,,,,,,,,,,,,,,,,,,,,,,,,,,,,,,,,,,,,,,,,,,,,,,,
,,,,,,,,,,stimuli/images/PICTURE_123.png,SALE,5ddcd77f23f9f1c2c45d6c18,01/09/1954,2020-07-09_16h05.37.612,proactive,2020.1.2,Win32,60,5f073de81c76c3308c0e4fb3,5f07777097216d18cd87951e,1,,,,,,dart,,,,,,0,38,38,8,1,1,2,,,,,,,,,,,,,,,,,,,,,,,,,,,,,,,,,,,,,,,,,,,,,,,,,,,,,,,,,,,,,,,,,,,,,,,,,,,
,,,,,,,,,,stimuli/images/PICTURE_314.png,SPEECH,5ddcd77f23f9f1c2c45d6c18,01/09/1954,2020-07-09_16h05.37.612,proactive,2020.1.2,Win32,60,5f073de81c76c3308c0e4fb3,5f07777097216d18cd87951e,1,,,,,,perfume,,,,,,0,39,39,35,1,4,2,,,,,,,,,,,,,,,,,,,,,,,,,,,,,,,,,,,,,,,,,,,,,,,,,,,,,,,,,,,,,,,,,,,,,,,,,,,
,,,,,,,,,,stimuli/images/PICTURE_311.png,FLESH,5ddcd77f23f9f1c2c45d6c18,01/09/1954,2020-07-09_16h05.37.612,proactive,2020.1.2,Win32,60,5f073de81c76c3308c0e4fb3,5f07777097216d18cd87951e,1,,,,,,razor,,,,,,0,40,40,3,1,1,2,,,,,,,,,,,,,,,,,,,,,,,,,,,,,,,,,,,,,,,,,,,,,,,,,,,,,,,,,,,,,,,,,,,,,,,,,,,
,,,,,,,,,,stimuli/images/PICTURE_147.png,LEADER,5ddcd77f23f9f1c2c45d6c18,01/09/1954,2020-07-09_16h05.37.612,proactive,2020.1.2,Win32,60,5f073de81c76c3308c0e4fb3,5f07777097216d18cd87951e,1,,,,,,hanger,,,,,,0,41,41,33,1,4,2,,,,,,,,,,,,,,,,,,,,,,,,,,,,,,,,,,,,,,,,,,,,,,,,,,,,,,,,,,,,,,,,,,,,,,,,,,,
,,,,,,,,,,stimuli/images/PICTURE_405.png,JUNGLE,5ddcd77f23f9f1c2c45d6c18,01/09/1954,2020-07-09_16h05.37.612,proactive,2020.1.2,Win32,60,5f073de81c76c3308c0e4fb3,5f07777097216d18cd87951e,1,,,,,,anchor,,,,,,0,42,42,58,1,6,2,,,,,,,,,,,,,,,,,,,,,,,,,,,,,,,,,,,,,,,,,,,,,,,,,,,,,,,,,,,,,,,,,,,,,,,,,,,
,,,,,,,,,,stimuli/images/PICTURE_208.png,SPIRIT,5ddcd77f23f9f1c2c45d6c18,01/09/1954,2020-07-09_16h05.37.612,proactive,2020.1.2,Win32,60,5f073de81c76c3308c0e4fb3,5f07777097216d18cd87951e,1,,,,,,microphone,,,,,,0,43,43,28,1,3,2,,,,,,,,,,,,,,,,,,,,,,,,,,,,,,,,,,,,,,,,,,,,,,,,,,,,,,,,,,,,,,,,,,,,,,,,,,,
,,,,,,,,,,stimuli/images/PICTURE_215.png,BOYS,5ddcd77f23f9f1c2c45d6c18,01/09/1954,2020-07-09_16h05.37.612,proactive,2020.1.2,Win32,60,5f073de81c76c3308c0e4fb3,5f07777097216d18cd87951e,1,,,,,,boot,,,,,,0,44,44,24,1,3,2,,,,,,,,,,,,,,,,,,,,,,,,,,,,,,,,,,,,,,,,,,,,,,,,,,,,,,,,,,,,,,,,,,,,,,,,,,,
,,,,,,,,,,stimuli/images/PICTURE_215.png,FOOD,5ddcd77f23f9f1c2c45d6c18,01/09/1954,2020-07-09_16h05.37.612,proactive,2020.1.2,Win32,60,5f073de81c76c3308c0e4fb3,5f07777097216d18cd87951e,1,,,,,,boot,,,,,,0,45,45,5,1,1,2,,,,,,,,,,,,,,,,,,,,,,,,,,,,,,,,,,,,,,,,,,,,,,,,,,,,,,,,,,,,,,,,,,,,,,,,,,,
,,,,,,,,,,stimuli/images/PICTURE_285.png,WRITER,5ddcd77f23f9f1c2c45d6c18,01/09/1954,2020-07-09_16h05.37.612,proactive,2020.1.2,Win32,60,5f073de81c76c3308c0e4fb3,5f07777097216d18cd87951e,1,,,,,,carrot,,,,,,0,46,46,6,1,1,2,,,,,,,,,,,,,,,,,,,,,,,,,,,,,,,,,,,,,,,,,,,,,,,,,,,,,,,,,,,,,,,,,,,,,,,,,,,
,,,,,,,,,,stimuli/images/PICTURE_311.png,TOILET,5ddcd77f23f9f1c2c45d6c18,01/09/1954,2020-07-09_16h05.37.612,proactive,2020.1.2,Win32,60,5f073de81c76c3308c0e4fb3,5f07777097216d18cd87951e,1,,,,,,razor,,,,,,0,47,47,54,1,6,2,,,,,,,,,,,,,,,,,,,,,,,,,,,,,,,,,,,,,,,,,,,,,,,,,,,,,,,,,,,,,,,,,,,,,,,,,,,
,,,,,,,,,,stimuli/images/PICTURE_18.png,RIVER,5ddcd77f23f9f1c2c45d6c18,01/09/1954,2020-07-09_16h05.37.612,proactive,2020.1.2,Win32,60,5f073de81c76c3308c0e4fb3,5f07777097216d18cd87951e,1,,,,,,planet,,,,,,0,48,48,22,1,3,2,,,,,,,,,,,,,,,,,,,,,,,,,,,,,,,,,,,,,,,,,,,,,,,,,,,,,,,,,,,,,,,,,,,,,,,,,,,
,,,,,,,,,,stimuli/images/PICTURE_177.png,HOUSE,5ddcd77f23f9f1c2c45d6c18,01/09/1954,2020-07-09_16h05.37.612,proactive,2020.1.2,Win32,60,5f073de81c76c3308c0e4fb3,5f07777097216d18cd87951e,1,,,,,,mushroom,,,,,,0,49,49,25,1,3,2,,,,,,,,,,,,,,,,,,,,,,,,,,,,,,,,,,,,,,,,,,,,,,,,,,,,,,,,,,,,,,,,,,,,,,,,,,,
,,,,,,,,,,stimuli/images/PICTURE_491.png,SERIES,5ddcd77f23f9f1c2c45d6c18,01/09/1954,2020-07-09_16h05.37.612,proactive,2020.1.2,Win32,60,5f073de81c76c3308c0e4fb3,5f07777097216d18cd87951e,1,,,,,,rug,,,,,,0,50,50,39,1,4,2,,,,,,,,,,,,,,,,,,,,,,,,,,,,,,,,,,,,,,,,,,,,,,,,,,,,,,,,,,,,,,,,,,,,,,,,,,,
,,,,,,,,,,stimuli/images/PICTURE_654.png,YEAR,5ddcd77f23f9f1c2c45d6c18,01/09/1954,2020-07-09_16h05.37.612,proactive,2020.1.2,Win32,60,5f073de81c76c3308c0e4fb3,5f07777097216d18cd87951e,1,,,,,,pencil,,,,,,0,51,51,41,1,5,2,,,,,,,,,,,,,,,,,,,,,,,,,,,,,,,,,,,,,,,,,,,,,,,,,,,,,,,,,,,,,,,,,,,,,,,,,,,
,,,,,,,,,,stimuli/images/PICTURE_2.png,JUNGLE,5ddcd77f23f9f1c2c45d6c18,01/09/1954,2020-07-09_16h05.37.612,proactive,2020.1.2,Win32,60,5f073de81c76c3308c0e4fb3,5f07777097216d18cd87951e,1,,,,,,tyre,,,,,,0,52,52,1,1,1,2,,,,,,,,,,,,,,,,,,,,,,,,,,,,,,,,,,,,,,,,,,,,,,,,,,,,,,,,,,,,,,,,,,,,,,,,,,,
,,,,,,,,,,stimuli/images/PICTURE_692.png,DUDE,5ddcd77f23f9f1c2c45d6c18,01/09/1954,2020-07-09_16h05.37.612,proactive,2020.1.2,Win32,60,5f073de81c76c3308c0e4fb3,5f07777097216d18cd87951e,1,,,,,,cherry,,,,,,0,53,53,47,1,5,2,,,,,,,,,,,,,,,,,,,,,,,,,,,,,,,,,,,,,,,,,,,,,,,,,,,,,,,,,,,,,,,,,,,,,,,,,,,
,,,,,,,,,,stimuli/images/PICTURE_688.png,CLOCK,5ddcd77f23f9f1c2c45d6c18,01/09/1954,2020-07-09_16h05.37.612,proactive,2020.1.2,Win32,60,5f073de81c76c3308c0e4fb3,5f07777097216d18cd87951e,1,,,,,,runner,,,,,,0,54,54,42,1,5,2,,,,,,,,,,,,,,,,,,,,,,,,,,,,,,,,,,,,,,,,,,,,,,,,,,,,,,,,,,,,,,,,,,,,,,,,,,,
,,,,,,,,,,stimuli/images/PICTURE_487.png,ROOF,5ddcd77f23f9f1c2c45d6c18,01/09/1954,2020-07-09_16h05.37.612,proactive,2020.1.2,Win32,60,5f073de81c76c3308c0e4fb3,5f07777097216d18cd87951e,1,,,,,,basket,,,,,,0,55,55,50,1,6,2,,,,,,,,,,,,,,,,,,,,,,,,,,,,,,,,,,,,,,,,,,,,,,,,,,,,,,,,,,,,,,,,,,,,,,,,,,,
,,,,,,,,,,stimuli/images/PICTURE_470.png,BEAUTY,5ddcd77f23f9f1c2c45d6c18,01/09/1954,2020-07-09_16h05.37.612,proactive,2020.1.2,Win32,60,5f073de81c76c3308c0e4fb3,5f07777097216d18cd87951e,1,,,,,,motorbike,,,,,,0,56,56,26,1,3,2,,,,,,,,,,,,,,,,,,,,,,,,,,,,,,,,,,,,,,,,,,,,,,,,,,,,,,,,,,,,,,,,,,,,,,,,,,,
,,,,,,,,,,stimuli/images/PICTURE_348.png,DUDE,5ddcd77f23f9f1c2c45d6c18,01/09/1954,2020-07-09_16h05.37.612,proactive,2020.1.2,Win32,60,5f073de81c76c3308c0e4fb3,5f07777097216d18cd87951e,1,,,,,,pepper,,,,,,0,57,57,59,1,6,2,,,,,,,,,,,,,,,,,,,,,,,,,,,,,,,,,,,,,,,,,,,,,,,,,,,,,,,,,,,,,,,,,,,,,,,,,,,
,,,,,,,,,,stimuli/images/PICTURE_509.png,APPLE,5ddcd77f23f9f1c2c45d6c18,01/09/1954,2020-07-09_16h05.37.612,proactive,2020.1.2,Win32,60,5f073de81c76c3308c0e4fb3,5f07777097216d18cd87951e,1,,,,,,telephone,,,,,,0,58,58,38,1,4,2,,,,,,,,,,,,,,,,,,,,,,,,,,,,,,,,,,,,,,,,,,,,,,,,,,,,,,,,,,,,,,,,,,,,,,,,,,,
,,?,0.00333,0,,,,,,stimuli/images/PICTURE_177.png,HOUSE,5ddcd77f23f9f1c2c45d6c18,01/09/1954,2020-07-09_16h05.37.612,proactive,2020.1.2,Win32,60,5f073de81c76c3308c0e4fb3,5f07777097216d18cd87951e,1,,,,,,mushroom,,,,,,,,,,,3,2,0,0,0,25,1,,,,,,,,,,,,,,,,,,,,,,,,,,,,,,,,,,,,,,,,,,,,,,,,,,,,,,,,,,,,,,,,,,,,,,
,,?,0.002355,0,,,,,,stimuli/images/PICTURE_57.png,CASINO,5ddcd77f23f9f1c2c45d6c18,01/09/1954,2020-07-09_16h05.37.612,proactive,2020.1.2,Win32,60,5f073de81c76c3308c0e4fb3,5f07777097216d18cd87951e,1,,,,,,stamp,,,,,,,,,,,2,2,0,1,1,12,1,,,,,,,,,,,,,,,,,,,,,,,,,,,,,,,,,,,,,,,,,,,,,,,,,,,,,,,,,,,,,,,,,,,,,,
,,?,0.003915,0,,,,,,stimuli/images/PICTURE_215.png,LEADER,5ddcd77f23f9f1c2c45d6c18,01/09/1954,2020-07-09_16h05.37.612,proactive,2020.1.2,Win32,60,5f073de81c76c3308c0e4fb3,5f07777097216d18cd87951e,1,,,,,,boot,,,,,,,,,,,5,2,0,2,2,43,1,,,,,,,,,,,,,,,,,,,,,,,,,,,,,,,,,,,,,,,,,,,,,,,,,,,,,,,,,,,,,,,,,,,,,,
,,?,0.00213,0,,,,,,stimuli/images/PICTURE_509.png,BATH,5ddcd77f23f9f1c2c45d6c18,01/09/1954,2020-07-09_16h05.37.612,proactive,2020.1.2,Win32,60,5f073de81c76c3308c0e4fb3,5f07777097216d18cd87951e,1,,,,,,telephone,,,,,,,,,,,2,2,0,3,3,15,1,,,,,,,,,,,,,,,,,,,,,,,,,,,,,,,,,,,,,,,,,,,,,,,,,,,,,,,,,,,,,,,,,,,,,,
,,?,0.00214,0,,,,,,stimuli/images/PICTURE_2.png,AREA,5ddcd77f23f9f1c2c45d6c18,01/09/1954,2020-07-09_16h05.37.612,proactive,2020.1.2,Win32,60,5f073de81c76c3308c0e4fb3,5f07777097216d18cd87951e,1,,,,,,tyre,,,,,,,,,,,4,2,0,4,4,32,1,,,,,,,,,,,,,,,,,,,,,,,,,,,,,,,,,,,,,,,,,,,,,,,,,,,,,,,,,,,,,,,,,,,,,,
,,?,0.002165,0,,,,,,stimuli/images/PICTURE_405.png,JUNGLE,5ddcd77f23f9f1c2c45d6c18,01/09/1954,2020-07-09_16h05.37.612,proactive,2020.1.2,Win32,60,5f073de81c76c3308c0e4fb3,5f07777097216d18cd87951e,1,,,,,,anchor,,,,,,,,,,,2,2,0,5,5,13,1,,,,,,,,,,,,,,,,,,,,,,,,,,,,,,,,,,,,,,,,,,,,,,,,,,,,,,,,,,,,,,,,,,,,,,
,,?,0.00211,0,,,,,,stimuli/images/PICTURE_564.png,PLENTY,5ddcd77f23f9f1c2c45d6c18,01/09/1954,2020-07-09_16h05.37.612,proactive,2020.1.2,Win32,60,5f073de81c76c3308c0e4fb3,5f07777097216d18cd87951e,1,,,,,,spoon,,,,,,,,,,,2,2,0,6,6,11,1,,,,,,,,,,,,,,,,,,,,,,,,,,,,,,,,,,,,,,,,,,,,,,,,,,,,,,,,,,,,,,,,,,,,,,
,,?,3.879675,0,,,,,,stimuli/images/PICTURE_509.png,SHOTS,5ddcd77f23f9f1c2c45d6c18,01/09/1954,2020-07-09_16h05.37.612,proactive,2020.1.2,Win32,60,5f073de81c76c3308c0e4fb3,5f07777097216d18cd87951e,1,,,,,,telephone,,,,,,,,,,,1,2,0,7,7,7,1,,,,,,,,,,,,,,,,,,,,,,,,,,,,,,,,,,,,,,,,,,,,,,,,,,,,,,,,,,,,,,,,,,,,,,
,,?,0.002195,0,,,,,,stimuli/images/PICTURE_2.png,YARD,5ddcd77f23f9f1c2c45d6c18,01/09/1954,2020-07-09_16h05.37.612,proactive,2020.1.2,Win32,60,5f073de81c76c3308c0e4fb3,5f07777097216d18cd87951e,1,,,,,,tyre,,,,,,,,,,,6,2,0,8,8,55,1,,,,,,,,,,,,,,,,,,,,,,,,,,,,,,,,,,,,,,,,,,,,,,,,,,,,,,,,,,,,,,,,,,,,,,
,,?,0.00208,0,,,,,,stimuli/images/PICTURE_311.png,TOILET,5ddcd77f23f9f1c2c45d6c18,01/09/1954,2020-07-09_16h05.37.612,proactive,2020.1.2,Win32,60,5f073de81c76c3308c0e4fb3,5f07777097216d18cd87951e,1,,,,,,razor,,,,,,,,,,,6,2,0,9,9,54,1,,,,,,,,,,,,,,,,,,,,,,,,,,,,,,,,,,,,,,,,,,,,,,,,,,,,,,,,,,,,,,,,,,,,,,
,,?,0.00266,0,,,,,,stimuli/images/PICTURE_453.png,FAMILY,5ddcd77f23f9f1c2c45d6c18,01/09/1954,2020-07-09_16h05.37.612,proactive,2020.1.2,Win32,60,5f073de81c76c3308c0e4fb3,5f07777097216d18cd87951e,1,,,,,,scissors,,,,,,,,,,,5,2,0,10,10,48,1,,,,,,,,,,,,,,,,,,,,,,,,,,,,,,,,,,,,,,,,,,,,,,,,,,,,,,,,,,,,,,,,,,,,,,
,,FAMILY,4.851895,1,,,,,,stimuli/images/PICTURE_403.png,FAMILY,5ddcd77f23f9f1c2c45d6c18,01/09/1954,2020-07-09_16h05.37.612,proactive,2020.1.2,Win32,60,5f073de81c76c3308c0e4fb3,5f07777097216d18cd87951e,1,,,,,,cathedral,,,,,,,,,,,1,2,0,11,11,9,1,,,,,,,,,,,,,,,,,,,,,,,,,,,,,,,,,,,,,,,,,,,,,,,,,,,,,,,,,,,,,,,,,,,,,,
,,JUNGLE,4.403595,1,,,,,,stimuli/images/PICTURE_2.png,JUNGLE,5ddcd77f23f9f1c2c45d6c18,01/09/1954,2020-07-09_16h05.37.612,proactive,2020.1.2,Win32,60,5f073de81c76c3308c0e4fb3,5f07777097216d18cd87951e,1,,,,,,tyre,,,,,,,,,,,1,2,0,12,12,1,1,,,,,,,,,,,,,,,,,,,,,,,,,,,,,,,,,,,,,,,,,,,,,,,,,,,,,,,,,,,,,,,,,,,,,,
,,?,0.00213,0,,,,,,stimuli/images/PICTURE_285.png,PRINCE,5ddcd77f23f9f1c2c45d6c18,01/09/1954,2020-07-09_16h05.37.612,proactive,2020.1.2,Win32,60,5f073de81c76c3308c0e4fb3,5f07777097216d18cd87951e,1,,,,,,carrot,,,,,,,,,,,3,2,0,13,13,20,1,,,,,,,,,,,,,,,,,,,,,,,,,,,,,,,,,,,,,,,,,,,,,,,,,,,,,,,,,,,,,,,,,,,,,,
,,?,0.00213,0,,,,,,stimuli/images/PICTURE_654.png,COPS,5ddcd77f23f9f1c2c45d6c18,01/09/1954,2020-07-09_16h05.37.612,proactive,2020.1.2,Win32,60,5f073de81c76c3308c0e4fb3,5f07777097216d18cd87951e,1,,,,,,pencil,,,,,,,,,,,2,2,0,14,14,10,1,,,,,,,,,,,,,,,,,,,,,,,,,,,,,,,,,,,,,,,,,,,,,,,,,,,,,,,,,,,,,,,,,,,,,,
,,?,0.003165,0,,,,,,stimuli/images/PICTURE_68.png,KIND,5ddcd77f23f9f1c2c45d6c18,01/09/1954,2020-07-09_16h05.37.612,proactive,2020.1.2,Win32,60,5f073de81c76c3308c0e4fb3,5f07777097216d18cd87951e,1,,,,,,candle,,,,,,,,,,,3,2,0,15,15,23,1,,,,,,,,,,,,,,,,,,,,,,,,,,,,,,,,,,,,,,,,,,,,,,,,,,,,,,,,,,,,,,,,,,,,,,
,,?,0.00204,0,,,,,,stimuli/images/PICTURE_314.png,SPEECH,5ddcd77f23f9f1c2c45d6c18,01/09/1954,2020-07-09_16h05.37.612,proactive,2020.1.2,Win32,60,5f073de81c76c3308c0e4fb3,5f07777097216d18cd87951e,1,,,,,,perfume,,,,,,,,,,,4,2,0,16,16,35,1,,,,,,,,,,,,,,,,,,,,,,,,,,,,,,,,,,,,,,,,,,,,,,,,,,,,,,,,,,,,,,,,,,,,,,
,,FLUSH,9.35033,0,,,,,,stimuli/images/PICTURE_348.png,TOILET,5ddcd77f23f9f1c2c45d6c18,01/09/1954,2020-07-09_16h05.37.612,proactive,2020.1.2,Win32,60,5f073de81c76c3308c0e4fb3,5f07777097216d18cd87951e,1,,,,,,pepper,,,,,,,,,,,1,2,0,17,17,4,1,,,,,,,,,,,,,,,,,,,,,,,,,,,,,,,,,,,,,,,,,,,,,,,,,,,,,,,,,,,,,,,,,,,,,,
,,?,0.002145,0,,,,,,stimuli/images/PICTURE_654.png,YEAR,5ddcd77f23f9f1c2c45d6c18,01/09/1954,2020-07-09_16h05.37.612,proactive,2020.1.2,Win32,60,5f073de81c76c3308c0e4fb3,5f07777097216d18cd87951e,1,,,,,,pencil,,,,,,,,,,,5,2,0,18,18,41,1,,,,,,,,,,,,,,,,,,,,,,,,,,,,,,,,,,,,,,,,,,,,,,,,,,,,,,,,,,,,,,,,,,,,,,
,,?,0.00213,0,,,,,,stimuli/images/PICTURE_470.png,BEAUTY,5ddcd77f23f9f1c2c45d6c18,01/09/1954,2020-07-09_16h05.37.612,proactive,2020.1.2,Win32,60,5f073de81c76c3308c0e4fb3,5f07777097216d18cd87951e,1,,,,,,motorbike,,,,,,,,,,,3,2,0,19,19,26,1,,,,,,,,,,,,,,,,,,,,,,,,,,,,,,,,,,,,,,,,,,,,,,,,,,,,,,,,,,,,,,,,,,,,,,
,,?,0.00218,0,,,,,,stimuli/images/PICTURE_208.png,SPIRIT,5ddcd77f23f9f1c2c45d6c18,01/09/1954,2020-07-09_16h05.37.612,proactive,2020.1.2,Win32,60,5f073de81c76c3308c0e4fb3,5f07777097216d18cd87951e,1,,,,,,microphone,,,,,,,,,,,3,2,0,20,20,28,1,,,,,,,,,,,,,,,,,,,,,,,,,,,,,,,,,,,,,,,,,,,,,,,,,,,,,,,,,,,,,,,,,,,,,,
,,?,0.002475,0,,,,,,stimuli/images/PICTURE_215.png,BOYS,5ddcd77f23f9f1c2c45d6c18,01/09/1954,2020-07-09_16h05.37.612,proactive,2020.1.2,Win32,60,5f073de81c76c3308c0e4fb3,5f07777097216d18cd87951e,1,,,,,,boot,,,,,,,,,,,3,2,0,21,21,24,1,,,,,,,,,,,,,,,,,,,,,,,,,,,,,,,,,,,,,,,,,,,,,,,,,,,,,,,,,,,,,,,,,,,,,,
,,?,0.002025,0,,,,,,stimuli/images/PICTURE_677.png,FAMILY,5ddcd77f23f9f1c2c45d6c18,01/09/1954,2020-07-09_16h05.37.612,proactive,2020.1.2,Win32,60,5f073de81c76c3308c0e4fb3,5f07777097216d18cd87951e,1,,,,,,map,,,,,,,,,,,6,2,0,22,22,53,1,,,,,,,,,,,,,,,,,,,,,,,,,,,,,,,,,,,,,,,,,,,,,,,,,,,,,,,,,,,,,,,,,,,,,,
,,?,0.00274,0,,,,,,stimuli/images/PICTURE_487.png,POLICY,5ddcd77f23f9f1c2c45d6c18,01/09/1954,2020-07-09_16h05.37.612,proactive,2020.1.2,Win32,60,5f073de81c76c3308c0e4fb3,5f07777097216d18cd87951e,1,,,,,,basket,,,,,,,,,,,4,2,0,23,23,34,1,,,,,,,,,,,,,,,,,,,,,,,,,,,,,,,,,,,,,,,,,,,,,,,,,,,,,,,,,,,,,,,,,,,,,,
,,?,0.00577,0,,,,,,stimuli/images/PICTURE_93.png,GIRL,5ddcd77f23f9f1c2c45d6c18,01/09/1954,2020-07-09_16h05.37.612,proactive,2020.1.2,Win32,60,5f073de81c76c3308c0e4fb3,5f07777097216d18cd87951e,1,,,,,,skateboard,,,,,,,,,,,4,2,0,24,24,31,1,,,,,,,,,,,,,,,,,,,,,,,,,,,,,,,,,,,,,,,,,,,,,,,,,,,,,,,,,,,,,,,,,,,,,,
,,?,0.003355,0,,,,,,stimuli/images/PICTURE_509.png,MILLER,5ddcd77f23f9f1c2c45d6c18,01/09/1954,2020-07-09_16h05.37.612,proactive,2020.1.2,Win32,60,5f073de81c76c3308c0e4fb3,5f07777097216d18cd87951e,1,,,,,,telephone,,,,,,,,,,,5,2,0,25,25,49,1,,,,,,,,,,,,,,,,,,,,,,,,,,,,,,,,,,,,,,,,,,,,,,,,,,,,,,,,,,,,,,,,,,,,,,
,,?,0.002055,0,,,,,,stimuli/images/PICTURE_655.png,SALE,5ddcd77f23f9f1c2c45d6c18,01/09/1954,2020-07-09_16h05.37.612,proactive,2020.1.2,Win32,60,5f073de81c76c3308c0e4fb3,5f07777097216d18cd87951e,1,,,,,,megaphone,,,,,,,,,,,6,2,0,26,26,57,1,,,,,,,,,,,,,,,,,,,,,,,,,,,,,,,,,,,,,,,,,,,,,,,,,,,,,,,,,,,,,,,,,,,,,,
,,?,0.002155,0,,,,,,stimuli/images/PICTURE_141.png,CLIENT,5ddcd77f23f9f1c2c45d6c18,01/09/1954,2020-07-09_16h05.37.612,proactive,2020.1.2,Win32,60,5f073de81c76c3308c0e4fb3,5f07777097216d18cd87951e,1,,,,,,sunflower,,,,,,,,,,,4,2,0,27,27,30,1,,,,,,,,,,,,,,,,,,,,,,,,,,,,,,,,,,,,,,,,,,,,,,,,,,,,,,,,,,,,,,,,,,,,,,
,,?,0.00269,0,,,,,,stimuli/images/PICTURE_487.png,ROOF,5ddcd77f23f9f1c2c45d6c18,01/09/1954,2020-07-09_16h05.37.612,proactive,2020.1.2,Win32,60,5f073de81c76c3308c0e4fb3,5f07777097216d18cd87951e,1,,,,,,basket,,,,,,,,,,,6,2,0,28,28,50,1,,,,,,,,,,,,,,,,,,,,,,,,,,,,,,,,,,,,,,,,,,,,,,,,,,,,,,,,,,,,,,,,,,,,,,
,,?,0.002145,0,,,,,,stimuli/images/PICTURE_255.png,PENNY,5ddcd77f23f9f1c2c45d6c18,01/09/1954,2020-07-09_16h05.37.612,proactive,2020.1.2,Win32,60,5f073de81c76c3308c0e4fb3,5f07777097216d18cd87951e,1,,,,,,shovel,,,,,,,,,,,2,2,0,29,29,19,1,,,,,,,,,,,,,,,,,,,,,,,,,,,,,,,,,,,,,,,,,,,,,,,,,,,,,,,,,,,,,,,,,,,,,,
,,?,0.002245,0,,,,,,stimuli/images/PICTURE_57.png,NATION,5ddcd77f23f9f1c2c45d6c18,01/09/1954,2020-07-09_16h05.37.612,proactive,2020.1.2,Win32,60,5f073de81c76c3308c0e4fb3,5f07777097216d18cd87951e,1,,,,,,stamp,,,,,,,,,,,3,2,0,30,30,21,1,,,,,,,,,,,,,,,,,,,,,,,,,,,,,,,,,,,,,,,,,,,,,,,,,,,,,,,,,,,,,,,,,,,,,,
,,?,0.002505,0,,,,,,stimuli/images/PICTURE_504.png,HOUSE,5ddcd77f23f9f1c2c45d6c18,01/09/1954,2020-07-09_16h05.37.612,proactive,2020.1.2,Win32,60,5f073de81c76c3308c0e4fb3,5f07777097216d18cd87951e,1,,,,,,wheel,,,,,,,,,,,4,2,0,31,31,36,1,,,,,,,,,,,,,,,,,,,,,,,,,,,,,,,,,,,,,,,,,,,,,,,,,,,,,,,,,,,,,,,,,,,,,,
,,?,0.00208,0,,,,,,stimuli/images/PICTURE_750.png,POLICY,5ddcd77f23f9f1c2c45d6c18,01/09/1954,2020-07-09_16h05.37.612,proactive,2020.1.2,Win32,60,5f073de81c76c3308c0e4fb3,5f07777097216d18cd87951e,1,,,,,,kettle,,,,,,,,,,,5,2,0,32,32,44,1,,,,,,,,,,,,,,,,,,,,,,,,,,,,,,,,,,,,,,,,,,,,,,,,,,,,,,,,,,,,,,,,,,,,,,
,,?,0.0021,0,,,,,,stimuli/images/PICTURE_296.png,CLOCK,5ddcd77f23f9f1c2c45d6c18,01/09/1954,2020-07-09_16h05.37.612,proactive,2020.1.2,Win32,60,5f073de81c76c3308c0e4fb3,5f07777097216d18cd87951e,1,,,,,,bolt,,,,,,,,,,,2,2,0,33,33,18,1,,,,,,,,,,,,,,,,,,,,,,,,,,,,,,,,,,,,,,,,,,,,,,,,,,,,,,,,,,,,,,,,,,,,,,
,,?,0.00201,0,,,,,,stimuli/images/PICTURE_18.png,RIVER,5ddcd77f23f9f1c2c45d6c18,01/09/1954,2020-07-09_16h05.37.612,proactive,2020.1.2,Win32,60,5f073de81c76c3308c0e4fb3,5f07777097216d18cd87951e,1,,,,,,planet,,,,,,,,,,,3,2,0,34,34,22,1,,,,,,,,,,,,,,,,,,,,,,,,,,,,,,,,,,,,,,,,,,,,,,,,,,,,,,,,,,,,,,,,,,,,,,
,,?,0.002375,0,,,,,,stimuli/images/PICTURE_160.png,HOTEL,5ddcd77f23f9f1c2c45d6c18,01/09/1954,2020-07-09_16h05.37.612,proactive,2020.1.2,Win32,60,5f073de81c76c3308c0e4fb3,5f07777097216d18cd87951e,1,,,,,,wheelbarrow,,,,,,,,,,,2,2,0,35,35,16,1,,,,,,,,,,,,,,,,,,,,,,,,,,,,,,,,,,,,,,,,,,,,,,,,,,,,,,,,,,,,,,,,,,,,,,
,,?,0.00203,0,,,,,,stimuli/images/PICTURE_356.png,CANDY,5ddcd77f23f9f1c2c45d6c18,01/09/1954,2020-07-09_16h05.37.612,proactive,2020.1.2,Win32,60,5f073de81c76c3308c0e4fb3,5f07777097216d18cd87951e,1,,,,,,pawn,,,,,,,,,,,5,2,0,36,36,46,1,,,,,,,,,,,,,,,,,,,,,,,,,,,,,,,,,,,,,,,,,,,,,,,,,,,,,,,,,,,,,,,,,,,,,,
,,?,0.00241,0,,,,,,stimuli/images/PICTURE_667.png,GLASS,5ddcd77f23f9f1c2c45d6c18,01/09/1954,2020-07-09_16h05.37.612,proactive,2020.1.2,Win32,60,5f073de81c76c3308c0e4fb3,5f07777097216d18cd87951e,1,,,,,,daisy,,,,,,,,,,,3,2,0,37,37,27,1,,,,,,,,,,,,,,,,,,,,,,,,,,,,,,,,,,,,,,,,,,,,,,,,,,,,,,,,,,,,,,,,,,,,,,
,,?,0.002045,0,,,,,,stimuli/images/PICTURE_327.png,LEADER,5ddcd77f23f9f1c2c45d6c18,01/09/1954,2020-07-09_16h05.37.612,proactive,2020.1.2,Win32,60,5f073de81c76c3308c0e4fb3,5f07777097216d18cd87951e,1,,,,,,helmet,,,,,,,,,,,2,2,0,38,38,17,1,,,,,,,,,,,,,,,,,,,,,,,,,,,,,,,,,,,,,,,,,,,,,,,,,,,,,,,,,,,,,,,,,,,,,,
,,BOAT,3.07964,0,,,,,,stimuli/images/PICTURE_405.png,HOUSE,5ddcd77f23f9f1c2c45d6c18,01/09/1954,2020-07-09_16h05.37.612,proactive,2020.1.2,Win32,60,5f073de81c76c3308c0e4fb3,5f07777097216d18cd87951e,1,,,,,,anchor,,,,,,,,,,,1,2,0,39,39,2,1,,,,,,,,,,,,,,,,,,,,,,,,,,,,,,,,,,,,,,,,,,,,,,,,,,,,,,,,,,,,,,,,,,,,,,
,,FOOD,3.452265,1,,,,,,stimuli/images/PICTURE_215.png,FOOD,5ddcd77f23f9f1c2c45d6c18,01/09/1954,2020-07-09_16h05.37.612,proactive,2020.1.2,Win32,60,5f073de81c76c3308c0e4fb3,5f07777097216d18cd87951e,1,,,,,,boot,,,,,,,,,,,1,2,0,40,40,5,1,,,,,,,,,,,,,,,,,,,,,,,,,,,,,,,,,,,,,,,,,,,,,,,,,,,,,,,,,,,,,,,,,,,,,,
,,?,0.00201,0,,,,,,stimuli/images/PICTURE_470.png,MOMENT,5ddcd77f23f9f1c2c45d6c18,01/09/1954,2020-07-09_16h05.37.612,proactive,2020.1.2,Win32,60,5f073de81c76c3308c0e4fb3,5f07777097216d18cd87951e,1,,,,,,motorbike,,,,,,,,,,,5,2,0,41,41,40,1,,,,,,,,,,,,,,,,,,,,,,,,,,,,,,,,,,,,,,,,,,,,,,,,,,,,,,,,,,,,,,,,,,,,,,
,,?,0.002005,0,,,,,,stimuli/images/PICTURE_491.png,SERIES,5ddcd77f23f9f1c2c45d6c18,01/09/1954,2020-07-09_16h05.37.612,proactive,2020.1.2,Win32,60,5f073de81c76c3308c0e4fb3,5f07777097216d18cd87951e,1,,,,,,rug,,,,,,,,,,,4,2,0,42,42,39,1,,,,,,,,,,,,,,,,,,,,,,,,,,,,,,,,,,,,,,,,,,,,,,,,,,,,,,,,,,,,,,,,,,,,,,
,,HOUSE,4.47836,0,,,,,,stimuli/images/PICTURE_123.png,SALE,5ddcd77f23f9f1c2c45d6c18,01/09/1954,2020-07-09_16h05.37.612,proactive,2020.1.2,Win32,60,5f073de81c76c3308c0e4fb3,5f07777097216d18cd87951e,1,,,,,,dart,,,,,,,,,,,1,2,0,43,43,8,1,,,,,,,,,,,,,,,,,,,,,,,,,,,,,,,,,,,,,,,,,,,,,,,,,,,,,,,,,,,,,,,,,,,,,,
,,FLESH,6.78781,1,,,,,,stimuli/images/PICTURE_311.png,FLESH,5ddcd77f23f9f1c2c45d6c18,01/09/1954,2020-07-09_16h05.37.612,proactive,2020.1.2,Win32,60,5f073de81c76c3308c0e4fb3,5f07777097216d18cd87951e,1,,,,,,razor,,,,,,,,,,,1,2,0,44,44,3,1,,,,,,,,,,,,,,,,,,,,,,,,,,,,,,,,,,,,,,,,,,,,,,,,,,,,,,,,,,,,,,,,,,,,,,
,,?,0.002225,0,,,,,,stimuli/images/PICTURE_405.png,JUNGLE,5ddcd77f23f9f1c2c45d6c18,01/09/1954,2020-07-09_16h05.37.612,proactive,2020.1.2,Win32,60,5f073de81c76c3308c0e4fb3,5f07777097216d18cd87951e,1,,,,,,anchor,,,,,,,,,,,6,2,0,45,45,58,1,,,,,,,,,,,,,,,,,,,,,,,,,,,,,,,,,,,,,,,,,,,,,,,,,,,,,,,,,,,,,,,,,,,,,,
,,?,0.00205,0,,,,,,stimuli/images/PICTURE_348.png,DUDE,5ddcd77f23f9f1c2c45d6c18,01/09/1954,2020-07-09_16h05.37.612,proactive,2020.1.2,Win32,60,5f073de81c76c3308c0e4fb3,5f07777097216d18cd87951e,1,,,,,,pepper,,,,,,,,,,,6,2,0,46,46,59,1,,,,,,,,,,,,,,,,,,,,,,,,,,,,,,,,,,,,,,,,,,,,,,,,,,,,,,,,,,,,,,,,,,,,,,
,,?,0.002085,0,,,,,,stimuli/images/PICTURE_57.png,CANDY,5ddcd77f23f9f1c2c45d6c18,01/09/1954,2020-07-09_16h05.37.612,proactive,2020.1.2,Win32,60,5f073de81c76c3308c0e4fb3,5f07777097216d18cd87951e,1,,,,,,stamp,,,,,,,,,,,6,2,0,47,47,52,1,,,,,,,,,,,,,,,,,,,,,,,,,,,,,,,,,,,,,,,,,,,,,,,,,,,,,,,,,,,,,,,,,,,,,,
,,?,0.002065,0,,,,,,stimuli/images/PICTURE_32.png,LETTER,5ddcd77f23f9f1c2c45d6c18,01/09/1954,2020-07-09_16h05.37.612,proactive,2020.1.2,Win32,60,5f073de81c76c3308c0e4fb3,5f07777097216d18cd87951e,1,,,,,,crown,,,,,,,,,,,6,2,0,48,48,56,1,,,,,,,,,,,,,,,,,,,,,,,,,,,,,,,,,,,,,,,,,,,,,,,,,,,,,,,,,,,,,,,,,,,,,,
,,?,0.00202,0,,,,,,stimuli/images/PICTURE_33.png,COPS,5ddcd77f23f9f1c2c45d6c18,01/09/1954,2020-07-09_16h05.37.612,proactive,2020.1.2,Win32,60,5f073de81c76c3308c0e4fb3,5f07777097216d18cd87951e,1,,,,,,frame,,,,,,,,,,,3,2,0,49,49,29,1,,,,,,,,,,,,,,,,,,,,,,,,,,,,,,,,,,,,,,,,,,,,,,,,,,,,,,,,,,,,,,,,,,,,,,
,,?,0.00203,0,,,,,,stimuli/images/PICTURE_147.png,LEADER,5ddcd77f23f9f1c2c45d6c18,01/09/1954,2020-07-09_16h05.37.612,proactive,2020.1.2,Win32,60,5f073de81c76c3308c0e4fb3,5f07777097216d18cd87951e,1,,,,,,hanger,,,,,,,,,,,4,2,0,50,50,33,1,,,,,,,,,,,,,,,,,,,,,,,,,,,,,,,,,,,,,,,,,,,,,,,,,,,,,,,,,,,,,,,,,,,,,,
,,?,0.002385,0,,,,,,stimuli/images/PICTURE_509.png,APPLE,5ddcd77f23f9f1c2c45d6c18,01/09/1954,2020-07-09_16h05.37.612,proactive,2020.1.2,Win32,60,5f073de81c76c3308c0e4fb3,5f07777097216d18cd87951e,1,,,,,,telephone,,,,,,,,,,,4,2,0,51,51,38,1,,,,,,,,,,,,,,,,,,,,,,,,,,,,,,,,,,,,,,,,,,,,,,,,,,,,,,,,,,,,,,,,,,,,,,
,,?,0.00209,0,,,,,,stimuli/images/PICTURE_95.png,NIGHT,5ddcd77f23f9f1c2c45d6c18,01/09/1954,2020-07-09_16h05.37.612,proactive,2020.1.2,Win32,60,5f073de81c76c3308c0e4fb3,5f07777097216d18cd87951e,1,,,,,,suitcase,,,,,,,,,,,4,2,0,52,52,37,1,,,,,,,,,,,,,,,,,,,,,,,,,,,,,,,,,,,,,,,,,,,,,,,,,,,,,,,,,,,,,,,,,,,,,,
,,?,0.001975,0,,,,,,stimuli/images/PICTURE_708.png,VALLEY,5ddcd77f23f9f1c2c45d6c18,01/09/1954,2020-07-09_16h05.37.612,proactive,2020.1.2,Win32,60,5f073de81c76c3308c0e4fb3,5f07777097216d18cd87951e,1,,,,,,monkey,,,,,,,,,,,5,2,0,53,53,45,1,,,,,,,,,,,,,,,,,,,,,,,,,,,,,,,,,,,,,,,,,,,,,,,,,,,,,,,,,,,,,,,,,,,,,,
,,COPS,3.15197,1,,,,,,stimuli/images/PICTURE_452.png,COPS,5ddcd77f23f9f1c2c45d6c18,01/09/1954,2020-07-09_16h05.37.612,proactive,2020.1.2,Win32,60,5f073de81c76c3308c0e4fb3,5f07777097216d18cd87951e,1,,,,,,watch,,,,,,,,,,,1,2,0,54,54,0,1,,,,,,,,,,,,,,,,,,,,,,,,,,,,,,,,,,,,,,,,,,,,,,,,,,,,,,,,,,,,,,,,,,,,,,
,,?,0.00209,0,,,,,,stimuli/images/PICTURE_677.png,PHOTO,5ddcd77f23f9f1c2c45d6c18,01/09/1954,2020-07-09_16h05.37.612,proactive,2020.1.2,Win32,60,5f073de81c76c3308c0e4fb3,5f07777097216d18cd87951e,1,,,,,,map,,,,,,,,,,,2,2,0,55,55,14,1,,,,,,,,,,,,,,,,,,,,,,,,,,,,,,,,,,,,,,,,,,,,,,,,,,,,,,,,,,,,,,,,,,,,,,
,,WRITER,3.765495,1,,,,,,stimuli/images/PICTURE_285.png,WRITER,5ddcd77f23f9f1c2c45d6c18,01/09/1954,2020-07-09_16h05.37.612,proactive,2020.1.2,Win32,60,5f073de81c76c3308c0e4fb3,5f07777097216d18cd87951e,1,,,,,,carrot,,,,,,,,,,,1,2,0,56,56,6,1,,,,,,,,,,,,,,,,,,,,,,,,,,,,,,,,,,,,,,,,,,,,,,,,,,,,,,,,,,,,,,,,,,,,,,
,,?,0.002095,0,,,,,,stimuli/images/PICTURE_297.png,BODY,5ddcd77f23f9f1c2c45d6c18,01/09/1954,2020-07-09_16h05.37.612,proactive,2020.1.2,Win32,60,5f073de81c76c3308c0e4fb3,5f07777097216d18cd87951e,1,,,,,,aeroplane,,,,,,,,,,,6,2,0,57,57,51,1,,,,,,,,,,,,,,,,,,,,,,,,,,,,,,,,,,,,,,,,,,,,,,,,,,,,,,,,,,,,,,,,,,,,,,
,,?,0.002,0,,,,,,stimuli/images/PICTURE_692.png,DUDE,5ddcd77f23f9f1c2c45d6c18,01/09/1954,2020-07-09_16h05.37.612,proactive,2020.1.2,Win32,60,5f073de81c76c3308c0e4fb3,5f07777097216d18cd87951e,1,,,,,,cherry,,,,,,,,,,,5,2,0,58,58,47,1,,,,,,,,,,,,,,,,,,,,,,,,,,,,,,,,,,,,,,,,,,,,,,,,,,,,,,,,,,,,,,,,,,,,,,
,,?,0.002925,0,,,,,,stimuli/images/PICTURE_688.png,CLOCK,5ddcd77f23f9f1c2c45d6c18,01/09/1954,2020-07-09_16h05.37.612,proactive,2020.1.2,Win32,60,5f073de81c76c3308c0e4fb3,5f07777097216d18cd87951e,1,,,,,,runner,,,,,,,,,,,5,2,0,59,59,42,1,,,,,,,,,,,,,,,,,,,,,,,,,,,,,,,,,,,,,,,,,,,,,,,,,,,,,,,,,,,,,,,,,,,,,,
,,,,,,,,,,,,5ddcd77f23f9f1c2c45d6c18,01/09/1954,2020-07-09_16h05.37.612,proactive,2020.1.2,Win32,60,5f073de81c76c3308c0e4fb3,5f07777097216d18cd87951e,1,,,,,,,,,,,,,,,,,,,,,,,,0,1,1,2,1,stimuli/learn-block3.csv,,,,,,,,,,,,,,,,,,,,,,,,,,,,,,,,,,,,,,,,,,,,,,,,,,,,,,,,,,,,,,,,
,,,,,,,,,,stimuli/images/PICTURE_688.png,CASINO,5ddcd77f23f9f1c2c45d6c18,01/09/1954,2020-07-09_16h05.37.612,proactive,2020.1.2,Win32,60,5f073de81c76c3308c0e4fb3,5f07777097216d18cd87951e,1,,,,,,runner,,,,,,0,0,0,2,1,1,0,,,,,,,,,,,,,,,,,,,,,,,,,,,,,,,,,,,,,,,,,,,,,,,,,,,,,,,,,,,,,,,,,,,,,,,,,,,
,,,,,,,,,,stimuli/images/PICTURE_311.png,FRIEND,5ddcd77f23f9f1c2c45d6c18,01/09/1954,2020-07-09_16h05.37.612,proactive,2020.1.2,Win32,60,5f073de81c76c3308c0e4fb3,5f07777097216d18cd87951e,1,,,,,,razor,,,,,,0,1,1,34,1,4,0,,,,,,,,,,,,,,,,,,,,,,,,,,,,,,,,,,,,,,,,,,,,,,,,,,,,,,,,,,,,,,,,,,,,,,,,,,,
,,,,,,,,,,stimuli/images/PICTURE_467.png,DEMON,5ddcd77f23f9f1c2c45d6c18,01/09/1954,2020-07-09_16h05.37.612,proactive,2020.1.2,Win32,60,5f073de81c76c3308c0e4fb3,5f07777097216d18cd87951e,1,,,,,,peg,,,,,,0,2,2,23,1,3,0,,,,,,,,,,,,,,,,,,,,,,,,,,,,,,,,,,,,,,,,,,,,,,,,,,,,,,,,,,,,,,,,,,,,,,,,,,,
,,,,,,,,,,stimuli/images/PICTURE_667.png,PLENTY,5ddcd77f23f9f1c2c45d6c18,01/09/1954,2020-07-09_16h05.37.612,proactive,2020.1.2,Win32,60,5f073de81c76c3308c0e4fb3,5f07777097216d18cd87951e,1,,,,,,daisy,,,,,,0,3,3,41,1,5,0,,,,,,,,,,,,,,,,,,,,,,,,,,,,,,,,,,,,,,,,,,,,,,,,,,,,,,,,,,,,,,,,,,,,,,,,,,,
,,,,,,,,,,stimuli/images/PICTURE_667.png,BATH,5ddcd77f23f9f1c2c45d6c18,01/09/1954,2020-07-09_16h05.37.612,proactive,2020.1.2,Win32,60,5f073de81c76c3308c0e4fb3,5f07777097216d18cd87951e,1,,,,,,daisy,,,,,,0,4,4,4,1,1,0,,,,,,,,,,,,,,,,,,,,,,,,,,,,,,,,,,,,,,,,,,,,,,,,,,,,,,,,,,,,,,,,,,,,,,,,,,,
,,,,,,,,,,stimuli/images/PICTURE_453.png,PLENTY,5ddcd77f23f9f1c2c45d6c18,01/09/1954,2020-07-09_16h05.37.612,proactive,2020.1.2,Win32,60,5f073de81c76c3308c0e4fb3,5f07777097216d18cd87951e,1,,,,,,scissors,,,,,,0,5,5,56,1,6,0,,,,,,,,,,,,,,,,,,,,,,,,,,,,,,,,,,,,,,,,,,,,,,,,,,,,,,,,,,,,,,,,,,,,,,,,,,,
,,,,,,,,,,stimuli/images/PICTURE_314.png,SAKE,5ddcd77f23f9f1c2c45d6c18,01/09/1954,2020-07-09_16h05.37.612,proactive,2020.1.2,Win32,60,5f073de81c76c3308c0e4fb3,5f07777097216d18cd87951e,1,,,,,,perfume,,,,,,0,6,6,7,1,1,0,,,,,,,,,,,,,,,,,,,,,,,,,,,,,,,,,,,,,,,,,,,,,,,,,,,,,,,,,,,,,,,,,,,,,,,,,,,
,,,,,,,,,,stimuli/images/PICTURE_488.png,STYLE,5ddcd77f23f9f1c2c45d6c18,01/09/1954,2020-07-09_16h05.37.612,proactive,2020.1.2,Win32,60,5f073de81c76c3308c0e4fb3,5f07777097216d18cd87951e,1,,,,,,sun,,,,,,0,7,7,33,1,4,0,,,,,,,,,,,,,,,,,,,,,,,,,,,,,,,,,,,,,,,,,,,,,,,,,,,,,,,,,,,,,,,,,,,,,,,,,,,
,,,,,,,,,,stimuli/images/PICTURE_302.png,FAMILY,5ddcd77f23f9f1c2c45d6c18,01/09/1954,2020-07-09_16h05.37.612,proactive,2020.1.2,Win32,60,5f073de81c76c3308c0e4fb3,5f07777097216d18cd87951e,1,,,,,,taxi,,,,,,0,8,8,18,1,2,0,,,,,,,,,,,,,,,,,,,,,,,,,,,,,,,,,,,,,,,,,,,,,,,,,,,,,,,,,,,,,,,,,,,,,,,,,,,
,,,,,,,,,,stimuli/images/PICTURE_85.png,THING,5ddcd77f23f9f1c2c45d6c18,01/09/1954,2020-07-09_16h05.37.612,proactive,2020.1.2,Win32,60,5f073de81c76c3308c0e4fb3,5f07777097216d18cd87951e,1,,,,,,diamond,,,,,,0,9,9,15,1,2,0,,,,,,,,,,,,,,,,,,,,,,,,,,,,,,,,,,,,,,,,,,,,,,,,,,,,,,,,,,,,,,,,,,,,,,,,,,,
,,,,,,,,,,stimuli/images/PICTURE_208.png,MONTH,5ddcd77f23f9f1c2c45d6c18,01/09/1954,2020-07-09_16h05.37.612,proactive,2020.1.2,Win32,60,5f073de81c76c3308c0e4fb3,5f07777097216d18cd87951e,1,,,,,,microphone,,,,,,0,10,10,53,1,6,0,,,,,,,,,,,,,,,,,,,,,,,,,,,,,,,,,,,,,,,,,,,,,,,,,,,,,,,,,,,,,,,,,,,,,,,,,,,
,,,,,,,,,,stimuli/images/PICTURE_285.png,ADVICE,5ddcd77f23f9f1c2c45d6c18,01/09/1954,2020-07-09_16h05.37.612,proactive,2020.1.2,Win32,60,5f073de81c76c3308c0e4fb3,5f07777097216d18cd87951e,1,,,,,,carrot,,,,,,0,11,11,12,1,2,0,,,,,,,,,,,,,,,,,,,,,,,,,,,,,,,,,,,,,,,,,,,,,,,,,,,,,,,,,,,,,,,,,,,,,,,,,,,
,,,,,,,,,,stimuli/images/PICTURE_160.png,LEADER,5ddcd77f23f9f1c2c45d6c18,01/09/1954,2020-07-09_16h05.37.612,proactive,2020.1.2,Win32,60,5f073de81c76c3308c0e4fb3,5f07777097216d18cd87951e,1,,,,,,wheelbarrow,,,,,,0,12,12,3,1,1,0,,,,,,,,,,,,,,,,,,,,,,,,,,,,,,,,,,,,,,,,,,,,,,,,,,,,,,,,,,,,,,,,,,,,,,,,,,,
,,,,,,,,,,stimuli/images/PICTURE_380.png,DEATH,5ddcd77f23f9f1c2c45d6c18,01/09/1954,2020-07-09_16h05.37.612,proactive,2020.1.2,Win32,60,5f073de81c76c3308c0e4fb3,5f07777097216d18cd87951e,1,,,,,,gorilla,,,,,,0,13,13,49,1,5,0,,,,,,,,,,,,,,,,,,,,,,,,,,,,,,,,,,,,,,,,,,,,,,,,,,,,,,,,,,,,,,,,,,,,,,,,,,,
,,,,,,,,,,stimuli/images/PICTURE_151.png,GIRL,5ddcd77f23f9f1c2c45d6c18,01/09/1954,2020-07-09_16h05.37.612,proactive,2020.1.2,Win32,60,5f073de81c76c3308c0e4fb3,5f07777097216d18cd87951e,1,,,,,,tray,,,,,,0,14,14,19,1,2,0,,,,,,,,,,,,,,,,,,,,,,,,,,,,,,,,,,,,,,,,,,,,,,,,,,,,,,,,,,,,,,,,,,,,,,,,,,,
,,,,,,,,,,stimuli/images/PICTURE_487.png,FLIGHT,5ddcd77f23f9f1c2c45d6c18,01/09/1954,2020-07-09_16h05.37.612,proactive,2020.1.2,Win32,60,5f073de81c76c3308c0e4fb3,5f07777097216d18cd87951e,1,,,,,,basket,,,,,,0,15,15,9,1,1,0,,,,,,,,,,,,,,,,,,,,,,,,,,,,,,,,,,,,,,,,,,,,,,,,,,,,,,,,,,,,,,,,,,,,,,,,,,,
,,,,,,,,,,stimuli/images/PICTURE_308.png,KIND,5ddcd77f23f9f1c2c45d6c18,01/09/1954,2020-07-09_16h05.37.612,proactive,2020.1.2,Win32,60,5f073de81c76c3308c0e4fb3,5f07777097216d18cd87951e,1,,,,,,dice,,,,,,0,16,16,54,1,6,0,,,,,,,,,,,,,,,,,,,,,,,,,,,,,,,,,,,,,,,,,,,,,,,,,,,,,,,,,,,,,,,,,,,,,,,,,,,
,,,,,,,,,,stimuli/images/PICTURE_255.png,AREA,5ddcd77f23f9f1c2c45d6c18,01/09/1954,2020-07-09_16h05.37.612,proactive,2020.1.2,Win32,60,5f073de81c76c3308c0e4fb3,5f07777097216d18cd87951e,1,,,,,,shovel,,,,,,0,17,17,22,1,3,0,,,,,,,,,,,,,,,,,,,,,,,,,,,,,,,,,,,,,,,,,,,,,,,,,,,,,,,,,,,,,,,,,,,,,,,,,,,
,,,,,,,,,,stimuli/images/PICTURE_708.png,YARD,5ddcd77f23f9f1c2c45d6c18,01/09/1954,2020-07-09_16h05.37.612,proactive,2020.1.2,Win32,60,5f073de81c76c3308c0e4fb3,5f07777097216d18cd87951e,1,,,,,,monkey,,,,,,0,18,18,29,1,3,0,,,,,,,,,,,,,,,,,,,,,,,,,,,,,,,,,,,,,,,,,,,,,,,,,,,,,,,,,,,,,,,,,,,,,,,,,,,
,,,,,,,,,,stimuli/images/PICTURE_675.png,WEAPON,5ddcd77f23f9f1c2c45d6c18,01/09/1954,2020-07-09_16h05.37.612,proactive,2020.1.2,Win32,60,5f073de81c76c3308c0e4fb3,5f07777097216d18cd87951e,1,,,,,,windmill,,,,,,0,19,19,32,1,4,0,,,,,,,,,,,,,,,,,,,,,,,,,,,,,,,,,,,,,,,,,,,,,,,,,,,,,,,,,,,,,,,,,,,,,,,,,,,
,,,,,,,,,,stimuli/images/PICTURE_356.png,DANGER,5ddcd77f23f9f1c2c45d6c18,01/09/1954,2020-07-09_16h05.37.612,proactive,2020.1.2,Win32,60,5f073de81c76c3308c0e4fb3,5f07777097216d18cd87951e,1,,,,,,pawn,,,,,,0,20,20,55,1,6,0,,,,,,,,,,,,,,,,,,,,,,,,,,,,,,,,,,,,,,,,,,,,,,,,,,,,,,,,,,,,,,,,,,,,,,,,,,,
,,,,,,,,,,stimuli/images/PICTURE_509.png,PHOTO,5ddcd77f23f9f1c2c45d6c18,01/09/1954,2020-07-09_16h05.37.612,proactive,2020.1.2,Win32,60,5f073de81c76c3308c0e4fb3,5f07777097216d18cd87951e,1,,,,,,telephone,,,,,,0,21,21,21,1,3,0,,,,,,,,,,,,,,,,,,,,,,,,,,,,,,,,,,,,,,,,,,,,,,,,,,,,,,,,,,,,,,,,,,,,,,,,,,,
,,,,,,,,,,stimuli/images/PICTURE_744.png,SYSTEM,5ddcd77f23f9f1c2c45d6c18,01/09/1954,2020-07-09_16h05.37.612,proactive,2020.1.2,Win32,60,5f073de81c76c3308c0e4fb3,5f07777097216d18cd87951e,1,,,,,,ring,,,,,,0,22,22,43,1,5,0,,,,,,,,,,,,,,,,,,,,,,,,,,,,,,,,,,,,,,,,,,,,,,,,,,,,,,,,,,,,,,,,,,,,,,,,,,,
,,,,,,,,,,stimuli/images/PICTURE_469.png,LETTER,5ddcd77f23f9f1c2c45d6c18,01/09/1954,2020-07-09_16h05.37.612,proactive,2020.1.2,Win32,60,5f073de81c76c3308c0e4fb3,5f07777097216d18cd87951e,1,,,,,,stool,,,,,,0,23,23,42,1,5,0,,,,,,,,,,,,,,,,,,,,,,,,,,,,,,,,,,,,,,,,,,,,,,,,,,,,,,,,,,,,,,,,,,,,,,,,,,,
,,,,,,,,,,stimuli/images/PICTURE_491.png,WRITER,5ddcd77f23f9f1c2c45d6c18,01/09/1954,2020-07-09_16h05.37.612,proactive,2020.1.2,Win32,60,5f073de81c76c3308c0e4fb3,5f07777097216d18cd87951e,1,,,,,,rug,,,,,,0,24,24,57,1,6,0,,,,,,,,,,,,,,,,,,,,,,,,,,,,,,,,,,,,,,,,,,,,,,,,,,,,,,,,,,,,,,,,,,,,,,,,,,,
,,,,,,,,,,stimuli/images/PICTURE_688.png,WOMEN,5ddcd77f23f9f1c2c45d6c18,01/09/1954,2020-07-09_16h05.37.612,proactive,2020.1.2,Win32,60,5f073de81c76c3308c0e4fb3,5f07777097216d18cd87951e,1,,,,,,runner,,,,,,0,25,25,14,1,2,0,,,,,,,,,,,,,,,,,,,,,,,,,,,,,,,,,,,,,,,,,,,,,,,,,,,,,,,,,,,,,,,,,,,,,,,,,,,
,,,,,,,,,,stimuli/images/PICTURE_308.png,ESTATE,5ddcd77f23f9f1c2c45d6c18,01/09/1954,2020-07-09_16h05.37.612,proactive,2020.1.2,Win32,60,5f073de81c76c3308c0e4fb3,5f07777097216d18cd87951e,1,,,,,,dice,,,,,,0,26,26,46,1,5,0,,,,,,,,,,,,,,,,,,,,,,,,,,,,,,,,,,,,,,,,,,,,,,,,,,,,,,,,,,,,,,,,,,,,,,,,,,,
,,,,,,,,,,stimuli/images/PICTURE_233.png,WOMEN,5ddcd77f23f9f1c2c45d6c18,01/09/1954,2020-07-09_16h05.37.612,proactive,2020.1.2,Win32,60,5f073de81c76c3308c0e4fb3,5f07777097216d18cd87951e,1,,,,,,salt,,,,,,0,27,27,38,1,4,0,,,,,,,,,,,,,,,,,,,,,,,,,,,,,,,,,,,,,,,,,,,,,,,,,,,,,,,,,,,,,,,,,,,,,,,,,,,
,,,,,,,,,,stimuli/images/PICTURE_314.png,GODS,5ddcd77f23f9f1c2c45d6c18,01/09/1954,2020-07-09_16h05.37.612,proactive,2020.1.2,Win32,60,5f073de81c76c3308c0e4fb3,5f07777097216d18cd87951e,1,,,,,,perfume,,,,,,0,28,28,11,1,2,0,,,,,,,,,,,,,,,,,,,,,,,,,,,,,,,,,,,,,,,,,,,,,,,,,,,,,,,,,,,,,,,,,,,,,,,,,,,
,,,,,,,,,,stimuli/images/PICTURE_327.png,BEAUTY,5ddcd77f23f9f1c2c45d6c18,01/09/1954,2020-07-09_16h05.37.612,proactive,2020.1.2,Win32,60,5f073de81c76c3308c0e4fb3,5f07777097216d18cd87951e,1,,,,,,helmet,,,,,,0,29,29,48,1,5,0,,,,,,,,,,,,,,,,,,,,,,,,,,,,,,,,,,,,,,,,,,,,,,,,,,,,,,,,,,,,,,,,,,,,,,,,,,,
,,,,,,,,,,stimuli/images/PICTURE_248.png,DOZEN,5ddcd77f23f9f1c2c45d6c18,01/09/1954,2020-07-09_16h05.37.612,proactive,2020.1.2,Win32,60,5f073de81c76c3308c0e4fb3,5f07777097216d18cd87951e,1,,,,,,cart,,,,,,0,30,30,39,1,4,0,,,,,,,,,,,,,,,,,,,,,,,,,,,,,,,,,,,,,,,,,,,,,,,,,,,,,,,,,,,,,,,,,,,,,,,,,,,
,,,,,,,,,,stimuli/images/PICTURE_311.png,BEAUTY,5ddcd77f23f9f1c2c45d6c18,01/09/1954,2020-07-09_16h05.37.612,proactive,2020.1.2,Win32,60,5f073de81c76c3308c0e4fb3,5f07777097216d18cd87951e,1,,,,,,razor,,,,,,0,31,31,13,1,2,0,,,,,,,,,,,,,,,,,,,,,,,,,,,,,,,,,,,,,,,,,,,,,,,,,,,,,,,,,,,,,,,,,,,,,,,,,,,
,,,,,,,,,,stimuli/images/PICTURE_177.png,CARS,5ddcd77f23f9f1c2c45d6c18,01/09/1954,2020-07-09_16h05.37.612,proactive,2020.1.2,Win32,60,5f073de81c76c3308c0e4fb3,5f07777097216d18cd87951e,1,,,,,,mushroom,,,,,,0,32,32,35,1,4,0,,,,,,,,,,,,,,,,,,,,,,,,,,,,,,,,,,,,,,,,,,,,,,,,,,,,,,,,,,,,,,,,,,,,,,,,,,,
,,,,,,,,,,stimuli/images/PICTURE_491.png,ROOF,5ddcd77f23f9f1c2c45d6c18,01/09/1954,2020-07-09_16h05.37.612,proactive,2020.1.2,Win32,60,5f073de81c76c3308c0e4fb3,5f07777097216d18cd87951e,1,,,,,,rug,,,,,,0,33,33,24,1,3,0,,,,,,,,,,,,,,,,,,,,,,,,,,,,,,,,,,,,,,,,,,,,,,,,,,,,,,,,,,,,,,,,,,,,,,,,,,,
,,,,,,,,,,stimuli/images/PICTURE_233.png,IDEAS,5ddcd77f23f9f1c2c45d6c18,01/09/1954,2020-07-09_16h05.37.612,proactive,2020.1.2,Win32,60,5f073de81c76c3308c0e4fb3,5f07777097216d18cd87951e,1,,,,,,salt,,,,,,0,34,34,28,1,3,0,,,,,,,,,,,,,,,,,,,,,,,,,,,,,,,,,,,,,,,,,,,,,,,,,,,,,,,,,,,,,,,,,,,,,,,,,,,
,,,,,,,,,,stimuli/images/PICTURE_692.png,MONTH,5ddcd77f23f9f1c2c45d6c18,01/09/1954,2020-07-09_16h05.37.612,proactive,2020.1.2,Win32,60,5f073de81c76c3308c0e4fb3,5f07777097216d18cd87951e,1,,,,,,cherry,,,,,,0,35,35,16,1,2,0,,,,,,,,,,,,,,,,,,,,,,,,,,,,,,,,,,,,,,,,,,,,,,,,,,,,,,,,,,,,,,,,,,,,,,,,,,,
,,,,,,,,,,stimuli/images/PICTURE_654.png,VALLEY,5ddcd77f23f9f1c2c45d6c18,01/09/1954,2020-07-09_16h05.37.612,proactive,2020.1.2,Win32,60,5f073de81c76c3308c0e4fb3,5f07777097216d18cd87951e,1,,,,,,pencil,,,,,,0,36,36,1,1,1,0,,,,,,,,,,,,,,,,,,,,,,,,,,,,,,,,,,,,,,,,,,,,,,,,,,,,,,,,,,,,,,,,,,,,,,,,,,,
,,,,,,,,,,stimuli/images/PICTURE_708.png,PENNY,5ddcd77f23f9f1c2c45d6c18,01/09/1954,2020-07-09_16h05.37.612,proactive,2020.1.2,Win32,60,5f073de81c76c3308c0e4fb3,5f07777097216d18cd87951e,1,,,,,,monkey,,,,,,0,37,37,31,1,4,0,,,,,,,,,,,,,,,,,,,,,,,,,,,,,,,,,,,,,,,,,,,,,,,,,,,,,,,,,,,,,,,,,,,,,,,,,,,
,,,,,,,,,,stimuli/images/PICTURE_470.png,CASINO,5ddcd77f23f9f1c2c45d6c18,01/09/1954,2020-07-09_16h05.37.612,proactive,2020.1.2,Win32,60,5f073de81c76c3308c0e4fb3,5f07777097216d18cd87951e,1,,,,,,motorbike,,,,,,0,38,38,36,1,4,0,,,,,,,,,,,,,,,,,,,,,,,,,,,,,,,,,,,,,,,,,,,,,,,,,,,,,,,,,,,,,,,,,,,,,,,,,,,
,,,,,,,,,,stimuli/images/PICTURE_348.png,SPEECH,5ddcd77f23f9f1c2c45d6c18,01/09/1954,2020-07-09_16h05.37.612,proactive,2020.1.2,Win32,60,5f073de81c76c3308c0e4fb3,5f07777097216d18cd87951e,1,,,,,,pepper,,,,,,0,39,39,20,1,3,0,,,,,,,,,,,,,,,,,,,,,,,,,,,,,,,,,,,,,,,,,,,,,,,,,,,,,,,,,,,,,,,,,,,,,,,,,,,
,,,,,,,,,,stimuli/images/PICTURE_208.png,THING,5ddcd77f23f9f1c2c45d6c18,01/09/1954,2020-07-09_16h05.37.612,proactive,2020.1.2,Win32,60,5f073de81c76c3308c0e4fb3,5f07777097216d18cd87951e,1,,,,,,microphone,,,,,,0,40,40,47,1,5,0,,,,,,,,,,,,,,,,,,,,,,,,,,,,,,,,,,,,,,,,,,,,,,,,,,,,,,,,,,,,,,,,,,,,,,,,,,,
,,,,,,,,,,stimuli/images/PICTURE_203.png,ARTIST,5ddcd77f23f9f1c2c45d6c18,01/09/1954,2020-07-09_16h05.37.612,proactive,2020.1.2,Win32,60,5f073de81c76c3308c0e4fb3,5f07777097216d18cd87951e,1,,,,,,cap,,,,,,0,41,41,26,1,3,0,,,,,,,,,,,,,,,,,,,,,,,,,,,,,,,,,,,,,,,,,,,,,,,,,,,,,,,,,,,,,,,,,,,,,,,,,,,
,,,,,,,,,,stimuli/images/PICTURE_380.png,PHOTO,5ddcd77f23f9f1c2c45d6c18,01/09/1954,2020-07-09_16h05.37.612,proactive,2020.1.2,Win32,60,5f073de81c76c3308c0e4fb3,5f07777097216d18cd87951e,1,,,,,,gorilla,,,,,,0,42,42,52,1,6,0,,,,,,,,,,,,,,,,,,,,,,,,,,,,,,,,,,,,,,,,,,,,,,,,,,,,,,,,,,,,,,,,,,,,,,,,,,,
,,,,,,,,,,stimuli/images/PICTURE_449.png,THING,5ddcd77f23f9f1c2c45d6c18,01/09/1954,2020-07-09_16h05.37.612,proactive,2020.1.2,Win32,60,5f073de81c76c3308c0e4fb3,5f07777097216d18cd87951e,1,,,,,,bench,,,,,,0,43,43,59,1,6,0,,,,,,,,,,,,,,,,,,,,,,,,,,,,,,,,,,,,,,,,,,,,,,,,,,,,,,,,,,,,,,,,,,,,,,,,,,,
,,,,,,,,,,stimuli/images/PICTURE_708.png,CLIENT,5ddcd77f23f9f1c2c45d6c18,01/09/1954,2020-07-09_16h05.37.612,proactive,2020.1.2,Win32,60,5f073de81c76c3308c0e4fb3,5f07777097216d18cd87951e,1,,,,,,monkey,,,,,,0,44,44,5,1,1,0,,,,,,,,,,,,,,,,,,,,,,,,,,,,,,,,,,,,,,,,,,,,,,,,,,,,,,,,,,,,,,,,,,,,,,,,,,,
,,,,,,,,,,stimuli/images/PICTURE_160.png,FEET,5ddcd77f23f9f1c2c45d6c18,01/09/1954,2020-07-09_16h05.37.612,proactive,2020.1.2,Win32,60,5f073de81c76c3308c0e4fb3,5f07777097216d18cd87951e,1,,,,,,wheelbarrow,,,,,,0,45,45,58,1,6,0,,,,,,,,,,,,,,,,,,,,,,,,,,,,,,,,,,,,,,,,,,,,,,,,,,,,,,,,,,,,,,,,,,,,,,,,,,,
,,,,,,,,,,stimuli/images/PICTURE_208.png,LOTS,5ddcd77f23f9f1c2c45d6c18,01/09/1954,2020-07-09_16h05.37.612,proactive,2020.1.2,Win32,60,5f073de81c76c3308c0e4fb3,5f07777097216d18cd87951e,1,,,,,,microphone,,,,,,0,46,46,10,1,2,0,,,,,,,,,,,,,,,,,,,,,,,,,,,,,,,,,,,,,,,,,,,,,,,,,,,,,,,,,,,,,,,,,,,,,,,,,,,
,,,,,,,,,,stimuli/images/PICTURE_677.png,MILE,5ddcd77f23f9f1c2c45d6c18,01/09/1954,2020-07-09_16h05.37.612,proactive,2020.1.2,Win32,60,5f073de81c76c3308c0e4fb3,5f07777097216d18cd87951e,1,,,,,,map,,,,,,0,47,47,30,1,4,0,,,,,,,,,,,,,,,,,,,,,,,,,,,,,,,,,,,,,,,,,,,,,,,,,,,,,,,,,,,,,,,,,,,,,,,,,,,
,,,,,,,,,,stimuli/images/PICTURE_504.png,BODY,5ddcd77f23f9f1c2c45d6c18,01/09/1954,2020-07-09_16h05.37.612,proactive,2020.1.2,Win32,60,5f073de81c76c3308c0e4fb3,5f07777097216d18cd87951e,1,,,,,,wheel,,,,,,0,48,48,8,1,1,0,,,,,,,,,,,,,,,,,,,,,,,,,,,,,,,,,,,,,,,,,,,,,,,,,,,,,,,,,,,,,,,,,,,,,,,,,,,
,,,,,,,,,,stimuli/images/PICTURE_123.png,ADVICE,5ddcd77f23f9f1c2c45d6c18,01/09/1954,2020-07-09_16h05.37.612,proactive,2020.1.2,Win32,60,5f073de81c76c3308c0e4fb3,5f07777097216d18cd87951e,1,,,,,,dart,,,,,,0,49,49,40,1,5,0,,,,,,,,,,,,,,,,,,,,,,,,,,,,,,,,,,,,,,,,,,,,,,,,,,,,,,,,,,,,,,,,,,,,,,,,,,,
,,,,,,,,,,stimuli/images/PICTURE_339.png,PLENTY,5ddcd77f23f9f1c2c45d6c18,01/09/1954,2020-07-09_16h05.37.612,proactive,2020.1.2,Win32,60,5f073de81c76c3308c0e4fb3,5f07777097216d18cd87951e,1,,,,,,backpack,,,,,,0,50,50,0,1,1,0,,,,,,,,,,,,,,,,,,,,,,,,,,,,,,,,,,,,,,,,,,,,,,,,,,,,,,,,,,,,,,,,,,,,,,,,,,,
,,,,,,,,,,stimuli/images/PICTURE_68.png,MILE,5ddcd77f23f9f1c2c45d6c18,01/09/1954,2020-07-09_16h05.37.612,proactive,2020.1.2,Win32,60,5f073de81c76c3308c0e4fb3,5f07777097216d18cd87951e,1,,,,,,candle,,,,,,0,51,51,44,1,5,0,,,,,,,,,,,,,,,,,,,,,,,,,,,,,,,,,,,,,,,,,,,,,,,,,,,,,,,,,,,,,,,,,,,,,,,,,,,
,,,,,,,,,,stimuli/images/PICTURE_469.png,ARTIST,5ddcd77f23f9f1c2c45d6c18,01/09/1954,2020-07-09_16h05.37.612,proactive,2020.1.2,Win32,60,5f073de81c76c3308c0e4fb3,5f07777097216d18cd87951e,1,,,,,,stool,,,,,,0,52,52,6,1,1,0,,,,,,,,,,,,,,,,,,,,,,,,,,,,,,,,,,,,,,,,,,,,,,,,,,,,,,,,,,,,,,,,,,,,,,,,,,,
,,,,,,,,,,stimuli/images/PICTURE_95.png,STYLE,5ddcd77f23f9f1c2c45d6c18,01/09/1954,2020-07-09_16h05.37.612,proactive,2020.1.2,Win32,60,5f073de81c76c3308c0e4fb3,5f07777097216d18cd87951e,1,,,,,,suitcase,,,,,,0,53,53,25,1,3,0,,,,,,,,,,,,,,,,,,,,,,,,,,,,,,,,,,,,,,,,,,,,,,,,,,,,,,,,,,,,,,,,,,,,,,,,,,,
,,,,,,,,,,stimuli/images/PICTURE_147.png,MOMENT,5ddcd77f23f9f1c2c45d6c18,01/09/1954,2020-07-09_16h05.37.612,proactive,2020.1.2,Win32,60,5f073de81c76c3308c0e4fb3,5f07777097216d18cd87951e,1,,,,,,hanger,,,,,,0,54,54,51,1,6,0,,,,,,,,,,,,,,,,,,,,,,,,,,,,,,,,,,,,,,,,,,,,,,,,,,,,,,,,,,,,,,,,,,,,,,,,,,,
,,,,,,,,,,stimuli/images/PICTURE_32.png,JUNGLE,5ddcd77f23f9f1c2c45d6c18,01/09/1954,2020-07-09_16h05.37.612,proactive,2020.1.2,Win32,60,5f073de81c76c3308c0e4fb3,5f07777097216d18cd87951e,1,,,,,,crown,,,,,,0,55,55,45,1,5,0,,,,,,,,,,,,,,,,,,,,,,,,,,,,,,,,,,,,,,,,,,,,,,,,,,,,,,,,,,,,,,,,,,,,,,,,,,,
,,,,,,,,,,stimuli/images/PICTURE_453.png,DUDE,5ddcd77f23f9f1c2c45d6c18,01/09/1954,2020-07-09_16h05.37.612,proactive,2020.1.2,Win32,60,5f073de81c76c3308c0e4fb3,5f07777097216d18cd87951e,1,,,,,,scissors,,,,,,0,56,56,27,1,3,0,,,,,,,,,,,,,,,,,,,,,,,,,,,,,,,,,,,,,,,,,,,,,,,,,,,,,,,,,,,,,,,,,,,,,,,,,,,
,,,,,,,,,,stimuli/images/PICTURE_744.png,SAKE,5ddcd77f23f9f1c2c45d6c18,01/09/1954,2020-07-09_16h05.37.612,proactive,2020.1.2,Win32,60,5f073de81c76c3308c0e4fb3,5f07777097216d18cd87951e,1,,,,,,ring,,,,,,0,57,57,17,1,2,0,,,,,,,,,,,,,,,,,,,,,,,,,,,,,,,,,,,,,,,,,,,,,,,,,,,,,,,,,,,,,,,,,,,,,,,,,,,
,,,,,,,,,,stimuli/images/PICTURE_215.png,PLENTY,5ddcd77f23f9f1c2c45d6c18,01/09/1954,2020-07-09_16h05.37.612,proactive,2020.1.2,Win32,60,5f073de81c76c3308c0e4fb3,5f07777097216d18cd87951e,1,,,,,,boot,,,,,,0,58,58,37,1,4,0,,,,,,,,,,,,,,,,,,,,,,,,,,,,,,,,,,,,,,,,,,,,,,,,,,,,,,,,,,,,,,,,,,,,,,,,,,,
,,?,0.002225,0,,,,,,stimuli/images/PICTURE_233.png,WOMEN,5ddcd77f23f9f1c2c45d6c18,01/09/1954,2020-07-09_16h05.37.612,proactive,2020.1.2,Win32,60,5f073de81c76c3308c0e4fb3,5f07777097216d18cd87951e,1,,,,,,salt,,,,,,,,,,,4,0,0,0,0,38,1,,,,,,,,,,,,,,,,,,,,,,,,,,,,,,,,,,,,,,,,,,,,,,,,,,,,,,,,,,,,,,,,,,,,,,
,,?,0.002075,0,,,,,,stimuli/images/PICTURE_208.png,LOTS,5ddcd77f23f9f1c2c45d6c18,01/09/1954,2020-07-09_16h05.37.612,proactive,2020.1.2,Win32,60,5f073de81c76c3308c0e4fb3,5f07777097216d18cd87951e,1,,,,,,microphone,,,,,,,,,,,2,0,0,1,1,10,1,,,,,,,,,,,,,,,,,,,,,,,,,,,,,,,,,,,,,,,,,,,,,,,,,,,,,,,,,,,,,,,,,,,,,,
,,?,0.0021,0,,,,,,stimuli/images/PICTURE_314.png,GODS,5ddcd77f23f9f1c2c45d6c18,01/09/1954,2020-07-09_16h05.37.612,proactive,2020.1.2,Win32,60,5f073de81c76c3308c0e4fb3,5f07777097216d18cd87951e,1,,,,,,perfume,,,,,,,,,,,2,0,0,2,2,11,1,,,,,,,,,,,,,,,,,,,,,,,,,,,,,,,,,,,,,,,,,,,,,,,,,,,,,,,,,,,,,,,,,,,,,,
,,?,0.00219,0,,,,,,stimuli/images/PICTURE_95.png,STYLE,5ddcd77f23f9f1c2c45d6c18,01/09/1954,2020-07-09_16h05.37.612,proactive,2020.1.2,Win32,60,5f073de81c76c3308c0e4fb3,5f07777097216d18cd87951e,1,,,,,,suitcase,,,,,,,,,,,3,0,0,3,3,25,1,,,,,,,,,,,,,,,,,,,,,,,,,,,,,,,,,,,,,,,,,,,,,,,,,,,,,,,,,,,,,,,,,,,,,,
,,?,0.002045,0,,,,,,stimuli/images/PICTURE_160.png,FEET,5ddcd77f23f9f1c2c45d6c18,01/09/1954,2020-07-09_16h05.37.612,proactive,2020.1.2,Win32,60,5f073de81c76c3308c0e4fb3,5f07777097216d18cd87951e,1,,,,,,wheelbarrow,,,,,,,,,,,6,0,0,4,4,58,1,,,,,,,,,,,,,,,,,,,,,,,,,,,,,,,,,,,,,,,,,,,,,,,,,,,,,,,,,,,,,,,,,,,,,,
,,?,0.00201,0,,,,,,stimuli/images/PICTURE_311.png,FRIEND,5ddcd77f23f9f1c2c45d6c18,01/09/1954,2020-07-09_16h05.37.612,proactive,2020.1.2,Win32,60,5f073de81c76c3308c0e4fb3,5f07777097216d18cd87951e,1,,,,,,razor,,,,,,,,,,,4,0,0,5,5,34,1,,,,,,,,,,,,,,,,,,,,,,,,,,,,,,,,,,,,,,,,,,,,,,,,,,,,,,,,,,,,,,,,,,,,,,
,,FLIGHT,5.205275,1,,,,,,stimuli/images/PICTURE_487.png,FLIGHT,5ddcd77f23f9f1c2c45d6c18,01/09/1954,2020-07-09_16h05.37.612,proactive,2020.1.2,Win32,60,5f073de81c76c3308c0e4fb3,5f07777097216d18cd87951e,1,,,,,,basket,,,,,,,,,,,1,0,0,6,6,9,1,,,,,,,,,,,,,,,,,,,,,,,,,,,,,,,,,,,,,,,,,,,,,,,,,,,,,,,,,,,,,,,,,,,,,,
,,?,0.00257,0,,,,,,stimuli/images/PICTURE_453.png,PLENTY,5ddcd77f23f9f1c2c45d6c18,01/09/1954,2020-07-09_16h05.37.612,proactive,2020.1.2,Win32,60,5f073de81c76c3308c0e4fb3,5f07777097216d18cd87951e,1,,,,,,scissors,,,,,,,,,,,6,0,0,7,7,56,1,,,,,,,,,,,,,,,,,,,,,,,,,,,,,,,,,,,,,,,,,,,,,,,,,,,,,,,,,,,,,,,,,,,,,,
,,?,0.002115,0,,,,,,stimuli/images/PICTURE_356.png,DANGER,5ddcd77f23f9f1c2c45d6c18,01/09/1954,2020-07-09_16h05.37.612,proactive,2020.1.2,Win32,60,5f073de81c76c3308c0e4fb3,5f07777097216d18cd87951e,1,,,,,,pawn,,,,,,,,,,,6,0,0,8,8,55,1,,,,,,,,,,,,,,,,,,,,,,,,,,,,,,,,,,,,,,,,,,,,,,,,,,,,,,,,,,,,,,,,,,,,,,
,,?,0.00615,0,,,,,,stimuli/images/PICTURE_123.png,ADVICE,5ddcd77f23f9f1c2c45d6c18,01/09/1954,2020-07-09_16h05.37.612,proactive,2020.1.2,Win32,60,5f073de81c76c3308c0e4fb3,5f07777097216d18cd87951e,1,,,,,,dart,,,,,,,,,,,5,0,0,9,9,40,1,,,,,,,,,,,,,,,,,,,,,,,,,,,,,,,,,,,,,,,,,,,,,,,,,,,,,,,,,,,,,,,,,,,,,,
,,SAKE,3.38238,1,,,,,,stimuli/images/PICTURE_314.png,SAKE,5ddcd77f23f9f1c2c45d6c18,01/09/1954,2020-07-09_16h05.37.612,proactive,2020.1.2,Win32,60,5f073de81c76c3308c0e4fb3,5f07777097216d18cd87951e,1,,,,,,perfume,,,,,,,,,,,1,0,0,10,10,7,1,,,,,,,,,,,,,,,,,,,,,,,,,,,,,,,,,,,,,,,,,,,,,,,,,,,,,,,,,,,,,,,,,,,,,,
,,?,0.002105,0,,,,,,stimuli/images/PICTURE_233.png,IDEAS,5ddcd77f23f9f1c2c45d6c18,01/09/1954,2020-07-09_16h05.37.612,proactive,2020.1.2,Win32,60,5f073de81c76c3308c0e4fb3,5f07777097216d18cd87951e,1,,,,,,salt,,,,,,,,,,,3,0,0,11,11,28,1,,,,,,,,,,,,,,,,,,,,,,,,,,,,,,,,,,,,,,,,,,,,,,,,,,,,,,,,,,,,,,,,,,,,,,
,,?,0.002,0,,,,,,stimuli/images/PICTURE_68.png,MILE,5ddcd77f23f9f1c2c45d6c18,01/09/1954,2020-07-09_16h05.37.612,proactive,2020.1.2,Win32,60,5f073de81c76c3308c0e4fb3,5f07777097216d18cd87951e,1,,,,,,candle,,,,,,,,,,,5,0,0,12,12,44,1,,,,,,,,,,,,,,,,,,,,,,,,,,,,,,,,,,,,,,,,,,,,,,,,,,,,,,,,,,,,,,,,,,,,,,
,,?,0.002095,0,,,,,,stimuli/images/PICTURE_692.png,MONTH,5ddcd77f23f9f1c2c45d6c18,01/09/1954,2020-07-09_16h05.37.612,proactive,2020.1.2,Win32,60,5f073de81c76c3308c0e4fb3,5f07777097216d18cd87951e,1,,,,,,cherry,,,,,,,,,,,2,0,0,13,13,16,1,,,,,,,,,,,,,,,,,,,,,,,,,,,,,,,,,,,,,,,,,,,,,,,,,,,,,,,,,,,,,,,,,,,,,,
,,PLENTY,3.686895,1,,,,,,stimuli/images/PICTURE_339.png,PLENTY,5ddcd77f23f9f1c2c45d6c18,01/09/1954,2020-07-09_16h05.37.612,proactive,2020.1.2,Win32,60,5f073de81c76c3308c0e4fb3,5f07777097216d18cd87951e,1,,,,,,backpack,,,,,,,,,,,1,0,0,14,14,0,1,,,,,,,,,,,,,,,,,,,,,,,,,,,,,,,,,,,,,,,,,,,,,,,,,,,,,,,,,,,,,,,,,,,,,,
,,?,0.00216,0,,,,,,stimuli/images/PICTURE_311.png,BEAUTY,5ddcd77f23f9f1c2c45d6c18,01/09/1954,2020-07-09_16h05.37.612,proactive,2020.1.2,Win32,60,5f073de81c76c3308c0e4fb3,5f07777097216d18cd87951e,1,,,,,,razor,,,,,,,,,,,2,0,0,15,15,13,1,,,,,,,,,,,,,,,,,,,,,,,,,,,,,,,,,,,,,,,,,,,,,,,,,,,,,,,,,,,,,,,,,,,,,,
,,?,0.002095,0,,,,,,stimuli/images/PICTURE_470.png,CASINO,5ddcd77f23f9f1c2c45d6c18,01/09/1954,2020-07-09_16h05.37.612,proactive,2020.1.2,Win32,60,5f073de81c76c3308c0e4fb3,5f07777097216d18cd87951e,1,,,,,,motorbike,,,,,,,,,,,4,0,0,16,16,36,1,,,,,,,,,,,,,,,,,,,,,,,,,,,,,,,,,,,,,,,,,,,,,,,,,,,,,,,,,,,,,,,,,,,,,,
