consent_key.keys,consent_key.rt,recalled,recalled_rt,recall_acc,example_recall.thisRepN,example_recall.thisTrialN,example_recall.thisN,example_recall.thisIndex,example_recall.ran,file,word,participant,please enter your date of birth (dd/mm/yyyy),date,expName,psychopyVersion,OS,frameRate,STUDY_ID,SESSION_ID,list,prac_learn_study_loop.thisRepN,prac_learn_study_loop.thisTrialN,prac_learn_study_loop.thisN,prac_learn_study_loop.thisIndex,prac_learn_study_loop.ran,image,prac_learn_test_loop.thisRepN,prac_learn_test_loop.thisTrialN,prac_learn_test_loop.thisN,prac_learn_test_loop.thisIndex,prac_learn_test_loop.ran,learn_study_loop.thisRepN,learn_study_loop.thisTrialN,learn_study_loop.thisN,learn_study_loop.thisIndex,learn_study_loop.ran,list_no,block_no,learn_test_loop.thisRepN,learn_test_loop.thisTrialN,learn_test_loop.thisN,learn_test_loop.thisIndex,learn_test_loop.ran,learn_blocks.thisRepN,learn_blocks.thisTrialN,learn_blocks.thisN,learn_blocks.thisIndex,learn_blocks.ran,block_csv,key_resp_13.keys,key_resp_13.rt,learn_blocks_loop.thisRepN,learn_blocks_loop.thisTrialN,learn_blocks_loop.thisN,learn_blocks_loop.thisIndex,learn_blocks_loop.ran,final_learn_test.thisRepN,final_learn_test.thisTrialN,final_learn_test.thisN,final_learn_test.thisIndex,final_learn_test.ran,prac_wm_test_loop.thisRepN,prac_wm_test_loop.thisTrialN,prac_wm_test_loop.thisN,prac_wm_test_loop.thisIndex,prac_wm_test_loop.ran,wm_recalled1,wm_recall_rt1,wm_probed1,wm_recall_acc1,wm_recalled2,wm_recall_rt2,wm_probed2,wm_recall_acc2,wm_recalled3,wm_recall_rt3,wm_probed3,wm_recall_acc3,wm_recalled4,wm_recall_rt4,wm_probed4,wm_recall_acc4,prac_wm_trial_loop.thisRepN,prac_wm_trial_loop.thisTrialN,prac_wm_trial_loop.thisN,prac_wm_trial_loop.thisIndex,prac_wm_trial_loop.ran,word1,image1,file1,item_type1,word2,image2,file2,item_type2,word4,image4,file4,item_type4,word3,image3,file3,item_type3,wm_test_loop.thisRepN,wm_test_loop.thisTrialN,wm_test_loop.thisN,wm_test_loop.thisIndex,wm_test_loop.ran,wm_trial_loop.thisRepN,wm_trial_loop.thisTrialN,wm_trial_loop.thisN,wm_trial_loop.thisIndex,wm_trial_loop.ran
y,43.358,TOUGH,4.093,1,0,0,0,0,1,stimuli/images/PICTURE_747.png,TOUGH,5de904d8443d0b01db94ff9b,11/04/2000,2020-07-08_16h13.53.609,proactive,2020.1.2,Win32,60,5f035e5afe130c270d6ae6dd,5f05e1d711119c0b6deee632,3,,,,,,,,,,,,,,,,,,,,,,,,,,,,,,,,,,,,,,,,,,,,,,,,,,,,,,,,,,,,,,,,,,,,,,,,,,,,,,,,,,,,,,,,,,,,,
,,,,,,,,,,stimuli/images/PICTURE_658.png,DEVIL,5de904d8443d0b01db94ff9b,11/04/2000,2020-07-08_16h13.53.609,proactive,2020.1.2,Win32,60,5f035e5afe130c270d6ae6dd,5f05e1d711119c0b6deee632,3,0,0,0,3,1,crow,,,,,,,,,,,,,,,,,,,,,,,,,,,,,,,,,,,,,,,,,,,,,,,,,,,,,,,,,,,,,,,,,,,,,,,,,,,,,,,,,,,,,,,
,,,,,,,,,,stimuli/images/PICTURE_727.png,CELL,5de904d8443d0b01db94ff9b,11/04/2000,2020-07-08_16h13.53.609,proactive,2020.1.2,Win32,60,5f035e5afe130c270d6ae6dd,5f05e1d711119c0b6deee632,3,0,1,1,1,1,hose,,,,,,,,,,,,,,,,,,,,,,,,,,,,,,,,,,,,,,,,,,,,,,,,,,,,,,,,,,,,,,,,,,,,,,,,,,,,,,,,,,,,,,,
,,,,,,,,,,stimuli/images/PICTURE_697.png,KILLER,5de904d8443d0b01db94ff9b,11/04/2000,2020-07-08_16h13.53.609,proactive,2020.1.2,Win32,60,5f035e5afe130c270d6ae6dd,5f05e1d711119c0b6deee632,3,0,2,2,4,1,peach,,,,,,,,,,,,,,,,,,,,,,,,,,,,,,,,,,,,,,,,,,,,,,,,,,,,,,,,,,,,,,,,,,,,,,,,,,,,,,,,,,,,,,,
,,,,,,,,,,stimuli/images/PICTURE_269.png,GENIUS,5de904d8443d0b01db94ff9b,11/04/2000,2020-07-08_16h13.53.609,proactive,2020.1.2,Win32,60,5f035e5afe130c270d6ae6dd,5f05e1d711119c0b6deee632,3,0,3,3,0,1,chameleon,,,,,,,,,,,,,,,,,,,,,,,,,,,,,,,,,,,,,,,,,,,,,,,,,,,,,,,,,,,,,,,,,,,,,,,,,,,,,,,,,,,,,,,
,,DEVIL,6.013,1,,,,,,stimuli/images/PICTURE_658.png,DEVIL,5de904d8443d0b01db94ff9b,11/04/2000,2020-07-08_16h13.53.609,proactive,2020.1.2,Win32,60,5f035e5afe130c270d6ae6dd,5f05e1d711119c0b6deee632,3,,,,,,crow,0,0,0,3,1,,,,,,,,,,,,,,,,,,,,,,,,,,,,,,,,,,,,,,,,,,,,,,,,,,,,,,,,,,,,,,,,,,,,,,,,,,,,,,,,,,
,,LOSS,3.848,1,,,,,,stimuli/images/PICTURE_378.png,LOSS,5de904d8443d0b01db94ff9b,11/04/2000,2020-07-08_16h13.53.609,proactive,2020.1.2,Win32,60,5f035e5afe130c270d6ae6dd,5f05e1d711119c0b6deee632,3,,,,,,lobster,0,1,1,2,1,,,,,,,,,,,,,,,,,,,,,,,,,,,,,,,,,,,,,,,,,,,,,,,,,,,,,,,,,,,,,,,,,,,,,,,,,,,,,,,,,,
,,KILLER,3.032,1,,,,,,stimuli/images/PICTURE_697.png,KILLER,5de904d8443d0b01db94ff9b,11/04/2000,2020-07-08_16h13.53.609,proactive,2020.1.2,Win32,60,5f035e5afe130c270d6ae6dd,5f05e1d711119c0b6deee632,3,,,,,,peach,0,2,2,4,1,,,,,,,,,,,,,,,,,,,,,,,,,,,,,,,,,,,,,,,,,,,,,,,,,,,,,,,,,,,,,,,,,,,,,,,,,,,,,,,,,,
,,CELL,3.549,1,,,,,,stimuli/images/PICTURE_727.png,CELL,5de904d8443d0b01db94ff9b,11/04/2000,2020-07-08_16h13.53.609,proactive,2020.1.2,Win32,60,5f035e5afe130c270d6ae6dd,5f05e1d711119c0b6deee632,3,,,,,,hose,0,3,3,1,1,,,,,,,,,,,,,,,,,,,,,,,,,,,,,,,,,,,,,,,,,,,,,,,,,,,,,,,,,,,,,,,,,,,,,,,,,,,,,,,,,,
,,GENIUS,4.366,1,,,,,,stimuli/images/PICTURE_269.png,GENIUS,5de904d8443d0b01db94ff9b,11/04/2000,2020-07-08_16h13.53.609,proactive,2020.1.2,Win32,60,5f035e5afe130c270d6ae6dd,5f05e1d711119c0b6deee632,3,,,,,,chameleon,0,4,4,0,1,,,,,,,,,,,,,,,,,,,,,,,,,,,,,,,,,,,,,,,,,,,,,,,,,,,,,,,,,,,,,,,,,,,,,,,,,,,,,,,,,,
,,,,,,,,,,stimuli/images/PICTURE_403.png,WRITER,5de904d8443d0b01db94ff9b,11/04/2000,2020-07-08_16h13.53.609,proactive,2020.1.2,Win32,60,5f035e5afe130c270d6ae6dd,5f05e1d711119c0b6deee632,3,,,,,,cathedral,,,,,,0,0,0,31,1,4,1,,,,,,,,,,,,,,,,,,,,,,,,,,,,,,,,,,,,,,,,,,,,,,,,,,,,,,,,,,,,,,,,,,,,,,,,,,,
,,,,,,,,,,stimuli/images/PICTURE_108.png,POLICY,5de904d8443d0b01db94ff9b,11/04/2000,2020-07-08_16h13.53.609,proactive,2020.1.2,Win32,60,5f035e5afe130c270d6ae6dd,5f05e1d711119c0b6deee632,3,,,,,,calendar,,,,,,0,1,1,22,1,3,1,,,,,,,,,,,,,,,,,,,,,,,,,,,,,,,,,,,,,,,,,,,,,,,,,,,,,,,,,,,,,,,,,,,,,,,,,,,
,,,,,,,,,,stimuli/images/PICTURE_744.png,WEAPON,5de904d8443d0b01db94ff9b,11/04/2000,2020-07-08_16h13.53.609,proactive,2020.1.2,Win32,60,5f035e5afe130c270d6ae6dd,5f05e1d711119c0b6deee632,3,,,,,,ring,,,,,,0,2,2,50,1,6,1,,,,,,,,,,,,,,,,,,,,,,,,,,,,,,,,,,,,,,,,,,,,,,,,,,,,,,,,,,,,,,,,,,,,,,,,,,,
,,,,,,,,,,stimuli/images/PICTURE_208.png,SYSTEM,5de904d8443d0b01db94ff9b,11/04/2000,2020-07-08_16h13.53.609,proactive,2020.1.2,Win32,60,5f035e5afe130c270d6ae6dd,5f05e1d711119c0b6deee632,3,,,,,,microphone,,,,,,0,3,3,32,1,4,1,,,,,,,,,,,,,,,,,,,,,,,,,,,,,,,,,,,,,,,,,,,,,,,,,,,,,,,,,,,,,,,,,,,,,,,,,,,
,,,,,,,,,,stimuli/images/PICTURE_108.png,FLIGHT,5de904d8443d0b01db94ff9b,11/04/2000,2020-07-08_16h13.53.609,proactive,2020.1.2,Win32,60,5f035e5afe130c270d6ae6dd,5f05e1d711119c0b6deee632,3,,,,,,calendar,,,,,,0,4,4,59,1,6,1,,,,,,,,,,,,,,,,,,,,,,,,,,,,,,,,,,,,,,,,,,,,,,,,,,,,,,,,,,,,,,,,,,,,,,,,,,,
,,,,,,,,,,stimuli/images/PICTURE_177.png,WRITER,5de904d8443d0b01db94ff9b,11/04/2000,2020-07-08_16h13.53.609,proactive,2020.1.2,Win32,60,5f035e5afe130c270d6ae6dd,5f05e1d711119c0b6deee632,3,,,,,,mushroom,,,,,,0,5,5,41,1,5,1,,,,,,,,,,,,,,,,,,,,,,,,,,,,,,,,,,,,,,,,,,,,,,,,,,,,,,,,,,,,,,,,,,,,,,,,,,,
,,,,,,,,,,stimuli/images/PICTURE_383.png,SERIES,5de904d8443d0b01db94ff9b,11/04/2000,2020-07-08_16h13.53.609,proactive,2020.1.2,Win32,60,5f035e5afe130c270d6ae6dd,5f05e1d711119c0b6deee632,3,,,,,,coin,,,,,,0,6,6,46,1,5,1,,,,,,,,,,,,,,,,,,,,,,,,,,,,,,,,,,,,,,,,,,,,,,,,,,,,,,,,,,,,,,,,,,,,,,,,,,,
,,,,,,,,,,stimuli/images/PICTURE_68.png,MILE,5de904d8443d0b01db94ff9b,11/04/2000,2020-07-08_16h13.53.609,proactive,2020.1.2,Win32,60,5f035e5afe130c270d6ae6dd,5f05e1d711119c0b6deee632,3,,,,,,candle,,,,,,0,7,7,51,1,6,1,,,,,,,,,,,,,,,,,,,,,,,,,,,,,,,,,,,,,,,,,,,,,,,,,,,,,,,,,,,,,,,,,,,,,,,,,,,
,,,,,,,,,,stimuli/images/PICTURE_68.png,ROOF,5de904d8443d0b01db94ff9b,11/04/2000,2020-07-08_16h13.53.609,proactive,2020.1.2,Win32,60,5f035e5afe130c270d6ae6dd,5f05e1d711119c0b6deee632,3,,,,,,candle,,,,,,0,8,8,38,1,4,1,,,,,,,,,,,,,,,,,,,,,,,,,,,,,,,,,,,,,,,,,,,,,,,,,,,,,,,,,,,,,,,,,,,,,,,,,,,
,,,,,,,,,,stimuli/images/PICTURE_403.png,TOILET,5de904d8443d0b01db94ff9b,11/04/2000,2020-07-08_16h13.53.609,proactive,2020.1.2,Win32,60,5f035e5afe130c270d6ae6dd,5f05e1d711119c0b6deee632,3,,,,,,cathedral,,,,,,0,9,9,25,1,3,1,,,,,,,,,,,,,,,,,,,,,,,,,,,,,,,,,,,,,,,,,,,,,,,,,,,,,,,,,,,,,,,,,,,,,,,,,,,
,,,,,,,,,,stimuli/images/PICTURE_380.png,HONEY,5de904d8443d0b01db94ff9b,11/04/2000,2020-07-08_16h13.53.609,proactive,2020.1.2,Win32,60,5f035e5afe130c270d6ae6dd,5f05e1d711119c0b6deee632,3,,,,,,gorilla,,,,,,0,10,10,19,1,2,1,,,,,,,,,,,,,,,,,,,,,,,,,,,,,,,,,,,,,,,,,,,,,,,,,,,,,,,,,,,,,,,,,,,,,,,,,,,
,,,,,,,,,,stimuli/images/PICTURE_296.png,LIFE,5de904d8443d0b01db94ff9b,11/04/2000,2020-07-08_16h13.53.609,proactive,2020.1.2,Win32,60,5f035e5afe130c270d6ae6dd,5f05e1d711119c0b6deee632,3,,,,,,bolt,,,,,,0,11,11,57,1,6,1,,,,,,,,,,,,,,,,,,,,,,,,,,,,,,,,,,,,,,,,,,,,,,,,,,,,,,,,,,,,,,,,,,,,,,,,,,,
,,,,,,,,,,stimuli/images/PICTURE_564.png,BATH,5de904d8443d0b01db94ff9b,11/04/2000,2020-07-08_16h13.53.609,proactive,2020.1.2,Win32,60,5f035e5afe130c270d6ae6dd,5f05e1d711119c0b6deee632,3,,,,,,spoon,,,,,,0,12,12,26,1,3,1,,,,,,,,,,,,,,,,,,,,,,,,,,,,,,,,,,,,,,,,,,,,,,,,,,,,,,,,,,,,,,,,,,,,,,,,,,,
,,,,,,,,,,stimuli/images/PICTURE_449.png,DUDE,5de904d8443d0b01db94ff9b,11/04/2000,2020-07-08_16h13.53.609,proactive,2020.1.2,Win32,60,5f035e5afe130c270d6ae6dd,5f05e1d711119c0b6deee632,3,,,,,,bench,,,,,,0,13,13,17,1,2,1,,,,,,,,,,,,,,,,,,,,,,,,,,,,,,,,,,,,,,,,,,,,,,,,,,,,,,,,,,,,,,,,,,,,,,,,,,,
,,,,,,,,,,stimuli/images/PICTURE_340.png,VALLEY,5de904d8443d0b01db94ff9b,11/04/2000,2020-07-08_16h13.53.609,proactive,2020.1.2,Win32,60,5f035e5afe130c270d6ae6dd,5f05e1d711119c0b6deee632,3,,,,,,mirror,,,,,,0,14,14,54,1,6,1,,,,,,,,,,,,,,,,,,,,,,,,,,,,,,,,,,,,,,,,,,,,,,,,,,,,,,,,,,,,,,,,,,,,,,,,,,,
,,,,,,,,,,stimuli/images/PICTURE_467.png,POLICY,5de904d8443d0b01db94ff9b,11/04/2000,2020-07-08_16h13.53.609,proactive,2020.1.2,Win32,60,5f035e5afe130c270d6ae6dd,5f05e1d711119c0b6deee632,3,,,,,,peg,,,,,,0,15,15,53,1,6,1,,,,,,,,,,,,,,,,,,,,,,,,,,,,,,,,,,,,,,,,,,,,,,,,,,,,,,,,,,,,,,,,,,,,,,,,,,,
,,,,,,,,,,stimuli/images/PICTURE_147.png,YEAR,5de904d8443d0b01db94ff9b,11/04/2000,2020-07-08_16h13.53.609,proactive,2020.1.2,Win32,60,5f035e5afe130c270d6ae6dd,5f05e1d711119c0b6deee632,3,,,,,,hanger,,,,,,0,16,16,21,1,3,1,,,,,,,,,,,,,,,,,,,,,,,,,,,,,,,,,,,,,,,,,,,,,,,,,,,,,,,,,,,,,,,,,,,,,,,,,,,
,,,,,,,,,,stimuli/images/PICTURE_675.png,SALE,5de904d8443d0b01db94ff9b,11/04/2000,2020-07-08_16h13.53.609,proactive,2020.1.2,Win32,60,5f035e5afe130c270d6ae6dd,5f05e1d711119c0b6deee632,3,,,,,,windmill,,,,,,0,17,17,47,1,5,1,,,,,,,,,,,,,,,,,,,,,,,,,,,,,,,,,,,,,,,,,,,,,,,,,,,,,,,,,,,,,,,,,,,,,,,,,,,
,,,,,,,,,,stimuli/images/PICTURE_340.png,LETTER,5de904d8443d0b01db94ff9b,11/04/2000,2020-07-08_16h13.53.609,proactive,2020.1.2,Win32,60,5f035e5afe130c270d6ae6dd,5f05e1d711119c0b6deee632,3,,,,,,mirror,,,,,,0,18,18,24,1,3,1,,,,,,,,,,,,,,,,,,,,,,,,,,,,,,,,,,,,,,,,,,,,,,,,,,,,,,,,,,,,,,,,,,,,,,,,,,,
,,,,,,,,,,stimuli/images/PICTURE_708.png,RECORD,5de904d8443d0b01db94ff9b,11/04/2000,2020-07-08_16h13.53.609,proactive,2020.1.2,Win32,60,5f035e5afe130c270d6ae6dd,5f05e1d711119c0b6deee632,3,,,,,,monkey,,,,,,0,19,19,58,1,6,1,,,,,,,,,,,,,,,,,,,,,,,,,,,,,,,,,,,,,,,,,,,,,,,,,,,,,,,,,,,,,,,,,,,,,,,,,,,
,,,,,,,,,,stimuli/images/PICTURE_469.png,AGENT,5de904d8443d0b01db94ff9b,11/04/2000,2020-07-08_16h13.53.609,proactive,2020.1.2,Win32,60,5f035e5afe130c270d6ae6dd,5f05e1d711119c0b6deee632,3,,,,,,stool,,,,,,0,20,20,16,1,2,1,,,,,,,,,,,,,,,,,,,,,,,,,,,,,,,,,,,,,,,,,,,,,,,,,,,,,,,,,,,,,,,,,,,,,,,,,,,
,,,,,,,,,,stimuli/images/PICTURE_504.png,YEAR,5de904d8443d0b01db94ff9b,11/04/2000,2020-07-08_16h13.53.609,proactive,2020.1.2,Win32,60,5f035e5afe130c270d6ae6dd,5f05e1d711119c0b6deee632,3,,,,,,wheel,,,,,,0,21,21,13,1,2,1,,,,,,,,,,,,,,,,,,,,,,,,,,,,,,,,,,,,,,,,,,,,,,,,,,,,,,,,,,,,,,,,,,,,,,,,,,,
,,,,,,,,,,stimuli/images/PICTURE_285.png,LIFE,5de904d8443d0b01db94ff9b,11/04/2000,2020-07-08_16h13.53.609,proactive,2020.1.2,Win32,60,5f035e5afe130c270d6ae6dd,5f05e1d711119c0b6deee632,3,,,,,,carrot,,,,,,0,22,22,33,1,4,1,,,,,,,,,,,,,,,,,,,,,,,,,,,,,,,,,,,,,,,,,,,,,,,,,,,,,,,,,,,,,,,,,,,,,,,,,,,
,,,,,,,,,,stimuli/images/PICTURE_504.png,COPS,5de904d8443d0b01db94ff9b,11/04/2000,2020-07-08_16h13.53.609,proactive,2020.1.2,Win32,60,5f035e5afe130c270d6ae6dd,5f05e1d711119c0b6deee632,3,,,,,,wheel,,,,,,0,23,23,52,1,6,1,,,,,,,,,,,,,,,,,,,,,,,,,,,,,,,,,,,,,,,,,,,,,,,,,,,,,,,,,,,,,,,,,,,,,,,,,,,
,,,,,,,,,,stimuli/images/PICTURE_85.png,TOILET,5de904d8443d0b01db94ff9b,11/04/2000,2020-07-08_16h13.53.609,proactive,2020.1.2,Win32,60,5f035e5afe130c270d6ae6dd,5f05e1d711119c0b6deee632,3,,,,,,diamond,,,,,,0,24,24,48,1,5,1,,,,,,,,,,,,,,,,,,,,,,,,,,,,,,,,,,,,,,,,,,,,,,,,,,,,,,,,,,,,,,,,,,,,,,,,,,,
,,,,,,,,,,stimuli/images/PICTURE_203.png,NIGHT,5de904d8443d0b01db94ff9b,11/04/2000,2020-07-08_16h13.53.609,proactive,2020.1.2,Win32,60,5f035e5afe130c270d6ae6dd,5f05e1d711119c0b6deee632,3,,,,,,cap,,,,,,0,25,25,2,1,1,1,,,,,,,,,,,,,,,,,,,,,,,,,,,,,,,,,,,,,,,,,,,,,,,,,,,,,,,,,,,,,,,,,,,,,,,,,,,
,,,,,,,,,,stimuli/images/PICTURE_487.png,GIRL,5de904d8443d0b01db94ff9b,11/04/2000,2020-07-08_16h13.53.609,proactive,2020.1.2,Win32,60,5f035e5afe130c270d6ae6dd,5f05e1d711119c0b6deee632,3,,,,,,basket,,,,,,0,26,26,45,1,5,1,,,,,,,,,,,,,,,,,,,,,,,,,,,,,,,,,,,,,,,,,,,,,,,,,,,,,,,,,,,,,,,,,,,,,,,,,,,
,,,,,,,,,,stimuli/images/PICTURE_339.png,CLIENT,5de904d8443d0b01db94ff9b,11/04/2000,2020-07-08_16h13.53.609,proactive,2020.1.2,Win32,60,5f035e5afe130c270d6ae6dd,5f05e1d711119c0b6deee632,3,,,,,,backpack,,,,,,0,27,27,11,1,2,1,,,,,,,,,,,,,,,,,,,,,,,,,,,,,,,,,,,,,,,,,,,,,,,,,,,,,,,,,,,,,,,,,,,,,,,,,,,
,,,,,,,,,,stimuli/images/PICTURE_383.png,WRITER,5de904d8443d0b01db94ff9b,11/04/2000,2020-07-08_16h13.53.609,proactive,2020.1.2,Win32,60,5f035e5afe130c270d6ae6dd,5f05e1d711119c0b6deee632,3,,,,,,coin,,,,,,0,28,28,28,1,3,1,,,,,,,,,,,,,,,,,,,,,,,,,,,,,,,,,,,,,,,,,,,,,,,,,,,,,,,,,,,,,,,,,,,,,,,,,,,
,,,,,,,,,,stimuli/images/PICTURE_32.png,PILLS,5de904d8443d0b01db94ff9b,11/04/2000,2020-07-08_16h13.53.609,proactive,2020.1.2,Win32,60,5f035e5afe130c270d6ae6dd,5f05e1d711119c0b6deee632,3,,,,,,crown,,,,,,0,29,29,18,1,2,1,,,,,,,,,,,,,,,,,,,,,,,,,,,,,,,,,,,,,,,,,,,,,,,,,,,,,,,,,,,,,,,,,,,,,,,,,,,
,,,,,,,,,,stimuli/images/PICTURE_405.png,YEAR,5de904d8443d0b01db94ff9b,11/04/2000,2020-07-08_16h13.53.609,proactive,2020.1.2,Win32,60,5f035e5afe130c270d6ae6dd,5f05e1d711119c0b6deee632,3,,,,,,anchor,,,,,,0,30,30,34,1,4,1,,,,,,,,,,,,,,,,,,,,,,,,,,,,,,,,,,,,,,,,,,,,,,,,,,,,,,,,,,,,,,,,,,,,,,,,,,,
,,,,,,,,,,stimuli/images/PICTURE_327.png,CASINO,5de904d8443d0b01db94ff9b,11/04/2000,2020-07-08_16h13.53.609,proactive,2020.1.2,Win32,60,5f035e5afe130c270d6ae6dd,5f05e1d711119c0b6deee632,3,,,,,,helmet,,,,,,0,31,31,20,1,3,1,,,,,,,,,,,,,,,,,,,,,,,,,,,,,,,,,,,,,,,,,,,,,,,,,,,,,,,,,,,,,,,,,,,,,,,,,,,
,,,,,,,,,,stimuli/images/PICTURE_233.png,LOTS,5de904d8443d0b01db94ff9b,11/04/2000,2020-07-08_16h13.53.609,proactive,2020.1.2,Win32,60,5f035e5afe130c270d6ae6dd,5f05e1d711119c0b6deee632,3,,,,,,salt,,,,,,0,32,32,42,1,5,1,,,,,,,,,,,,,,,,,,,,,,,,,,,,,,,,,,,,,,,,,,,,,,,,,,,,,,,,,,,,,,,,,,,,,,,,,,,
,,,,,,,,,,stimuli/images/PICTURE_491.png,RIVER,5de904d8443d0b01db94ff9b,11/04/2000,2020-07-08_16h13.53.609,proactive,2020.1.2,Win32,60,5f035e5afe130c270d6ae6dd,5f05e1d711119c0b6deee632,3,,,,,,rug,,,,,,0,33,33,6,1,1,1,,,,,,,,,,,,,,,,,,,,,,,,,,,,,,,,,,,,,,,,,,,,,,,,,,,,,,,,,,,,,,,,,,,,,,,,,,,
,,,,,,,,,,stimuli/images/PICTURE_203.png,GODS,5de904d8443d0b01db94ff9b,11/04/2000,2020-07-08_16h13.53.609,proactive,2020.1.2,Win32,60,5f035e5afe130c270d6ae6dd,5f05e1d711119c0b6deee632,3,,,,,,cap,,,,,,0,34,34,30,1,4,1,,,,,,,,,,,,,,,,,,,,,,,,,,,,,,,,,,,,,,,,,,,,,,,,,,,,,,,,,,,,,,,,,,,,,,,,,,,
,,,,,,,,,,stimuli/images/PICTURE_42.png,BOYS,5de904d8443d0b01db94ff9b,11/04/2000,2020-07-08_16h13.53.609,proactive,2020.1.2,Win32,60,5f035e5afe130c270d6ae6dd,5f05e1d711119c0b6deee632,3,,,,,,pear,,,,,,0,35,35,55,1,6,1,,,,,,,,,,,,,,,,,,,,,,,,,,,,,,,,,,,,,,,,,,,,,,,,,,,,,,,,,,,,,,,,,,,,,,,,,,,
,,,,,,,,,,stimuli/images/PICTURE_2.png,FLIGHT,5de904d8443d0b01db94ff9b,11/04/2000,2020-07-08_16h13.53.609,proactive,2020.1.2,Win32,60,5f035e5afe130c270d6ae6dd,5f05e1d711119c0b6deee632,3,,,,,,tyre,,,,,,0,36,36,15,1,2,1,,,,,,,,,,,,,,,,,,,,,,,,,,,,,,,,,,,,,,,,,,,,,,,,,,,,,,,,,,,,,,,,,,,,,,,,,,,
,,,,,,,,,,stimuli/images/PICTURE_296.png,LOTS,5de904d8443d0b01db94ff9b,11/04/2000,2020-07-08_16h13.53.609,proactive,2020.1.2,Win32,60,5f035e5afe130c270d6ae6dd,5f05e1d711119c0b6deee632,3,,,,,,bolt,,,,,,0,37,37,9,1,1,1,,,,,,,,,,,,,,,,,,,,,,,,,,,,,,,,,,,,,,,,,,,,,,,,,,,,,,,,,,,,,,,,,,,,,,,,,,,
,,,,,,,,,,stimuli/images/PICTURE_750.png,HOTEL,5de904d8443d0b01db94ff9b,11/04/2000,2020-07-08_16h13.53.609,proactive,2020.1.2,Win32,60,5f035e5afe130c270d6ae6dd,5f05e1d711119c0b6deee632,3,,,,,,kettle,,,,,,0,38,38,27,1,3,1,,,,,,,,,,,,,,,,,,,,,,,,,,,,,,,,,,,,,,,,,,,,,,,,,,,,,,,,,,,,,,,,,,,,,,,,,,,
,,,,,,,,,,stimuli/images/PICTURE_491.png,GLASS,5de904d8443d0b01db94ff9b,11/04/2000,2020-07-08_16h13.53.609,proactive,2020.1.2,Win32,60,5f035e5afe130c270d6ae6dd,5f05e1d711119c0b6deee632,3,,,,,,rug,,,,,,0,39,39,14,1,2,1,,,,,,,,,,,,,,,,,,,,,,,,,,,,,,,,,,,,,,,,,,,,,,,,,,,,,,,,,,,,,,,,,,,,,,,,,,,
,,,,,,,,,,stimuli/images/PICTURE_654.png,MONTH,5de904d8443d0b01db94ff9b,11/04/2000,2020-07-08_16h13.53.609,proactive,2020.1.2,Win32,60,5f035e5afe130c270d6ae6dd,5f05e1d711119c0b6deee632,3,,,,,,pencil,,,,,,0,40,40,29,1,3,1,,,,,,,,,,,,,,,,,,,,,,,,,,,,,,,,,,,,,,,,,,,,,,,,,,,,,,,,,,,,,,,,,,,,,,,,,,,
,,,,,,,,,,stimuli/images/PICTURE_327.png,SERIES,5de904d8443d0b01db94ff9b,11/04/2000,2020-07-08_16h13.53.609,proactive,2020.1.2,Win32,60,5f035e5afe130c270d6ae6dd,5f05e1d711119c0b6deee632,3,,,,,,helmet,,,,,,0,41,41,3,1,1,1,,,,,,,,,,,,,,,,,,,,,,,,,,,,,,,,,,,,,,,,,,,,,,,,,,,,,,,,,,,,,,,,,,,,,,,,,,,
,,,,,,,,,,stimuli/images/PICTURE_32.png,KIND,5de904d8443d0b01db94ff9b,11/04/2000,2020-07-08_16h13.53.609,proactive,2020.1.2,Win32,60,5f035e5afe130c270d6ae6dd,5f05e1d711119c0b6deee632,3,,,,,,crown,,,,,,0,42,42,35,1,4,1,,,,,,,,,,,,,,,,,,,,,,,,,,,,,,,,,,,,,,,,,,,,,,,,,,,,,,,,,,,,,,,,,,,,,,,,,,,
,,,,,,,,,,stimuli/images/PICTURE_33.png,FRIEND,5de904d8443d0b01db94ff9b,11/04/2000,2020-07-08_16h13.53.609,proactive,2020.1.2,Win32,60,5f035e5afe130c270d6ae6dd,5f05e1d711119c0b6deee632,3,,,,,,frame,,,,,,0,43,43,8,1,1,1,,,,,,,,,,,,,,,,,,,,,,,,,,,,,,,,,,,,,,,,,,,,,,,,,,,,,,,,,,,,,,,,,,,,,,,,,,,
,,,,,,,,,,stimuli/images/PICTURE_685.png,PENNY,5de904d8443d0b01db94ff9b,11/04/2000,2020-07-08_16h13.53.609,proactive,2020.1.2,Win32,60,5f035e5afe130c270d6ae6dd,5f05e1d711119c0b6deee632,3,,,,,,goose,,,,,,0,44,44,4,1,1,1,,,,,,,,,,,,,,,,,,,,,,,,,,,,,,,,,,,,,,,,,,,,,,,,,,,,,,,,,,,,,,,,,,,,,,,,,,,
,,,,,,,,,,stimuli/images/PICTURE_95.png,BOYS,5de904d8443d0b01db94ff9b,11/04/2000,2020-07-08_16h13.53.609,proactive,2020.1.2,Win32,60,5f035e5afe130c270d6ae6dd,5f05e1d711119c0b6deee632,3,,,,,,suitcase,,,,,,0,45,45,1,1,1,1,,,,,,,,,,,,,,,,,,,,,,,,,,,,,,,,,,,,,,,,,,,,,,,,,,,,,,,,,,,,,,,,,,,,,,,,,,,
,,,,,,,,,,stimuli/images/PICTURE_655.png,TOILET,5de904d8443d0b01db94ff9b,11/04/2000,2020-07-08_16h13.53.609,proactive,2020.1.2,Win32,60,5f035e5afe130c270d6ae6dd,5f05e1d711119c0b6deee632,3,,,,,,megaphone,,,,,,0,46,46,12,1,2,1,,,,,,,,,,,,,,,,,,,,,,,,,,,,,,,,,,,,,,,,,,,,,,,,,,,,,,,,,,,,,,,,,,,,,,,,,,,
,,,,,,,,,,stimuli/images/PICTURE_95.png,HONEY,5de904d8443d0b01db94ff9b,11/04/2000,2020-07-08_16h13.53.609,proactive,2020.1.2,Win32,60,5f035e5afe130c270d6ae6dd,5f05e1d711119c0b6deee632,3,,,,,,suitcase,,,,,,0,47,47,44,1,5,1,,,,,,,,,,,,,,,,,,,,,,,,,,,,,,,,,,,,,,,,,,,,,,,,,,,,,,,,,,,,,,,,,,,,,,,,,,,
,,,,,,,,,,stimuli/images/PICTURE_95.png,MILLER,5de904d8443d0b01db94ff9b,11/04/2000,2020-07-08_16h13.53.609,proactive,2020.1.2,Win32,60,5f035e5afe130c270d6ae6dd,5f05e1d711119c0b6deee632,3,,,,,,suitcase,,,,,,0,48,48,56,1,6,1,,,,,,,,,,,,,,,,,,,,,,,,,,,,,,,,,,,,,,,,,,,,,,,,,,,,,,,,,,,,,,,,,,,,,,,,,,,
,,,,,,,,,,stimuli/images/PICTURE_380.png,CANDY,5de904d8443d0b01db94ff9b,11/04/2000,2020-07-08_16h13.53.609,proactive,2020.1.2,Win32,60,5f035e5afe130c270d6ae6dd,5f05e1d711119c0b6deee632,3,,,,,,gorilla,,,,,,0,49,49,0,1,1,1,,,,,,,,,,,,,,,,,,,,,,,,,,,,,,,,,,,,,,,,,,,,,,,,,,,,,,,,,,,,,,,,,,,,,,,,,,,
,,,,,,,,,,stimuli/images/PICTURE_405.png,PLENTY,5de904d8443d0b01db94ff9b,11/04/2000,2020-07-08_16h13.53.609,proactive,2020.1.2,Win32,60,5f035e5afe130c270d6ae6dd,5f05e1d711119c0b6deee632,3,,,,,,anchor,,,,,,0,50,50,23,1,3,1,,,,,,,,,,,,,,,,,,,,,,,,,,,,,,,,,,,,,,,,,,,,,,,,,,,,,,,,,,,,,,,,,,,,,,,,,,,
,,,,,,,,,,stimuli/images/PICTURE_308.png,FAMILY,5de904d8443d0b01db94ff9b,11/04/2000,2020-07-08_16h13.53.609,proactive,2020.1.2,Win32,60,5f035e5afe130c270d6ae6dd,5f05e1d711119c0b6deee632,3,,,,,,dice,,,,,,0,51,51,36,1,4,1,,,,,,,,,,,,,,,,,,,,,,,,,,,,,,,,,,,,,,,,,,,,,,,,,,,,,,,,,,,,,,,,,,,,,,,,,,,
,,,,,,,,,,stimuli/images/PICTURE_85.png,NATION,5de904d8443d0b01db94ff9b,11/04/2000,2020-07-08_16h13.53.609,proactive,2020.1.2,Win32,60,5f035e5afe130c270d6ae6dd,5f05e1d711119c0b6deee632,3,,,,,,diamond,,,,,,0,52,52,5,1,1,1,,,,,,,,,,,,,,,,,,,,,,,,,,,,,,,,,,,,,,,,,,,,,,,,,,,,,,,,,,,,,,,,,,,,,,,,,,,
,,,,,,,,,,stimuli/images/PICTURE_504.png,ARTIST,5de904d8443d0b01db94ff9b,11/04/2000,2020-07-08_16h13.53.609,proactive,2020.1.2,Win32,60,5f035e5afe130c270d6ae6dd,5f05e1d711119c0b6deee632,3,,,,,,wheel,,,,,,0,53,53,49,1,5,1,,,,,,,,,,,,,,,,,,,,,,,,,,,,,,,,,,,,,,,,,,,,,,,,,,,,,,,,,,,,,,,,,,,,,,,,,,,
,,,,,,,,,,stimuli/images/PICTURE_297.png,RIVER,5de904d8443d0b01db94ff9b,11/04/2000,2020-07-08_16h13.53.609,proactive,2020.1.2,Win32,60,5f035e5afe130c270d6ae6dd,5f05e1d711119c0b6deee632,3,,,,,,aeroplane,,,,,,0,54,54,39,1,4,1,,,,,,,,,,,,,,,,,,,,,,,,,,,,,,,,,,,,,,,,,,,,,,,,,,,,,,,,,,,,,,,,,,,,,,,,,,,
,,,,,,,,,,stimuli/images/PICTURE_403.png,RIVER,5de904d8443d0b01db94ff9b,11/04/2000,2020-07-08_16h13.53.609,proactive,2020.1.2,Win32,60,5f035e5afe130c270d6ae6dd,5f05e1d711119c0b6deee632,3,,,,,,cathedral,,,,,,0,55,55,40,1,5,1,,,,,,,,,,,,,,,,,,,,,,,,,,,,,,,,,,,,,,,,,,,,,,,,,,,,,,,,,,,,,,,,,,,,,,,,,,,
,,,,,,,,,,stimuli/images/PICTURE_677.png,APPLE,5de904d8443d0b01db94ff9b,11/04/2000,2020-07-08_16h13.53.609,proactive,2020.1.2,Win32,60,5f035e5afe130c270d6ae6dd,5f05e1d711119c0b6deee632,3,,,,,,map,,,,,,0,56,56,43,1,5,1,,,,,,,,,,,,,,,,,,,,,,,,,,,,,,,,,,,,,,,,,,,,,,,,,,,,,,,,,,,,,,,,,,,,,,,,,,,
,,,,,,,,,,stimuli/images/PICTURE_667.png,RIVER,5de904d8443d0b01db94ff9b,11/04/2000,2020-07-08_16h13.53.609,proactive,2020.1.2,Win32,60,5f035e5afe130c270d6ae6dd,5f05e1d711119c0b6deee632,3,,,,,,daisy,,,,,,0,57,57,10,1,2,1,,,,,,,,,,,,,,,,,,,,,,,,,,,,,,,,,,,,,,,,,,,,,,,,,,,,,,,,,,,,,,,,,,,,,,,,,,,
,,,,,,,,,,stimuli/images/PICTURE_147.png,WOMEN,5de904d8443d0b01db94ff9b,11/04/2000,2020-07-08_16h13.53.609,proactive,2020.1.2,Win32,60,5f035e5afe130c270d6ae6dd,5f05e1d711119c0b6deee632,3,,,,,,hanger,,,,,,0,58,58,7,1,1,1,,,,,,,,,,,,,,,,,,,,,,,,,,,,,,,,,,,,,,,,,,,,,,,,,,,,,,,,,,,,,,,,,,,,,,,,,,,
,,?,0.001,0,,,,,,stimuli/images/PICTURE_504.png,COPS,5de904d8443d0b01db94ff9b,11/04/2000,2020-07-08_16h13.53.609,proactive,2020.1.2,Win32,60,5f035e5afe130c270d6ae6dd,5f05e1d711119c0b6deee632,3,,,,,,wheel,,,,,,,,,,,6,1,0,0,0,52,1,,,,,,,,,,,,,,,,,,,,,,,,,,,,,,,,,,,,,,,,,,,,,,,,,,,,,,,,,,,,,,,,,,,,,,
,,?,0.001,0,,,,,,stimuli/images/PICTURE_487.png,GIRL,5de904d8443d0b01db94ff9b,11/04/2000,2020-07-08_16h13.53.609,proactive,2020.1.2,Win32,60,5f035e5afe130c270d6ae6dd,5f05e1d711119c0b6deee632,3,,,,,,basket,,,,,,,,,,,5,1,0,1,1,45,1,,,,,,,,,,,,,,,,,,,,,,,,,,,,,,,,,,,,,,,,,,,,,,,,,,,,,,,,,,,,,,,,,,,,,,
,,?,0.002,0,,,,,,stimuli/images/PICTURE_177.png,WRITER,5de904d8443d0b01db94ff9b,11/04/2000,2020-07-08_16h13.53.609,proactive,2020.1.2,Win32,60,5f035e5afe130c270d6ae6dd,5f05e1d711119c0b6deee632,3,,,,,,mushroom,,,,,,,,,,,5,1,0,2,2,41,1,,,,,,,,,,,,,,,,,,,,,,,,,,,,,,,,,,,,,,,,,,,,,,,,,,,,,,,,,,,,,,,,,,,,,,
,,?,0.001,0,,,,,,stimuli/images/PICTURE_2.png,FLIGHT,5de904d8443d0b01db94ff9b,11/04/2000,2020-07-08_16h13.53.609,proactive,2020.1.2,Win32,60,5f035e5afe130c270d6ae6dd,5f05e1d711119c0b6deee632,3,,,,,,tyre,,,,,,,,,,,2,1,0,3,3,15,1,,,,,,,,,,,,,,,,,,,,,,,,,,,,,,,,,,,,,,,,,,,,,,,,,,,,,,,,,,,,,,,,,,,,,,
,,?,0.001,0,,,,,,stimuli/images/PICTURE_467.png,POLICY,5de904d8443d0b01db94ff9b,11/04/2000,2020-07-08_16h13.53.609,proactive,2020.1.2,Win32,60,5f035e5afe130c270d6ae6dd,5f05e1d711119c0b6deee632,3,,,,,,peg,,,,,,,,,,,6,1,0,4,4,53,1,,,,,,,,,,,,,,,,,,,,,,,,,,,,,,,,,,,,,,,,,,,,,,,,,,,,,,,,,,,,,,,,,,,,,,
,,?,0,0,,,,,,stimuli/images/PICTURE_108.png,FLIGHT,5de904d8443d0b01db94ff9b,11/04/2000,2020-07-08_16h13.53.609,proactive,2020.1.2,Win32,60,5f035e5afe130c270d6ae6dd,5f05e1d711119c0b6deee632,3,,,,,,calendar,,,,,,,,,,,6,1,0,5,5,59,1,,,,,,,,,,,,,,,,,,,,,,,,,,,,,,,,,,,,,,,,,,,,,,,,,,,,,,,,,,,,,,,,,,,,,,
,,?,0.001,0,,,,,,stimuli/images/PICTURE_403.png,RIVER,5de904d8443d0b01db94ff9b,11/04/2000,2020-07-08_16h13.53.609,proactive,2020.1.2,Win32,60,5f035e5afe130c270d6ae6dd,5f05e1d711119c0b6deee632,3,,,,,,cathedral,,,,,,,,,,,5,1,0,6,6,40,1,,,,,,,,,,,,,,,,,,,,,,,,,,,,,,,,,,,,,,,,,,,,,,,,,,,,,,,,,,,,,,,,,,,,,,
,,?,0.001,0,,,,,,stimuli/images/PICTURE_32.png,KIND,5de904d8443d0b01db94ff9b,11/04/2000,2020-07-08_16h13.53.609,proactive,2020.1.2,Win32,60,5f035e5afe130c270d6ae6dd,5f05e1d711119c0b6deee632,3,,,,,,crown,,,,,,,,,,,4,1,0,7,7,35,1,,,,,,,,,,,,,,,,,,,,,,,,,,,,,,,,,,,,,,,,,,,,,,,,,,,,,,,,,,,,,,,,,,,,,,
,,?,0,0,,,,,,stimuli/images/PICTURE_85.png,NATION,5de904d8443d0b01db94ff9b,11/04/2000,2020-07-08_16h13.53.609,proactive,2020.1.2,Win32,60,5f035e5afe130c270d6ae6dd,5f05e1d711119c0b6deee632,3,,,,,,diamond,,,,,,,,,,,1,1,0,8,8,5,1,,,,,,,,,,,,,,,,,,,,,,,,,,,,,,,,,,,,,,,,,,,,,,,,,,,,,,,,,,,,,,,,,,,,,,
,,?,0,0,,,,,,stimuli/images/PICTURE_95.png,BOYS,5de904d8443d0b01db94ff9b,11/04/2000,2020-07-08_16h13.53.609,proactive,2020.1.2,Win32,60,5f035e5afe130c270d6ae6dd,5f05e1d711119c0b6deee632,3,,,,,,suitcase,,,,,,,,,,,1,1,0,9,9,1,1,,,,,,,,,,,,,,,,,,,,,,,,,,,,,,,,,,,,,,,,,,,,,,,,,,,,,,,,,,,,,,,,,,,,,,
,,?,0,0,,,,,,stimuli/images/PICTURE_405.png,YEAR,5de904d8443d0b01db94ff9b,11/04/2000,2020-07-08_16h13.53.609,proactive,2020.1.2,Win32,60,5f035e5afe130c270d6ae6dd,5f05e1d711119c0b6deee632,3,,,,,,anchor,,,,,,,,,,,4,1,0,10,10,34,1,,,,,,,,,,,,,,,,,,,,,,,,,,,,,,,,,,,,,,,,,,,,,,,,,,,,,,,,,,,,,,,,,,,,,,
,,PLENTY,3.155,1,,,,,,stimuli/images/PICTURE_405.png,PLENTY,5de904d8443d0b01db94ff9b,11/04/2000,2020-07-08_16h13.53.609,proactive,2020.1.2,Win32,60,5f035e5afe130c270d6ae6dd,5f05e1d711119c0b6deee632,3,,,,,,anchor,,,,,,,,,,,3,1,0,11,11,23,1,,,,,,,,,,,,,,,,,,,,,,,,,,,,,,,,,,,,,,,,,,,,,,,,,,,,,,,,,,,,,,,,,,,,,,
,,?,10,0,,,,,,stimuli/images/PICTURE_147.png,YEAR,5de904d8443d0b01db94ff9b,11/04/2000,2020-07-08_16h13.53.609,proactive,2020.1.2,Win32,60,5f035e5afe130c270d6ae6dd,5f05e1d711119c0b6deee632,3,,,,,,hanger,,,,,,,,,,,3,1,0,12,12,21,1,,,,,,,,,,,,,,,,,,,,,,,,,,,,,,,,,,,,,,,,,,,,,,,,,,,,,,,,,,,,,,,,,,,,,,
,,SPACE,6.016,0,,,,,,stimuli/images/PICTURE_564.png,BATH,5de904d8443d0b01db94ff9b,11/04/2000,2020-07-08_16h13.53.609,proactive,2020.1.2,Win32,60,5f035e5afe130c270d6ae6dd,5f05e1d711119c0b6deee632,3,,,,,,spoon,,,,,,,,,,,3,1,0,13,13,26,1,,,,,,,,,,,,,,,,,,,,,,,,,,,,,,,,,,,,,,,,,,,,,,,,,,,,,,,,,,,,,,,,,,,,,,
,,?,0.001,0,,,,,,stimuli/images/PICTURE_667.png,RIVER,5de904d8443d0b01db94ff9b,11/04/2000,2020-07-08_16h13.53.609,proactive,2020.1.2,Win32,60,5f035e5afe130c270d6ae6dd,5f05e1d711119c0b6deee632,3,,,,,,daisy,,,,,,,,,,,2,1,0,14,14,10,1,,,,,,,,,,,,,,,,,,,,,,,,,,,,,,,,,,,,,,,,,,,,,,,,,,,,,,,,,,,,,,,,,,,,,,
,,?,0.002,0,,,,,,stimuli/images/PICTURE_655.png,TOILET,5de904d8443d0b01db94ff9b,11/04/2000,2020-07-08_16h13.53.609,proactive,2020.1.2,Win32,60,5f035e5afe130c270d6ae6dd,5f05e1d711119c0b6deee632,3,,,,,,megaphone,,,,,,,,,,,2,1,0,15,15,12,1,,,,,,,,,,,,,,,,,,,,,,,,,,,,,,,,,,,,,,,,,,,,,,,,,,,,,,,,,,,,,,,,,,,,,,
,,?,0.002,0,,,,,,stimuli/images/PICTURE_504.png,YEAR,5de904d8443d0b01db94ff9b,11/04/2000,2020-07-08_16h13.53.609,proactive,2020.1.2,Win32,60,5f035e5afe130c270d6ae6dd,5f05e1d711119c0b6deee632,3,,,,,,wheel,,,,,,,,,,,2,1,0,16,16,13,1,,,,,,,,,,,,,,,,,,,,,,,,,,,,,,,,,,,,,,,,,,,,,,,,,,,,,,,,,,,,,,,,,,,,,,
,,?,0.001,0,,,,,,stimuli/images/PICTURE_403.png,WRITER,5de904d8443d0b01db94ff9b,11/04/2000,2020-07-08_16h13.53.609,proactive,2020.1.2,Win32,60,5f035e5afe130c270d6ae6dd,5f05e1d711119c0b6deee632,3,,,,,,cathedral,,,,,,,,,,,4,1,0,17,17,31,1,,,,,,,,,,,,,,,,,,,,,,,,,,,,,,,,,,,,,,,,,,,,,,,,,,,,,,,,,,,,,,,,,,,,,,
,,?,0.001,0,,,,,,stimuli/images/PICTURE_297.png,RIVER,5de904d8443d0b01db94ff9b,11/04/2000,2020-07-08_16h13.53.609,proactive,2020.1.2,Win32,60,5f035e5afe130c270d6ae6dd,5f05e1d711119c0b6deee632,3,,,,,,aeroplane,,,,,,,,,,,4,1,0,18,18,39,1,,,,,,,,,,,,,,,,,,,,,,,,,,,,,,,,,,,,,,,,,,,,,,,,,,,,,,,,,,,,,,,,,,,,,,
,,?,0.001,0,,,,,,stimuli/images/PICTURE_33.png,FRIEND,5de904d8443d0b01db94ff9b,11/04/2000,2020-07-08_16h13.53.609,proactive,2020.1.2,Win32,60,5f035e5afe130c270d6ae6dd,5f05e1d711119c0b6deee632,3,,,,,,frame,,,,,,,,,,,1,1,0,19,19,8,1,,,,,,,,,,,,,,,,,,,,,,,,,,,,,,,,,,,,,,,,,,,,,,,,,,,,,,,,,,,,,,,,,,,,,,
,,?,0.002,0,,,,,,stimuli/images/PICTURE_340.png,VALLEY,5de904d8443d0b01db94ff9b,11/04/2000,2020-07-08_16h13.53.609,proactive,2020.1.2,Win32,60,5f035e5afe130c270d6ae6dd,5f05e1d711119c0b6deee632,3,,,,,,mirror,,,,,,,,,,,6,1,0,20,20,54,1,,,,,,,,,,,,,,,,,,,,,,,,,,,,,,,,,,,,,,,,,,,,,,,,,,,,,,,,,,,,,,,,,,,,,,
,,?,3.536,0,,,,,,stimuli/images/PICTURE_750.png,HOTEL,5de904d8443d0b01db94ff9b,11/04/2000,2020-07-08_16h13.53.609,proactive,2020.1.2,Win32,60,5f035e5afe130c270d6ae6dd,5f05e1d711119c0b6deee632,3,,,,,,kettle,,,,,,,,,,,3,1,0,21,21,27,1,,,,,,,,,,,,,,,,,,,,,,,,,,,,,,,,,,,,,,,,,,,,,,,,,,,,,,,,,,,,,,,,,,,,,,
,,?,0.002,0,,,,,,stimuli/images/PICTURE_339.png,CLIENT,5de904d8443d0b01db94ff9b,11/04/2000,2020-07-08_16h13.53.609,proactive,2020.1.2,Win32,60,5f035e5afe130c270d6ae6dd,5f05e1d711119c0b6deee632,3,,,,,,backpack,,,,,,,,,,,2,1,0,22,22,11,1,,,,,,,,,,,,,,,,,,,,,,,,,,,,,,,,,,,,,,,,,,,,,,,,,,,,,,,,,,,,,,,,,,,,,,
,,?,0.002,0,,,,,,stimuli/images/PICTURE_285.png,LIFE,5de904d8443d0b01db94ff9b,11/04/2000,2020-07-08_16h13.53.609,proactive,2020.1.2,Win32,60,5f035e5afe130c270d6ae6dd,5f05e1d711119c0b6deee632,3,,,,,,carrot,,,,,,,,,,,4,1,0,23,23,33,1,,,,,,,,,,,,,,,,,,,,,,,,,,,,,,,,,,,,,,,,,,,,,,,,,,,,,,,,,,,,,,,,,,,,,,
,,?,0,0,,,,,,stimuli/images/PICTURE_208.png,SYSTEM,5de904d8443d0b01db94ff9b,11/04/2000,2020-07-08_16h13.53.609,proactive,2020.1.2,Win32,60,5f035e5afe130c270d6ae6dd,5f05e1d711119c0b6deee632,3,,,,,,microphone,,,,,,,,,,,4,1,0,24,24,32,1,,,,,,,,,,,,,,,,,,,,,,,,,,,,,,,,,,,,,,,,,,,,,,,,,,,,,,,,,,,,,,,,,,,,,,
,,?,0,0,,,,,,stimuli/images/PICTURE_147.png,WOMEN,5de904d8443d0b01db94ff9b,11/04/2000,2020-07-08_16h13.53.609,proactive,2020.1.2,Win32,60,5f035e5afe130c270d6ae6dd,5f05e1d711119c0b6deee632,3,,,,,,hanger,,,,,,,,,,,1,1,0,25,25,7,1,,,,,,,,,,,,,,,,,,,,,,,,,,,,,,,,,,,,,,,,,,,,,,,,,,,,,,,,,,,,,,,,,,,,,,
,,?,0,0,,,,,,stimuli/images/PICTURE_491.png,GLASS,5de904d8443d0b01db94ff9b,11/04/2000,2020-07-08_16h13.53.609,proactive,2020.1.2,Win32,60,5f035e5afe130c270d6ae6dd,5f05e1d711119c0b6deee632,3,,,,,,rug,,,,,,,,,,,2,1,0,26,26,14,1,,,,,,,,,,,,,,,,,,,,,,,,,,,,,,,,,,,,,,,,,,,,,,,,,,,,,,,,,,,,,,,,,,,,,,
,,?,0.001,0,,,,,,stimuli/images/PICTURE_380.png,CANDY,5de904d8443d0b01db94ff9b,11/04/2000,2020-07-08_16h13.53.609,proactive,2020.1.2,Win32,60,5f035e5afe130c270d6ae6dd,5f05e1d711119c0b6deee632,3,,,,,,gorilla,,,,,,,,,,,1,1,0,27,27,0,1,,,,,,,,,,,,,,,,,,,,,,,,,,,,,,,,,,,,,,,,,,,,,,,,,,,,,,,,,,,,,,,,,,,,,,
,,WRITER,4.021,1,,,,,,stimuli/images/PICTURE_383.png,WRITER,5de904d8443d0b01db94ff9b,11/04/2000,2020-07-08_16h13.53.609,proactive,2020.1.2,Win32,60,5f035e5afe130c270d6ae6dd,5f05e1d711119c0b6deee632,3,,,,,,coin,,,,,,,,,,,3,1,0,28,28,28,1,,,,,,,,,,,,,,,,,,,,,,,,,,,,,,,,,,,,,,,,,,,,,,,,,,,,,,,,,,,,,,,,,,,,,,
,,?,0.001,0,,,,,,stimuli/images/PICTURE_203.png,NIGHT,5de904d8443d0b01db94ff9b,11/04/2000,2020-07-08_16h13.53.609,proactive,2020.1.2,Win32,60,5f035e5afe130c270d6ae6dd,5f05e1d711119c0b6deee632,3,,,,,,cap,,,,,,,,,,,1,1,0,29,29,2,1,,,,,,,,,,,,,,,,,,,,,,,,,,,,,,,,,,,,,,,,,,,,,,,,,,,,,,,,,,,,,,,,,,,,,,
,,?,0.001,0,,,,,,stimuli/images/PICTURE_95.png,HONEY,5de904d8443d0b01db94ff9b,11/04/2000,2020-07-08_16h13.53.609,proactive,2020.1.2,Win32,60,5f035e5afe130c270d6ae6dd,5f05e1d711119c0b6deee632,3,,,,,,suitcase,,,,,,,,,,,5,1,0,30,30,44,1,,,,,,,,,,,,,,,,,,,,,,,,,,,,,,,,,,,,,,,,,,,,,,,,,,,,,,,,,,,,,,,,,,,,,,
,,?,0.001,0,,,,,,stimuli/images/PICTURE_675.png,SALE,5de904d8443d0b01db94ff9b,11/04/2000,2020-07-08_16h13.53.609,proactive,2020.1.2,Win32,60,5f035e5afe130c270d6ae6dd,5f05e1d711119c0b6deee632,3,,,,,,windmill,,,,,,,,,,,5,1,0,31,31,47,1,,,,,,,,,,,,,,,,,,,,,,,,,,,,,,,,,,,,,,,,,,,,,,,,,,,,,,,,,,,,,,,,,,,,,,
,,?,0.001,0,,,,,,stimuli/images/PICTURE_677.png,APPLE,5de904d8443d0b01db94ff9b,11/04/2000,2020-07-08_16h13.53.609,proactive,2020.1.2,Win32,60,5f035e5afe130c270d6ae6dd,5f05e1d711119c0b6deee632,3,,,,,,map,,,,,,,,,,,5,1,0,32,32,43,1,,,,,,,,,,,,,,,,,,,,,,,,,,,,,,,,,,,,,,,,,,,,,,,,,,,,,,,,,,,,,,,,,,,,,,
,,?,0.001,0,,,,,,stimuli/images/PICTURE_327.png,SERIES,5de904d8443d0b01db94ff9b,11/04/2000,2020-07-08_16h13.53.609,proactive,2020.1.2,Win32,60,5f035e5afe130c270d6ae6dd,5f05e1d711119c0b6deee632,3,,,,,,helmet,,,,,,,,,,,1,1,0,33,33,3,1,,,,,,,,,,,,,,,,,,,,,,,,,,,,,,,,,,,,,,,,,,,,,,,,,,,,,,,,,,,,,,,,,,,,,,
,,?,0.001,0,,,,,,stimuli/images/PICTURE_95.png,MILLER,5de904d8443d0b01db94ff9b,11/04/2000,2020-07-08_16h13.53.609,proactive,2020.1.2,Win32,60,5f035e5afe130c270d6ae6dd,5f05e1d711119c0b6deee632,3,,,,,,suitcase,,,,,,,,,,,6,1,0,34,34,56,1,,,,,,,,,,,,,,,,,,,,,,,,,,,,,,,,,,,,,,,,,,,,,,,,,,,,,,,,,,,,,,,,,,,,,,
,,?,0,0,,,,,,stimuli/images/PICTURE_68.png,MILE,5de904d8443d0b01db94ff9b,11/04/2000,2020-07-08_16h13.53.609,proactive,2020.1.2,Win32,60,5f035e5afe130c270d6ae6dd,5f05e1d711119c0b6deee632,3,,,,,,candle,,,,,,,,,,,6,1,0,35,35,51,1,,,,,,,,,,,,,,,,,,,,,,,,,,,,,,,,,,,,,,,,,,,,,,,,,,,,,,,,,,,,,,,,,,,,,,
,,?,0.001,0,,,,,,stimuli/images/PICTURE_42.png,BOYS,5de904d8443d0b01db94ff9b,11/04/2000,2020-07-08_16h13.53.609,proactive,2020.1.2,Win32,60,5f035e5afe130c270d6ae6dd,5f05e1d711119c0b6deee632,3,,,,,,pear,,,,,,,,,,,6,1,0,36,36,55,1,,,,,,,,,,,,,,,,,,,,,,,,,,,,,,,,,,,,,,,,,,,,,,,,,,,,,,,,,,,,,,,,,,,,,,
,,?,0,0,,,,,,stimuli/images/PICTURE_449.png,DUDE,5de904d8443d0b01db94ff9b,11/04/2000,2020-07-08_16h13.53.609,proactive,2020.1.2,Win32,60,5f035e5afe130c270d6ae6dd,5f05e1d711119c0b6deee632,3,,,,,,bench,,,,,,,,,,,2,1,0,37,37,17,1,,,,,,,,,,,,,,,,,,,,,,,,,,,,,,,,,,,,,,,,,,,,,,,,,,,,,,,,,,,,,,,,,,,,,,
,,?,0.001,0,,,,,,stimuli/images/PICTURE_32.png,PILLS,5de904d8443d0b01db94ff9b,11/04/2000,2020-07-08_16h13.53.609,proactive,2020.1.2,Win32,60,5f035e5afe130c270d6ae6dd,5f05e1d711119c0b6deee632,3,,,,,,crown,,,,,,,,,,,2,1,0,38,38,18,1,,,,,,,,,,,,,,,,,,,,,,,,,,,,,,,,,,,,,,,,,,,,,,,,,,,,,,,,,,,,,,,,,,,,,,
,,?,0.001,0,,,,,,stimuli/images/PICTURE_685.png,PENNY,5de904d8443d0b01db94ff9b,11/04/2000,2020-07-08_16h13.53.609,proactive,2020.1.2,Win32,60,5f035e5afe130c270d6ae6dd,5f05e1d711119c0b6deee632,3,,,,,,goose,,,,,,,,,,,1,1,0,39,39,4,1,,,,,,,,,,,,,,,,,,,,,,,,,,,,,,,,,,,,,,,,,,,,,,,,,,,,,,,,,,,,,,,,,,,,,,
,,?,0.001,0,,,,,,stimuli/images/PICTURE_85.png,TOILET,5de904d8443d0b01db94ff9b,11/04/2000,2020-07-08_16h13.53.609,proactive,2020.1.2,Win32,60,5f035e5afe130c270d6ae6dd,5f05e1d711119c0b6deee632,3,,,,,,diamond,,,,,,,,,,,5,1,0,40,40,48,1,,,,,,,,,,,,,,,,,,,,,,,,,,,,,,,,,,,,,,,,,,,,,,,,,,,,,,,,,,,,,,,,,,,,,,
,,?,0,0,,,,,,stimuli/images/PICTURE_744.png,WEAPON,5de904d8443d0b01db94ff9b,11/04/2000,2020-07-08_16h13.53.609,proactive,2020.1.2,Win32,60,5f035e5afe130c270d6ae6dd,5f05e1d711119c0b6deee632,3,,,,,,ring,,,,,,,,,,,6,1,0,41,41,50,1,,,,,,,,,,,,,,,,,,,,,,,,,,,,,,,,,,,,,,,,,,,,,,,,,,,,,,,,,,,,,,,,,,,,,,
,,?,0.001,0,,,,,,stimuli/images/PICTURE_308.png,FAMILY,5de904d8443d0b01db94ff9b,11/04/2000,2020-07-08_16h13.53.609,proactive,2020.1.2,Win32,60,5f035e5afe130c270d6ae6dd,5f05e1d711119c0b6deee632,3,,,,,,dice,,,,,,,,,,,4,1,0,42,42,36,1,,,,,,,,,,,,,,,,,,,,,,,,,,,,,,,,,,,,,,,,,,,,,,,,,,,,,,,,,,,,,,,,,,,,,,
,,?,0,0,,,,,,stimuli/images/PICTURE_233.png,LOTS,5de904d8443d0b01db94ff9b,11/04/2000,2020-07-08_16h13.53.609,proactive,2020.1.2,Win32,60,5f035e5afe130c270d6ae6dd,5f05e1d711119c0b6deee632,3,,,,,,salt,,,,,,,,,,,5,1,0,43,43,42,1,,,,,,,,,,,,,,,,,,,,,,,,,,,,,,,,,,,,,,,,,,,,,,,,,,,,,,,,,,,,,,,,,,,,,,
,,KNIFE,5.043,0,,,,,,stimuli/images/PICTURE_654.png,MONTH,5de904d8443d0b01db94ff9b,11/04/2000,2020-07-08_16h13.53.609,proactive,2020.1.2,Win32,60,5f035e5afe130c270d6ae6dd,5f05e1d711119c0b6deee632,3,,,,,,pencil,,,,,,,,,,,3,1,0,44,44,29,1,,,,,,,,,,,,,,,,,,,,,,,,,,,,,,,,,,,,,,,,,,,,,,,,,,,,,,,,,,,,,,,,,,,,,,
,,?,0.001,0,,,,,,stimuli/images/PICTURE_469.png,AGENT,5de904d8443d0b01db94ff9b,11/04/2000,2020-07-08_16h13.53.609,proactive,2020.1.2,Win32,60,5f035e5afe130c270d6ae6dd,5f05e1d711119c0b6deee632,3,,,,,,stool,,,,,,,,,,,2,1,0,45,45,16,1,,,,,,,,,,,,,,,,,,,,,,,,,,,,,,,,,,,,,,,,,,,,,,,,,,,,,,,,,,,,,,,,,,,,,,
,,?,0,0,,,,,,stimuli/images/PICTURE_203.png,GODS,5de904d8443d0b01db94ff9b,11/04/2000,2020-07-08_16h13.53.609,proactive,2020.1.2,Win32,60,5f035e5afe130c270d6ae6dd,5f05e1d711119c0b6deee632,3,,,,,,cap,,,,,,,,,,,4,1,0,46,46,30,1,,,,,,,,,,,,,,,,,,,,,,,,,,,,,,,,,,,,,,,,,,,,,,,,,,,,,,,,,,,,,,,,,,,,,,
,,?,0.001,0,,,,,,stimuli/images/PICTURE_491.png,RIVER,5de904d8443d0b01db94ff9b,11/04/2000,2020-07-08_16h13.53.609,proactive,2020.1.2,Win32,60,5f035e5afe130c270d6ae6dd,5f05e1d711119c0b6deee632,3,,,,,,rug,,,,,,,,,,,1,1,0,47,47,6,1,,,,,,,,,,,,,,,,,,,,,,,,,,,,,,,,,,,,,,,,,,,,,,,,,,,,,,,,,,,,,,,,,,,,,,
,,?,7.192,0,,,,,,stimuli/images/PICTURE_340.png,LETTER,5de904d8443d0b01db94ff9b,11/04/2000,2020-07-08_16h13.53.609,proactive,2020.1.2,Win32,60,5f035e5afe130c270d6ae6dd,5f05e1d711119c0b6deee632,3,,,,,,mirror,,,,,,,,,,,3,1,0,48,48,24,1,,,,,,,,,,,,,,,,,,,,,,,,,,,,,,,,,,,,,,,,,,,,,,,,,,,,,,,,,,,,,,,,,,,,,,
,,?,0.003,0,,,,,,stimuli/images/PICTURE_296.png,LOTS,5de904d8443d0b01db94ff9b,11/04/2000,2020-07-08_16h13.53.609,proactive,2020.1.2,Win32,60,5f035e5afe130c270d6ae6dd,5f05e1d711119c0b6deee632,3,,,,,,bolt,,,,,,,,,,,1,1,0,49,49,9,1,,,,,,,,,,,,,,,,,,,,,,,,,,,,,,,,,,,,,,,,,,,,,,,,,,,,,,,,,,,,,,,,,,,,,,
,,CASINO,3.296,1,,,,,,stimuli/images/PICTURE_327.png,CASINO,5de904d8443d0b01db94ff9b,11/04/2000,2020-07-08_16h13.53.609,proactive,2020.1.2,Win32,60,5f035e5afe130c270d6ae6dd,5f05e1d711119c0b6deee632,3,,,,,,helmet,,,,,,,,,,,3,1,0,50,50,20,1,,,,,,,,,,,,,,,,,,,,,,,,,,,,,,,,,,,,,,,,,,,,,,,,,,,,,,,,,,,,,,,,,,,,,,
,,?,0.002,0,,,,,,stimuli/images/PICTURE_380.png,HONEY,5de904d8443d0b01db94ff9b,11/04/2000,2020-07-08_16h13.53.609,proactive,2020.1.2,Win32,60,5f035e5afe130c270d6ae6dd,5f05e1d711119c0b6deee632,3,,,,,,gorilla,,,,,,,,,,,2,1,0,51,51,19,1,,,,,,,,,,,,,,,,,,,,,,,,,,,,,,,,,,,,,,,,,,,,,,,,,,,,,,,,,,,,,,,,,,,,,,
,,TOLIE,10.012,0,,,,,,stimuli/images/PICTURE_403.png,TOILET,5de904d8443d0b01db94ff9b,11/04/2000,2020-07-08_16h13.53.609,proactive,2020.1.2,Win32,60,5f035e5afe130c270d6ae6dd,5f05e1d711119c0b6deee632,3,,,,,,cathedral,,,,,,,,,,,3,1,0,52,52,25,1,,,,,,,,,,,,,,,,,,,,,,,,,,,,,,,,,,,,,,,,,,,,,,,,,,,,,,,,,,,,,,,,,,,,,,
,,?,0,0,,,,,,stimuli/images/PICTURE_68.png,ROOF,5de904d8443d0b01db94ff9b,11/04/2000,2020-07-08_16h13.53.609,proactive,2020.1.2,Win32,60,5f035e5afe130c270d6ae6dd,5f05e1d711119c0b6deee632,3,,,,,,candle,,,,,,,,,,,4,1,0,53,53,38,1,,,,,,,,,,,,,,,,,,,,,,,,,,,,,,,,,,,,,,,,,,,,,,,,,,,,,,,,,,,,,,,,,,,,,,
,,?,0.001,0,,,,,,stimuli/images/PICTURE_57.png,MOMENT,5de904d8443d0b01db94ff9b,11/04/2000,2020-07-08_16h13.53.609,proactive,2020.1.2,Win32,60,5f035e5afe130c270d6ae6dd,5f05e1d711119c0b6deee632,3,,,,,,stamp,,,,,,,,,,,4,1,0,54,54,37,1,,,,,,,,,,,,,,,,,,,,,,,,,,,,,,,,,,,,,,,,,,,,,,,,,,,,,,,,,,,,,,,,,,,,,,
,,?,0.002,0,,,,,,stimuli/images/PICTURE_383.png,SERIES,5de904d8443d0b01db94ff9b,11/04/2000,2020-07-08_16h13.53.609,proactive,2020.1.2,Win32,60,5f035e5afe130c270d6ae6dd,5f05e1d711119c0b6deee632,3,,,,,,coin,,,,,,,,,,,5,1,0,55,55,46,1,,,,,,,,,,,,,,,,,,,,,,,,,,,,,,,,,,,,,,,,,,,,,,,,,,,,,,,,,,,,,,,,,,,,,,
,,?,0.001,0,,,,,,stimuli/images/PICTURE_296.png,LIFE,5de904d8443d0b01db94ff9b,11/04/2000,2020-07-08_16h13.53.609,proactive,2020.1.2,Win32,60,5f035e5afe130c270d6ae6dd,5f05e1d711119c0b6deee632,3,,,,,,bolt,,,,,,,,,,,6,1,0,56,56,57,1,,,,,,,,,,,,,,,,,,,,,,,,,,,,,,,,,,,,,,,,,,,,,,,,,,,,,,,,,,,,,,,,,,,,,,
,,?,0.001,0,,,,,,stimuli/images/PICTURE_504.png,ARTIST,5de904d8443d0b01db94ff9b,11/04/2000,2020-07-08_16h13.53.609,proactive,2020.1.2,Win32,60,5f035e5afe130c270d6ae6dd,5f05e1d711119c0b6deee632,3,,,,,,wheel,,,,,,,,,,,5,1,0,57,57,49,1,,,,,,,,,,,,,,,,,,,,,,,,,,,,,,,,,,,,,,,,,,,,,,,,,,,,,,,,,,,,,,,,,,,,,,
,,PLANNER,8.421,0,,,,,,stimuli/images/PICTURE_108.png,POLICY,5de904d8443d0b01db94ff9b,11/04/2000,2020-07-08_16h13.53.609,proactive,2020.1.2,Win32,60,5f035e5afe130c270d6ae6dd,5f05e1d711119c0b6deee632,3,,,,,,calendar,,,,,,,,,,,3,1,0,58,58,22,1,,,,,,,,,,,,,,,,,,,,,,,,,,,,,,,,,,,,,,,,,,,,,,,,,,,,,,,,,,,,,,,,,,,,,,
,,?,0.002,0,,,,,,stimuli/images/PICTURE_708.png,RECORD,5de904d8443d0b01db94ff9b,11/04/2000,2020-07-08_16h13.53.609,proactive,2020.1.2,Win32,60,5f035e5afe130c270d6ae6dd,5f05e1d711119c0b6deee632,3,,,,,,monkey,,,,,,,,,,,6,1,0,59,59,58,1,,,,,,,,,,,,,,,,,,,,,,,,,,,,,,,,,,,,,,,,,,,,,,,,,,,,,,,,,,,,,,,,,,,,,,
,,,,,,,,,,,,5de904d8443d0b01db94ff9b,11/04/2000,2020-07-08_16h13.53.609,proactive,2020.1.2,Win32,60,5f035e5afe130c270d6ae6dd,5f05e1d711119c0b6deee632,3,,,,,,,,,,,,,,,,,,,,,,,,0,0,0,1,1,stimuli/learn-block2.csv,,,,,,,,,,,,,,,,,,,,,,,,,,,,,,,,,,,,,,,,,,,,,,,,,,,,,,,,,,,,,,,,
,,,,,,,,,,stimuli/images/PICTURE_308.png,KIND,5de904d8443d0b01db94ff9b,11/04/2000,2020-07-08_16h13.53.609,proactive,2020.1.2,Win32,60,5f035e5afe130c270d6ae6dd,5f05e1d711119c0b6deee632,3,,,,,,dice,,,,,,0,0,0,54,1,6,0,,,,,,,,,,,,,,,,,,,,,,,,,,,,,,,,,,,,,,,,,,,,,,,,,,,,,,,,,,,,,,,,,,,,,,,,,,,
,,,,,,,,,,stimuli/images/PICTURE_667.png,BATH,5de904d8443d0b01db94ff9b,11/04/2000,2020-07-08_16h13.53.609,proactive,2020.1.2,Win32,60,5f035e5afe130c270d6ae6dd,5f05e1d711119c0b6deee632,3,,,,,,daisy,,,,,,0,1,1,4,1,1,0,,,,,,,,,,,,,,,,,,,,,,,,,,,,,,,,,,,,,,,,,,,,,,,,,,,,,,,,,,,,,,,,,,,,,,,,,,,
,,,,,,,,,,stimuli/images/PICTURE_177.png,CARS,5de904d8443d0b01db94ff9b,11/04/2000,2020-07-08_16h13.53.609,proactive,2020.1.2,Win32,60,5f035e5afe130c270d6ae6dd,5f05e1d711119c0b6deee632,3,,,,,,mushroom,,,,,,0,2,2,35,1,4,0,,,,,,,,,,,,,,,,,,,,,,,,,,,,,,,,,,,,,,,,,,,,,,,,,,,,,,,,,,,,,,,,,,,,,,,,,,,
,,,,,,,,,,stimuli/images/PICTURE_255.png,AREA,5de904d8443d0b01db94ff9b,11/04/2000,2020-07-08_16h13.53.609,proactive,2020.1.2,Win32,60,5f035e5afe130c270d6ae6dd,5f05e1d711119c0b6deee632,3,,,,,,shovel,,,,,,0,3,3,22,1,3,0,,,,,,,,,,,,,,,,,,,,,,,,,,,,,,,,,,,,,,,,,,,,,,,,,,,,,,,,,,,,,,,,,,,,,,,,,,,
,,,,,,,,,,stimuli/images/PICTURE_688.png,CASINO,5de904d8443d0b01db94ff9b,11/04/2000,2020-07-08_16h13.53.609,proactive,2020.1.2,Win32,60,5f035e5afe130c270d6ae6dd,5f05e1d711119c0b6deee632,3,,,,,,runner,,,,,,0,4,4,2,1,1,0,,,,,,,,,,,,,,,,,,,,,,,,,,,,,,,,,,,,,,,,,,,,,,,,,,,,,,,,,,,,,,,,,,,,,,,,,,,
,,,,,,,,,,stimuli/images/PICTURE_123.png,ADVICE,5de904d8443d0b01db94ff9b,11/04/2000,2020-07-08_16h13.53.609,proactive,2020.1.2,Win32,60,5f035e5afe130c270d6ae6dd,5f05e1d711119c0b6deee632,3,,,,,,dart,,,,,,0,5,5,50,1,6,0,,,,,,,,,,,,,,,,,,,,,,,,,,,,,,,,,,,,,,,,,,,,,,,,,,,,,,,,,,,,,,,,,,,,,,,,,,,
,,,,,,,,,,stimuli/images/PICTURE_314.png,SAKE,5de904d8443d0b01db94ff9b,11/04/2000,2020-07-08_16h13.53.609,proactive,2020.1.2,Win32,60,5f035e5afe130c270d6ae6dd,5f05e1d711119c0b6deee632,3,,,,,,perfume,,,,,,0,6,6,7,1,1,0,,,,,,,,,,,,,,,,,,,,,,,,,,,,,,,,,,,,,,,,,,,,,,,,,,,,,,,,,,,,,,,,,,,,,,,,,,,
,,,,,,,,,,stimuli/images/PICTURE_688.png,WOMEN,5de904d8443d0b01db94ff9b,11/04/2000,2020-07-08_16h13.53.609,proactive,2020.1.2,Win32,60,5f035e5afe130c270d6ae6dd,5f05e1d711119c0b6deee632,3,,,,,,runner,,,,,,0,7,7,14,1,2,0,,,,,,,,,,,,,,,,,,,,,,,,,,,,,,,,,,,,,,,,,,,,,,,,,,,,,,,,,,,,,,,,,,,,,,,,,,,
,,,,,,,,,,stimuli/images/PICTURE_203.png,ARTIST,5de904d8443d0b01db94ff9b,11/04/2000,2020-07-08_16h13.53.609,proactive,2020.1.2,Win32,60,5f035e5afe130c270d6ae6dd,5f05e1d711119c0b6deee632,3,,,,,,cap,,,,,,0,8,8,26,1,3,0,,,,,,,,,,,,,,,,,,,,,,,,,,,,,,,,,,,,,,,,,,,,,,,,,,,,,,,,,,,,,,,,,,,,,,,,,,,
,,,,,,,,,,stimuli/images/PICTURE_208.png,LOTS,5de904d8443d0b01db94ff9b,11/04/2000,2020-07-08_16h13.53.609,proactive,2020.1.2,Win32,60,5f035e5afe130c270d6ae6dd,5f05e1d711119c0b6deee632,3,,,,,,microphone,,,,,,0,9,9,10,1,2,0,,,,,,,,,,,,,,,,,,,,,,,,,,,,,,,,,,,,,,,,,,,,,,,,,,,,,,,,,,,,,,,,,,,,,,,,,,,
,,,,,,,,,,stimuli/images/PICTURE_233.png,WOMEN,5de904d8443d0b01db94ff9b,11/04/2000,2020-07-08_16h13.53.609,proactive,2020.1.2,Win32,60,5f035e5afe130c270d6ae6dd,5f05e1d711119c0b6deee632,3,,,,,,salt,,,,,,0,10,10,38,1,4,0,,,,,,,,,,,,,,,,,,,,,,,,,,,,,,,,,,,,,,,,,,,,,,,,,,,,,,,,,,,,,,,,,,,,,,,,,,,
,,,,,,,,,,stimuli/images/PICTURE_380.png,DEATH,5de904d8443d0b01db94ff9b,11/04/2000,2020-07-08_16h13.53.609,proactive,2020.1.2,Win32,60,5f035e5afe130c270d6ae6dd,5f05e1d711119c0b6deee632,3,,,,,,gorilla,,,,,,0,11,11,49,1,5,0,,,,,,,,,,,,,,,,,,,,,,,,,,,,,,,,,,,,,,,,,,,,,,,,,,,,,,,,,,,,,,,,,,,,,,,,,,,
,,,,,,,,,,stimuli/images/PICTURE_488.png,STYLE,5de904d8443d0b01db94ff9b,11/04/2000,2020-07-08_16h13.53.609,proactive,2020.1.2,Win32,60,5f035e5afe130c270d6ae6dd,5f05e1d711119c0b6deee632,3,,,,,,sun,,,,,,0,12,12,33,1,4,0,,,,,,,,,,,,,,,,,,,,,,,,,,,,,,,,,,,,,,,,,,,,,,,,,,,,,,,,,,,,,,,,,,,,,,,,,,,
,,,,,,,,,,stimuli/images/PICTURE_453.png,DUDE,5de904d8443d0b01db94ff9b,11/04/2000,2020-07-08_16h13.53.609,proactive,2020.1.2,Win32,60,5f035e5afe130c270d6ae6dd,5f05e1d711119c0b6deee632,3,,,,,,scissors,,,,,,0,13,13,27,1,3,0,,,,,,,,,,,,,,,,,,,,,,,,,,,,,,,,,,,,,,,,,,,,,,,,,,,,,,,,,,,,,,,,,,,,,,,,,,,
,,,,,,,,,,stimuli/images/PICTURE_744.png,SAKE,5de904d8443d0b01db94ff9b,11/04/2000,2020-07-08_16h13.53.609,proactive,2020.1.2,Win32,60,5f035e5afe130c270d6ae6dd,5f05e1d711119c0b6deee632,3,,,,,,ring,,,,,,0,14,14,17,1,2,0,,,,,,,,,,,,,,,,,,,,,,,,,,,,,,,,,,,,,,,,,,,,,,,,,,,,,,,,,,,,,,,,,,,,,,,,,,,
,,,,,,,,,,stimuli/images/PICTURE_308.png,ESTATE,5de904d8443d0b01db94ff9b,11/04/2000,2020-07-08_16h13.53.609,proactive,2020.1.2,Win32,60,5f035e5afe130c270d6ae6dd,5f05e1d711119c0b6deee632,3,,,,,,dice,,,,,,0,15,15,46,1,5,0,,,,,,,,,,,,,,,,,,,,,,,,,,,,,,,,,,,,,,,,,,,,,,,,,,,,,,,,,,,,,,,,,,,,,,,,,,,
,,,,,,,,,,stimuli/images/PICTURE_487.png,FLIGHT,5de904d8443d0b01db94ff9b,11/04/2000,2020-07-08_16h13.53.609,proactive,2020.1.2,Win32,60,5f035e5afe130c270d6ae6dd,5f05e1d711119c0b6deee632,3,,,,,,basket,,,,,,0,16,16,9,1,1,0,,,,,,,,,,,,,,,,,,,,,,,,,,,,,,,,,,,,,,,,,,,,,,,,,,,,,,,,,,,,,,,,,,,,,,,,,,,
,,,,,,,,,,stimuli/images/PICTURE_311.png,BEAUTY,5de904d8443d0b01db94ff9b,11/04/2000,2020-07-08_16h13.53.609,proactive,2020.1.2,Win32,60,5f035e5afe130c270d6ae6dd,5f05e1d711119c0b6deee632,3,,,,,,razor,,,,,,0,17,17,13,1,2,0,,,,,,,,,,,,,,,,,,,,,,,,,,,,,,,,,,,,,,,,,,,,,,,,,,,,,,,,,,,,,,,,,,,,,,,,,,,
,,,,,,,,,,stimuli/images/PICTURE_215.png,PLENTY,5de904d8443d0b01db94ff9b,11/04/2000,2020-07-08_16h13.53.609,proactive,2020.1.2,Win32,60,5f035e5afe130c270d6ae6dd,5f05e1d711119c0b6deee632,3,,,,,,boot,,,,,,0,18,18,37,1,4,0,,,,,,,,,,,,,,,,,,,,,,,,,,,,,,,,,,,,,,,,,,,,,,,,,,,,,,,,,,,,,,,,,,,,,,,,,,,
,,,,,,,,,,stimuli/images/PICTURE_314.png,GODS,5de904d8443d0b01db94ff9b,11/04/2000,2020-07-08_16h13.53.609,proactive,2020.1.2,Win32,60,5f035e5afe130c270d6ae6dd,5f05e1d711119c0b6deee632,3,,,,,,perfume,,,,,,0,19,19,11,1,2,0,,,,,,,,,,,,,,,,,,,,,,,,,,,,,,,,,,,,,,,,,,,,,,,,,,,,,,,,,,,,,,,,,,,,,,,,,,,
,,,,,,,,,,stimuli/images/PICTURE_147.png,MOMENT,5de904d8443d0b01db94ff9b,11/04/2000,2020-07-08_16h13.53.609,proactive,2020.1.2,Win32,60,5f035e5afe130c270d6ae6dd,5f05e1d711119c0b6deee632,3,,,,,,hanger,,,,,,0,20,20,51,1,6,0,,,,,,,,,,,,,,,,,,,,,,,,,,,,,,,,,,,,,,,,,,,,,,,,,,,,,,,,,,,,,,,,,,,,,,,,,,,
,,,,,,,,,,stimuli/images/PICTURE_356.png,DANGER,5de904d8443d0b01db94ff9b,11/04/2000,2020-07-08_16h13.53.609,proactive,2020.1.2,Win32,60,5f035e5afe130c270d6ae6dd,5f05e1d711119c0b6deee632,3,,,,,,pawn,,,,,,0,21,21,55,1,6,0,,,,,,,,,,,,,,,,,,,,,,,,,,,,,,,,,,,,,,,,,,,,,,,,,,,,,,,,,,,,,,,,,,,,,,,,,,,
,,,,,,,,,,stimuli/images/PICTURE_449.png,THING,5de904d8443d0b01db94ff9b,11/04/2000,2020-07-08_16h13.53.609,proactive,2020.1.2,Win32,60,5f035e5afe130c270d6ae6dd,5f05e1d711119c0b6deee632,3,,,,,,bench,,,,,,0,22,22,59,1,6,0,,,,,,,,,,,,,,,,,,,,,,,,,,,,,,,,,,,,,,,,,,,,,,,,,,,,,,,,,,,,,,,,,,,,,,,,,,,
,,,,,,,,,,stimuli/images/PICTURE_311.png,FRIEND,5de904d8443d0b01db94ff9b,11/04/2000,2020-07-08_16h13.53.609,proactive,2020.1.2,Win32,60,5f035e5afe130c270d6ae6dd,5f05e1d711119c0b6deee632,3,,,,,,razor,,,,,,0,23,23,34,1,4,0,,,,,,,,,,,,,,,,,,,,,,,,,,,,,,,,,,,,,,,,,,,,,,,,,,,,,,,,,,,,,,,,,,,,,,,,,,,
,,,,,,,,,,stimuli/images/PICTURE_302.png,FAMILY,5de904d8443d0b01db94ff9b,11/04/2000,2020-07-08_16h13.53.609,proactive,2020.1.2,Win32,60,5f035e5afe130c270d6ae6dd,5f05e1d711119c0b6deee632,3,,,,,,taxi,,,,,,0,24,24,18,1,2,0,,,,,,,,,,,,,,,,,,,,,,,,,,,,,,,,,,,,,,,,,,,,,,,,,,,,,,,,,,,,,,,,,,,,,,,,,,,
,,,,,,,,,,stimuli/images/PICTURE_708.png,YARD,5de904d8443d0b01db94ff9b,11/04/2000,2020-07-08_16h13.53.609,proactive,2020.1.2,Win32,60,5f035e5afe130c270d6ae6dd,5f05e1d711119c0b6deee632,3,,,,,,monkey,,,,,,0,25,25,29,1,3,0,,,,,,,,,,,,,,,,,,,,,,,,,,,,,,,,,,,,,,,,,,,,,,,,,,,,,,,,,,,,,,,,,,,,,,,,,,,
,,,,,,,,,,stimuli/images/PICTURE_339.png,PLENTY,5de904d8443d0b01db94ff9b,11/04/2000,2020-07-08_16h13.53.609,proactive,2020.1.2,Win32,60,5f035e5afe130c270d6ae6dd,5f05e1d711119c0b6deee632,3,,,,,,backpack,,,,,,0,26,26,0,1,1,0,,,,,,,,,,,,,,,,,,,,,,,,,,,,,,,,,,,,,,,,,,,,,,,,,,,,,,,,,,,,,,,,,,,,,,,,,,,
,,,,,,,,,,stimuli/images/PICTURE_692.png,MONTH,5de904d8443d0b01db94ff9b,11/04/2000,2020-07-08_16h13.53.609,proactive,2020.1.2,Win32,60,5f035e5afe130c270d6ae6dd,5f05e1d711119c0b6deee632,3,,,,,,cherry,,,,,,0,27,27,16,1,2,0,,,,,,,,,,,,,,,,,,,,,,,,,,,,,,,,,,,,,,,,,,,,,,,,,,,,,,,,,,,,,,,,,,,,,,,,,,,
,,,,,,,,,,stimuli/images/PICTURE_469.png,ARTIST,5de904d8443d0b01db94ff9b,11/04/2000,2020-07-08_16h13.53.609,proactive,2020.1.2,Win32,60,5f035e5afe130c270d6ae6dd,5f05e1d711119c0b6deee632,3,,,,,,stool,,,,,,0,28,28,6,1,1,0,,,,,,,,,,,,,,,,,,,,,,,,,,,,,,,,,,,,,,,,,,,,,,,,,,,,,,,,,,,,,,,,,,,,,,,,,,,
,,,,,,,,,,stimuli/images/PICTURE_667.png,PLENTY,5de904d8443d0b01db94ff9b,11/04/2000,2020-07-08_16h13.53.609,proactive,2020.1.2,Win32,60,5f035e5afe130c270d6ae6dd,5f05e1d711119c0b6deee632,3,,,,,,daisy,,,,,,0,29,29,41,1,5,0,,,,,,,,,,,,,,,,,,,,,,,,,,,,,,,,,,,,,,,,,,,,,,,,,,,,,,,,,,,,,,,,,,,,,,,,,,,
,,,,,,,,,,stimuli/images/PICTURE_160.png,LEADER,5de904d8443d0b01db94ff9b,11/04/2000,2020-07-08_16h13.53.609,proactive,2020.1.2,Win32,60,5f035e5afe130c270d6ae6dd,5f05e1d711119c0b6deee632,3,,,,,,wheelbarrow,,,,,,0,30,30,3,1,1,0,,,,,,,,,,,,,,,,,,,,,,,,,,,,,,,,,,,,,,,,,,,,,,,,,,,,,,,,,,,,,,,,,,,,,,,,,,,
,,,,,,,,,,stimuli/images/PICTURE_32.png,JUNGLE,5de904d8443d0b01db94ff9b,11/04/2000,2020-07-08_16h13.53.609,proactive,2020.1.2,Win32,60,5f035e5afe130c270d6ae6dd,5f05e1d711119c0b6deee632,3,,,,,,crown,,,,,,0,31,31,45,1,5,0,,,,,,,,,,,,,,,,,,,,,,,,,,,,,,,,,,,,,,,,,,,,,,,,,,,,,,,,,,,,,,,,,,,,,,,,,,,
,,,,,,,,,,stimuli/images/PICTURE_151.png,GIRL,5de904d8443d0b01db94ff9b,11/04/2000,2020-07-08_16h13.53.609,proactive,2020.1.2,Win32,60,5f035e5afe130c270d6ae6dd,5f05e1d711119c0b6deee632,3,,,,,,tray,,,,,,0,32,32,19,1,2,0,,,,,,,,,,,,,,,,,,,,,,,,,,,,,,,,,,,,,,,,,,,,,,,,,,,,,,,,,,,,,,,,,,,,,,,,,,,
,,,,,,,,,,stimuli/images/PICTURE_208.png,MONTH,5de904d8443d0b01db94ff9b,11/04/2000,2020-07-08_16h13.53.609,proactive,2020.1.2,Win32,60,5f035e5afe130c270d6ae6dd,5f05e1d711119c0b6deee632,3,,,,,,microphone,,,,,,0,33,33,53,1,6,0,,,,,,,,,,,,,,,,,,,,,,,,,,,,,,,,,,,,,,,,,,,,,,,,,,,,,,,,,,,,,,,,,,,,,,,,,,,
,,,,,,,,,,stimuli/images/PICTURE_654.png,VALLEY,5de904d8443d0b01db94ff9b,11/04/2000,2020-07-08_16h13.53.609,proactive,2020.1.2,Win32,60,5f035e5afe130c270d6ae6dd,5f05e1d711119c0b6deee632,3,,,,,,pencil,,,,,,0,34,34,1,1,1,0,,,,,,,,,,,,,,,,,,,,,,,,,,,,,,,,,,,,,,,,,,,,,,,,,,,,,,,,,,,,,,,,,,,,,,,,,,,
,,,,,,,,,,stimuli/images/PICTURE_68.png,MILE,5de904d8443d0b01db94ff9b,11/04/2000,2020-07-08_16h13.53.609,proactive,2020.1.2,Win32,60,5f035e5afe130c270d6ae6dd,5f05e1d711119c0b6deee632,3,,,,,,candle,,,,,,0,35,35,44,1,5,0,,,,,,,,,,,,,,,,,,,,,,,,,,,,,,,,,,,,,,,,,,,,,,,,,,,,,,,,,,,,,,,,,,,,,,,,,,,
,,,,,,,,,,stimuli/images/PICTURE_85.png,THING,5de904d8443d0b01db94ff9b,11/04/2000,2020-07-08_16h13.53.609,proactive,2020.1.2,Win32,60,5f035e5afe130c270d6ae6dd,5f05e1d711119c0b6deee632,3,,,,,,diamond,,,,,,0,36,36,15,1,2,0,,,,,,,,,,,,,,,,,,,,,,,,,,,,,,,,,,,,,,,,,,,,,,,,,,,,,,,,,,,,,,,,,,,,,,,,,,,
,,,,,,,,,,stimuli/images/PICTURE_248.png,DOZEN,5de904d8443d0b01db94ff9b,11/04/2000,2020-07-08_16h13.53.609,proactive,2020.1.2,Win32,60,5f035e5afe130c270d6ae6dd,5f05e1d711119c0b6deee632,3,,,,,,cart,,,,,,0,37,37,39,1,4,0,,,,,,,,,,,,,,,,,,,,,,,,,,,,,,,,,,,,,,,,,,,,,,,,,,,,,,,,,,,,,,,,,,,,,,,,,,,
,,,,,,,,,,stimuli/images/PICTURE_123.png,ADVICE,5de904d8443d0b01db94ff9b,11/04/2000,2020-07-08_16h13.53.609,proactive,2020.1.2,Win32,60,5f035e5afe130c270d6ae6dd,5f05e1d711119c0b6deee632,3,,,,,,dart,,,,,,0,38,38,40,1,5,0,,,,,,,,,,,,,,,,,,,,,,,,,,,,,,,,,,,,,,,,,,,,,,,,,,,,,,,,,,,,,,,,,,,,,,,,,,,
,,,,,,,,,,stimuli/images/PICTURE_208.png,THING,5de904d8443d0b01db94ff9b,11/04/2000,2020-07-08_16h13.53.609,proactive,2020.1.2,Win32,60,5f035e5afe130c270d6ae6dd,5f05e1d711119c0b6deee632,3,,,,,,microphone,,,,,,0,39,39,47,1,5,0,,,,,,,,,,,,,,,,,,,,,,,,,,,,,,,,,,,,,,,,,,,,,,,,,,,,,,,,,,,,,,,,,,,,,,,,,,,
,,,,,,,,,,stimuli/images/PICTURE_509.png,PHOTO,5de904d8443d0b01db94ff9b,11/04/2000,2020-07-08_16h13.53.609,proactive,2020.1.2,Win32,60,5f035e5afe130c270d6ae6dd,5f05e1d711119c0b6deee632,3,,,,,,telephone,,,,,,0,40,40,21,1,3,0,,,,,,,,,,,,,,,,,,,,,,,,,,,,,,,,,,,,,,,,,,,,,,,,,,,,,,,,,,,,,,,,,,,,,,,,,,,
,,,,,,,,,,stimuli/images/PICTURE_95.png,STYLE,5de904d8443d0b01db94ff9b,11/04/2000,2020-07-08_16h13.53.609,proactive,2020.1.2,Win32,60,5f035e5afe130c270d6ae6dd,5f05e1d711119c0b6deee632,3,,,,,,suitcase,,,,,,0,41,41,25,1,3,0,,,,,,,,,,,,,,,,,,,,,,,,,,,,,,,,,,,,,,,,,,,,,,,,,,,,,,,,,,,,,,,,,,,,,,,,,,,
,,,,,,,,,,stimuli/images/PICTURE_491.png,WRITER,5de904d8443d0b01db94ff9b,11/04/2000,2020-07-08_16h13.53.609,proactive,2020.1.2,Win32,60,5f035e5afe130c270d6ae6dd,5f05e1d711119c0b6deee632,3,,,,,,rug,,,,,,0,42,42,57,1,6,0,,,,,,,,,,,,,,,,,,,,,,,,,,,,,,,,,,,,,,,,,,,,,,,,,,,,,,,,,,,,,,,,,,,,,,,,,,,
,,,,,,,,,,stimuli/images/PICTURE_380.png,PHOTO,5de904d8443d0b01db94ff9b,11/04/2000,2020-07-08_16h13.53.609,proactive,2020.1.2,Win32,60,5f035e5afe130c270d6ae6dd,5f05e1d711119c0b6deee632,3,,,,,,gorilla,,,,,,0,43,43,52,1,6,0,,,,,,,,,,,,,,,,,,,,,,,,,,,,,,,,,,,,,,,,,,,,,,,,,,,,,,,,,,,,,,,,,,,,,,,,,,,
,,,,,,,,,,stimuli/images/PICTURE_470.png,CASINO,5de904d8443d0b01db94ff9b,11/04/2000,2020-07-08_16h13.53.609,proactive,2020.1.2,Win32,60,5f035e5afe130c270d6ae6dd,5f05e1d711119c0b6deee632,3,,,,,,motorbike,,,,,,0,44,44,36,1,4,0,,,,,,,,,,,,,,,,,,,,,,,,,,,,,,,,,,,,,,,,,,,,,,,,,,,,,,,,,,,,,,,,,,,,,,,,,,,
,,,,,,,,,,stimuli/images/PICTURE_467.png,DEMON,5de904d8443d0b01db94ff9b,11/04/2000,2020-07-08_16h13.53.609,proactive,2020.1.2,Win32,60,5f035e5afe130c270d6ae6dd,5f05e1d711119c0b6deee632,3,,,,,,peg,,,,,,0,45,45,23,1,3,0,,,,,,,,,,,,,,,,,,,,,,,,,,,,,,,,,,,,,,,,,,,,,,,,,,,,,,,,,,,,,,,,,,,,,,,,,,,
,,,,,,,,,,stimuli/images/PICTURE_675.png,WEAPON,5de904d8443d0b01db94ff9b,11/04/2000,2020-07-08_16h13.53.609,proactive,2020.1.2,Win32,60,5f035e5afe130c270d6ae6dd,5f05e1d711119c0b6deee632,3,,,,,,windmill,,,,,,0,46,46,32,1,4,0,,,,,,,,,,,,,,,,,,,,,,,,,,,,,,,,,,,,,,,,,,,,,,,,,,,,,,,,,,,,,,,,,,,,,,,,,,,
,,,,,,,,,,stimuli/images/PICTURE_744.png,SYSTEM,5de904d8443d0b01db94ff9b,11/04/2000,2020-07-08_16h13.53.609,proactive,2020.1.2,Win32,60,5f035e5afe130c270d6ae6dd,5f05e1d711119c0b6deee632,3,,,,,,ring,,,,,,0,47,47,43,1,5,0,,,,,,,,,,,,,,,,,,,,,,,,,,,,,,,,,,,,,,,,,,,,,,,,,,,,,,,,,,,,,,,,,,,,,,,,,,,
,,,,,,,,,,stimuli/images/PICTURE_348.png,SPEECH,5de904d8443d0b01db94ff9b,11/04/2000,2020-07-08_16h13.53.609,proactive,2020.1.2,Win32,60,5f035e5afe130c270d6ae6dd,5f05e1d711119c0b6deee632,3,,,,,,pepper,,,,,,0,48,48,20,1,3,0,,,,,,,,,,,,,,,,,,,,,,,,,,,,,,,,,,,,,,,,,,,,,,,,,,,,,,,,,,,,,,,,,,,,,,,,,,,
,,,,,,,,,,stimuli/images/PICTURE_160.png,FEET,5de904d8443d0b01db94ff9b,11/04/2000,2020-07-08_16h13.53.609,proactive,2020.1.2,Win32,60,5f035e5afe130c270d6ae6dd,5f05e1d711119c0b6deee632,3,,,,,,wheelbarrow,,,,,,0,49,49,58,1,6,0,,,,,,,,,,,,,,,,,,,,,,,,,,,,,,,,,,,,,,,,,,,,,,,,,,,,,,,,,,,,,,,,,,,,,,,,,,,
,,,,,,,,,,stimuli/images/PICTURE_453.png,PLENTY,5de904d8443d0b01db94ff9b,11/04/2000,2020-07-08_16h13.53.609,proactive,2020.1.2,Win32,60,5f035e5afe130c270d6ae6dd,5f05e1d711119c0b6deee632,3,,,,,,scissors,,,,,,0,50,50,56,1,6,0,,,,,,,,,,,,,,,,,,,,,,,,,,,,,,,,,,,,,,,,,,,,,,,,,,,,,,,,,,,,,,,,,,,,,,,,,,,
,,,,,,,,,,stimuli/images/PICTURE_285.png,ADVICE,5de904d8443d0b01db94ff9b,11/04/2000,2020-07-08_16h13.53.609,proactive,2020.1.2,Win32,60,5f035e5afe130c270d6ae6dd,5f05e1d711119c0b6deee632,3,,,,,,carrot,,,,,,0,51,51,12,1,2,0,,,,,,,,,,,,,,,,,,,,,,,,,,,,,,,,,,,,,,,,,,,,,,,,,,,,,,,,,,,,,,,,,,,,,,,,,,,
,,,,,,,,,,stimuli/images/PICTURE_677.png,MILE,5de904d8443d0b01db94ff9b,11/04/2000,2020-07-08_16h13.53.609,proactive,2020.1.2,Win32,60,5f035e5afe130c270d6ae6dd,5f05e1d711119c0b6deee632,3,,,,,,map,,,,,,0,52,52,30,1,4,0,,,,,,,,,,,,,,,,,,,,,,,,,,,,,,,,,,,,,,,,,,,,,,,,,,,,,,,,,,,,,,,,,,,,,,,,,,,
,,,,,,,,,,stimuli/images/PICTURE_504.png,BODY,5de904d8443d0b01db94ff9b,11/04/2000,2020-07-08_16h13.53.609,proactive,2020.1.2,Win32,60,5f035e5afe130c270d6ae6dd,5f05e1d711119c0b6deee632,3,,,,,,wheel,,,,,,0,53,53,8,1,1,0,,,,,,,,,,,,,,,,,,,,,,,,,,,,,,,,,,,,,,,,,,,,,,,,,,,,,,,,,,,,,,,,,,,,,,,,,,,
,,,,,,,,,,stimuli/images/PICTURE_233.png,IDEAS,5de904d8443d0b01db94ff9b,11/04/2000,2020-07-08_16h13.53.609,proactive,2020.1.2,Win32,60,5f035e5afe130c270d6ae6dd,5f05e1d711119c0b6deee632,3,,,,,,salt,,,,,,0,54,54,28,1,3,0,,,,,,,,,,,,,,,,,,,,,,,,,,,,,,,,,,,,,,,,,,,,,,,,,,,,,,,,,,,,,,,,,,,,,,,,,,,
,,,,,,,,,,stimuli/images/PICTURE_469.png,LETTER,5de904d8443d0b01db94ff9b,11/04/2000,2020-07-08_16h13.53.609,proactive,2020.1.2,Win32,60,5f035e5afe130c270d6ae6dd,5f05e1d711119c0b6deee632,3,,,,,,stool,,,,,,0,55,55,42,1,5,0,,,,,,,,,,,,,,,,,,,,,,,,,,,,,,,,,,,,,,,,,,,,,,,,,,,,,,,,,,,,,,,,,,,,,,,,,,,
,,,,,,,,,,stimuli/images/PICTURE_708.png,CLIENT,5de904d8443d0b01db94ff9b,11/04/2000,2020-07-08_16h13.53.609,proactive,2020.1.2,Win32,60,5f035e5afe130c270d6ae6dd,5f05e1d711119c0b6deee632,3,,,,,,monkey,,,,,,0,56,56,5,1,1,0,,,,,,,,,,,,,,,,,,,,,,,,,,,,,,,,,,,,,,,,,,,,,,,,,,,,,,,,,,,,,,,,,,,,,,,,,,,
,,,,,,,,,,stimuli/images/PICTURE_708.png,PENNY,5de904d8443d0b01db94ff9b,11/04/2000,2020-07-08_16h13.53.609,proactive,2020.1.2,Win32,60,5f035e5afe130c270d6ae6dd,5f05e1d711119c0b6deee632,3,,,,,,monkey,,,,,,0,57,57,31,1,4,0,,,,,,,,,,,,,,,,,,,,,,,,,,,,,,,,,,,,,,,,,,,,,,,,,,,,,,,,,,,,,,,,,,,,,,,,,,,
,,,,,,,,,,stimuli/images/PICTURE_327.png,BEAUTY,5de904d8443d0b01db94ff9b,11/04/2000,2020-07-08_16h13.53.609,proactive,2020.1.2,Win32,60,5f035e5afe130c270d6ae6dd,5f05e1d711119c0b6deee632,3,,,,,,helmet,,,,,,0,58,58,48,1,5,0,,,,,,,,,,,,,,,,,,,,,,,,,,,,,,,,,,,,,,,,,,,,,,,,,,,,,,,,,,,,,,,,,,,,,,,,,,,
,,AREA,4.826,0,,,,,,stimuli/images/PICTURE_203.png,ARTIST,5de904d8443d0b01db94ff9b,11/04/2000,2020-07-08_16h13.53.609,proactive,2020.1.2,Win32,60,5f035e5afe130c270d6ae6dd,5f05e1d711119c0b6deee632,3,,,,,,cap,,,,,,,,,,,3,0,0,0,0,26,1,,,,,,,,,,,,,,,,,,,,,,,,,,,,,,,,,,,,,,,,,,,,,,,,,,,,,,,,,,,,,,,,,,,,,,
,,?,0.002,0,,,,,,stimuli/images/PICTURE_449.png,THING,5de904d8443d0b01db94ff9b,11/04/2000,2020-07-08_16h13.53.609,proactive,2020.1.2,Win32,60,5f035e5afe130c270d6ae6dd,5f05e1d711119c0b6deee632,3,,,,,,bench,,,,,,,,,,,6,0,0,1,1,59,1,,,,,,,,,,,,,,,,,,,,,,,,,,,,,,,,,,,,,,,,,,,,,,,,,,,,,,,,,,,,,,,,,,,,,,
,,?,0.001,0,,,,,,stimuli/images/PICTURE_667.png,PLENTY,5de904d8443d0b01db94ff9b,11/04/2000,2020-07-08_16h13.53.609,proactive,2020.1.2,Win32,60,5f035e5afe130c270d6ae6dd,5f05e1d711119c0b6deee632,3,,,,,,daisy,,,,,,,,,,,5,0,0,2,2,41,1,,,,,,,,,,,,,,,,,,,,,,,,,,,,,,,,,,,,,,,,,,,,,,,,,,,,,,,,,,,,,,,,,,,,,,
,,?,0.001,0,,,,,,stimuli/images/PICTURE_453.png,PLENTY,5de904d8443d0b01db94ff9b,11/04/2000,2020-07-08_16h13.53.609,proactive,2020.1.2,Win32,60,5f035e5afe130c270d6ae6dd,5f05e1d711119c0b6deee632,3,,,,,,scissors,,,,,,,,,,,6,0,0,3,3,56,1,,,,,,,,,,,,,,,,,,,,,,,,,,,,,,,,,,,,,,,,,,,,,,,,,,,,,,,,,,,,,,,,,,,,,,
,,?,0,0,,,,,,stimuli/images/PICTURE_233.png,WOMEN,5de904d8443d0b01db94ff9b,11/04/2000,2020-07-08_16h13.53.609,proactive,2020.1.2,Win32,60,5f035e5afe130c270d6ae6dd,5f05e1d711119c0b6deee632,3,,,,,,salt,,,,,,,,,,,4,0,0,4,4,38,1,,,,,,,,,,,,,,,,,,,,,,,,,,,,,,,,,,,,,,,,,,,,,,,,,,,,,,,,,,,,,,,,,,,,,,
,,?,0.001,0,,,,,,stimuli/images/PICTURE_314.png,SAKE,5de904d8443d0b01db94ff9b,11/04/2000,2020-07-08_16h13.53.609,proactive,2020.1.2,Win32,60,5f035e5afe130c270d6ae6dd,5f05e1d711119c0b6deee632,3,,,,,,perfume,,,,,,,,,,,1,0,0,5,5,7,1,,,,,,,,,,,,,,,,,,,,,,,,,,,,,,,,,,,,,,,,,,,,,,,,,,,,,,,,,,,,,,,,,,,,,,
,,?,0.001,0,,,,,,stimuli/images/PICTURE_504.png,BODY,5de904d8443d0b01db94ff9b,11/04/2000,2020-07-08_16h13.53.609,proactive,2020.1.2,Win32,60,5f035e5afe130c270d6ae6dd,5f05e1d711119c0b6deee632,3,,,,,,wheel,,,,,,,,,,,1,0,0,6,6,8,1,,,,,,,,,,,,,,,,,,,,,,,,,,,,,,,,,,,,,,,,,,,,,,,,,,,,,,,,,,,,,,,,,,,,,,
,,?,0,0,,,,,,stimuli/images/PICTURE_744.png,SYSTEM,5de904d8443d0b01db94ff9b,11/04/2000,2020-07-08_16h13.53.609,proactive,2020.1.2,Win32,60,5f035e5afe130c270d6ae6dd,5f05e1d711119c0b6deee632,3,,,,,,ring,,,,,,,,,,,5,0,0,7,7,43,1,,,,,,,,,,,,,,,,,,,,,,,,,,,,,,,,,,,,,,,,,,,,,,,,,,,,,,,,,,,,,,,,,,,,,,
,,?,0,0,,,,,,stimuli/images/PICTURE_123.png,ADVICE,5de904d8443d0b01db94ff9b,11/04/2000,2020-07-08_16h13.53.609,proactive,2020.1.2,Win32,60,5f035e5afe130c270d6ae6dd,5f05e1d711119c0b6deee632,3,,,,,,dart,,,,,,,,,,,5,0,0,8,8,40,1,,,,,,,,,,,,,,,,,,,,,,,,,,,,,,,,,,,,,,,,,,,,,,,,,,,,,,,,,,,,,,,,,,,,,,
,,?,0.001,0,,,,,,stimuli/images/PICTURE_208.png,THING,5de904d8443d0b01db94ff9b,11/04/2000,2020-07-08_16h13.53.609,proactive,2020.1.2,Win32,60,5f035e5afe130c270d6ae6dd,5f05e1d711119c0b6deee632,3,,,,,,microphone,,,,,,,,,,,5,0,0,9,9,47,1,,,,,,,,,,,,,,,,,,,,,,,,,,,,,,,,,,,,,,,,,,,,,,,,,,,,,,,,,,,,,,,,,,,,,,
,,SPADE,6.1,0,,,,,,stimuli/images/PICTURE_255.png,AREA,5de904d8443d0b01db94ff9b,11/04/2000,2020-07-08_16h13.53.609,proactive,2020.1.2,Win32,60,5f035e5afe130c270d6ae6dd,5f05e1d711119c0b6deee632,3,,,,,,shovel,,,,,,,,,,,3,0,0,10,10,22,1,,,,,,,,,,,,,,,,,,,,,,,,,,,,,,,,,,,,,,,,,,,,,,,,,,,,,,,,,,,,,,,,,,,,,,
,,PHOTO,3.383,1,,,,,,stimuli/images/PICTURE_509.png,PHOTO,5de904d8443d0b01db94ff9b,11/04/2000,2020-07-08_16h13.53.609,proactive,2020.1.2,Win32,60,5f035e5afe130c270d6ae6dd,5f05e1d711119c0b6deee632,3,,,,,,telephone,,,,,,,,,,,3,0,0,11,11,21,1,,,,,,,,,,,,,,,,,,,,,,,,,,,,,,,,,,,,,,,,,,,,,,,,,,,,,,,,,,,,,,,,,,,,,,
,,?,0.002,0,,,,,,stimuli/images/PICTURE_123.png,ADVICE,5de904d8443d0b01db94ff9b,11/04/2000,2020-07-08_16h13.53.609,proactive,2020.1.2,Win32,60,5f035e5afe130c270d6ae6dd,5f05e1d711119c0b6deee632,3,,,,,,dart,,,,,,,,,,,6,0,0,12,12,50,1,,,,,,,,,,,,,,,,,,,,,,,,,,,,,,,,,,,,,,,,,,,,,,,,,,,,,,,,,,,,,,,,,,,,,,
,,?,0.001,0,,,,,,stimuli/images/PICTURE_311.png,FRIEND,5de904d8443d0b01db94ff9b,11/04/2000,2020-07-08_16h13.53.609,proactive,2020.1.2,Win32,60,5f035e5afe130c270d6ae6dd,5f05e1d711119c0b6deee632,3,,,,,,razor,,,,,,,,,,,4,0,0,13,13,34,1,,,,,,,,,,,,,,,,,,,,,,,,,,,,,,,,,,,,,,,,,,,,,,,,,,,,,,,,,,,,,,,,,,,,,,
,,?,0.001,0,,,,,,stimuli/images/PICTURE_667.png,BATH,5de904d8443d0b01db94ff9b,11/04/2000,2020-07-08_16h13.53.609,proactive,2020.1.2,Win32,60,5f035e5afe130c270d6ae6dd,5f05e1d711119c0b6deee632,3,,,,,,daisy,,,,,,,,,,,1,0,0,14,14,4,1,,,,,,,,,,,,,,,,,,,,,,,,,,,,,,,,,,,,,,,,,,,,,,,,,,,,,,,,,,,,,,,,,,,,,,
,,?,0,0,,,,,,stimuli/images/PICTURE_208.png,MONTH,5de904d8443d0b01db94ff9b,11/04/2000,2020-07-08_16h13.53.609,proactive,2020.1.2,Win32,60,5f035e5afe130c270d6ae6dd,5f05e1d711119c0b6deee632,3,,,,,,microphone,,,,,,,,,,,6,0,0,15,15,53,1,,,,,,,,,,,,,,,,,,,,,,,,,,,,,,,,,,,,,,,,,,,,,,,,,,,,,,,,,,,,,,,,,,,,,,
,,?,0.001,0,,,,,,stimuli/images/PICTURE_692.png,MONTH,5de904d8443d0b01db94ff9b,11/04/2000,2020-07-08_16h13.53.609,proactive,2020.1.2,Win32,60,5f035e5afe130c270d6ae6dd,5f05e1d711119c0b6deee632,3,,,,,,cherry,,,,,,,,,,,2,0,0,16,16,16,1,,,,,,,,,,,,,,,,,,,,,,,,,,,,,,,,,,,,,,,,,,,,,,,,,,,,,,,,,,,,,,,,,,,,,,
,,?,0.001,0,,,,,,stimuli/images/PICTURE_487.png,FLIGHT,5de904d8443d0b01db94ff9b,11/04/2000,2020-07-08_16h13.53.609,proactive,2020.1.2,Win32,60,5f035e5afe130c270d6ae6dd,5f05e1d711119c0b6deee632,3,,,,,,basket,,,,,,,,,,,1,0,0,17,17,9,1,,,,,,,,,,,,,,,,,,,,,,,,,,,,,,,,,,,,,,,,,,,,,,,,,,,,,,,,,,,,,,,,,,,,,,
,,?,0.001,0,,,,,,stimuli/images/PICTURE_147.png,MOMENT,5de904d8443d0b01db94ff9b,11/04/2000,2020-07-08_16h13.53.609,proactive,2020.1.2,Win32,60,5f035e5afe130c270d6ae6dd,5f05e1d711119c0b6deee632,3,,,,,,hanger,,,,,,,,,,,6,0,0,18,18,51,1,,,,,,,,,,,,,,,,,,,,,,,,,,,,,,,,,,,,,,,,,,,,,,,,,,,,,,,,,,,,,,,,,,,,,,
,,?,0,0,,,,,,stimuli/images/PICTURE_215.png,PLENTY,5de904d8443d0b01db94ff9b,11/04/2000,2020-07-08_16h13.53.609,proactive,2020.1.2,Win32,60,5f035e5afe130c270d6ae6dd,5f05e1d711119c0b6deee632,3,,,,,,boot,,,,,,,,,,,4,0,0,19,19,37,1,,,,,,,,,,,,,,,,,,,,,,,,,,,,,,,,,,,,,,,,,,,,,,,,,,,,,,,,,,,,,,,,,,,,,,
,,?,0,0,,,,,,stimuli/images/PICTURE_308.png,KIND,5de904d8443d0b01db94ff9b,11/04/2000,2020-07-08_16h13.53.609,proactive,2020.1.2,Win32,60,5f035e5afe130c270d6ae6dd,5f05e1d711119c0b6deee632,3,,,,,,dice,,,,,,,,,,,6,0,0,20,20,54,1,,,,,,,,,,,,,,,,,,,,,,,,,,,,,,,,,,,,,,,,,,,,,,,,,,,,,,,,,,,,,,,,,,,,,,
,,?,0.001,0,,,,,,stimuli/images/PICTURE_208.png,LOTS,5de904d8443d0b01db94ff9b,11/04/2000,2020-07-08_16h13.53.609,proactive,2020.1.2,Win32,60,5f035e5afe130c270d6ae6dd,5f05e1d711119c0b6deee632,3,,,,,,microphone,,,,,,,,,,,2,0,0,21,21,10,1,,,,,,,,,,,,,,,,,,,,,,,,,,,,,,,,,,,,,,,,,,,,,,,,,,,,,,,,,,,,,,,,,,,,,,
,,?,0,0,,,,,,stimuli/images/PICTURE_339.png,PLENTY,5de904d8443d0b01db94ff9b,11/04/2000,2020-07-08_16h13.53.609,proactive,2020.1.2,Win32,60,5f035e5afe130c270d6ae6dd,5f05e1d711119c0b6deee632,3,,,,,,backpack,,,,,,,,,,,1,0,0,22,22,0,1,,,,,,,,,,,,,,,,,,,,,,,,,,,,,,,,,,,,,,,,,,,,,,,,,,,,,,,,,,,,,,,,,,,,,,
,,?,0,0,,,,,,stimuli/images/PICTURE_85.png,THING,5de904d8443d0b01db94ff9b,11/04/2000,2020-07-08_16h13.53.609,proactive,2020.1.2,Win32,60,5f035e5afe130c270d6ae6dd,5f05e1d711119c0b6deee632,3,,,,,,diamond,,,,,,,,,,,2,0,0,23,23,15,1,,,,,,,,,,,,,,,,,,,,,,,,,,,,,,,,,,,,,,,,,,,,,,,,,,,,,,,,,,,,,,,,,,,,,,
,,?,0.001,0,,,,,,stimuli/images/PICTURE_677.png,MILE,5de904d8443d0b01db94ff9b,11/04/2000,2020-07-08_16h13.53.609,proactive,2020.1.2,Win32,60,5f035e5afe130c270d6ae6dd,5f05e1d711119c0b6deee632,3,,,,,,map,,,,,,,,,,,4,0,0,24,24,30,1,,,,,,,,,,,,,,,,,,,,,,,,,,,,,,,,,,,,,,,,,,,,,,,,,,,,,,,,,,,,,,,,,,,,,,
,,?,0,0,,,,,,stimuli/images/PICTURE_488.png,STYLE,5de904d8443d0b01db94ff9b,11/04/2000,2020-07-08_16h13.53.609,proactive,2020.1.2,Win32,60,5f035e5afe130c270d6ae6dd,5f05e1d711119c0b6deee632,3,,,,,,sun,,,,,,,,,,,4,0,0,25,25,33,1,,,,,,,,,,,,,,,,,,,,,,,,,,,,,,,,,,,,,,,,,,,,,,,,,,,,,,,,,,,,,,,,,,,,,,
,,MAGIC,7.994,0,,,,,,stimuli/images/PICTURE_95.png,STYLE,5de904d8443d0b01db94ff9b,11/04/2000,2020-07-08_16h13.53.609,proactive,2020.1.2,Win32,60,5f035e5afe130c270d6ae6dd,5f05e1d711119c0b6deee632,3,,,,,,suitcase,,,,,,,,,,,3,0,0,26,26,25,1,,,,,,,,,,,,,,,,,,,,,,,,,,,,,,,,,,,,,,,,,,,,,,,,,,,,,,,,,,,,,,,,,,,,,,
,,HOTEL,8.299,0,,,,,,stimuli/images/PICTURE_233.png,IDEAS,5de904d8443d0b01db94ff9b,11/04/2000,2020-07-08_16h13.53.609,proactive,2020.1.2,Win32,60,5f035e5afe130c270d6ae6dd,5f05e1d711119c0b6deee632,3,,,,,,salt,,,,,,,,,,,3,0,0,27,27,28,1,,,,,,,,,,,,,,,,,,,,,,,,,,,,,,,,,,,,,,,,,,,,,,,,,,,,,,,,,,,,,,,,,,,,,,
,,?,0.001,0,,,,,,stimuli/images/PICTURE_285.png,ADVICE,5de904d8443d0b01db94ff9b,11/04/2000,2020-07-08_16h13.53.609,proactive,2020.1.2,Win32,60,5f035e5afe130c270d6ae6dd,5f05e1d711119c0b6deee632,3,,,,,,carrot,,,,,,,,,,,2,0,0,28,28,12,1,,,,,,,,,,,,,,,,,,,,,,,,,,,,,,,,,,,,,,,,,,,,,,,,,,,,,,,,,,,,,,,,,,,,,,
,,?,0.001,0,,,,,,stimuli/images/PICTURE_311.png,BEAUTY,5de904d8443d0b01db94ff9b,11/04/2000,2020-07-08_16h13.53.609,proactive,2020.1.2,Win32,60,5f035e5afe130c270d6ae6dd,5f05e1d711119c0b6deee632,3,,,,,,razor,,,,,,,,,,,2,0,0,29,29,13,1,,,,,,,,,,,,,,,,,,,,,,,,,,,,,,,,,,,,,,,,,,,,,,,,,,,,,,,,,,,,,,,,,,,,,,
,,?,0.001,0,,,,,,stimuli/images/PICTURE_688.png,CASINO,5de904d8443d0b01db94ff9b,11/04/2000,2020-07-08_16h13.53.609,proactive,2020.1.2,Win32,60,5f035e5afe130c270d6ae6dd,5f05e1d711119c0b6deee632,3,,,,,,runner,,,,,,,,,,,1,0,0,30,30,2,1,,,,,,,,,,,,,,,,,,,,,,,,,,,,,,,,,,,,,,,,,,,,,,,,,,,,,,,,,,,,,,,,,,,,,,
,,?,0,0,,,,,,stimuli/images/PICTURE_248.png,DOZEN,5de904d8443d0b01db94ff9b,11/04/2000,2020-07-08_16h13.53.609,proactive,2020.1.2,Win32,60,5f035e5afe130c270d6ae6dd,5f05e1d711119c0b6deee632,3,,,,,,cart,,,,,,,,,,,4,0,0,31,31,39,1,,,,,,,,,,,,,,,,,,,,,,,,,,,,,,,,,,,,,,,,,,,,,,,,,,,,,,,,,,,,,,,,,,,,,,
,,?,0,0,,,,,,stimuli/images/PICTURE_491.png,WRITER,5de904d8443d0b01db94ff9b,11/04/2000,2020-07-08_16h13.53.609,proactive,2020.1.2,Win32,60,5f035e5afe130c270d6ae6dd,5f05e1d711119c0b6deee632,3,,,,,,rug,,,,,,,,,,,6,0,0,32,32,57,1,,,,,,,,,,,,,,,,,,,,,,,,,,,,,,,,,,,,,,,,,,,,,,,,,,,,,,,,,,,,,,,,,,,,,,
,,?,0,0,,,,,,stimuli/images/PICTURE_356.png,DANGER,5de904d8443d0b01db94ff9b,11/04/2000,2020-07-08_16h13.53.609,proactive,2020.1.2,Win32,60,5f035e5afe130c270d6ae6dd,5f05e1d711119c0b6deee632,3,,,,,,pawn,,,,,,,,,,,6,0,0,33,33,55,1,,,,,,,,,,,,,,,,,,,,,,,,,,,,,,,,,,,,,,,,,,,,,,,,,,,,,,,,,,,,,,,,,,,,,,
,,?,0,0,,,,,,stimuli/images/PICTURE_327.png,BEAUTY,5de904d8443d0b01db94ff9b,11/04/2000,2020-07-08_16h13.53.609,proactive,2020.1.2,Win32,60,5f035e5afe130c270d6ae6dd,5f05e1d711119c0b6deee632,3,,,,,,helmet,,,,,,,,,,,5,0,0,34,34,48,1,,,,,,,,,,,,,,,,,,,,,,,,,,,,,,,,,,,,,,,,,,,,,,,,,,,,,,,,,,,,,,,,,,,,,,
,,?,0.001,0,,,,,,stimuli/images/PICTURE_675.png,WEAPON,5de904d8443d0b01db94ff9b,11/04/2000,2020-07-08_16h13.53.609,proactive,2020.1.2,Win32,60,5f035e5afe130c270d6ae6dd,5f05e1d711119c0b6deee632,3,,,,,,windmill,,,,,,,,,,,4,0,0,35,35,32,1,,,,,,,,,,,,,,,,,,,,,,,,,,,,,,,,,,,,,,,,,,,,,,,,,,,,,,,,,,,,,,,,,,,,,,
,,?,0,0,,,,,,stimuli/images/PICTURE_314.png,GODS,5de904d8443d0b01db94ff9b,11/04/2000,2020-07-08_16h13.53.609,proactive,2020.1.2,Win32,60,5f035e5afe130c270d6ae6dd,5f05e1d711119c0b6deee632,3,,,,,,perfume,,,,,,,,,,,2,0,0,36,36,11,1,,,,,,,,,,,,,,,,,,,,,,,,,,,,,,,,,,,,,,,,,,,,,,,,,,,,,,,,,,,,,,,,,,,,,,
,,?,0.001,0,,,,,,stimuli/images/PICTURE_380.png,PHOTO,5de904d8443d0b01db94ff9b,11/04/2000,2020-07-08_16h13.53.609,proactive,2020.1.2,Win32,60,5f035e5afe130c270d6ae6dd,5f05e1d711119c0b6deee632,3,,,,,,gorilla,,,,,,,,,,,6,0,0,37,37,52,1,,,,,,,,,,,,,,,,,,,,,,,,,,,,,,,,,,,,,,,,,,,,,,,,,,,,,,,,,,,,,,,,,,,,,,
,,?,0,0,,,,,,stimuli/images/PICTURE_654.png,VALLEY,5de904d8443d0b01db94ff9b,11/04/2000,2020-07-08_16h13.53.609,proactive,2020.1.2,Win32,60,5f035e5afe130c270d6ae6dd,5f05e1d711119c0b6deee632,3,,,,,,pencil,,,,,,,,,,,1,0,0,38,38,1,1,,,,,,,,,,,,,,,,,,,,,,,,,,,,,,,,,,,,,,,,,,,,,,,,,,,,,,,,,,,,,,,,,,,,,,
,,?,0.001,0,,,,,,stimuli/images/PICTURE_308.png,ESTATE,5de904d8443d0b01db94ff9b,11/04/2000,2020-07-08_16h13.53.609,proactive,2020.1.2,Win32,60,5f035e5afe130c270d6ae6dd,5f05e1d711119c0b6deee632,3,,,,,,dice,,,,,,,,,,,5,0,0,39,39,46,1,,,,,,,,,,,,,,,,,,,,,,,,,,,,,,,,,,,,,,,,,,,,,,,,,,,,,,,,,,,,,,,,,,,,,,
,,?,0,0,,,,,,stimuli/images/PICTURE_470.png,CASINO,5de904d8443d0b01db94ff9b,11/04/2000,2020-07-08_16h13.53.609,proactive,2020.1.2,Win32,60,5f035e5afe130c270d6ae6dd,5f05e1d711119c0b6deee632,3,,,,,,motorbike,,,,,,,,,,,4,0,0,40,40,36,1,,,,,,,,,,,,,,,,,,,,,,,,,,,,,,,,,,,,,,,,,,,,,,,,,,,,,,,,,,,,,,,,,,,,,,
,,DUDE,5.293,0,,,,,,stimuli/images/PICTURE_348.png,SPEECH,5de904d8443d0b01db94ff9b,11/04/2000,2020-07-08_16h13.53.609,proactive,2020.1.2,Win32,60,5f035e5afe130c270d6ae6dd,5f05e1d711119c0b6deee632,3,,,,,,pepper,,,,,,,,,,,3,0,0,41,41,20,1,,,,,,,,,,,,,,,,,,,,,,,,,,,,,,,,,,,,,,,,,,,,,,,,,,,,,,,,,,,,,,,,,,,,,,
,,?,0.001,0,,,,,,stimuli/images/PICTURE_68.png,MILE,5de904d8443d0b01db94ff9b,11/04/2000,2020-07-08_16h13.53.609,proactive,2020.1.2,Win32,60,5f035e5afe130c270d6ae6dd,5f05e1d711119c0b6deee632,3,,,,,,candle,,,,,,,,,,,5,0,0,42,42,44,1,,,,,,,,,,,,,,,,,,,,,,,,,,,,,,,,,,,,,,,,,,,,,,,,,,,,,,,,,,,,,,,,,,,,,,
,,?,0.001,0,,,,,,stimuli/images/PICTURE_688.png,WOMEN,5de904d8443d0b01db94ff9b,11/04/2000,2020-07-08_16h13.53.609,proactive,2020.1.2,Win32,60,5f035e5afe130c270d6ae6dd,5f05e1d711119c0b6deee632,3,,,,,,runner,,,,,,,,,,,2,0,0,43,43,14,1,,,,,,,,,,,,,,,,,,,,,,,,,,,,,,,,,,,,,,,,,,,,,,,,,,,,,,,,,,,,,,,,,,,,,,
,,?,0,0,,,,,,stimuli/images/PICTURE_708.png,PENNY,5de904d8443d0b01db94ff9b,11/04/2000,2020-07-08_16h13.53.609,proactive,2020.1.2,Win32,60,5f035e5afe130c270d6ae6dd,5f05e1d711119c0b6deee632,3,,,,,,monkey,,,,,,,,,,,4,0,0,44,44,31,1,,,,,,,,,,,,,,,,,,,,,,,,,,,,,,,,,,,,,,,,,,,,,,,,,,,,,,,,,,,,,,,,,,,,,,
,,?,0.002,0,,,,,,stimuli/images/PICTURE_32.png,JUNGLE,5de904d8443d0b01db94ff9b,11/04/2000,2020-07-08_16h13.53.609,proactive,2020.1.2,Win32,60,5f035e5afe130c270d6ae6dd,5f05e1d711119c0b6deee632,3,,,,,,crown,,,,,,,,,,,5,0,0,45,45,45,1,,,,,,,,,,,,,,,,,,,,,,,,,,,,,,,,,,,,,,,,,,,,,,,,,,,,,,,,,,,,,,,,,,,,,,
,,?,0.001,0,,,,,,stimuli/images/PICTURE_708.png,CLIENT,5de904d8443d0b01db94ff9b,11/04/2000,2020-07-08_16h13.53.609,proactive,2020.1.2,Win32,60,5f035e5afe130c270d6ae6dd,5f05e1d711119c0b6deee632,3,,,,,,monkey,,,,,,,,,,,1,0,0,46,46,5,1,,,,,,,,,,,,,,,,,,,,,,,,,,,,,,,,,,,,,,,,,,,,,,,,,,,,,,,,,,,,,,,,,,,,,,
,,?,0.001,0,,,,,,stimuli/images/PICTURE_469.png,ARTIST,5de904d8443d0b01db94ff9b,11/04/2000,2020-07-08_16h13.53.609,proactive,2020.1.2,Win32,60,5f035e5afe130c270d6ae6dd,5f05e1d711119c0b6deee632,3,,,,,,stool,,,,,,,,,,,1,0,0,47,47,6,1,,,,,,,,,,,,,,,,,,,,,,,,,,,,,,,,,,,,,,,,,,,,,,,,,,,,,,,,,,,,,,,,,,,,,,
,,?,0,0,,,,,,stimuli/images/PICTURE_469.png,LETTER,5de904d8443d0b01db94ff9b,11/04/2000,2020-07-08_16h13.53.609,proactive,2020.1.2,Win32,60,5f035e5afe130c270d6ae6dd,5f05e1d711119c0b6deee632,3,,,,,,stool,,,,,,,,,,,5,0,0,48,48,42,1,,,,,,,,,,,,,,,,,,,,,,,,,,,,,,,,,,,,,,,,,,,,,,,,,,,,,,,,,,,,,,,,,,,,,,
,,ARTIST,6.603,0,,,,,,stimuli/images/PICTURE_708.png,YARD,5de904d8443d0b01db94ff9b,11/04/2000,2020-07-08_16h13.53.609,proactive,2020.1.2,Win32,60,5f035e5afe130c270d6ae6dd,5f05e1d711119c0b6deee632,3,,,,,,monkey,,,,,,,,,,,3,0,0,49,49,29,1,,,,,,,,,,,,,,,,,,,,,,,,,,,,,,,,,,,,,,,,,,,,,,,,,,,,,,,,,,,,,,,,,,,,,,
,,MAP,4.782,0,,,,,,stimuli/images/PICTURE_491.png,ROOF,5de904d8443d0b01db94ff9b,11/04/2000,2020-07-08_16h13.53.609,proactive,2020.1.2,Win32,60,5f035e5afe130c270d6ae6dd,5f05e1d711119c0b6deee632,3,,,,,,rug,,,,,,,,,,,3,0,0,50,50,24,1,,,,,,,,,,,,,,,,,,,,,,,,,,,,,,,,,,,,,,,,,,,,,,,,,,,,,,,,,,,,,,,,,,,,,,
,,?,0.001,0,,,,,,stimuli/images/PICTURE_302.png,FAMILY,5de904d8443d0b01db94ff9b,11/04/2000,2020-07-08_16h13.53.609,proactive,2020.1.2,Win32,60,5f035e5afe130c270d6ae6dd,5f05e1d711119c0b6deee632,3,,,,,,taxi,,,,,,,,,,,2,0,0,51,51,18,1,,,,,,,,,,,,,,,,,,,,,,,,,,,,,,,,,,,,,,,,,,,,,,,,,,,,,,,,,,,,,,,,,,,,,,
,,?,0.001,0,,,,,,stimuli/images/PICTURE_160.png,LEADER,5de904d8443d0b01db94ff9b,11/04/2000,2020-07-08_16h13.53.609,proactive,2020.1.2,Win32,60,5f035e5afe130c270d6ae6dd,5f05e1d711119c0b6deee632,3,,,,,,wheelbarrow,,,,,,,,,,,1,0,0,52,52,3,1,,,,,,,,,,,,,,,,,,,,,,,,,,,,,,,,,,,,,,,,,,,,,,,,,,,,,,,,,,,,,,,,,,,,,,
,,?,0.001,0,,,,,,stimuli/images/PICTURE_160.png,FEET,5de904d8443d0b01db94ff9b,11/04/2000,2020-07-08_16h13.53.609,proactive,2020.1.2,Win32,60,5f035e5afe130c270d6ae6dd,5f05e1d711119c0b6deee632,3,,,,,,wheelbarrow,,,,,,,,,,,6,0,0,53,53,58,1,,,,,,,,,,,,,,,,,,,,,,,,,,,,,,,,,,,,,,,,,,,,,,,,,,,,,,,,,,,,,,,,,,,,,,
,,?,0.002,0,,,,,,stimuli/images/PICTURE_151.png,GIRL,5de904d8443d0b01db94ff9b,11/04/2000,2020-07-08_16h13.53.609,proactive,2020.1.2,Win32,60,5f035e5afe130c270d6ae6dd,5f05e1d711119c0b6deee632,3,,,,,,tray,,,,,,,,,,,2,0,0,54,54,19,1,,,,,,,,,,,,,,,,,,,,,,,,,,,,,,,,,,,,,,,,,,,,,,,,,,,,,,,,,,,,,,,,,,,,,,
,,?,4.941,0,,,,,,stimuli/images/PICTURE_467.png,DEMON,5de904d8443d0b01db94ff9b,11/04/2000,2020-07-08_16h13.53.609,proactive,2020.1.2,Win32,60,5f035e5afe130c270d6ae6dd,5f05e1d711119c0b6deee632,3,,,,,,peg,,,,,,,,,,,3,0,0,55,55,23,1,,,,,,,,,,,,,,,,,,,,,,,,,,,,,,,,,,,,,,,,,,,,,,,,,,,,,,,,,,,,,,,,,,,,,,
,,?,0.01,0,,,,,,stimuli/images/PICTURE_380.png,DEATH,5de904d8443d0b01db94ff9b,11/04/2000,2020-07-08_16h13.53.609,proactive,2020.1.2,Win32,60,5f035e5afe130c270d6ae6dd,5f05e1d711119c0b6deee632,3,,,,,,gorilla,,,,,,,,,,,5,0,0,56,56,49,1,,,,,,,,,,,,,,,,,,,,,,,,,,,,,,,,,,,,,,,,,,,,,,,,,,,,,,,,,,,,,,,,,,,,,,
,,?,0.001,0,,,,,,stimuli/images/PICTURE_744.png,SAKE,5de904d8443d0b01db94ff9b,11/04/2000,2020-07-08_16h13.53.609,proactive,2020.1.2,Win32,60,5f035e5afe130c270d6ae6dd,5f05e1d711119c0b6deee632,3,,,,,,ring,,,,,,,,,,,2,0,0,57,57,17,1,,,,,,,,,,,,,,,,,,,,,,,,,,,,,,,,,,,,,,,,,,,,,,,,,,,,,,,,,,,,,,,,,,,,,,
,,?,0.001,0,,,,,,stimuli/images/PICTURE_177.png,CARS,5de904d8443d0b01db94ff9b,11/04/2000,2020-07-08_16h13.53.609,proactive,2020.1.2,Win32,60,5f035e5afe130c270d6ae6dd,5f05e1d711119c0b6deee632,3,,,,,,mushroom,,,,,,,,,,,4,0,0,58,58,35,1,,,,,,,,,,,,,,,,,,,,,,,,,,,,,,,,,,,,,,,,,,,,,,,,,,,,,,,,,,,,,,,,,,,,,,
,,DUDE,3.268,1,,,,,,stimuli/images/PICTURE_453.png,DUDE,5de904d8443d0b01db94ff9b,11/04/2000,2020-07-08_16h13.53.609,proactive,2020.1.2,Win32,60,5f035e5afe130c270d6ae6dd,5f05e1d711119c0b6deee632,3,,,,,,scissors,,,,,,,,,,,3,0,0,59,59,27,1,,,,,,,,,,,,,,,,,,,,,,,,,,,,,,,,,,,,,,,,,,,,,,,,,,,,,,,,,,,,,,,,,,,,,,
,,,,,,,,,,,,5de904d8443d0b01db94ff9b,11/04/2000,2020-07-08_16h13.53.609,proactive,2020.1.2,Win32,60,5f035e5afe130c270d6ae6dd,5f05e1d711119c0b6deee632,3,,,,,,,,,,,,,,,,,,,,,,,,0,1,1,0,1,stimuli/learn-block1.csv,,,,,,,,,,,,,,,,,,,,,,,,,,,,,,,,,,,,,,,,,,,,,,,,,,,,,,,,,,,,,,,,
,,,,,,,,,,stimuli/images/PICTURE_688.png,CLOCK,5de904d8443d0b01db94ff9b,11/04/2000,2020-07-08_16h13.53.609,proactive,2020.1.2,Win32,60,5f035e5afe130c270d6ae6dd,5f05e1d711119c0b6deee632,3,,,,,,runner,,,,,,0,0,0,42,1,5,2,,,,,,,,,,,,,,,,,,,,,,,,,,,,,,,,,,,,,,,,,,,,,,,,,,,,,,,,,,,,,,,,,,,,,,,,,,,
,,,,,,,,,,stimuli/images/PICTURE_93.png,GIRL,5de904d8443d0b01db94ff9b,11/04/2000,2020-07-08_16h13.53.609,proactive,2020.1.2,Win32,60,5f035e5afe130c270d6ae6dd,5f05e1d711119c0b6deee632,3,,,,,,skateboard,,,,,,0,1,1,31,1,4,2,,,,,,,,,,,,,,,,,,,,,,,,,,,,,,,,,,,,,,,,,,,,,,,,,,,,,,,,,,,,,,,,,,,,,,,,,,,
,,,,,,,,,,stimuli/images/PICTURE_297.png,BODY,5de904d8443d0b01db94ff9b,11/04/2000,2020-07-08_16h13.53.609,proactive,2020.1.2,Win32,60,5f035e5afe130c270d6ae6dd,5f05e1d711119c0b6deee632,3,,,,,,aeroplane,,,,,,0,2,2,51,1,6,2,,,,,,,,,,,,,,,,,,,,,,,,,,,,,,,,,,,,,,,,,,,,,,,,,,,,,,,,,,,,,,,,,,,,,,,,,,,
,,,,,,,,,,stimuli/images/PICTURE_470.png,MOMENT,5de904d8443d0b01db94ff9b,11/04/2000,2020-07-08_16h13.53.609,proactive,2020.1.2,Win32,60,5f035e5afe130c270d6ae6dd,5f05e1d711119c0b6deee632,3,,,,,,motorbike,,,,,,0,3,3,40,1,5,2,,,,,,,,,,,,,,,,,,,,,,,,,,,,,,,,,,,,,,,,,,,,,,,,,,,,,,,,,,,,,,,,,,,,,,,,,,,
,,,,,,,,,,stimuli/images/PICTURE_215.png,FOOD,5de904d8443d0b01db94ff9b,11/04/2000,2020-07-08_16h13.53.609,proactive,2020.1.2,Win32,60,5f035e5afe130c270d6ae6dd,5f05e1d711119c0b6deee632,3,,,,,,boot,,,,,,0,4,4,5,1,1,2,,,,,,,,,,,,,,,,,,,,,,,,,,,,,,,,,,,,,,,,,,,,,,,,,,,,,,,,,,,,,,,,,,,,,,,,,,,
,,,,,,,,,,stimuli/images/PICTURE_667.png,GLASS,5de904d8443d0b01db94ff9b,11/04/2000,2020-07-08_16h13.53.609,proactive,2020.1.2,Win32,60,5f035e5afe130c270d6ae6dd,5f05e1d711119c0b6deee632,3,,,,,,daisy,,,,,,0,5,5,27,1,3,2,,,,,,,,,,,,,,,,,,,,,,,,,,,,,,,,,,,,,,,,,,,,,,,,,,,,,,,,,,,,,,,,,,,,,,,,,,,
,,,,,,,,,,stimuli/images/PICTURE_57.png,CASINO,5de904d8443d0b01db94ff9b,11/04/2000,2020-07-08_16h13.53.609,proactive,2020.1.2,Win32,60,5f035e5afe130c270d6ae6dd,5f05e1d711119c0b6deee632,3,,,,,,stamp,,,,,,0,6,6,12,1,2,2,,,,,,,,,,,,,,,,,,,,,,,,,,,,,,,,,,,,,,,,,,,,,,,,,,,,,,,,,,,,,,,,,,,,,,,,,,,
,,,,,,,,,,stimuli/images/PICTURE_2.png,JUNGLE,5de904d8443d0b01db94ff9b,11/04/2000,2020-07-08_16h13.53.609,proactive,2020.1.2,Win32,60,5f035e5afe130c270d6ae6dd,5f05e1d711119c0b6deee632,3,,,,,,tyre,,,,,,0,7,7,1,1,1,2,,,,,,,,,,,,,,,,,,,,,,,,,,,,,,,,,,,,,,,,,,,,,,,,,,,,,,,,,,,,,,,,,,,,,,,,,,,
,,,,,,,,,,stimuli/images/PICTURE_655.png,SALE,5de904d8443d0b01db94ff9b,11/04/2000,2020-07-08_16h13.53.609,proactive,2020.1.2,Win32,60,5f035e5afe130c270d6ae6dd,5f05e1d711119c0b6deee632,3,,,,,,megaphone,,,,,,0,8,8,57,1,6,2,,,,,,,,,,,,,,,,,,,,,,,,,,,,,,,,,,,,,,,,,,,,,,,,,,,,,,,,,,,,,,,,,,,,,,,,,,,
,,,,,,,,,,stimuli/images/PICTURE_405.png,HOUSE,5de904d8443d0b01db94ff9b,11/04/2000,2020-07-08_16h13.53.609,proactive,2020.1.2,Win32,60,5f035e5afe130c270d6ae6dd,5f05e1d711119c0b6deee632,3,,,,,,anchor,,,,,,0,9,9,2,1,1,2,,,,,,,,,,,,,,,,,,,,,,,,,,,,,,,,,,,,,,,,,,,,,,,,,,,,,,,,,,,,,,,,,,,,,,,,,,,
,,,,,,,,,,stimuli/images/PICTURE_32.png,LETTER,5de904d8443d0b01db94ff9b,11/04/2000,2020-07-08_16h13.53.609,proactive,2020.1.2,Win32,60,5f035e5afe130c270d6ae6dd,5f05e1d711119c0b6deee632,3,,,,,,crown,,,,,,0,10,10,56,1,6,2,,,,,,,,,,,,,,,,,,,,,,,,,,,,,,,,,,,,,,,,,,,,,,,,,,,,,,,,,,,,,,,,,,,,,,,,,,,
,,,,,,,,,,stimuli/images/PICTURE_654.png,COPS,5de904d8443d0b01db94ff9b,11/04/2000,2020-07-08_16h13.53.609,proactive,2020.1.2,Win32,60,5f035e5afe130c270d6ae6dd,5f05e1d711119c0b6deee632,3,,,,,,pencil,,,,,,0,11,11,10,1,2,2,,,,,,,,,,,,,,,,,,,,,,,,,,,,,,,,,,,,,,,,,,,,,,,,,,,,,,,,,,,,,,,,,,,,,,,,,,,
,,,,,,,,,,stimuli/images/PICTURE_356.png,CANDY,5de904d8443d0b01db94ff9b,11/04/2000,2020-07-08_16h13.53.609,proactive,2020.1.2,Win32,60,5f035e5afe130c270d6ae6dd,5f05e1d711119c0b6deee632,3,,,,,,pawn,,,,,,0,12,12,46,1,5,2,,,,,,,,,,,,,,,,,,,,,,,,,,,,,,,,,,,,,,,,,,,,,,,,,,,,,,,,,,,,,,,,,,,,,,,,,,,
,,,,,,,,,,stimuli/images/PICTURE_677.png,FAMILY,5de904d8443d0b01db94ff9b,11/04/2000,2020-07-08_16h13.53.609,proactive,2020.1.2,Win32,60,5f035e5afe130c270d6ae6dd,5f05e1d711119c0b6deee632,3,,,,,,map,,,,,,0,13,13,53,1,6,2,,,,,,,,,,,,,,,,,,,,,,,,,,,,,,,,,,,,,,,,,,,,,,,,,,,,,,,,,,,,,,,,,,,,,,,,,,,
,,,,,,,,,,stimuli/images/PICTURE_327.png,LEADER,5de904d8443d0b01db94ff9b,11/04/2000,2020-07-08_16h13.53.609,proactive,2020.1.2,Win32,60,5f035e5afe130c270d6ae6dd,5f05e1d711119c0b6deee632,3,,,,,,helmet,,,,,,0,14,14,17,1,2,2,,,,,,,,,,,,,,,,,,,,,,,,,,,,,,,,,,,,,,,,,,,,,,,,,,,,,,,,,,,,,,,,,,,,,,,,,,,
,,,,,,,,,,stimuli/images/PICTURE_57.png,NATION,5de904d8443d0b01db94ff9b,11/04/2000,2020-07-08_16h13.53.609,proactive,2020.1.2,Win32,60,5f035e5afe130c270d6ae6dd,5f05e1d711119c0b6deee632,3,,,,,,stamp,,,,,,0,15,15,21,1,3,2,,,,,,,,,,,,,,,,,,,,,,,,,,,,,,,,,,,,,,,,,,,,,,,,,,,,,,,,,,,,,,,,,,,,,,,,,,,
,,,,,,,,,,stimuli/images/PICTURE_470.png,BEAUTY,5de904d8443d0b01db94ff9b,11/04/2000,2020-07-08_16h13.53.609,proactive,2020.1.2,Win32,60,5f035e5afe130c270d6ae6dd,5f05e1d711119c0b6deee632,3,,,,,,motorbike,,,,,,0,16,16,26,1,3,2,,,,,,,,,,,,,,,,,,,,,,,,,,,,,,,,,,,,,,,,,,,,,,,,,,,,,,,,,,,,,,,,,,,,,,,,,,,
,,,,,,,,,,stimuli/images/PICTURE_311.png,FLESH,5de904d8443d0b01db94ff9b,11/04/2000,2020-07-08_16h13.53.609,proactive,2020.1.2,Win32,60,5f035e5afe130c270d6ae6dd,5f05e1d711119c0b6deee632,3,,,,,,razor,,,,,,0,17,17,3,1,1,2,,,,,,,,,,,,,,,,,,,,,,,,,,,,,,,,,,,,,,,,,,,,,,,,,,,,,,,,,,,,,,,,,,,,,,,,,,,
,,,,,,,,,,stimuli/images/PICTURE_285.png,WRITER,5de904d8443d0b01db94ff9b,11/04/2000,2020-07-08_16h13.53.609,proactive,2020.1.2,Win32,60,5f035e5afe130c270d6ae6dd,5f05e1d711119c0b6deee632,3,,,,,,carrot,,,,,,0,18,18,6,1,1,2,,,,,,,,,,,,,,,,,,,,,,,,,,,,,,,,,,,,,,,,,,,,,,,,,,,,,,,,,,,,,,,,,,,,,,,,,,,
,,,,,,,,,,stimuli/images/PICTURE_296.png,CLOCK,5de904d8443d0b01db94ff9b,11/04/2000,2020-07-08_16h13.53.609,proactive,2020.1.2,Win32,60,5f035e5afe130c270d6ae6dd,5f05e1d711119c0b6deee632,3,,,,,,bolt,,,,,,0,19,19,18,1,2,2,,,,,,,,,,,,,,,,,,,,,,,,,,,,,,,,,,,,,,,,,,,,,,,,,,,,,,,,,,,,,,,,,,,,,,,,,,,
,,,,,,,,,,stimuli/images/PICTURE_509.png,MILLER,5de904d8443d0b01db94ff9b,11/04/2000,2020-07-08_16h13.53.609,proactive,2020.1.2,Win32,60,5f035e5afe130c270d6ae6dd,5f05e1d711119c0b6deee632,3,,,,,,telephone,,,,,,0,20,20,49,1,5,2,,,,,,,,,,,,,,,,,,,,,,,,,,,,,,,,,,,,,,,,,,,,,,,,,,,,,,,,,,,,,,,,,,,,,,,,,,,
,,,,,,,,,,stimuli/images/PICTURE_487.png,POLICY,5de904d8443d0b01db94ff9b,11/04/2000,2020-07-08_16h13.53.609,proactive,2020.1.2,Win32,60,5f035e5afe130c270d6ae6dd,5f05e1d711119c0b6deee632,3,,,,,,basket,,,,,,0,21,21,34,1,4,2,,,,,,,,,,,,,,,,,,,,,,,,,,,,,,,,,,,,,,,,,,,,,,,,,,,,,,,,,,,,,,,,,,,,,,,,,,,
,,,,,,,,,,stimuli/images/PICTURE_33.png,COPS,5de904d8443d0b01db94ff9b,11/04/2000,2020-07-08_16h13.53.609,proactive,2020.1.2,Win32,60,5f035e5afe130c270d6ae6dd,5f05e1d711119c0b6deee632,3,,,,,,frame,,,,,,0,22,22,29,1,3,2,,,,,,,,,,,,,,,,,,,,,,,,,,,,,,,,,,,,,,,,,,,,,,,,,,,,,,,,,,,,,,,,,,,,,,,,,,,
,,,,,,,,,,stimuli/images/PICTURE_487.png,ROOF,5de904d8443d0b01db94ff9b,11/04/2000,2020-07-08_16h13.53.609,proactive,2020.1.2,Win32,60,5f035e5afe130c270d6ae6dd,5f05e1d711119c0b6deee632,3,,,,,,basket,,,,,,0,23,23,50,1,6,2,,,,,,,,,,,,,,,,,,,,,,,,,,,,,,,,,,,,,,,,,,,,,,,,,,,,,,,,,,,,,,,,,,,,,,,,,,,
,,,,,,,,,,stimuli/images/PICTURE_453.png,FAMILY,5de904d8443d0b01db94ff9b,11/04/2000,2020-07-08_16h13.53.609,proactive,2020.1.2,Win32,60,5f035e5afe130c270d6ae6dd,5f05e1d711119c0b6deee632,3,,,,,,scissors,,,,,,0,24,24,48,1,5,2,,,,,,,,,,,,,,,,,,,,,,,,,,,,,,,,,,,,,,,,,,,,,,,,,,,,,,,,,,,,,,,,,,,,,,,,,,,
,,,,,,,,,,stimuli/images/PICTURE_692.png,DUDE,5de904d8443d0b01db94ff9b,11/04/2000,2020-07-08_16h13.53.609,proactive,2020.1.2,Win32,60,5f035e5afe130c270d6ae6dd,5f05e1d711119c0b6deee632,3,,,,,,cherry,,,,,,0,25,25,47,1,5,2,,,,,,,,,,,,,,,,,,,,,,,,,,,,,,,,,,,,,,,,,,,,,,,,,,,,,,,,,,,,,,,,,,,,,,,,,,,
,,,,,,,,,,stimuli/images/PICTURE_314.png,SPEECH,5de904d8443d0b01db94ff9b,11/04/2000,2020-07-08_16h13.53.609,proactive,2020.1.2,Win32,60,5f035e5afe130c270d6ae6dd,5f05e1d711119c0b6deee632,3,,,,,,perfume,,,,,,0,26,26,35,1,4,2,,,,,,,,,,,,,,,,,,,,,,,,,,,,,,,,,,,,,,,,,,,,,,,,,,,,,,,,,,,,,,,,,,,,,,,,,,,
,,,,,,,,,,stimuli/images/PICTURE_677.png,PHOTO,5de904d8443d0b01db94ff9b,11/04/2000,2020-07-08_16h13.53.609,proactive,2020.1.2,Win32,60,5f035e5afe130c270d6ae6dd,5f05e1d711119c0b6deee632,3,,,,,,map,,,,,,0,27,27,14,1,2,2,,,,,,,,,,,,,,,,,,,,,,,,,,,,,,,,,,,,,,,,,,,,,,,,,,,,,,,,,,,,,,,,,,,,,,,,,,,
,,,,,,,,,,stimuli/images/PICTURE_509.png,BATH,5de904d8443d0b01db94ff9b,11/04/2000,2020-07-08_16h13.53.609,proactive,2020.1.2,Win32,60,5f035e5afe130c270d6ae6dd,5f05e1d711119c0b6deee632,3,,,,,,telephone,,,,,,0,28,28,15,1,2,2,,,,,,,,,,,,,,,,,,,,,,,,,,,,,,,,,,,,,,,,,,,,,,,,,,,,,,,,,,,,,,,,,,,,,,,,,,,
,,,,,,,,,,stimuli/images/PICTURE_215.png,BOYS,5de904d8443d0b01db94ff9b,11/04/2000,2020-07-08_16h13.53.609,proactive,2020.1.2,Win32,60,5f035e5afe130c270d6ae6dd,5f05e1d711119c0b6deee632,3,,,,,,boot,,,,,,0,29,29,24,1,3,2,,,,,,,,,,,,,,,,,,,,,,,,,,,,,,,,,,,,,,,,,,,,,,,,,,,,,,,,,,,,,,,,,,,,,,,,,,,
,,,,,,,,,,stimuli/images/PICTURE_405.png,JUNGLE,5de904d8443d0b01db94ff9b,11/04/2000,2020-07-08_16h13.53.609,proactive,2020.1.2,Win32,60,5f035e5afe130c270d6ae6dd,5f05e1d711119c0b6deee632,3,,,,,,anchor,,,,,,0,30,30,58,1,6,2,,,,,,,,,,,,,,,,,,,,,,,,,,,,,,,,,,,,,,,,,,,,,,,,,,,,,,,,,,,,,,,,,,,,,,,,,,,
,,,,,,,,,,stimuli/images/PICTURE_57.png,CANDY,5de904d8443d0b01db94ff9b,11/04/2000,2020-07-08_16h13.53.609,proactive,2020.1.2,Win32,60,5f035e5afe130c270d6ae6dd,5f05e1d711119c0b6deee632,3,,,,,,stamp,,,,,,0,31,31,52,1,6,2,,,,,,,,,,,,,,,,,,,,,,,,,,,,,,,,,,,,,,,,,,,,,,,,,,,,,,,,,,,,,,,,,,,,,,,,,,,
,,,,,,,,,,stimuli/images/PICTURE_564.png,PLENTY,5de904d8443d0b01db94ff9b,11/04/2000,2020-07-08_16h13.53.609,proactive,2020.1.2,Win32,60,5f035e5afe130c270d6ae6dd,5f05e1d711119c0b6deee632,3,,,,,,spoon,,,,,,0,32,32,11,1,2,2,,,,,,,,,,,,,,,,,,,,,,,,,,,,,,,,,,,,,,,,,,,,,,,,,,,,,,,,,,,,,,,,,,,,,,,,,,,
,,,,,,,,,,stimuli/images/PICTURE_348.png,DUDE,5de904d8443d0b01db94ff9b,11/04/2000,2020-07-08_16h13.53.609,proactive,2020.1.2,Win32,60,5f035e5afe130c270d6ae6dd,5f05e1d711119c0b6deee632,3,,,,,,pepper,,,,,,0,33,33,59,1,6,2,,,,,,,,,,,,,,,,,,,,,,,,,,,,,,,,,,,,,,,,,,,,,,,,,,,,,,,,,,,,,,,,,,,,,,,,,,,
,,,,,,,,,,stimuli/images/PICTURE_403.png,FAMILY,5de904d8443d0b01db94ff9b,11/04/2000,2020-07-08_16h13.53.609,proactive,2020.1.2,Win32,60,5f035e5afe130c270d6ae6dd,5f05e1d711119c0b6deee632,3,,,,,,cathedral,,,,,,0,34,34,9,1,1,2,,,,,,,,,,,,,,,,,,,,,,,,,,,,,,,,,,,,,,,,,,,,,,,,,,,,,,,,,,,,,,,,,,,,,,,,,,,
,,,,,,,,,,stimuli/images/PICTURE_2.png,AREA,5de904d8443d0b01db94ff9b,11/04/2000,2020-07-08_16h13.53.609,proactive,2020.1.2,Win32,60,5f035e5afe130c270d6ae6dd,5f05e1d711119c0b6deee632,3,,,,,,tyre,,,,,,0,35,35,32,1,4,2,,,,,,,,,,,,,,,,,,,,,,,,,,,,,,,,,,,,,,,,,,,,,,,,,,,,,,,,,,,,,,,,,,,,,,,,,,,
,,,,,,,,,,stimuli/images/PICTURE_95.png,NIGHT,5de904d8443d0b01db94ff9b,11/04/2000,2020-07-08_16h13.53.609,proactive,2020.1.2,Win32,60,5f035e5afe130c270d6ae6dd,5f05e1d711119c0b6deee632,3,,,,,,suitcase,,,,,,0,36,36,37,1,4,2,,,,,,,,,,,,,,,,,,,,,,,,,,,,,,,,,,,,,,,,,,,,,,,,,,,,,,,,,,,,,,,,,,,,,,,,,,,
,,,,,,,,,,stimuli/images/PICTURE_2.png,YARD,5de904d8443d0b01db94ff9b,11/04/2000,2020-07-08_16h13.53.609,proactive,2020.1.2,Win32,60,5f035e5afe130c270d6ae6dd,5f05e1d711119c0b6deee632,3,,,,,,tyre,,,,,,0,37,37,55,1,6,2,,,,,,,,,,,,,,,,,,,,,,,,,,,,,,,,,,,,,,,,,,,,,,,,,,,,,,,,,,,,,,,,,,,,,,,,,,,
,,,,,,,,,,stimuli/images/PICTURE_348.png,TOILET,5de904d8443d0b01db94ff9b,11/04/2000,2020-07-08_16h13.53.609,proactive,2020.1.2,Win32,60,5f035e5afe130c270d6ae6dd,5f05e1d711119c0b6deee632,3,,,,,,pepper,,,,,,0,38,38,4,1,1,2,,,,,,,,,,,,,,,,,,,,,,,,,,,,,,,,,,,,,,,,,,,,,,,,,,,,,,,,,,,,,,,,,,,,,,,,,,,
,,,,,,,,,,stimuli/images/PICTURE_311.png,TOILET,5de904d8443d0b01db94ff9b,11/04/2000,2020-07-08_16h13.53.609,proactive,2020.1.2,Win32,60,5f035e5afe130c270d6ae6dd,5f05e1d711119c0b6deee632,3,,,,,,razor,,,,,,0,39,39,54,1,6,2,,,,,,,,,,,,,,,,,,,,,,,,,,,,,,,,,,,,,,,,,,,,,,,,,,,,,,,,,,,,,,,,,,,,,,,,,,,
,,,,,,,,,,stimuli/images/PICTURE_18.png,RIVER,5de904d8443d0b01db94ff9b,11/04/2000,2020-07-08_16h13.53.609,proactive,2020.1.2,Win32,60,5f035e5afe130c270d6ae6dd,5f05e1d711119c0b6deee632,3,,,,,,planet,,,,,,0,40,40,22,1,3,2,,,,,,,,,,,,,,,,,,,,,,,,,,,,,,,,,,,,,,,,,,,,,,,,,,,,,,,,,,,,,,,,,,,,,,,,,,,
,,,,,,,,,,stimuli/images/PICTURE_215.png,LEADER,5de904d8443d0b01db94ff9b,11/04/2000,2020-07-08_16h13.53.609,proactive,2020.1.2,Win32,60,5f035e5afe130c270d6ae6dd,5f05e1d711119c0b6deee632,3,,,,,,boot,,,,,,0,41,41,43,1,5,2,,,,,,,,,,,,,,,,,,,,,,,,,,,,,,,,,,,,,,,,,,,,,,,,,,,,,,,,,,,,,,,,,,,,,,,,,,,
,,,,,,,,,,stimuli/images/PICTURE_141.png,CLIENT,5de904d8443d0b01db94ff9b,11/04/2000,2020-07-08_16h13.53.609,proactive,2020.1.2,Win32,60,5f035e5afe130c270d6ae6dd,5f05e1d711119c0b6deee632,3,,,,,,sunflower,,,,,,0,42,42,30,1,4,2,,,,,,,,,,,,,,,,,,,,,,,,,,,,,,,,,,,,,,,,,,,,,,,,,,,,,,,,,,,,,,,,,,,,,,,,,,,
,,,,,,,,,,stimuli/images/PICTURE_509.png,SHOTS,5de904d8443d0b01db94ff9b,11/04/2000,2020-07-08_16h13.53.609,proactive,2020.1.2,Win32,60,5f035e5afe130c270d6ae6dd,5f05e1d711119c0b6deee632,3,,,,,,telephone,,,,,,0,43,43,7,1,1,2,,,,,,,,,,,,,,,,,,,,,,,,,,,,,,,,,,,,,,,,,,,,,,,,,,,,,,,,,,,,,,,,,,,,,,,,,,,
,,,,,,,,,,stimuli/images/PICTURE_255.png,PENNY,5de904d8443d0b01db94ff9b,11/04/2000,2020-07-08_16h13.53.609,proactive,2020.1.2,Win32,60,5f035e5afe130c270d6ae6dd,5f05e1d711119c0b6deee632,3,,,,,,shovel,,,,,,0,44,44,19,1,2,2,,,,,,,,,,,,,,,,,,,,,,,,,,,,,,,,,,,,,,,,,,,,,,,,,,,,,,,,,,,,,,,,,,,,,,,,,,,
,,,,,,,,,,stimuli/images/PICTURE_68.png,KIND,5de904d8443d0b01db94ff9b,11/04/2000,2020-07-08_16h13.53.609,proactive,2020.1.2,Win32,60,5f035e5afe130c270d6ae6dd,5f05e1d711119c0b6deee632,3,,,,,,candle,,,,,,0,45,45,23,1,3,2,,,,,,,,,,,,,,,,,,,,,,,,,,,,,,,,,,,,,,,,,,,,,,,,,,,,,,,,,,,,,,,,,,,,,,,,,,,
,,,,,,,,,,stimuli/images/PICTURE_452.png,COPS,5de904d8443d0b01db94ff9b,11/04/2000,2020-07-08_16h13.53.609,proactive,2020.1.2,Win32,60,5f035e5afe130c270d6ae6dd,5f05e1d711119c0b6deee632,3,,,,,,watch,,,,,,0,46,46,0,1,1,2,,,,,,,,,,,,,,,,,,,,,,,,,,,,,,,,,,,,,,,,,,,,,,,,,,,,,,,,,,,,,,,,,,,,,,,,,,,
,,,,,,,,,,stimuli/images/PICTURE_654.png,YEAR,5de904d8443d0b01db94ff9b,11/04/2000,2020-07-08_16h13.53.609,proactive,2020.1.2,Win32,60,5f035e5afe130c270d6ae6dd,5f05e1d711119c0b6deee632,3,,,,,,pencil,,,,,,0,47,47,41,1,5,2,,,,,,,,,,,,,,,,,,,,,,,,,,,,,,,,,,,,,,,,,,,,,,,,,,,,,,,,,,,,,,,,,,,,,,,,,,,
,,,,,,,,,,stimuli/images/PICTURE_504.png,HOUSE,5de904d8443d0b01db94ff9b,11/04/2000,2020-07-08_16h13.53.609,proactive,2020.1.2,Win32,60,5f035e5afe130c270d6ae6dd,5f05e1d711119c0b6deee632,3,,,,,,wheel,,,,,,0,48,48,36,1,4,2,,,,,,,,,,,,,,,,,,,,,,,,,,,,,,,,,,,,,,,,,,,,,,,,,,,,,,,,,,,,,,,,,,,,,,,,,,,
,,,,,,,,,,stimuli/images/PICTURE_123.png,SALE,5de904d8443d0b01db94ff9b,11/04/2000,2020-07-08_16h13.53.609,proactive,2020.1.2,Win32,60,5f035e5afe130c270d6ae6dd,5f05e1d711119c0b6deee632,3,,,,,,dart,,,,,,0,49,49,8,1,1,2,,,,,,,,,,,,,,,,,,,,,,,,,,,,,,,,,,,,,,,,,,,,,,,,,,,,,,,,,,,,,,,,,,,,,,,,,,,
,,,,,,,,,,stimuli/images/PICTURE_509.png,APPLE,5de904d8443d0b01db94ff9b,11/04/2000,2020-07-08_16h13.53.609,proactive,2020.1.2,Win32,60,5f035e5afe130c270d6ae6dd,5f05e1d711119c0b6deee632,3,,,,,,telephone,,,,,,0,50,50,38,1,4,2,,,,,,,,,,,,,,,,,,,,,,,,,,,,,,,,,,,,,,,,,,,,,,,,,,,,,,,,,,,,,,,,,,,,,,,,,,,
,,,,,,,,,,stimuli/images/PICTURE_285.png,PRINCE,5de904d8443d0b01db94ff9b,11/04/2000,2020-07-08_16h13.53.609,proactive,2020.1.2,Win32,60,5f035e5afe130c270d6ae6dd,5f05e1d711119c0b6deee632,3,,,,,,carrot,,,,,,0,51,51,20,1,3,2,,,,,,,,,,,,,,,,,,,,,,,,,,,,,,,,,,,,,,,,,,,,,,,,,,,,,,,,,,,,,,,,,,,,,,,,,,,
,,,,,,,,,,stimuli/images/PICTURE_491.png,SERIES,5de904d8443d0b01db94ff9b,11/04/2000,2020-07-08_16h13.53.609,proactive,2020.1.2,Win32,60,5f035e5afe130c270d6ae6dd,5f05e1d711119c0b6deee632,3,,,,,,rug,,,,,,0,52,52,39,1,4,2,,,,,,,,,,,,,,,,,,,,,,,,,,,,,,,,,,,,,,,,,,,,,,,,,,,,,,,,,,,,,,,,,,,,,,,,,,,
,,,,,,,,,,stimuli/images/PICTURE_160.png,HOTEL,5de904d8443d0b01db94ff9b,11/04/2000,2020-07-08_16h13.53.609,proactive,2020.1.2,Win32,60,5f035e5afe130c270d6ae6dd,5f05e1d711119c0b6deee632,3,,,,,,wheelbarrow,,,,,,0,53,53,16,1,2,2,,,,,,,,,,,,,,,,,,,,,,,,,,,,,,,,,,,,,,,,,,,,,,,,,,,,,,,,,,,,,,,,,,,,,,,,,,,
,,,,,,,,,,stimuli/images/PICTURE_750.png,POLICY,5de904d8443d0b01db94ff9b,11/04/2000,2020-07-08_16h13.53.609,proactive,2020.1.2,Win32,60,5f035e5afe130c270d6ae6dd,5f05e1d711119c0b6deee632,3,,,,,,kettle,,,,,,0,54,54,44,1,5,2,,,,,,,,,,,,,,,,,,,,,,,,,,,,,,,,,,,,,,,,,,,,,,,,,,,,,,,,,,,,,,,,,,,,,,,,,,,
,,,,,,,,,,stimuli/images/PICTURE_405.png,JUNGLE,5de904d8443d0b01db94ff9b,11/04/2000,2020-07-08_16h13.53.609,proactive,2020.1.2,Win32,60,5f035e5afe130c270d6ae6dd,5f05e1d711119c0b6deee632,3,,,,,,anchor,,,,,,0,55,55,13,1,2,2,,,,,,,,,,,,,,,,,,,,,,,,,,,,,,,,,,,,,,,,,,,,,,,,,,,,,,,,,,,,,,,,,,,,,,,,,,,
,,,,,,,,,,stimuli/images/PICTURE_147.png,LEADER,5de904d8443d0b01db94ff9b,11/04/2000,2020-07-08_16h13.53.609,proactive,2020.1.2,Win32,60,5f035e5afe130c270d6ae6dd,5f05e1d711119c0b6deee632,3,,,,,,hanger,,,,,,0,56,56,33,1,4,2,,,,,,,,,,,,,,,,,,,,,,,,,,,,,,,,,,,,,,,,,,,,,,,,,,,,,,,,,,,,,,,,,,,,,,,,,,,
,,,,,,,,,,stimuli/images/PICTURE_708.png,VALLEY,5de904d8443d0b01db94ff9b,11/04/2000,2020-07-08_16h13.53.609,proactive,2020.1.2,Win32,60,5f035e5afe130c270d6ae6dd,5f05e1d711119c0b6deee632,3,,,,,,monkey,,,,,,0,57,57,45,1,5,2,,,,,,,,,,,,,,,,,,,,,,,,,,,,,,,,,,,,,,,,,,,,,,,,,,,,,,,,,,,,,,,,,,,,,,,,,,,
,,,,,,,,,,stimuli/images/PICTURE_208.png,SPIRIT,5de904d8443d0b01db94ff9b,11/04/2000,2020-07-08_16h13.53.609,proactive,2020.1.2,Win32,60,5f035e5afe130c270d6ae6dd,5f05e1d711119c0b6deee632,3,,,,,,microphone,,,,,,0,58,58,28,1,3,2,,,,,,,,,,,,,,,,,,,,,,,,,,,,,,,,,,,,,,,,,,,,,,,,,,,,,,,,,,,,,,,,,,,,,,,,,,,
,,?,0.002,0,,,,,,stimuli/images/PICTURE_677.png,PHOTO,5de904d8443d0b01db94ff9b,11/04/2000,2020-07-08_16h13.53.609,proactive,2020.1.2,Win32,60,5f035e5afe130c270d6ae6dd,5f05e1d711119c0b6deee632,3,,,,,,map,,,,,,,,,,,2,2,0,0,0,14,1,,,,,,,,,,,,,,,,,,,,,,,,,,,,,,,,,,,,,,,,,,,,,,,,,,,,,,,,,,,,,,,,,,,,,,
,,?,0.002,0,,,,,,stimuli/images/PICTURE_57.png,CASINO,5de904d8443d0b01db94ff9b,11/04/2000,2020-07-08_16h13.53.609,proactive,2020.1.2,Win32,60,5f035e5afe130c270d6ae6dd,5f05e1d711119c0b6deee632,3,,,,,,stamp,,,,,,,,,,,2,2,0,1,1,12,1,,,,,,,,,,,,,,,,,,,,,,,,,,,,,,,,,,,,,,,,,,,,,,,,,,,,,,,,,,,,,,,,,,,,,,
,,?,0.002,0,,,,,,stimuli/images/PICTURE_708.png,VALLEY,5de904d8443d0b01db94ff9b,11/04/2000,2020-07-08_16h13.53.609,proactive,2020.1.2,Win32,60,5f035e5afe130c270d6ae6dd,5f05e1d711119c0b6deee632,3,,,,,,monkey,,,,,,,,,,,5,2,0,2,2,45,1,,,,,,,,,,,,,,,,,,,,,,,,,,,,,,,,,,,,,,,,,,,,,,,,,,,,,,,,,,,,,,,,,,,,,,
,,?,0.001,0,,,,,,stimuli/images/PICTURE_654.png,COPS,5de904d8443d0b01db94ff9b,11/04/2000,2020-07-08_16h13.53.609,proactive,2020.1.2,Win32,60,5f035e5afe130c270d6ae6dd,5f05e1d711119c0b6deee632,3,,,,,,pencil,,,,,,,,,,,2,2,0,3,3,10,1,,,,,,,,,,,,,,,,,,,,,,,,,,,,,,,,,,,,,,,,,,,,,,,,,,,,,,,,,,,,,,,,,,,,,,
,,?,0,0,,,,,,stimuli/images/PICTURE_405.png,HOUSE,5de904d8443d0b01db94ff9b,11/04/2000,2020-07-08_16h13.53.609,proactive,2020.1.2,Win32,60,5f035e5afe130c270d6ae6dd,5f05e1d711119c0b6deee632,3,,,,,,anchor,,,,,,,,,,,1,2,0,4,4,2,1,,,,,,,,,,,,,,,,,,,,,,,,,,,,,,,,,,,,,,,,,,,,,,,,,,,,,,,,,,,,,,,,,,,,,,
,,?,10.001,0,,,,,,stimuli/images/PICTURE_57.png,NATION,5de904d8443d0b01db94ff9b,11/04/2000,2020-07-08_16h13.53.609,proactive,2020.1.2,Win32,60,5f035e5afe130c270d6ae6dd,5f05e1d711119c0b6deee632,3,,,,,,stamp,,,,,,,,,,,3,2,0,5,5,21,1,,,,,,,,,,,,,,,,,,,,,,,,,,,,,,,,,,,,,,,,,,,,,,,,,,,,,,,,,,,,,,,,,,,,,,
,,?,10.016,0,,,,,,stimuli/images/PICTURE_215.png,BOYS,5de904d8443d0b01db94ff9b,11/04/2000,2020-07-08_16h13.53.609,proactive,2020.1.2,Win32,60,5f035e5afe130c270d6ae6dd,5f05e1d711119c0b6deee632,3,,,,,,boot,,,,,,,,,,,3,2,0,6,6,24,1,,,,,,,,,,,,,,,,,,,,,,,,,,,,,,,,,,,,,,,,,,,,,,,,,,,,,,,,,,,,,,,,,,,,,,
,,?,0.002,0,,,,,,stimuli/images/PICTURE_509.png,APPLE,5de904d8443d0b01db94ff9b,11/04/2000,2020-07-08_16h13.53.609,proactive,2020.1.2,Win32,60,5f035e5afe130c270d6ae6dd,5f05e1d711119c0b6deee632,3,,,,,,telephone,,,,,,,,,,,4,2,0,7,7,38,1,,,,,,,,,,,,,,,,,,,,,,,,,,,,,,,,,,,,,,,,,,,,,,,,,,,,,,,,,,,,,,,,,,,,,,
,,?,0,0,,,,,,stimuli/images/PICTURE_147.png,LEADER,5de904d8443d0b01db94ff9b,11/04/2000,2020-07-08_16h13.53.609,proactive,2020.1.2,Win32,60,5f035e5afe130c270d6ae6dd,5f05e1d711119c0b6deee632,3,,,,,,hanger,,,,,,,,,,,4,2,0,8,8,33,1,,,,,,,,,,,,,,,,,,,,,,,,,,,,,,,,,,,,,,,,,,,,,,,,,,,,,,,,,,,,,,,,,,,,,,
,,?,10.012,0,,,,,,stimuli/images/PICTURE_470.png,BEAUTY,5de904d8443d0b01db94ff9b,11/04/2000,2020-07-08_16h13.53.609,proactive,2020.1.2,Win32,60,5f035e5afe130c270d6ae6dd,5f05e1d711119c0b6deee632,3,,,,,,motorbike,,,,,,,,,,,3,2,0,9,9,26,1,,,,,,,,,,,,,,,,,,,,,,,,,,,,,,,,,,,,,,,,,,,,,,,,,,,,,,,,,,,,,,,,,,,,,,
,,?,10.016,0,,,,,,stimuli/images/PICTURE_667.png,GLASS,5de904d8443d0b01db94ff9b,11/04/2000,2020-07-08_16h13.53.609,proactive,2020.1.2,Win32,60,5f035e5afe130c270d6ae6dd,5f05e1d711119c0b6deee632,3,,,,,,daisy,,,,,,,,,,,3,2,0,10,10,27,1,,,,,,,,,,,,,,,,,,,,,,,,,,,,,,,,,,,,,,,,,,,,,,,,,,,,,,,,,,,,,,,,,,,,,,
,,?,0.001,0,,,,,,stimuli/images/PICTURE_509.png,BATH,5de904d8443d0b01db94ff9b,11/04/2000,2020-07-08_16h13.53.609,proactive,2020.1.2,Win32,60,5f035e5afe130c270d6ae6dd,5f05e1d711119c0b6deee632,3,,,,,,telephone,,,,,,,,,,,2,2,0,11,11,15,1,,,,,,,,,,,,,,,,,,,,,,,,,,,,,,,,,,,,,,,,,,,,,,,,,,,,,,,,,,,,,,,,,,,,,,
,,?,0.001,0,,,,,,stimuli/images/PICTURE_750.png,POLICY,5de904d8443d0b01db94ff9b,11/04/2000,2020-07-08_16h13.53.609,proactive,2020.1.2,Win32,60,5f035e5afe130c270d6ae6dd,5f05e1d711119c0b6deee632,3,,,,,,kettle,,,,,,,,,,,5,2,0,12,12,44,1,,,,,,,,,,,,,,,,,,,,,,,,,,,,,,,,,,,,,,,,,,,,,,,,,,,,,,,,,,,,,,,,,,,,,,
,,?,0.001,0,,,,,,stimuli/images/PICTURE_487.png,POLICY,5de904d8443d0b01db94ff9b,11/04/2000,2020-07-08_16h13.53.609,proactive,2020.1.2,Win32,60,5f035e5afe130c270d6ae6dd,5f05e1d711119c0b6deee632,3,,,,,,basket,,,,,,,,,,,4,2,0,13,13,34,1,,,,,,,,,,,,,,,,,,,,,,,,,,,,,,,,,,,,,,,,,,,,,,,,,,,,,,,,,,,,,,,,,,,,,,
,,?,0,0,,,,,,stimuli/images/PICTURE_356.png,CANDY,5de904d8443d0b01db94ff9b,11/04/2000,2020-07-08_16h13.53.609,proactive,2020.1.2,Win32,60,5f035e5afe130c270d6ae6dd,5f05e1d711119c0b6deee632,3,,,,,,pawn,,,,,,,,,,,5,2,0,14,14,46,1,,,,,,,,,,,,,,,,,,,,,,,,,,,,,,,,,,,,,,,,,,,,,,,,,,,,,,,,,,,,,,,,,,,,,,
,,?,0,0,,,,,,stimuli/images/PICTURE_95.png,NIGHT,5de904d8443d0b01db94ff9b,11/04/2000,2020-07-08_16h13.53.609,proactive,2020.1.2,Win32,60,5f035e5afe130c270d6ae6dd,5f05e1d711119c0b6deee632,3,,,,,,suitcase,,,,,,,,,,,4,2,0,15,15,37,1,,,,,,,,,,,,,,,,,,,,,,,,,,,,,,,,,,,,,,,,,,,,,,,,,,,,,,,,,,,,,,,,,,,,,,
,,?,0.001,0,,,,,,stimuli/images/PICTURE_654.png,YEAR,5de904d8443d0b01db94ff9b,11/04/2000,2020-07-08_16h13.53.609,proactive,2020.1.2,Win32,60,5f035e5afe130c270d6ae6dd,5f05e1d711119c0b6deee632,3,,,,,,pencil,,,,,,,,,,,5,2,0,16,16,41,1,,,,,,,,,,,,,,,,,,,,,,,,,,,,,,,,,,,,,,,,,,,,,,,,,,,,,,,,,,,,,,,,,,,,,,
,,?,0.001,0,,,,,,stimuli/images/PICTURE_215.png,FOOD,5de904d8443d0b01db94ff9b,11/04/2000,2020-07-08_16h13.53.609,proactive,2020.1.2,Win32,60,5f035e5afe130c270d6ae6dd,5f05e1d711119c0b6deee632,3,,,,,,boot,,,,,,,,,,,1,2,0,17,17,5,1,,,,,,,,,,,,,,,,,,,,,,,,,,,,,,,,,,,,,,,,,,,,,,,,,,,,,,,,,,,,,,,,,,,,,,
,,?,0.001,0,,,,,,stimuli/images/PICTURE_311.png,FLESH,5de904d8443d0b01db94ff9b,11/04/2000,2020-07-08_16h13.53.609,proactive,2020.1.2,Win32,60,5f035e5afe130c270d6ae6dd,5f05e1d711119c0b6deee632,3,,,,,,razor,,,,,,,,,,,1,2,0,18,18,3,1,,,,,,,,,,,,,,,,,,,,,,,,,,,,,,,,,,,,,,,,,,,,,,,,,,,,,,,,,,,,,,,,,,,,,,
