consent_key.keys,consent_key.rt,recalled,recalled_rt,recall_acc,example_recall.thisRepN,example_recall.thisTrialN,example_recall.thisN,example_recall.thisIndex,example_recall.ran,file,word,participant,please enter your date of birth (dd/mm/yyyy),date,expName,psychopyVersion,OS,frameRate,STUDY_ID,SESSION_ID,list,prac_learn_study_loop.thisRepN,prac_learn_study_loop.thisTrialN,prac_learn_study_loop.thisN,prac_learn_study_loop.thisIndex,prac_learn_study_loop.ran,image,prac_learn_test_loop.thisRepN,prac_learn_test_loop.thisTrialN,prac_learn_test_loop.thisN,prac_learn_test_loop.thisIndex,prac_learn_test_loop.ran,learn_study_loop.thisRepN,learn_study_loop.thisTrialN,learn_study_loop.thisN,learn_study_loop.thisIndex,learn_study_loop.ran,list_no,block_no,learn_test_loop.thisRepN,learn_test_loop.thisTrialN,learn_test_loop.thisN,learn_test_loop.thisIndex,learn_test_loop.ran,learn_blocks.thisRepN,learn_blocks.thisTrialN,learn_blocks.thisN,learn_blocks.thisIndex,learn_blocks.ran,block_csv,key_resp_13.keys,key_resp_13.rt,learn_blocks_loop.thisRepN,learn_blocks_loop.thisTrialN,learn_blocks_loop.thisN,learn_blocks_loop.thisIndex,learn_blocks_loop.ran,final_learn_test.thisRepN,final_learn_test.thisTrialN,final_learn_test.thisN,final_learn_test.thisIndex,final_learn_test.ran,prac_wm_test_loop.thisRepN,prac_wm_test_loop.thisTrialN,prac_wm_test_loop.thisN,prac_wm_test_loop.thisIndex,prac_wm_test_loop.ran,wm_recalled1,wm_recall_rt1,wm_probed1,wm_recall_acc1,wm_recalled2,wm_recall_rt2,wm_probed2,wm_recall_acc2,wm_recalled3,wm_recall_rt3,wm_probed3,wm_recall_acc3,wm_recalled4,wm_recall_rt4,wm_probed4,wm_recall_acc4,prac_wm_trial_loop.thisRepN,prac_wm_trial_loop.thisTrialN,prac_wm_trial_loop.thisN,prac_wm_trial_loop.thisIndex,prac_wm_trial_loop.ran,word1,image1,file1,item_type1,word2,image2,file2,item_type2,word4,image4,file4,item_type4,word3,image3,file3,item_type3,wm_test_loop.thisRepN,wm_test_loop.thisTrialN,wm_test_loop.thisN,wm_test_loop.thisIndex,wm_test_loop.ran,wm_trial_loop.thisRepN,wm_trial_loop.thisTrialN,wm_trial_loop.thisN,wm_trial_loop.thisIndex,wm_trial_loop.ran
y,31.62762,TOUGH,15.001715,1,0,0,0,0,1,stimuli/images/PICTURE_747.png,TOUGH,5ded9996838b4f45b83bb3f9,14/11/1952,2020-07-09_13h02.33.042,proactive,2020.1.2,Win32,60,5f073de81c76c3308c0e4fb3,5f077792b667ed383946fe94,3,,,,,,,,,,,,,,,,,,,,,,,,,,,,,,,,,,,,,,,,,,,,,,,,,,,,,,,,,,,,,,,,,,,,,,,,,,,,,,,,,,,,,,,,,,,,,
,,,,,,,,,,stimuli/images/PICTURE_269.png,GENIUS,5ded9996838b4f45b83bb3f9,14/11/1952,2020-07-09_13h02.33.042,proactive,2020.1.2,Win32,60,5f073de81c76c3308c0e4fb3,5f077792b667ed383946fe94,3,0,0,0,0,1,chameleon,,,,,,,,,,,,,,,,,,,,,,,,,,,,,,,,,,,,,,,,,,,,,,,,,,,,,,,,,,,,,,,,,,,,,,,,,,,,,,,,,,,,,,,
,,,,,,,,,,stimuli/images/PICTURE_658.png,DEVIL,5ded9996838b4f45b83bb3f9,14/11/1952,2020-07-09_13h02.33.042,proactive,2020.1.2,Win32,60,5f073de81c76c3308c0e4fb3,5f077792b667ed383946fe94,3,0,1,1,3,1,crow,,,,,,,,,,,,,,,,,,,,,,,,,,,,,,,,,,,,,,,,,,,,,,,,,,,,,,,,,,,,,,,,,,,,,,,,,,,,,,,,,,,,,,,
,,,,,,,,,,stimuli/images/PICTURE_378.png,LOSS,5ded9996838b4f45b83bb3f9,14/11/1952,2020-07-09_13h02.33.042,proactive,2020.1.2,Win32,60,5f073de81c76c3308c0e4fb3,5f077792b667ed383946fe94,3,0,2,2,2,1,lobster,,,,,,,,,,,,,,,,,,,,,,,,,,,,,,,,,,,,,,,,,,,,,,,,,,,,,,,,,,,,,,,,,,,,,,,,,,,,,,,,,,,,,,,
,,,,,,,,,,stimuli/images/PICTURE_697.png,KILLER,5ded9996838b4f45b83bb3f9,14/11/1952,2020-07-09_13h02.33.042,proactive,2020.1.2,Win32,60,5f073de81c76c3308c0e4fb3,5f077792b667ed383946fe94,3,0,3,3,4,1,peach,,,,,,,,,,,,,,,,,,,,,,,,,,,,,,,,,,,,,,,,,,,,,,,,,,,,,,,,,,,,,,,,,,,,,,,,,,,,,,,,,,,,,,,
,,LOSS,15.00435,1,,,,,,stimuli/images/PICTURE_378.png,LOSS,5ded9996838b4f45b83bb3f9,14/11/1952,2020-07-09_13h02.33.042,proactive,2020.1.2,Win32,60,5f073de81c76c3308c0e4fb3,5f077792b667ed383946fe94,3,,,,,,lobster,0,0,0,2,1,,,,,,,,,,,,,,,,,,,,,,,,,,,,,,,,,,,,,,,,,,,,,,,,,,,,,,,,,,,,,,,,,,,,,,,,,,,,,,,,,,
,,DEVIL,15.008105,1,,,,,,stimuli/images/PICTURE_658.png,DEVIL,5ded9996838b4f45b83bb3f9,14/11/1952,2020-07-09_13h02.33.042,proactive,2020.1.2,Win32,60,5f073de81c76c3308c0e4fb3,5f077792b667ed383946fe94,3,,,,,,crow,0,1,1,3,1,,,,,,,,,,,,,,,,,,,,,,,,,,,,,,,,,,,,,,,,,,,,,,,,,,,,,,,,,,,,,,,,,,,,,,,,,,,,,,,,,,
,,KILLER,15.008815,0,,,,,,stimuli/images/PICTURE_269.png,GENIUS,5ded9996838b4f45b83bb3f9,14/11/1952,2020-07-09_13h02.33.042,proactive,2020.1.2,Win32,60,5f073de81c76c3308c0e4fb3,5f077792b667ed383946fe94,3,,,,,,chameleon,0,2,2,0,1,,,,,,,,,,,,,,,,,,,,,,,,,,,,,,,,,,,,,,,,,,,,,,,,,,,,,,,,,,,,,,,,,,,,,,,,,,,,,,,,,,
,,KILLER,15.007615,1,,,,,,stimuli/images/PICTURE_697.png,KILLER,5ded9996838b4f45b83bb3f9,14/11/1952,2020-07-09_13h02.33.042,proactive,2020.1.2,Win32,60,5f073de81c76c3308c0e4fb3,5f077792b667ed383946fe94,3,,,,,,peach,0,3,3,4,1,,,,,,,,,,,,,,,,,,,,,,,,,,,,,,,,,,,,,,,,,,,,,,,,,,,,,,,,,,,,,,,,,,,,,,,,,,,,,,,,,,
,,CELL,15.00965,1,,,,,,stimuli/images/PICTURE_727.png,CELL,5ded9996838b4f45b83bb3f9,14/11/1952,2020-07-09_13h02.33.042,proactive,2020.1.2,Win32,60,5f073de81c76c3308c0e4fb3,5f077792b667ed383946fe94,3,,,,,,hose,0,4,4,1,1,,,,,,,,,,,,,,,,,,,,,,,,,,,,,,,,,,,,,,,,,,,,,,,,,,,,,,,,,,,,,,,,,,,,,,,,,,,,,,,,,,
,,,,,,,,,,stimuli/images/PICTURE_692.png,DUDE,5ded9996838b4f45b83bb3f9,14/11/1952,2020-07-09_13h02.33.042,proactive,2020.1.2,Win32,60,5f073de81c76c3308c0e4fb3,5f077792b667ed383946fe94,3,,,,,,cherry,,,,,,0,0,0,47,1,5,2,,,,,,,,,,,,,,,,,,,,,,,,,,,,,,,,,,,,,,,,,,,,,,,,,,,,,,,,,,,,,,,,,,,,,,,,,,,
,,,,,,,,,,stimuli/images/PICTURE_405.png,HOUSE,5ded9996838b4f45b83bb3f9,14/11/1952,2020-07-09_13h02.33.042,proactive,2020.1.2,Win32,60,5f073de81c76c3308c0e4fb3,5f077792b667ed383946fe94,3,,,,,,anchor,,,,,,0,1,1,2,1,1,2,,,,,,,,,,,,,,,,,,,,,,,,,,,,,,,,,,,,,,,,,,,,,,,,,,,,,,,,,,,,,,,,,,,,,,,,,,,
,,,,,,,,,,stimuli/images/PICTURE_356.png,CANDY,5ded9996838b4f45b83bb3f9,14/11/1952,2020-07-09_13h02.33.042,proactive,2020.1.2,Win32,60,5f073de81c76c3308c0e4fb3,5f077792b667ed383946fe94,3,,,,,,pawn,,,,,,0,2,2,46,1,5,2,,,,,,,,,,,,,,,,,,,,,,,,,,,,,,,,,,,,,,,,,,,,,,,,,,,,,,,,,,,,,,,,,,,,,,,,,,,
,,,,,,,,,,stimuli/images/PICTURE_509.png,BATH,5ded9996838b4f45b83bb3f9,14/11/1952,2020-07-09_13h02.33.042,proactive,2020.1.2,Win32,60,5f073de81c76c3308c0e4fb3,5f077792b667ed383946fe94,3,,,,,,telephone,,,,,,0,3,3,15,1,2,2,,,,,,,,,,,,,,,,,,,,,,,,,,,,,,,,,,,,,,,,,,,,,,,,,,,,,,,,,,,,,,,,,,,,,,,,,,,
,,,,,,,,,,stimuli/images/PICTURE_57.png,CASINO,5ded9996838b4f45b83bb3f9,14/11/1952,2020-07-09_13h02.33.042,proactive,2020.1.2,Win32,60,5f073de81c76c3308c0e4fb3,5f077792b667ed383946fe94,3,,,,,,stamp,,,,,,0,4,4,12,1,2,2,,,,,,,,,,,,,,,,,,,,,,,,,,,,,,,,,,,,,,,,,,,,,,,,,,,,,,,,,,,,,,,,,,,,,,,,,,,
,,,,,,,,,,stimuli/images/PICTURE_147.png,LEADER,5ded9996838b4f45b83bb3f9,14/11/1952,2020-07-09_13h02.33.042,proactive,2020.1.2,Win32,60,5f073de81c76c3308c0e4fb3,5f077792b667ed383946fe94,3,,,,,,hanger,,,,,,0,5,5,33,1,4,2,,,,,,,,,,,,,,,,,,,,,,,,,,,,,,,,,,,,,,,,,,,,,,,,,,,,,,,,,,,,,,,,,,,,,,,,,,,
,,,,,,,,,,stimuli/images/PICTURE_504.png,HOUSE,5ded9996838b4f45b83bb3f9,14/11/1952,2020-07-09_13h02.33.042,proactive,2020.1.2,Win32,60,5f073de81c76c3308c0e4fb3,5f077792b667ed383946fe94,3,,,,,,wheel,,,,,,0,6,6,36,1,4,2,,,,,,,,,,,,,,,,,,,,,,,,,,,,,,,,,,,,,,,,,,,,,,,,,,,,,,,,,,,,,,,,,,,,,,,,,,,
,,,,,,,,,,stimuli/images/PICTURE_750.png,POLICY,5ded9996838b4f45b83bb3f9,14/11/1952,2020-07-09_13h02.33.042,proactive,2020.1.2,Win32,60,5f073de81c76c3308c0e4fb3,5f077792b667ed383946fe94,3,,,,,,kettle,,,,,,0,7,7,44,1,5,2,,,,,,,,,,,,,,,,,,,,,,,,,,,,,,,,,,,,,,,,,,,,,,,,,,,,,,,,,,,,,,,,,,,,,,,,,,,
,,,,,,,,,,stimuli/images/PICTURE_470.png,BEAUTY,5ded9996838b4f45b83bb3f9,14/11/1952,2020-07-09_13h02.33.042,proactive,2020.1.2,Win32,60,5f073de81c76c3308c0e4fb3,5f077792b667ed383946fe94,3,,,,,,motorbike,,,,,,0,8,8,26,1,3,2,,,,,,,,,,,,,,,,,,,,,,,,,,,,,,,,,,,,,,,,,,,,,,,,,,,,,,,,,,,,,,,,,,,,,,,,,,,
,,,,,,,,,,stimuli/images/PICTURE_68.png,KIND,5ded9996838b4f45b83bb3f9,14/11/1952,2020-07-09_13h02.33.042,proactive,2020.1.2,Win32,60,5f073de81c76c3308c0e4fb3,5f077792b667ed383946fe94,3,,,,,,candle,,,,,,0,9,9,23,1,3,2,,,,,,,,,,,,,,,,,,,,,,,,,,,,,,,,,,,,,,,,,,,,,,,,,,,,,,,,,,,,,,,,,,,,,,,,,,,
,,,,,,,,,,stimuli/images/PICTURE_677.png,FAMILY,5ded9996838b4f45b83bb3f9,14/11/1952,2020-07-09_13h02.33.042,proactive,2020.1.2,Win32,60,5f073de81c76c3308c0e4fb3,5f077792b667ed383946fe94,3,,,,,,map,,,,,,0,10,10,53,1,6,2,,,,,,,,,,,,,,,,,,,,,,,,,,,,,,,,,,,,,,,,,,,,,,,,,,,,,,,,,,,,,,,,,,,,,,,,,,,
,,,,,,,,,,stimuli/images/PICTURE_123.png,SALE,5ded9996838b4f45b83bb3f9,14/11/1952,2020-07-09_13h02.33.042,proactive,2020.1.2,Win32,60,5f073de81c76c3308c0e4fb3,5f077792b667ed383946fe94,3,,,,,,dart,,,,,,0,11,11,8,1,1,2,,,,,,,,,,,,,,,,,,,,,,,,,,,,,,,,,,,,,,,,,,,,,,,,,,,,,,,,,,,,,,,,,,,,,,,,,,,
,,,,,,,,,,stimuli/images/PICTURE_491.png,SERIES,5ded9996838b4f45b83bb3f9,14/11/1952,2020-07-09_13h02.33.042,proactive,2020.1.2,Win32,60,5f073de81c76c3308c0e4fb3,5f077792b667ed383946fe94,3,,,,,,rug,,,,,,0,12,12,39,1,4,2,,,,,,,,,,,,,,,,,,,,,,,,,,,,,,,,,,,,,,,,,,,,,,,,,,,,,,,,,,,,,,,,,,,,,,,,,,,
,,,,,,,,,,stimuli/images/PICTURE_487.png,POLICY,5ded9996838b4f45b83bb3f9,14/11/1952,2020-07-09_13h02.33.042,proactive,2020.1.2,Win32,60,5f073de81c76c3308c0e4fb3,5f077792b667ed383946fe94,3,,,,,,basket,,,,,,0,13,13,34,1,4,2,,,,,,,,,,,,,,,,,,,,,,,,,,,,,,,,,,,,,,,,,,,,,,,,,,,,,,,,,,,,,,,,,,,,,,,,,,,
,,,,,,,,,,stimuli/images/PICTURE_311.png,TOILET,5ded9996838b4f45b83bb3f9,14/11/1952,2020-07-09_13h02.33.042,proactive,2020.1.2,Win32,60,5f073de81c76c3308c0e4fb3,5f077792b667ed383946fe94,3,,,,,,razor,,,,,,0,14,14,54,1,6,2,,,,,,,,,,,,,,,,,,,,,,,,,,,,,,,,,,,,,,,,,,,,,,,,,,,,,,,,,,,,,,,,,,,,,,,,,,,
,,,,,,,,,,stimuli/images/PICTURE_18.png,RIVER,5ded9996838b4f45b83bb3f9,14/11/1952,2020-07-09_13h02.33.042,proactive,2020.1.2,Win32,60,5f073de81c76c3308c0e4fb3,5f077792b667ed383946fe94,3,,,,,,planet,,,,,,0,15,15,22,1,3,2,,,,,,,,,,,,,,,,,,,,,,,,,,,,,,,,,,,,,,,,,,,,,,,,,,,,,,,,,,,,,,,,,,,,,,,,,,,
,,,,,,,,,,stimuli/images/PICTURE_215.png,LEADER,5ded9996838b4f45b83bb3f9,14/11/1952,2020-07-09_13h02.33.042,proactive,2020.1.2,Win32,60,5f073de81c76c3308c0e4fb3,5f077792b667ed383946fe94,3,,,,,,boot,,,,,,0,16,16,43,1,5,2,,,,,,,,,,,,,,,,,,,,,,,,,,,,,,,,,,,,,,,,,,,,,,,,,,,,,,,,,,,,,,,,,,,,,,,,,,,
,,,,,,,,,,stimuli/images/PICTURE_405.png,JUNGLE,5ded9996838b4f45b83bb3f9,14/11/1952,2020-07-09_13h02.33.042,proactive,2020.1.2,Win32,60,5f073de81c76c3308c0e4fb3,5f077792b667ed383946fe94,3,,,,,,anchor,,,,,,0,17,17,58,1,6,2,,,,,,,,,,,,,,,,,,,,,,,,,,,,,,,,,,,,,,,,,,,,,,,,,,,,,,,,,,,,,,,,,,,,,,,,,,,
,,,,,,,,,,stimuli/images/PICTURE_509.png,APPLE,5ded9996838b4f45b83bb3f9,14/11/1952,2020-07-09_13h02.33.042,proactive,2020.1.2,Win32,60,5f073de81c76c3308c0e4fb3,5f077792b667ed383946fe94,3,,,,,,telephone,,,,,,0,18,18,38,1,4,2,,,,,,,,,,,,,,,,,,,,,,,,,,,,,,,,,,,,,,,,,,,,,,,,,,,,,,,,,,,,,,,,,,,,,,,,,,,
,,,,,,,,,,stimuli/images/PICTURE_708.png,VALLEY,5ded9996838b4f45b83bb3f9,14/11/1952,2020-07-09_13h02.33.042,proactive,2020.1.2,Win32,60,5f073de81c76c3308c0e4fb3,5f077792b667ed383946fe94,3,,,,,,monkey,,,,,,0,19,19,45,1,5,2,,,,,,,,,,,,,,,,,,,,,,,,,,,,,,,,,,,,,,,,,,,,,,,,,,,,,,,,,,,,,,,,,,,,,,,,,,,
,,,,,,,,,,stimuli/images/PICTURE_453.png,FAMILY,5ded9996838b4f45b83bb3f9,14/11/1952,2020-07-09_13h02.33.042,proactive,2020.1.2,Win32,60,5f073de81c76c3308c0e4fb3,5f077792b667ed383946fe94,3,,,,,,scissors,,,,,,0,20,20,48,1,5,2,,,,,,,,,,,,,,,,,,,,,,,,,,,,,,,,,,,,,,,,,,,,,,,,,,,,,,,,,,,,,,,,,,,,,,,,,,,
,,,,,,,,,,stimuli/images/PICTURE_403.png,FAMILY,5ded9996838b4f45b83bb3f9,14/11/1952,2020-07-09_13h02.33.042,proactive,2020.1.2,Win32,60,5f073de81c76c3308c0e4fb3,5f077792b667ed383946fe94,3,,,,,,cathedral,,,,,,0,21,21,9,1,1,2,,,,,,,,,,,,,,,,,,,,,,,,,,,,,,,,,,,,,,,,,,,,,,,,,,,,,,,,,,,,,,,,,,,,,,,,,,,
,,,,,,,,,,stimuli/images/PICTURE_487.png,ROOF,5ded9996838b4f45b83bb3f9,14/11/1952,2020-07-09_13h02.33.042,proactive,2020.1.2,Win32,60,5f073de81c76c3308c0e4fb3,5f077792b667ed383946fe94,3,,,,,,basket,,,,,,0,22,22,50,1,6,2,,,,,,,,,,,,,,,,,,,,,,,,,,,,,,,,,,,,,,,,,,,,,,,,,,,,,,,,,,,,,,,,,,,,,,,,,,,
,,,,,,,,,,stimuli/images/PICTURE_255.png,PENNY,5ded9996838b4f45b83bb3f9,14/11/1952,2020-07-09_13h02.33.042,proactive,2020.1.2,Win32,60,5f073de81c76c3308c0e4fb3,5f077792b667ed383946fe94,3,,,,,,shovel,,,,,,0,23,23,19,1,2,2,,,,,,,,,,,,,,,,,,,,,,,,,,,,,,,,,,,,,,,,,,,,,,,,,,,,,,,,,,,,,,,,,,,,,,,,,,,
,,,,,,,,,,stimuli/images/PICTURE_57.png,NATION,5ded9996838b4f45b83bb3f9,14/11/1952,2020-07-09_13h02.33.042,proactive,2020.1.2,Win32,60,5f073de81c76c3308c0e4fb3,5f077792b667ed383946fe94,3,,,,,,stamp,,,,,,0,24,24,21,1,3,2,,,,,,,,,,,,,,,,,,,,,,,,,,,,,,,,,,,,,,,,,,,,,,,,,,,,,,,,,,,,,,,,,,,,,,,,,,,
,,,,,,,,,,stimuli/images/PICTURE_564.png,PLENTY,5ded9996838b4f45b83bb3f9,14/11/1952,2020-07-09_13h02.33.042,proactive,2020.1.2,Win32,60,5f073de81c76c3308c0e4fb3,5f077792b667ed383946fe94,3,,,,,,spoon,,,,,,0,25,25,11,1,2,2,,,,,,,,,,,,,,,,,,,,,,,,,,,,,,,,,,,,,,,,,,,,,,,,,,,,,,,,,,,,,,,,,,,,,,,,,,,
,,,,,,,,,,stimuli/images/PICTURE_2.png,JUNGLE,5ded9996838b4f45b83bb3f9,14/11/1952,2020-07-09_13h02.33.042,proactive,2020.1.2,Win32,60,5f073de81c76c3308c0e4fb3,5f077792b667ed383946fe94,3,,,,,,tyre,,,,,,0,26,26,1,1,1,2,,,,,,,,,,,,,,,,,,,,,,,,,,,,,,,,,,,,,,,,,,,,,,,,,,,,,,,,,,,,,,,,,,,,,,,,,,,
,,,,,,,,,,stimuli/images/PICTURE_215.png,BOYS,5ded9996838b4f45b83bb3f9,14/11/1952,2020-07-09_13h02.33.042,proactive,2020.1.2,Win32,60,5f073de81c76c3308c0e4fb3,5f077792b667ed383946fe94,3,,,,,,boot,,,,,,0,27,27,24,1,3,2,,,,,,,,,,,,,,,,,,,,,,,,,,,,,,,,,,,,,,,,,,,,,,,,,,,,,,,,,,,,,,,,,,,,,,,,,,,
,,,,,,,,,,stimuli/images/PICTURE_452.png,COPS,5ded9996838b4f45b83bb3f9,14/11/1952,2020-07-09_13h02.33.042,proactive,2020.1.2,Win32,60,5f073de81c76c3308c0e4fb3,5f077792b667ed383946fe94,3,,,,,,watch,,,,,,0,28,28,0,1,1,2,,,,,,,,,,,,,,,,,,,,,,,,,,,,,,,,,,,,,,,,,,,,,,,,,,,,,,,,,,,,,,,,,,,,,,,,,,,
,,,,,,,,,,stimuli/images/PICTURE_348.png,TOILET,5ded9996838b4f45b83bb3f9,14/11/1952,2020-07-09_13h02.33.042,proactive,2020.1.2,Win32,60,5f073de81c76c3308c0e4fb3,5f077792b667ed383946fe94,3,,,,,,pepper,,,,,,0,29,29,4,1,1,2,,,,,,,,,,,,,,,,,,,,,,,,,,,,,,,,,,,,,,,,,,,,,,,,,,,,,,,,,,,,,,,,,,,,,,,,,,,
,,,,,,,,,,stimuli/images/PICTURE_667.png,GLASS,5ded9996838b4f45b83bb3f9,14/11/1952,2020-07-09_13h02.33.042,proactive,2020.1.2,Win32,60,5f073de81c76c3308c0e4fb3,5f077792b667ed383946fe94,3,,,,,,daisy,,,,,,0,30,30,27,1,3,2,,,,,,,,,,,,,,,,,,,,,,,,,,,,,,,,,,,,,,,,,,,,,,,,,,,,,,,,,,,,,,,,,,,,,,,,,,,
,,,,,,,,,,stimuli/images/PICTURE_215.png,FOOD,5ded9996838b4f45b83bb3f9,14/11/1952,2020-07-09_13h02.33.042,proactive,2020.1.2,Win32,60,5f073de81c76c3308c0e4fb3,5f077792b667ed383946fe94,3,,,,,,boot,,,,,,0,31,31,5,1,1,2,,,,,,,,,,,,,,,,,,,,,,,,,,,,,,,,,,,,,,,,,,,,,,,,,,,,,,,,,,,,,,,,,,,,,,,,,,,
,,,,,,,,,,stimuli/images/PICTURE_509.png,MILLER,5ded9996838b4f45b83bb3f9,14/11/1952,2020-07-09_13h02.33.042,proactive,2020.1.2,Win32,60,5f073de81c76c3308c0e4fb3,5f077792b667ed383946fe94,3,,,,,,telephone,,,,,,0,32,32,49,1,5,2,,,,,,,,,,,,,,,,,,,,,,,,,,,,,,,,,,,,,,,,,,,,,,,,,,,,,,,,,,,,,,,,,,,,,,,,,,,
,,,,,,,,,,stimuli/images/PICTURE_509.png,SHOTS,5ded9996838b4f45b83bb3f9,14/11/1952,2020-07-09_13h02.33.042,proactive,2020.1.2,Win32,60,5f073de81c76c3308c0e4fb3,5f077792b667ed383946fe94,3,,,,,,telephone,,,,,,0,33,33,7,1,1,2,,,,,,,,,,,,,,,,,,,,,,,,,,,,,,,,,,,,,,,,,,,,,,,,,,,,,,,,,,,,,,,,,,,,,,,,,,,
,,,,,,,,,,stimuli/images/PICTURE_93.png,GIRL,5ded9996838b4f45b83bb3f9,14/11/1952,2020-07-09_13h02.33.042,proactive,2020.1.2,Win32,60,5f073de81c76c3308c0e4fb3,5f077792b667ed383946fe94,3,,,,,,skateboard,,,,,,0,34,34,31,1,4,2,,,,,,,,,,,,,,,,,,,,,,,,,,,,,,,,,,,,,,,,,,,,,,,,,,,,,,,,,,,,,,,,,,,,,,,,,,,
,,,,,,,,,,stimuli/images/PICTURE_348.png,DUDE,5ded9996838b4f45b83bb3f9,14/11/1952,2020-07-09_13h02.33.042,proactive,2020.1.2,Win32,60,5f073de81c76c3308c0e4fb3,5f077792b667ed383946fe94,3,,,,,,pepper,,,,,,0,35,35,59,1,6,2,,,,,,,,,,,,,,,,,,,,,,,,,,,,,,,,,,,,,,,,,,,,,,,,,,,,,,,,,,,,,,,,,,,,,,,,,,,
,,,,,,,,,,stimuli/images/PICTURE_297.png,BODY,5ded9996838b4f45b83bb3f9,14/11/1952,2020-07-09_13h02.33.042,proactive,2020.1.2,Win32,60,5f073de81c76c3308c0e4fb3,5f077792b667ed383946fe94,3,,,,,,aeroplane,,,,,,0,36,36,51,1,6,2,,,,,,,,,,,,,,,,,,,,,,,,,,,,,,,,,,,,,,,,,,,,,,,,,,,,,,,,,,,,,,,,,,,,,,,,,,,
,,,,,,,,,,stimuli/images/PICTURE_470.png,MOMENT,5ded9996838b4f45b83bb3f9,14/11/1952,2020-07-09_13h02.33.042,proactive,2020.1.2,Win32,60,5f073de81c76c3308c0e4fb3,5f077792b667ed383946fe94,3,,,,,,motorbike,,,,,,0,37,37,40,1,5,2,,,,,,,,,,,,,,,,,,,,,,,,,,,,,,,,,,,,,,,,,,,,,,,,,,,,,,,,,,,,,,,,,,,,,,,,,,,
,,,,,,,,,,stimuli/images/PICTURE_285.png,WRITER,5ded9996838b4f45b83bb3f9,14/11/1952,2020-07-09_13h02.33.042,proactive,2020.1.2,Win32,60,5f073de81c76c3308c0e4fb3,5f077792b667ed383946fe94,3,,,,,,carrot,,,,,,0,38,38,6,1,1,2,,,,,,,,,,,,,,,,,,,,,,,,,,,,,,,,,,,,,,,,,,,,,,,,,,,,,,,,,,,,,,,,,,,,,,,,,,,
,,,,,,,,,,stimuli/images/PICTURE_405.png,JUNGLE,5ded9996838b4f45b83bb3f9,14/11/1952,2020-07-09_13h02.33.042,proactive,2020.1.2,Win32,60,5f073de81c76c3308c0e4fb3,5f077792b667ed383946fe94,3,,,,,,anchor,,,,,,0,39,39,13,1,2,2,,,,,,,,,,,,,,,,,,,,,,,,,,,,,,,,,,,,,,,,,,,,,,,,,,,,,,,,,,,,,,,,,,,,,,,,,,,
,,,,,,,,,,stimuli/images/PICTURE_654.png,COPS,5ded9996838b4f45b83bb3f9,14/11/1952,2020-07-09_13h02.33.042,proactive,2020.1.2,Win32,60,5f073de81c76c3308c0e4fb3,5f077792b667ed383946fe94,3,,,,,,pencil,,,,,,0,40,40,10,1,2,2,,,,,,,,,,,,,,,,,,,,,,,,,,,,,,,,,,,,,,,,,,,,,,,,,,,,,,,,,,,,,,,,,,,,,,,,,,,
,,,,,,,,,,stimuli/images/PICTURE_296.png,CLOCK,5ded9996838b4f45b83bb3f9,14/11/1952,2020-07-09_13h02.33.042,proactive,2020.1.2,Win32,60,5f073de81c76c3308c0e4fb3,5f077792b667ed383946fe94,3,,,,,,bolt,,,,,,0,41,41,18,1,2,2,,,,,,,,,,,,,,,,,,,,,,,,,,,,,,,,,,,,,,,,,,,,,,,,,,,,,,,,,,,,,,,,,,,,,,,,,,,
,,,,,,,,,,stimuli/images/PICTURE_327.png,LEADER,5ded9996838b4f45b83bb3f9,14/11/1952,2020-07-09_13h02.33.042,proactive,2020.1.2,Win32,60,5f073de81c76c3308c0e4fb3,5f077792b667ed383946fe94,3,,,,,,helmet,,,,,,0,42,42,17,1,2,2,,,,,,,,,,,,,,,,,,,,,,,,,,,,,,,,,,,,,,,,,,,,,,,,,,,,,,,,,,,,,,,,,,,,,,,,,,,
,,,,,,,,,,stimuli/images/PICTURE_2.png,YARD,5ded9996838b4f45b83bb3f9,14/11/1952,2020-07-09_13h02.33.042,proactive,2020.1.2,Win32,60,5f073de81c76c3308c0e4fb3,5f077792b667ed383946fe94,3,,,,,,tyre,,,,,,0,43,43,55,1,6,2,,,,,,,,,,,,,,,,,,,,,,,,,,,,,,,,,,,,,,,,,,,,,,,,,,,,,,,,,,,,,,,,,,,,,,,,,,,
,,,,,,,,,,stimuli/images/PICTURE_57.png,CANDY,5ded9996838b4f45b83bb3f9,14/11/1952,2020-07-09_13h02.33.042,proactive,2020.1.2,Win32,60,5f073de81c76c3308c0e4fb3,5f077792b667ed383946fe94,3,,,,,,stamp,,,,,,0,44,44,52,1,6,2,,,,,,,,,,,,,,,,,,,,,,,,,,,,,,,,,,,,,,,,,,,,,,,,,,,,,,,,,,,,,,,,,,,,,,,,,,,
,,,,,,,,,,stimuli/images/PICTURE_141.png,CLIENT,5ded9996838b4f45b83bb3f9,14/11/1952,2020-07-09_13h02.33.042,proactive,2020.1.2,Win32,60,5f073de81c76c3308c0e4fb3,5f077792b667ed383946fe94,3,,,,,,sunflower,,,,,,0,45,45,30,1,4,2,,,,,,,,,,,,,,,,,,,,,,,,,,,,,,,,,,,,,,,,,,,,,,,,,,,,,,,,,,,,,,,,,,,,,,,,,,,
,,,,,,,,,,stimuli/images/PICTURE_677.png,PHOTO,5ded9996838b4f45b83bb3f9,14/11/1952,2020-07-09_13h02.33.042,proactive,2020.1.2,Win32,60,5f073de81c76c3308c0e4fb3,5f077792b667ed383946fe94,3,,,,,,map,,,,,,0,46,46,14,1,2,2,,,,,,,,,,,,,,,,,,,,,,,,,,,,,,,,,,,,,,,,,,,,,,,,,,,,,,,,,,,,,,,,,,,,,,,,,,,
,,,,,,,,,,stimuli/images/PICTURE_95.png,NIGHT,5ded9996838b4f45b83bb3f9,14/11/1952,2020-07-09_13h02.33.042,proactive,2020.1.2,Win32,60,5f073de81c76c3308c0e4fb3,5f077792b667ed383946fe94,3,,,,,,suitcase,,,,,,0,47,47,37,1,4,2,,,,,,,,,,,,,,,,,,,,,,,,,,,,,,,,,,,,,,,,,,,,,,,,,,,,,,,,,,,,,,,,,,,,,,,,,,,
,,,,,,,,,,stimuli/images/PICTURE_311.png,FLESH,5ded9996838b4f45b83bb3f9,14/11/1952,2020-07-09_13h02.33.042,proactive,2020.1.2,Win32,60,5f073de81c76c3308c0e4fb3,5f077792b667ed383946fe94,3,,,,,,razor,,,,,,0,48,48,3,1,1,2,,,,,,,,,,,,,,,,,,,,,,,,,,,,,,,,,,,,,,,,,,,,,,,,,,,,,,,,,,,,,,,,,,,,,,,,,,,
,,,,,,,,,,stimuli/images/PICTURE_688.png,CLOCK,5ded9996838b4f45b83bb3f9,14/11/1952,2020-07-09_13h02.33.042,proactive,2020.1.2,Win32,60,5f073de81c76c3308c0e4fb3,5f077792b667ed383946fe94,3,,,,,,runner,,,,,,0,49,49,42,1,5,2,,,,,,,,,,,,,,,,,,,,,,,,,,,,,,,,,,,,,,,,,,,,,,,,,,,,,,,,,,,,,,,,,,,,,,,,,,,
,,,,,,,,,,stimuli/images/PICTURE_314.png,SPEECH,5ded9996838b4f45b83bb3f9,14/11/1952,2020-07-09_13h02.33.042,proactive,2020.1.2,Win32,60,5f073de81c76c3308c0e4fb3,5f077792b667ed383946fe94,3,,,,,,perfume,,,,,,0,50,50,35,1,4,2,,,,,,,,,,,,,,,,,,,,,,,,,,,,,,,,,,,,,,,,,,,,,,,,,,,,,,,,,,,,,,,,,,,,,,,,,,,
,,,,,,,,,,stimuli/images/PICTURE_655.png,SALE,5ded9996838b4f45b83bb3f9,14/11/1952,2020-07-09_13h02.33.042,proactive,2020.1.2,Win32,60,5f073de81c76c3308c0e4fb3,5f077792b667ed383946fe94,3,,,,,,megaphone,,,,,,0,51,51,57,1,6,2,,,,,,,,,,,,,,,,,,,,,,,,,,,,,,,,,,,,,,,,,,,,,,,,,,,,,,,,,,,,,,,,,,,,,,,,,,,
,,,,,,,,,,stimuli/images/PICTURE_2.png,AREA,5ded9996838b4f45b83bb3f9,14/11/1952,2020-07-09_13h02.33.042,proactive,2020.1.2,Win32,60,5f073de81c76c3308c0e4fb3,5f077792b667ed383946fe94,3,,,,,,tyre,,,,,,0,52,52,32,1,4,2,,,,,,,,,,,,,,,,,,,,,,,,,,,,,,,,,,,,,,,,,,,,,,,,,,,,,,,,,,,,,,,,,,,,,,,,,,,
,,,,,,,,,,stimuli/images/PICTURE_32.png,LETTER,5ded9996838b4f45b83bb3f9,14/11/1952,2020-07-09_13h02.33.042,proactive,2020.1.2,Win32,60,5f073de81c76c3308c0e4fb3,5f077792b667ed383946fe94,3,,,,,,crown,,,,,,0,53,53,56,1,6,2,,,,,,,,,,,,,,,,,,,,,,,,,,,,,,,,,,,,,,,,,,,,,,,,,,,,,,,,,,,,,,,,,,,,,,,,,,,
,,,,,,,,,,stimuli/images/PICTURE_208.png,SPIRIT,5ded9996838b4f45b83bb3f9,14/11/1952,2020-07-09_13h02.33.042,proactive,2020.1.2,Win32,60,5f073de81c76c3308c0e4fb3,5f077792b667ed383946fe94,3,,,,,,microphone,,,,,,0,54,54,28,1,3,2,,,,,,,,,,,,,,,,,,,,,,,,,,,,,,,,,,,,,,,,,,,,,,,,,,,,,,,,,,,,,,,,,,,,,,,,,,,
,,,,,,,,,,stimuli/images/PICTURE_285.png,PRINCE,5ded9996838b4f45b83bb3f9,14/11/1952,2020-07-09_13h02.33.042,proactive,2020.1.2,Win32,60,5f073de81c76c3308c0e4fb3,5f077792b667ed383946fe94,3,,,,,,carrot,,,,,,0,55,55,20,1,3,2,,,,,,,,,,,,,,,,,,,,,,,,,,,,,,,,,,,,,,,,,,,,,,,,,,,,,,,,,,,,,,,,,,,,,,,,,,,
,,,,,,,,,,stimuli/images/PICTURE_33.png,COPS,5ded9996838b4f45b83bb3f9,14/11/1952,2020-07-09_13h02.33.042,proactive,2020.1.2,Win32,60,5f073de81c76c3308c0e4fb3,5f077792b667ed383946fe94,3,,,,,,frame,,,,,,0,56,56,29,1,3,2,,,,,,,,,,,,,,,,,,,,,,,,,,,,,,,,,,,,,,,,,,,,,,,,,,,,,,,,,,,,,,,,,,,,,,,,,,,
,,,,,,,,,,stimuli/images/PICTURE_654.png,YEAR,5ded9996838b4f45b83bb3f9,14/11/1952,2020-07-09_13h02.33.042,proactive,2020.1.2,Win32,60,5f073de81c76c3308c0e4fb3,5f077792b667ed383946fe94,3,,,,,,pencil,,,,,,0,57,57,41,1,5,2,,,,,,,,,,,,,,,,,,,,,,,,,,,,,,,,,,,,,,,,,,,,,,,,,,,,,,,,,,,,,,,,,,,,,,,,,,,
,,,,,,,,,,stimuli/images/PICTURE_177.png,HOUSE,5ded9996838b4f45b83bb3f9,14/11/1952,2020-07-09_13h02.33.042,proactive,2020.1.2,Win32,60,5f073de81c76c3308c0e4fb3,5f077792b667ed383946fe94,3,,,,,,mushroom,,,,,,0,58,58,25,1,3,2,,,,,,,,,,,,,,,,,,,,,,,,,,,,,,,,,,,,,,,,,,,,,,,,,,,,,,,,,,,,,,,,,,,,,,,,,,,
,,?,0.00276,0,,,,,,stimuli/images/PICTURE_356.png,CANDY,5ded9996838b4f45b83bb3f9,14/11/1952,2020-07-09_13h02.33.042,proactive,2020.1.2,Win32,60,5f073de81c76c3308c0e4fb3,5f077792b667ed383946fe94,3,,,,,,pawn,,,,,,,,,,,5,2,0,0,0,46,1,,,,,,,,,,,,,,,,,,,,,,,,,,,,,,,,,,,,,,,,,,,,,,,,,,,,,,,,,,,,,,,,,,,,,,
,,?,0.001405,0,,,,,,stimuli/images/PICTURE_314.png,SPEECH,5ded9996838b4f45b83bb3f9,14/11/1952,2020-07-09_13h02.33.042,proactive,2020.1.2,Win32,60,5f073de81c76c3308c0e4fb3,5f077792b667ed383946fe94,3,,,,,,perfume,,,,,,,,,,,4,2,0,1,1,35,1,,,,,,,,,,,,,,,,,,,,,,,,,,,,,,,,,,,,,,,,,,,,,,,,,,,,,,,,,,,,,,,,,,,,,,
,,?,0.00136,0,,,,,,stimuli/images/PICTURE_655.png,SALE,5ded9996838b4f45b83bb3f9,14/11/1952,2020-07-09_13h02.33.042,proactive,2020.1.2,Win32,60,5f073de81c76c3308c0e4fb3,5f077792b667ed383946fe94,3,,,,,,megaphone,,,,,,,,,,,6,2,0,2,2,57,1,,,,,,,,,,,,,,,,,,,,,,,,,,,,,,,,,,,,,,,,,,,,,,,,,,,,,,,,,,,,,,,,,,,,,,
,,COPS,15.01614,1,,,,,,stimuli/images/PICTURE_33.png,COPS,5ded9996838b4f45b83bb3f9,14/11/1952,2020-07-09_13h02.33.042,proactive,2020.1.2,Win32,60,5f073de81c76c3308c0e4fb3,5f077792b667ed383946fe94,3,,,,,,frame,,,,,,,,,,,3,2,0,3,3,29,1,,,,,,,,,,,,,,,,,,,,,,,,,,,,,,,,,,,,,,,,,,,,,,,,,,,,,,,,,,,,,,,,,,,,,,
,,?,0.00205,0,,,,,,stimuli/images/PICTURE_215.png,FOOD,5ded9996838b4f45b83bb3f9,14/11/1952,2020-07-09_13h02.33.042,proactive,2020.1.2,Win32,60,5f073de81c76c3308c0e4fb3,5f077792b667ed383946fe94,3,,,,,,boot,,,,,,,,,,,1,2,0,4,4,5,1,,,,,,,,,,,,,,,,,,,,,,,,,,,,,,,,,,,,,,,,,,,,,,,,,,,,,,,,,,,,,,,,,,,,,,
,,BOYS,15.004705,1,,,,,,stimuli/images/PICTURE_215.png,BOYS,5ded9996838b4f45b83bb3f9,14/11/1952,2020-07-09_13h02.33.042,proactive,2020.1.2,Win32,60,5f073de81c76c3308c0e4fb3,5f077792b667ed383946fe94,3,,,,,,boot,,,,,,,,,,,3,2,0,5,5,24,1,,,,,,,,,,,,,,,,,,,,,,,,,,,,,,,,,,,,,,,,,,,,,,,,,,,,,,,,,,,,,,,,,,,,,,
,,BEAUTY,15.009585,1,,,,,,stimuli/images/PICTURE_470.png,BEAUTY,5ded9996838b4f45b83bb3f9,14/11/1952,2020-07-09_13h02.33.042,proactive,2020.1.2,Win32,60,5f073de81c76c3308c0e4fb3,5f077792b667ed383946fe94,3,,,,,,motorbike,,,,,,,,,,,3,2,0,6,6,26,1,,,,,,,,,,,,,,,,,,,,,,,,,,,,,,,,,,,,,,,,,,,,,,,,,,,,,,,,,,,,,,,,,,,,,,
,,?,0.002315,0,,,,,,stimuli/images/PICTURE_405.png,JUNGLE,5ded9996838b4f45b83bb3f9,14/11/1952,2020-07-09_13h02.33.042,proactive,2020.1.2,Win32,60,5f073de81c76c3308c0e4fb3,5f077792b667ed383946fe94,3,,,,,,anchor,,,,,,,,,,,2,2,0,7,7,13,1,,,,,,,,,,,,,,,,,,,,,,,,,,,,,,,,,,,,,,,,,,,,,,,,,,,,,,,,,,,,,,,,,,,,,,
,,?,0.00239,0,,,,,,stimuli/images/PICTURE_677.png,FAMILY,5ded9996838b4f45b83bb3f9,14/11/1952,2020-07-09_13h02.33.042,proactive,2020.1.2,Win32,60,5f073de81c76c3308c0e4fb3,5f077792b667ed383946fe94,3,,,,,,map,,,,,,,,,,,6,2,0,8,8,53,1,,,,,,,,,,,,,,,,,,,,,,,,,,,,,,,,,,,,,,,,,,,,,,,,,,,,,,,,,,,,,,,,,,,,,,
,,?,0.001965,0,,,,,,stimuli/images/PICTURE_297.png,BODY,5ded9996838b4f45b83bb3f9,14/11/1952,2020-07-09_13h02.33.042,proactive,2020.1.2,Win32,60,5f073de81c76c3308c0e4fb3,5f077792b667ed383946fe94,3,,,,,,aeroplane,,,,,,,,,,,6,2,0,9,9,51,1,,,,,,,,,,,,,,,,,,,,,,,,,,,,,,,,,,,,,,,,,,,,,,,,,,,,,,,,,,,,,,,,,,,,,,
,,?,0.002255,0,,,,,,stimuli/images/PICTURE_160.png,HOTEL,5ded9996838b4f45b83bb3f9,14/11/1952,2020-07-09_13h02.33.042,proactive,2020.1.2,Win32,60,5f073de81c76c3308c0e4fb3,5f077792b667ed383946fe94,3,,,,,,wheelbarrow,,,,,,,,,,,2,2,0,10,10,16,1,,,,,,,,,,,,,,,,,,,,,,,,,,,,,,,,,,,,,,,,,,,,,,,,,,,,,,,,,,,,,,,,,,,,,,
,,?,0.00202,0,,,,,,stimuli/images/PICTURE_255.png,PENNY,5ded9996838b4f45b83bb3f9,14/11/1952,2020-07-09_13h02.33.042,proactive,2020.1.2,Win32,60,5f073de81c76c3308c0e4fb3,5f077792b667ed383946fe94,3,,,,,,shovel,,,,,,,,,,,2,2,0,11,11,19,1,,,,,,,,,,,,,,,,,,,,,,,,,,,,,,,,,,,,,,,,,,,,,,,,,,,,,,,,,,,,,,,,,,,,,,
,,?,0.001575,0,,,,,,stimuli/images/PICTURE_487.png,POLICY,5ded9996838b4f45b83bb3f9,14/11/1952,2020-07-09_13h02.33.042,proactive,2020.1.2,Win32,60,5f073de81c76c3308c0e4fb3,5f077792b667ed383946fe94,3,,,,,,basket,,,,,,,,,,,4,2,0,12,12,34,1,,,,,,,,,,,,,,,,,,,,,,,,,,,,,,,,,,,,,,,,,,,,,,,,,,,,,,,,,,,,,,,,,,,,,,
,,?,0.001975,0,,,,,,stimuli/images/PICTURE_348.png,TOILET,5ded9996838b4f45b83bb3f9,14/11/1952,2020-07-09_13h02.33.042,proactive,2020.1.2,Win32,60,5f073de81c76c3308c0e4fb3,5f077792b667ed383946fe94,3,,,,,,pepper,,,,,,,,,,,1,2,0,13,13,4,1,,,,,,,,,,,,,,,,,,,,,,,,,,,,,,,,,,,,,,,,,,,,,,,,,,,,,,,,,,,,,,,,,,,,,,
,,KIND,15.00798,1,,,,,,stimuli/images/PICTURE_68.png,KIND,5ded9996838b4f45b83bb3f9,14/11/1952,2020-07-09_13h02.33.042,proactive,2020.1.2,Win32,60,5f073de81c76c3308c0e4fb3,5f077792b667ed383946fe94,3,,,,,,candle,,,,,,,,,,,3,2,0,14,14,23,1,,,,,,,,,,,,,,,,,,,,,,,,,,,,,,,,,,,,,,,,,,,,,,,,,,,,,,,,,,,,,,,,,,,,,,
,,?,0.001935,0,,,,,,stimuli/images/PICTURE_677.png,PHOTO,5ded9996838b4f45b83bb3f9,14/11/1952,2020-07-09_13h02.33.042,proactive,2020.1.2,Win32,60,5f073de81c76c3308c0e4fb3,5f077792b667ed383946fe94,3,,,,,,map,,,,,,,,,,,2,2,0,15,15,14,1,,,,,,,,,,,,,,,,,,,,,,,,,,,,,,,,,,,,,,,,,,,,,,,,,,,,,,,,,,,,,,,,,,,,,,
,,?,0.00191,0,,,,,,stimuli/images/PICTURE_509.png,SHOTS,5ded9996838b4f45b83bb3f9,14/11/1952,2020-07-09_13h02.33.042,proactive,2020.1.2,Win32,60,5f073de81c76c3308c0e4fb3,5f077792b667ed383946fe94,3,,,,,,telephone,,,,,,,,,,,1,2,0,16,16,7,1,,,,,,,,,,,,,,,,,,,,,,,,,,,,,,,,,,,,,,,,,,,,,,,,,,,,,,,,,,,,,,,,,,,,,,
,,?,0.001765,0,,,,,,stimuli/images/PICTURE_564.png,PLENTY,5ded9996838b4f45b83bb3f9,14/11/1952,2020-07-09_13h02.33.042,proactive,2020.1.2,Win32,60,5f073de81c76c3308c0e4fb3,5f077792b667ed383946fe94,3,,,,,,spoon,,,,,,,,,,,2,2,0,17,17,11,1,,,,,,,,,,,,,,,,,,,,,,,,,,,,,,,,,,,,,,,,,,,,,,,,,,,,,,,,,,,,,,,,,,,,,,
,,RIVER,15.004485,1,,,,,,stimuli/images/PICTURE_18.png,RIVER,5ded9996838b4f45b83bb3f9,14/11/1952,2020-07-09_13h02.33.042,proactive,2020.1.2,Win32,60,5f073de81c76c3308c0e4fb3,5f077792b667ed383946fe94,3,,,,,,planet,,,,,,,,,,,3,2,0,18,18,22,1,,,,,,,,,,,,,,,,,,,,,,,,,,,,,,,,,,,,,,,,,,,,,,,,,,,,,,,,,,,,,,,,,,,,,,
,,?,0.001745,0,,,,,,stimuli/images/PICTURE_141.png,CLIENT,5ded9996838b4f45b83bb3f9,14/11/1952,2020-07-09_13h02.33.042,proactive,2020.1.2,Win32,60,5f073de81c76c3308c0e4fb3,5f077792b667ed383946fe94,3,,,,,,sunflower,,,,,,,,,,,4,2,0,19,19,30,1,,,,,,,,,,,,,,,,,,,,,,,,,,,,,,,,,,,,,,,,,,,,,,,,,,,,,,,,,,,,,,,,,,,,,,
,,?,0.001555,0,,,,,,stimuli/images/PICTURE_470.png,MOMENT,5ded9996838b4f45b83bb3f9,14/11/1952,2020-07-09_13h02.33.042,proactive,2020.1.2,Win32,60,5f073de81c76c3308c0e4fb3,5f077792b667ed383946fe94,3,,,,,,motorbike,,,,,,,,,,,5,2,0,20,20,40,1,,,,,,,,,,,,,,,,,,,,,,,,,,,,,,,,,,,,,,,,,,,,,,,,,,,,,,,,,,,,,,,,,,,,,,
,,?,0.00156,0,,,,,,stimuli/images/PICTURE_708.png,VALLEY,5ded9996838b4f45b83bb3f9,14/11/1952,2020-07-09_13h02.33.042,proactive,2020.1.2,Win32,60,5f073de81c76c3308c0e4fb3,5f077792b667ed383946fe94,3,,,,,,monkey,,,,,,,,,,,5,2,0,21,21,45,1,,,,,,,,,,,,,,,,,,,,,,,,,,,,,,,,,,,,,,,,,,,,,,,,,,,,,,,,,,,,,,,,,,,,,,
,,NATION,15.01358,1,,,,,,stimuli/images/PICTURE_57.png,NATION,5ded9996838b4f45b83bb3f9,14/11/1952,2020-07-09_13h02.33.042,proactive,2020.1.2,Win32,60,5f073de81c76c3308c0e4fb3,5f077792b667ed383946fe94,3,,,,,,stamp,,,,,,,,,,,3,2,0,22,22,21,1,,,,,,,,,,,,,,,,,,,,,,,,,,,,,,,,,,,,,,,,,,,,,,,,,,,,,,,,,,,,,,,,,,,,,,
,,?,0.001865,0,,,,,,stimuli/images/PICTURE_654.png,COPS,5ded9996838b4f45b83bb3f9,14/11/1952,2020-07-09_13h02.33.042,proactive,2020.1.2,Win32,60,5f073de81c76c3308c0e4fb3,5f077792b667ed383946fe94,3,,,,,,pencil,,,,,,,,,,,2,2,0,23,23,10,1,,,,,,,,,,,,,,,,,,,,,,,,,,,,,,,,,,,,,,,,,,,,,,,,,,,,,,,,,,,,,,,,,,,,,,
,,?,0.001485,0,,,,,,stimuli/images/PICTURE_123.png,SALE,5ded9996838b4f45b83bb3f9,14/11/1952,2020-07-09_13h02.33.042,proactive,2020.1.2,Win32,60,5f073de81c76c3308c0e4fb3,5f077792b667ed383946fe94,3,,,,,,dart,,,,,,,,,,,1,2,0,24,24,8,1,,,,,,,,,,,,,,,,,,,,,,,,,,,,,,,,,,,,,,,,,,,,,,,,,,,,,,,,,,,,,,,,,,,,,,
,,?,0.00507,0,,,,,,stimuli/images/PICTURE_327.png,LEADER,5ded9996838b4f45b83bb3f9,14/11/1952,2020-07-09_13h02.33.042,proactive,2020.1.2,Win32,60,5f073de81c76c3308c0e4fb3,5f077792b667ed383946fe94,3,,,,,,helmet,,,,,,,,,,,2,2,0,25,25,17,1,,,,,,,,,,,,,,,,,,,,,,,,,,,,,,,,,,,,,,,,,,,,,,,,,,,,,,,,,,,,,,,,,,,,,,
,,?,0.001775,0,,,,,,stimuli/images/PICTURE_453.png,FAMILY,5ded9996838b4f45b83bb3f9,14/11/1952,2020-07-09_13h02.33.042,proactive,2020.1.2,Win32,60,5f073de81c76c3308c0e4fb3,5f077792b667ed383946fe94,3,,,,,,scissors,,,,,,,,,,,5,2,0,26,26,48,1,,,,,,,,,,,,,,,,,,,,,,,,,,,,,,,,,,,,,,,,,,,,,,,,,,,,,,,,,,,,,,,,,,,,,,
,,SPIRIT,15.0053,1,,,,,,stimuli/images/PICTURE_208.png,SPIRIT,5ded9996838b4f45b83bb3f9,14/11/1952,2020-07-09_13h02.33.042,proactive,2020.1.2,Win32,60,5f073de81c76c3308c0e4fb3,5f077792b667ed383946fe94,3,,,,,,microphone,,,,,,,,,,,3,2,0,27,27,28,1,,,,,,,,,,,,,,,,,,,,,,,,,,,,,,,,,,,,,,,,,,,,,,,,,,,,,,,,,,,,,,,,,,,,,,
,,?,0.001565,0,,,,,,stimuli/images/PICTURE_487.png,ROOF,5ded9996838b4f45b83bb3f9,14/11/1952,2020-07-09_13h02.33.042,proactive,2020.1.2,Win32,60,5f073de81c76c3308c0e4fb3,5f077792b667ed383946fe94,3,,,,,,basket,,,,,,,,,,,6,2,0,28,28,50,1,,,,,,,,,,,,,,,,,,,,,,,,,,,,,,,,,,,,,,,,,,,,,,,,,,,,,,,,,,,,,,,,,,,,,,
,,?,0.001255,0,,,,,,stimuli/images/PICTURE_57.png,CASINO,5ded9996838b4f45b83bb3f9,14/11/1952,2020-07-09_13h02.33.042,proactive,2020.1.2,Win32,60,5f073de81c76c3308c0e4fb3,5f077792b667ed383946fe94,3,,,,,,stamp,,,,,,,,,,,2,2,0,29,29,12,1,,,,,,,,,,,,,,,,,,,,,,,,,,,,,,,,,,,,,,,,,,,,,,,,,,,,,,,,,,,,,,,,,,,,,,
,,PRINCE,15.002835,1,,,,,,stimuli/images/PICTURE_285.png,PRINCE,5ded9996838b4f45b83bb3f9,14/11/1952,2020-07-09_13h02.33.042,proactive,2020.1.2,Win32,60,5f073de81c76c3308c0e4fb3,5f077792b667ed383946fe94,3,,,,,,carrot,,,,,,,,,,,3,2,0,30,30,20,1,,,,,,,,,,,,,,,,,,,,,,,,,,,,,,,,,,,,,,,,,,,,,,,,,,,,,,,,,,,,,,,,,,,,,,
,,?,0.002215,0,,,,,,stimuli/images/PICTURE_215.png,LEADER,5ded9996838b4f45b83bb3f9,14/11/1952,2020-07-09_13h02.33.042,proactive,2020.1.2,Win32,60,5f073de81c76c3308c0e4fb3,5f077792b667ed383946fe94,3,,,,,,boot,,,,,,,,,,,5,2,0,31,31,43,1,,,,,,,,,,,,,,,,,,,,,,,,,,,,,,,,,,,,,,,,,,,,,,,,,,,,,,,,,,,,,,,,,,,,,,
,,?,0.00194,0,,,,,,stimuli/images/PICTURE_2.png,AREA,5ded9996838b4f45b83bb3f9,14/11/1952,2020-07-09_13h02.33.042,proactive,2020.1.2,Win32,60,5f073de81c76c3308c0e4fb3,5f077792b667ed383946fe94,3,,,,,,tyre,,,,,,,,,,,4,2,0,32,32,32,1,,,,,,,,,,,,,,,,,,,,,,,,,,,,,,,,,,,,,,,,,,,,,,,,,,,,,,,,,,,,,,,,,,,,,,
,,?,0.001985,0,,,,,,stimuli/images/PICTURE_504.png,HOUSE,5ded9996838b4f45b83bb3f9,14/11/1952,2020-07-09_13h02.33.042,proactive,2020.1.2,Win32,60,5f073de81c76c3308c0e4fb3,5f077792b667ed383946fe94,3,,,,,,wheel,,,,,,,,,,,4,2,0,33,33,36,1,,,,,,,,,,,,,,,,,,,,,,,,,,,,,,,,,,,,,,,,,,,,,,,,,,,,,,,,,,,,,,,,,,,,,,
,,GLASS,15.008715,1,,,,,,stimuli/images/PICTURE_667.png,GLASS,5ded9996838b4f45b83bb3f9,14/11/1952,2020-07-09_13h02.33.042,proactive,2020.1.2,Win32,60,5f073de81c76c3308c0e4fb3,5f077792b667ed383946fe94,3,,,,,,daisy,,,,,,,,,,,3,2,0,34,34,27,1,,,,,,,,,,,,,,,,,,,,,,,,,,,,,,,,,,,,,,,,,,,,,,,,,,,,,,,,,,,,,,,,,,,,,,
,,?,0.001905,0,,,,,,stimuli/images/PICTURE_32.png,LETTER,5ded9996838b4f45b83bb3f9,14/11/1952,2020-07-09_13h02.33.042,proactive,2020.1.2,Win32,60,5f073de81c76c3308c0e4fb3,5f077792b667ed383946fe94,3,,,,,,crown,,,,,,,,,,,6,2,0,35,35,56,1,,,,,,,,,,,,,,,,,,,,,,,,,,,,,,,,,,,,,,,,,,,,,,,,,,,,,,,,,,,,,,,,,,,,,,
,,?,0.00145,0,,,,,,stimuli/images/PICTURE_93.png,GIRL,5ded9996838b4f45b83bb3f9,14/11/1952,2020-07-09_13h02.33.042,proactive,2020.1.2,Win32,60,5f073de81c76c3308c0e4fb3,5f077792b667ed383946fe94,3,,,,,,skateboard,,,,,,,,,,,4,2,0,36,36,31,1,,,,,,,,,,,,,,,,,,,,,,,,,,,,,,,,,,,,,,,,,,,,,,,,,,,,,,,,,,,,,,,,,,,,,,
,,?,0.001515,0,,,,,,stimuli/images/PICTURE_285.png,WRITER,5ded9996838b4f45b83bb3f9,14/11/1952,2020-07-09_13h02.33.042,proactive,2020.1.2,Win32,60,5f073de81c76c3308c0e4fb3,5f077792b667ed383946fe94,3,,,,,,carrot,,,,,,,,,,,1,2,0,37,37,6,1,,,,,,,,,,,,,,,,,,,,,,,,,,,,,,,,,,,,,,,,,,,,,,,,,,,,,,,,,,,,,,,,,,,,,,
,,?,0.00121,0,,,,,,stimuli/images/PICTURE_491.png,SERIES,5ded9996838b4f45b83bb3f9,14/11/1952,2020-07-09_13h02.33.042,proactive,2020.1.2,Win32,60,5f073de81c76c3308c0e4fb3,5f077792b667ed383946fe94,3,,,,,,rug,,,,,,,,,,,4,2,0,38,38,39,1,,,,,,,,,,,,,,,,,,,,,,,,,,,,,,,,,,,,,,,,,,,,,,,,,,,,,,,,,,,,,,,,,,,,,,
,,?,0.001455,0,,,,,,stimuli/images/PICTURE_750.png,POLICY,5ded9996838b4f45b83bb3f9,14/11/1952,2020-07-09_13h02.33.042,proactive,2020.1.2,Win32,60,5f073de81c76c3308c0e4fb3,5f077792b667ed383946fe94,3,,,,,,kettle,,,,,,,,,,,5,2,0,39,39,44,1,,,,,,,,,,,,,,,,,,,,,,,,,,,,,,,,,,,,,,,,,,,,,,,,,,,,,,,,,,,,,,,,,,,,,,
,,?,0.00372,0,,,,,,stimuli/images/PICTURE_147.png,LEADER,5ded9996838b4f45b83bb3f9,14/11/1952,2020-07-09_13h02.33.042,proactive,2020.1.2,Win32,60,5f073de81c76c3308c0e4fb3,5f077792b667ed383946fe94,3,,,,,,hanger,,,,,,,,,,,4,2,0,40,40,33,1,,,,,,,,,,,,,,,,,,,,,,,,,,,,,,,,,,,,,,,,,,,,,,,,,,,,,,,,,,,,,,,,,,,,,,
,,?,0.001405,0,,,,,,stimuli/images/PICTURE_311.png,FLESH,5ded9996838b4f45b83bb3f9,14/11/1952,2020-07-09_13h02.33.042,proactive,2020.1.2,Win32,60,5f073de81c76c3308c0e4fb3,5f077792b667ed383946fe94,3,,,,,,razor,,,,,,,,,,,1,2,0,41,41,3,1,,,,,,,,,,,,,,,,,,,,,,,,,,,,,,,,,,,,,,,,,,,,,,,,,,,,,,,,,,,,,,,,,,,,,,
,,?,0.001515,0,,,,,,stimuli/images/PICTURE_509.png,APPLE,5ded9996838b4f45b83bb3f9,14/11/1952,2020-07-09_13h02.33.042,proactive,2020.1.2,Win32,60,5f073de81c76c3308c0e4fb3,5f077792b667ed383946fe94,3,,,,,,telephone,,,,,,,,,,,4,2,0,42,42,38,1,,,,,,,,,,,,,,,,,,,,,,,,,,,,,,,,,,,,,,,,,,,,,,,,,,,,,,,,,,,,,,,,,,,,,,
,,?,0.001785,0,,,,,,stimuli/images/PICTURE_405.png,JUNGLE,5ded9996838b4f45b83bb3f9,14/11/1952,2020-07-09_13h02.33.042,proactive,2020.1.2,Win32,60,5f073de81c76c3308c0e4fb3,5f077792b667ed383946fe94,3,,,,,,anchor,,,,,,,,,,,6,2,0,43,43,58,1,,,,,,,,,,,,,,,,,,,,,,,,,,,,,,,,,,,,,,,,,,,,,,,,,,,,,,,,,,,,,,,,,,,,,,
,,?,0.001575,0,,,,,,stimuli/images/PICTURE_296.png,CLOCK,5ded9996838b4f45b83bb3f9,14/11/1952,2020-07-09_13h02.33.042,proactive,2020.1.2,Win32,60,5f073de81c76c3308c0e4fb3,5f077792b667ed383946fe94,3,,,,,,bolt,,,,,,,,,,,2,2,0,44,44,18,1,,,,,,,,,,,,,,,,,,,,,,,,,,,,,,,,,,,,,,,,,,,,,,,,,,,,,,,,,,,,,,,,,,,,,,
,,?,0.001405,0,,,,,,stimuli/images/PICTURE_654.png,YEAR,5ded9996838b4f45b83bb3f9,14/11/1952,2020-07-09_13h02.33.042,proactive,2020.1.2,Win32,60,5f073de81c76c3308c0e4fb3,5f077792b667ed383946fe94,3,,,,,,pencil,,,,,,,,,,,5,2,0,45,45,41,1,,,,,,,,,,,,,,,,,,,,,,,,,,,,,,,,,,,,,,,,,,,,,,,,,,,,,,,,,,,,,,,,,,,,,,
,,?,0.001565,0,,,,,,stimuli/images/PICTURE_311.png,TOILET,5ded9996838b4f45b83bb3f9,14/11/1952,2020-07-09_13h02.33.042,proactive,2020.1.2,Win32,60,5f073de81c76c3308c0e4fb3,5f077792b667ed383946fe94,3,,,,,,razor,,,,,,,,,,,6,2,0,46,46,54,1,,,,,,,,,,,,,,,,,,,,,,,,,,,,,,,,,,,,,,,,,,,,,,,,,,,,,,,,,,,,,,,,,,,,,,
,,?,0.001315,0,,,,,,stimuli/images/PICTURE_692.png,DUDE,5ded9996838b4f45b83bb3f9,14/11/1952,2020-07-09_13h02.33.042,proactive,2020.1.2,Win32,60,5f073de81c76c3308c0e4fb3,5f077792b667ed383946fe94,3,,,,,,cherry,,,,,,,,,,,5,2,0,47,47,47,1,,,,,,,,,,,,,,,,,,,,,,,,,,,,,,,,,,,,,,,,,,,,,,,,,,,,,,,,,,,,,,,,,,,,,,
,,?,0.00131,0,,,,,,stimuli/images/PICTURE_403.png,FAMILY,5ded9996838b4f45b83bb3f9,14/11/1952,2020-07-09_13h02.33.042,proactive,2020.1.2,Win32,60,5f073de81c76c3308c0e4fb3,5f077792b667ed383946fe94,3,,,,,,cathedral,,,,,,,,,,,1,2,0,48,48,9,1,,,,,,,,,,,,,,,,,,,,,,,,,,,,,,,,,,,,,,,,,,,,,,,,,,,,,,,,,,,,,,,,,,,,,,
,,?,0.004375,0,,,,,,stimuli/images/PICTURE_95.png,NIGHT,5ded9996838b4f45b83bb3f9,14/11/1952,2020-07-09_13h02.33.042,proactive,2020.1.2,Win32,60,5f073de81c76c3308c0e4fb3,5f077792b667ed383946fe94,3,,,,,,suitcase,,,,,,,,,,,4,2,0,49,49,37,1,,,,,,,,,,,,,,,,,,,,,,,,,,,,,,,,,,,,,,,,,,,,,,,,,,,,,,,,,,,,,,,,,,,,,,
,,?,0.00185,0,,,,,,stimuli/images/PICTURE_57.png,CANDY,5ded9996838b4f45b83bb3f9,14/11/1952,2020-07-09_13h02.33.042,proactive,2020.1.2,Win32,60,5f073de81c76c3308c0e4fb3,5f077792b667ed383946fe94,3,,,,,,stamp,,,,,,,,,,,6,2,0,50,50,52,1,,,,,,,,,,,,,,,,,,,,,,,,,,,,,,,,,,,,,,,,,,,,,,,,,,,,,,,,,,,,,,,,,,,,,,
,,?,0.001225,0,,,,,,stimuli/images/PICTURE_452.png,COPS,5ded9996838b4f45b83bb3f9,14/11/1952,2020-07-09_13h02.33.042,proactive,2020.1.2,Win32,60,5f073de81c76c3308c0e4fb3,5f077792b667ed383946fe94,3,,,,,,watch,,,,,,,,,,,1,2,0,51,51,0,1,,,,,,,,,,,,,,,,,,,,,,,,,,,,,,,,,,,,,,,,,,,,,,,,,,,,,,,,,,,,,,,,,,,,,,
,,HOUSE,15.004605,1,,,,,,stimuli/images/PICTURE_177.png,HOUSE,5ded9996838b4f45b83bb3f9,14/11/1952,2020-07-09_13h02.33.042,proactive,2020.1.2,Win32,60,5f073de81c76c3308c0e4fb3,5f077792b667ed383946fe94,3,,,,,,mushroom,,,,,,,,,,,3,2,0,52,52,25,1,,,,,,,,,,,,,,,,,,,,,,,,,,,,,,,,,,,,,,,,,,,,,,,,,,,,,,,,,,,,,,,,,,,,,,
,,?,0.006695,0,,,,,,stimuli/images/PICTURE_688.png,CLOCK,5ded9996838b4f45b83bb3f9,14/11/1952,2020-07-09_13h02.33.042,proactive,2020.1.2,Win32,60,5f073de81c76c3308c0e4fb3,5f077792b667ed383946fe94,3,,,,,,runner,,,,,,,,,,,5,2,0,53,53,42,1,,,,,,,,,,,,,,,,,,,,,,,,,,,,,,,,,,,,,,,,,,,,,,,,,,,,,,,,,,,,,,,,,,,,,,
,,?,0.001735,0,,,,,,stimuli/images/PICTURE_509.png,BATH,5ded9996838b4f45b83bb3f9,14/11/1952,2020-07-09_13h02.33.042,proactive,2020.1.2,Win32,60,5f073de81c76c3308c0e4fb3,5f077792b667ed383946fe94,3,,,,,,telephone,,,,,,,,,,,2,2,0,54,54,15,1,,,,,,,,,,,,,,,,,,,,,,,,,,,,,,,,,,,,,,,,,,,,,,,,,,,,,,,,,,,,,,,,,,,,,,
,,?,0.00235,0,,,,,,stimuli/images/PICTURE_509.png,MILLER,5ded9996838b4f45b83bb3f9,14/11/1952,2020-07-09_13h02.33.042,proactive,2020.1.2,Win32,60,5f073de81c76c3308c0e4fb3,5f077792b667ed383946fe94,3,,,,,,telephone,,,,,,,,,,,5,2,0,55,55,49,1,,,,,,,,,,,,,,,,,,,,,,,,,,,,,,,,,,,,,,,,,,,,,,,,,,,,,,,,,,,,,,,,,,,,,,
,,?,0.001645,0,,,,,,stimuli/images/PICTURE_2.png,YARD,5ded9996838b4f45b83bb3f9,14/11/1952,2020-07-09_13h02.33.042,proactive,2020.1.2,Win32,60,5f073de81c76c3308c0e4fb3,5f077792b667ed383946fe94,3,,,,,,tyre,,,,,,,,,,,6,2,0,56,56,55,1,,,,,,,,,,,,,,,,,,,,,,,,,,,,,,,,,,,,,,,,,,,,,,,,,,,,,,,,,,,,,,,,,,,,,,
,,?,0.00167,0,,,,,,stimuli/images/PICTURE_2.png,JUNGLE,5ded9996838b4f45b83bb3f9,14/11/1952,2020-07-09_13h02.33.042,proactive,2020.1.2,Win32,60,5f073de81c76c3308c0e4fb3,5f077792b667ed383946fe94,3,,,,,,tyre,,,,,,,,,,,1,2,0,57,57,1,1,,,,,,,,,,,,,,,,,,,,,,,,,,,,,,,,,,,,,,,,,,,,,,,,,,,,,,,,,,,,,,,,,,,,,,
,,?,0.00167,0,,,,,,stimuli/images/PICTURE_405.png,HOUSE,5ded9996838b4f45b83bb3f9,14/11/1952,2020-07-09_13h02.33.042,proactive,2020.1.2,Win32,60,5f073de81c76c3308c0e4fb3,5f077792b667ed383946fe94,3,,,,,,anchor,,,,,,,,,,,1,2,0,58,58,2,1,,,,,,,,,,,,,,,,,,,,,,,,,,,,,,,,,,,,,,,,,,,,,,,,,,,,,,,,,,,,,,,,,,,,,,
,,?,0.00146,0,,,,,,stimuli/images/PICTURE_348.png,DUDE,5ded9996838b4f45b83bb3f9,14/11/1952,2020-07-09_13h02.33.042,proactive,2020.1.2,Win32,60,5f073de81c76c3308c0e4fb3,5f077792b667ed383946fe94,3,,,,,,pepper,,,,,,,,,,,6,2,0,59,59,59,1,,,,,,,,,,,,,,,,,,,,,,,,,,,,,,,,,,,,,,,,,,,,,,,,,,,,,,,,,,,,,,,,,,,,,,
,,,,,,,,,,,,5ded9996838b4f45b83bb3f9,14/11/1952,2020-07-09_13h02.33.042,proactive,2020.1.2,Win32,60,5f073de81c76c3308c0e4fb3,5f077792b667ed383946fe94,3,,,,,,,,,,,,,,,,,,,,,,,,0,0,0,2,1,stimuli/learn-block3.csv,,,,,,,,,,,,,,,,,,,,,,,,,,,,,,,,,,,,,,,,,,,,,,,,,,,,,,,,,,,,,,,,
,,,,,,,,,,stimuli/images/PICTURE_405.png,PLENTY,5ded9996838b4f45b83bb3f9,14/11/1952,2020-07-09_13h02.33.042,proactive,2020.1.2,Win32,60,5f073de81c76c3308c0e4fb3,5f077792b667ed383946fe94,3,,,,,,anchor,,,,,,0,0,0,23,1,3,1,,,,,,,,,,,,,,,,,,,,,,,,,,,,,,,,,,,,,,,,,,,,,,,,,,,,,,,,,,,,,,,,,,,,,,,,,,,
,,,,,,,,,,stimuli/images/PICTURE_147.png,WOMEN,5ded9996838b4f45b83bb3f9,14/11/1952,2020-07-09_13h02.33.042,proactive,2020.1.2,Win32,60,5f073de81c76c3308c0e4fb3,5f077792b667ed383946fe94,3,,,,,,hanger,,,,,,0,1,1,7,1,1,1,,,,,,,,,,,,,,,,,,,,,,,,,,,,,,,,,,,,,,,,,,,,,,,,,,,,,,,,,,,,,,,,,,,,,,,,,,,
,,,,,,,,,,stimuli/images/PICTURE_85.png,NATION,5ded9996838b4f45b83bb3f9,14/11/1952,2020-07-09_13h02.33.042,proactive,2020.1.2,Win32,60,5f073de81c76c3308c0e4fb3,5f077792b667ed383946fe94,3,,,,,,diamond,,,,,,0,2,2,5,1,1,1,,,,,,,,,,,,,,,,,,,,,,,,,,,,,,,,,,,,,,,,,,,,,,,,,,,,,,,,,,,,,,,,,,,,,,,,,,,
,,,,,,,,,,stimuli/images/PICTURE_327.png,CASINO,5ded9996838b4f45b83bb3f9,14/11/1952,2020-07-09_13h02.33.042,proactive,2020.1.2,Win32,60,5f073de81c76c3308c0e4fb3,5f077792b667ed383946fe94,3,,,,,,helmet,,,,,,0,3,3,20,1,3,1,,,,,,,,,,,,,,,,,,,,,,,,,,,,,,,,,,,,,,,,,,,,,,,,,,,,,,,,,,,,,,,,,,,,,,,,,,,
,,,,,,,,,,stimuli/images/PICTURE_208.png,SYSTEM,5ded9996838b4f45b83bb3f9,14/11/1952,2020-07-09_13h02.33.042,proactive,2020.1.2,Win32,60,5f073de81c76c3308c0e4fb3,5f077792b667ed383946fe94,3,,,,,,microphone,,,,,,0,4,4,32,1,4,1,,,,,,,,,,,,,,,,,,,,,,,,,,,,,,,,,,,,,,,,,,,,,,,,,,,,,,,,,,,,,,,,,,,,,,,,,,,
,,,,,,,,,,stimuli/images/PICTURE_708.png,RECORD,5ded9996838b4f45b83bb3f9,14/11/1952,2020-07-09_13h02.33.042,proactive,2020.1.2,Win32,60,5f073de81c76c3308c0e4fb3,5f077792b667ed383946fe94,3,,,,,,monkey,,,,,,0,5,5,58,1,6,1,,,,,,,,,,,,,,,,,,,,,,,,,,,,,,,,,,,,,,,,,,,,,,,,,,,,,,,,,,,,,,,,,,,,,,,,,,,
,,,,,,,,,,stimuli/images/PICTURE_296.png,LIFE,5ded9996838b4f45b83bb3f9,14/11/1952,2020-07-09_13h02.33.042,proactive,2020.1.2,Win32,60,5f073de81c76c3308c0e4fb3,5f077792b667ed383946fe94,3,,,,,,bolt,,,,,,0,6,6,57,1,6,1,,,,,,,,,,,,,,,,,,,,,,,,,,,,,,,,,,,,,,,,,,,,,,,,,,,,,,,,,,,,,,,,,,,,,,,,,,,
,,,,,,,,,,stimuli/images/PICTURE_233.png,LOTS,5ded9996838b4f45b83bb3f9,14/11/1952,2020-07-09_13h02.33.042,proactive,2020.1.2,Win32,60,5f073de81c76c3308c0e4fb3,5f077792b667ed383946fe94,3,,,,,,salt,,,,,,0,7,7,42,1,5,1,,,,,,,,,,,,,,,,,,,,,,,,,,,,,,,,,,,,,,,,,,,,,,,,,,,,,,,,,,,,,,,,,,,,,,,,,,,
,,,,,,,,,,stimuli/images/PICTURE_147.png,YEAR,5ded9996838b4f45b83bb3f9,14/11/1952,2020-07-09_13h02.33.042,proactive,2020.1.2,Win32,60,5f073de81c76c3308c0e4fb3,5f077792b667ed383946fe94,3,,,,,,hanger,,,,,,0,8,8,21,1,3,1,,,,,,,,,,,,,,,,,,,,,,,,,,,,,,,,,,,,,,,,,,,,,,,,,,,,,,,,,,,,,,,,,,,,,,,,,,,
,,,,,,,,,,stimuli/images/PICTURE_487.png,GIRL,5ded9996838b4f45b83bb3f9,14/11/1952,2020-07-09_13h02.33.042,proactive,2020.1.2,Win32,60,5f073de81c76c3308c0e4fb3,5f077792b667ed383946fe94,3,,,,,,basket,,,,,,0,9,9,45,1,5,1,,,,,,,,,,,,,,,,,,,,,,,,,,,,,,,,,,,,,,,,,,,,,,,,,,,,,,,,,,,,,,,,,,,,,,,,,,,
,,,,,,,,,,stimuli/images/PICTURE_405.png,YEAR,5ded9996838b4f45b83bb3f9,14/11/1952,2020-07-09_13h02.33.042,proactive,2020.1.2,Win32,60,5f073de81c76c3308c0e4fb3,5f077792b667ed383946fe94,3,,,,,,anchor,,,,,,0,10,10,34,1,4,1,,,,,,,,,,,,,,,,,,,,,,,,,,,,,,,,,,,,,,,,,,,,,,,,,,,,,,,,,,,,,,,,,,,,,,,,,,,
,,,,,,,,,,stimuli/images/PICTURE_2.png,FLIGHT,5ded9996838b4f45b83bb3f9,14/11/1952,2020-07-09_13h02.33.042,proactive,2020.1.2,Win32,60,5f073de81c76c3308c0e4fb3,5f077792b667ed383946fe94,3,,,,,,tyre,,,,,,0,11,11,15,1,2,1,,,,,,,,,,,,,,,,,,,,,,,,,,,,,,,,,,,,,,,,,,,,,,,,,,,,,,,,,,,,,,,,,,,,,,,,,,,
,,,,,,,,,,stimuli/images/PICTURE_564.png,BATH,5ded9996838b4f45b83bb3f9,14/11/1952,2020-07-09_13h02.33.042,proactive,2020.1.2,Win32,60,5f073de81c76c3308c0e4fb3,5f077792b667ed383946fe94,3,,,,,,spoon,,,,,,0,12,12,26,1,3,1,,,,,,,,,,,,,,,,,,,,,,,,,,,,,,,,,,,,,,,,,,,,,,,,,,,,,,,,,,,,,,,,,,,,,,,,,,,
,,,,,,,,,,stimuli/images/PICTURE_383.png,SERIES,5ded9996838b4f45b83bb3f9,14/11/1952,2020-07-09_13h02.33.042,proactive,2020.1.2,Win32,60,5f073de81c76c3308c0e4fb3,5f077792b667ed383946fe94,3,,,,,,coin,,,,,,0,13,13,46,1,5,1,,,,,,,,,,,,,,,,,,,,,,,,,,,,,,,,,,,,,,,,,,,,,,,,,,,,,,,,,,,,,,,,,,,,,,,,,,,
,,,,,,,,,,stimuli/images/PICTURE_491.png,RIVER,5ded9996838b4f45b83bb3f9,14/11/1952,2020-07-09_13h02.33.042,proactive,2020.1.2,Win32,60,5f073de81c76c3308c0e4fb3,5f077792b667ed383946fe94,3,,,,,,rug,,,,,,0,14,14,6,1,1,1,,,,,,,,,,,,,,,,,,,,,,,,,,,,,,,,,,,,,,,,,,,,,,,,,,,,,,,,,,,,,,,,,,,,,,,,,,,
,,,,,,,,,,stimuli/images/PICTURE_403.png,WRITER,5ded9996838b4f45b83bb3f9,14/11/1952,2020-07-09_13h02.33.042,proactive,2020.1.2,Win32,60,5f073de81c76c3308c0e4fb3,5f077792b667ed383946fe94,3,,,,,,cathedral,,,,,,0,15,15,31,1,4,1,,,,,,,,,,,,,,,,,,,,,,,,,,,,,,,,,,,,,,,,,,,,,,,,,,,,,,,,,,,,,,,,,,,,,,,,,,,
,,,,,,,,,,stimuli/images/PICTURE_57.png,MOMENT,5ded9996838b4f45b83bb3f9,14/11/1952,2020-07-09_13h02.33.042,proactive,2020.1.2,Win32,60,5f073de81c76c3308c0e4fb3,5f077792b667ed383946fe94,3,,,,,,stamp,,,,,,0,16,16,37,1,4,1,,,,,,,,,,,,,,,,,,,,,,,,,,,,,,,,,,,,,,,,,,,,,,,,,,,,,,,,,,,,,,,,,,,,,,,,,,,
,,,,,,,,,,stimuli/images/PICTURE_68.png,ROOF,5ded9996838b4f45b83bb3f9,14/11/1952,2020-07-09_13h02.33.042,proactive,2020.1.2,Win32,60,5f073de81c76c3308c0e4fb3,5f077792b667ed383946fe94,3,,,,,,candle,,,,,,0,17,17,38,1,4,1,,,,,,,,,,,,,,,,,,,,,,,,,,,,,,,,,,,,,,,,,,,,,,,,,,,,,,,,,,,,,,,,,,,,,,,,,,,
,,,,,,,,,,stimuli/images/PICTURE_383.png,WRITER,5ded9996838b4f45b83bb3f9,14/11/1952,2020-07-09_13h02.33.042,proactive,2020.1.2,Win32,60,5f073de81c76c3308c0e4fb3,5f077792b667ed383946fe94,3,,,,,,coin,,,,,,0,18,18,28,1,3,1,,,,,,,,,,,,,,,,,,,,,,,,,,,,,,,,,,,,,,,,,,,,,,,,,,,,,,,,,,,,,,,,,,,,,,,,,,,
,,,,,,,,,,stimuli/images/PICTURE_654.png,MONTH,5ded9996838b4f45b83bb3f9,14/11/1952,2020-07-09_13h02.33.042,proactive,2020.1.2,Win32,60,5f073de81c76c3308c0e4fb3,5f077792b667ed383946fe94,3,,,,,,pencil,,,,,,0,19,19,29,1,3,1,,,,,,,,,,,,,,,,,,,,,,,,,,,,,,,,,,,,,,,,,,,,,,,,,,,,,,,,,,,,,,,,,,,,,,,,,,,
,,,,,,,,,,stimuli/images/PICTURE_32.png,KIND,5ded9996838b4f45b83bb3f9,14/11/1952,2020-07-09_13h02.33.042,proactive,2020.1.2,Win32,60,5f073de81c76c3308c0e4fb3,5f077792b667ed383946fe94,3,,,,,,crown,,,,,,0,20,20,35,1,4,1,,,,,,,,,,,,,,,,,,,,,,,,,,,,,,,,,,,,,,,,,,,,,,,,,,,,,,,,,,,,,,,,,,,,,,,,,,,
,,,,,,,,,,stimuli/images/PICTURE_95.png,HONEY,5ded9996838b4f45b83bb3f9,14/11/1952,2020-07-09_13h02.33.042,proactive,2020.1.2,Win32,60,5f073de81c76c3308c0e4fb3,5f077792b667ed383946fe94,3,,,,,,suitcase,,,,,,0,21,21,44,1,5,1,,,,,,,,,,,,,,,,,,,,,,,,,,,,,,,,,,,,,,,,,,,,,,,,,,,,,,,,,,,,,,,,,,,,,,,,,,,
,,,,,,,,,,stimuli/images/PICTURE_467.png,POLICY,5ded9996838b4f45b83bb3f9,14/11/1952,2020-07-09_13h02.33.042,proactive,2020.1.2,Win32,60,5f073de81c76c3308c0e4fb3,5f077792b667ed383946fe94,3,,,,,,peg,,,,,,0,22,22,53,1,6,1,,,,,,,,,,,,,,,,,,,,,,,,,,,,,,,,,,,,,,,,,,,,,,,,,,,,,,,,,,,,,,,,,,,,,,,,,,,
,,,,,,,,,,stimuli/images/PICTURE_297.png,RIVER,5ded9996838b4f45b83bb3f9,14/11/1952,2020-07-09_13h02.33.042,proactive,2020.1.2,Win32,60,5f073de81c76c3308c0e4fb3,5f077792b667ed383946fe94,3,,,,,,aeroplane,,,,,,0,23,23,39,1,4,1,,,,,,,,,,,,,,,,,,,,,,,,,,,,,,,,,,,,,,,,,,,,,,,,,,,,,,,,,,,,,,,,,,,,,,,,,,,
,,,,,,,,,,stimuli/images/PICTURE_95.png,BOYS,5ded9996838b4f45b83bb3f9,14/11/1952,2020-07-09_13h02.33.042,proactive,2020.1.2,Win32,60,5f073de81c76c3308c0e4fb3,5f077792b667ed383946fe94,3,,,,,,suitcase,,,,,,0,24,24,1,1,1,1,,,,,,,,,,,,,,,,,,,,,,,,,,,,,,,,,,,,,,,,,,,,,,,,,,,,,,,,,,,,,,,,,,,,,,,,,,,
,,,,,,,,,,stimuli/images/PICTURE_108.png,POLICY,5ded9996838b4f45b83bb3f9,14/11/1952,2020-07-09_13h02.33.042,proactive,2020.1.2,Win32,60,5f073de81c76c3308c0e4fb3,5f077792b667ed383946fe94,3,,,,,,calendar,,,,,,0,25,25,22,1,3,1,,,,,,,,,,,,,,,,,,,,,,,,,,,,,,,,,,,,,,,,,,,,,,,,,,,,,,,,,,,,,,,,,,,,,,,,,,,
,,,,,,,,,,stimuli/images/PICTURE_308.png,FAMILY,5ded9996838b4f45b83bb3f9,14/11/1952,2020-07-09_13h02.33.042,proactive,2020.1.2,Win32,60,5f073de81c76c3308c0e4fb3,5f077792b667ed383946fe94,3,,,,,,dice,,,,,,0,26,26,36,1,4,1,,,,,,,,,,,,,,,,,,,,,,,,,,,,,,,,,,,,,,,,,,,,,,,,,,,,,,,,,,,,,,,,,,,,,,,,,,,
,,,,,,,,,,stimuli/images/PICTURE_108.png,FLIGHT,5ded9996838b4f45b83bb3f9,14/11/1952,2020-07-09_13h02.33.042,proactive,2020.1.2,Win32,60,5f073de81c76c3308c0e4fb3,5f077792b667ed383946fe94,3,,,,,,calendar,,,,,,0,27,27,59,1,6,1,,,,,,,,,,,,,,,,,,,,,,,,,,,,,,,,,,,,,,,,,,,,,,,,,,,,,,,,,,,,,,,,,,,,,,,,,,,
,,,,,,,,,,stimuli/images/PICTURE_339.png,CLIENT,5ded9996838b4f45b83bb3f9,14/11/1952,2020-07-09_13h02.33.042,proactive,2020.1.2,Win32,60,5f073de81c76c3308c0e4fb3,5f077792b667ed383946fe94,3,,,,,,backpack,,,,,,0,28,28,11,1,2,1,,,,,,,,,,,,,,,,,,,,,,,,,,,,,,,,,,,,,,,,,,,,,,,,,,,,,,,,,,,,,,,,,,,,,,,,,,,
,,,,,,,,,,stimuli/images/PICTURE_177.png,WRITER,5ded9996838b4f45b83bb3f9,14/11/1952,2020-07-09_13h02.33.042,proactive,2020.1.2,Win32,60,5f073de81c76c3308c0e4fb3,5f077792b667ed383946fe94,3,,,,,,mushroom,,,,,,0,29,29,41,1,5,1,,,,,,,,,,,,,,,,,,,,,,,,,,,,,,,,,,,,,,,,,,,,,,,,,,,,,,,,,,,,,,,,,,,,,,,,,,,
,,,,,,,,,,stimuli/images/PICTURE_68.png,MILE,5ded9996838b4f45b83bb3f9,14/11/1952,2020-07-09_13h02.33.042,proactive,2020.1.2,Win32,60,5f073de81c76c3308c0e4fb3,5f077792b667ed383946fe94,3,,,,,,candle,,,,,,0,30,30,51,1,6,1,,,,,,,,,,,,,,,,,,,,,,,,,,,,,,,,,,,,,,,,,,,,,,,,,,,,,,,,,,,,,,,,,,,,,,,,,,,
,,,,,,,,,,stimuli/images/PICTURE_32.png,PILLS,5ded9996838b4f45b83bb3f9,14/11/1952,2020-07-09_13h02.33.042,proactive,2020.1.2,Win32,60,5f073de81c76c3308c0e4fb3,5f077792b667ed383946fe94,3,,,,,,crown,,,,,,0,31,31,18,1,2,1,,,,,,,,,,,,,,,,,,,,,,,,,,,,,,,,,,,,,,,,,,,,,,,,,,,,,,,,,,,,,,,,,,,,,,,,,,,
,,,,,,,,,,stimuli/images/PICTURE_675.png,SALE,5ded9996838b4f45b83bb3f9,14/11/1952,2020-07-09_13h02.33.042,proactive,2020.1.2,Win32,60,5f073de81c76c3308c0e4fb3,5f077792b667ed383946fe94,3,,,,,,windmill,,,,,,0,32,32,47,1,5,1,,,,,,,,,,,,,,,,,,,,,,,,,,,,,,,,,,,,,,,,,,,,,,,,,,,,,,,,,,,,,,,,,,,,,,,,,,,
,,,,,,,,,,stimuli/images/PICTURE_203.png,GODS,5ded9996838b4f45b83bb3f9,14/11/1952,2020-07-09_13h02.33.042,proactive,2020.1.2,Win32,60,5f073de81c76c3308c0e4fb3,5f077792b667ed383946fe94,3,,,,,,cap,,,,,,0,33,33,30,1,4,1,,,,,,,,,,,,,,,,,,,,,,,,,,,,,,,,,,,,,,,,,,,,,,,,,,,,,,,,,,,,,,,,,,,,,,,,,,,
,,,,,,,,,,stimuli/images/PICTURE_504.png,ARTIST,5ded9996838b4f45b83bb3f9,14/11/1952,2020-07-09_13h02.33.042,proactive,2020.1.2,Win32,60,5f073de81c76c3308c0e4fb3,5f077792b667ed383946fe94,3,,,,,,wheel,,,,,,0,34,34,49,1,5,1,,,,,,,,,,,,,,,,,,,,,,,,,,,,,,,,,,,,,,,,,,,,,,,,,,,,,,,,,,,,,,,,,,,,,,,,,,,
,,,,,,,,,,stimuli/images/PICTURE_203.png,NIGHT,5ded9996838b4f45b83bb3f9,14/11/1952,2020-07-09_13h02.33.042,proactive,2020.1.2,Win32,60,5f073de81c76c3308c0e4fb3,5f077792b667ed383946fe94,3,,,,,,cap,,,,,,0,35,35,2,1,1,1,,,,,,,,,,,,,,,,,,,,,,,,,,,,,,,,,,,,,,,,,,,,,,,,,,,,,,,,,,,,,,,,,,,,,,,,,,,
,,,,,,,,,,stimuli/images/PICTURE_744.png,WEAPON,5ded9996838b4f45b83bb3f9,14/11/1952,2020-07-09_13h02.33.042,proactive,2020.1.2,Win32,60,5f073de81c76c3308c0e4fb3,5f077792b667ed383946fe94,3,,,,,,ring,,,,,,0,36,36,50,1,6,1,,,,,,,,,,,,,,,,,,,,,,,,,,,,,,,,,,,,,,,,,,,,,,,,,,,,,,,,,,,,,,,,,,,,,,,,,,,
,,,,,,,,,,stimuli/images/PICTURE_449.png,DUDE,5ded9996838b4f45b83bb3f9,14/11/1952,2020-07-09_13h02.33.042,proactive,2020.1.2,Win32,60,5f073de81c76c3308c0e4fb3,5f077792b667ed383946fe94,3,,,,,,bench,,,,,,0,37,37,17,1,2,1,,,,,,,,,,,,,,,,,,,,,,,,,,,,,,,,,,,,,,,,,,,,,,,,,,,,,,,,,,,,,,,,,,,,,,,,,,,
,,,,,,,,,,stimuli/images/PICTURE_685.png,PENNY,5ded9996838b4f45b83bb3f9,14/11/1952,2020-07-09_13h02.33.042,proactive,2020.1.2,Win32,60,5f073de81c76c3308c0e4fb3,5f077792b667ed383946fe94,3,,,,,,goose,,,,,,0,38,38,4,1,1,1,,,,,,,,,,,,,,,,,,,,,,,,,,,,,,,,,,,,,,,,,,,,,,,,,,,,,,,,,,,,,,,,,,,,,,,,,,,
,,,,,,,,,,stimuli/images/PICTURE_95.png,MILLER,5ded9996838b4f45b83bb3f9,14/11/1952,2020-07-09_13h02.33.042,proactive,2020.1.2,Win32,60,5f073de81c76c3308c0e4fb3,5f077792b667ed383946fe94,3,,,,,,suitcase,,,,,,0,39,39,56,1,6,1,,,,,,,,,,,,,,,,,,,,,,,,,,,,,,,,,,,,,,,,,,,,,,,,,,,,,,,,,,,,,,,,,,,,,,,,,,,
,,,,,,,,,,stimuli/images/PICTURE_380.png,CANDY,5ded9996838b4f45b83bb3f9,14/11/1952,2020-07-09_13h02.33.042,proactive,2020.1.2,Win32,60,5f073de81c76c3308c0e4fb3,5f077792b667ed383946fe94,3,,,,,,gorilla,,,,,,0,40,40,0,1,1,1,,,,,,,,,,,,,,,,,,,,,,,,,,,,,,,,,,,,,,,,,,,,,,,,,,,,,,,,,,,,,,,,,,,,,,,,,,,
,,,,,,,,,,stimuli/images/PICTURE_403.png,TOILET,5ded9996838b4f45b83bb3f9,14/11/1952,2020-07-09_13h02.33.042,proactive,2020.1.2,Win32,60,5f073de81c76c3308c0e4fb3,5f077792b667ed383946fe94,3,,,,,,cathedral,,,,,,0,41,41,25,1,3,1,,,,,,,,,,,,,,,,,,,,,,,,,,,,,,,,,,,,,,,,,,,,,,,,,,,,,,,,,,,,,,,,,,,,,,,,,,,
,,,,,,,,,,stimuli/images/PICTURE_750.png,HOTEL,5ded9996838b4f45b83bb3f9,14/11/1952,2020-07-09_13h02.33.042,proactive,2020.1.2,Win32,60,5f073de81c76c3308c0e4fb3,5f077792b667ed383946fe94,3,,,,,,kettle,,,,,,0,42,42,27,1,3,1,,,,,,,,,,,,,,,,,,,,,,,,,,,,,,,,,,,,,,,,,,,,,,,,,,,,,,,,,,,,,,,,,,,,,,,,,,,
,,,,,,,,,,stimuli/images/PICTURE_667.png,RIVER,5ded9996838b4f45b83bb3f9,14/11/1952,2020-07-09_13h02.33.042,proactive,2020.1.2,Win32,60,5f073de81c76c3308c0e4fb3,5f077792b667ed383946fe94,3,,,,,,daisy,,,,,,0,43,43,10,1,2,1,,,,,,,,,,,,,,,,,,,,,,,,,,,,,,,,,,,,,,,,,,,,,,,,,,,,,,,,,,,,,,,,,,,,,,,,,,,
,,,,,,,,,,stimuli/images/PICTURE_85.png,TOILET,5ded9996838b4f45b83bb3f9,14/11/1952,2020-07-09_13h02.33.042,proactive,2020.1.2,Win32,60,5f073de81c76c3308c0e4fb3,5f077792b667ed383946fe94,3,,,,,,diamond,,,,,,0,44,44,48,1,5,1,,,,,,,,,,,,,,,,,,,,,,,,,,,,,,,,,,,,,,,,,,,,,,,,,,,,,,,,,,,,,,,,,,,,,,,,,,,
,,,,,,,,,,stimuli/images/PICTURE_469.png,AGENT,5ded9996838b4f45b83bb3f9,14/11/1952,2020-07-09_13h02.33.042,proactive,2020.1.2,Win32,60,5f073de81c76c3308c0e4fb3,5f077792b667ed383946fe94,3,,,,,,stool,,,,,,0,45,45,16,1,2,1,,,,,,,,,,,,,,,,,,,,,,,,,,,,,,,,,,,,,,,,,,,,,,,,,,,,,,,,,,,,,,,,,,,,,,,,,,,
,,,,,,,,,,stimuli/images/PICTURE_655.png,TOILET,5ded9996838b4f45b83bb3f9,14/11/1952,2020-07-09_13h02.33.042,proactive,2020.1.2,Win32,60,5f073de81c76c3308c0e4fb3,5f077792b667ed383946fe94,3,,,,,,megaphone,,,,,,0,46,46,12,1,2,1,,,,,,,,,,,,,,,,,,,,,,,,,,,,,,,,,,,,,,,,,,,,,,,,,,,,,,,,,,,,,,,,,,,,,,,,,,,
,,,,,,,,,,stimuli/images/PICTURE_677.png,APPLE,5ded9996838b4f45b83bb3f9,14/11/1952,2020-07-09_13h02.33.042,proactive,2020.1.2,Win32,60,5f073de81c76c3308c0e4fb3,5f077792b667ed383946fe94,3,,,,,,map,,,,,,0,47,47,43,1,5,1,,,,,,,,,,,,,,,,,,,,,,,,,,,,,,,,,,,,,,,,,,,,,,,,,,,,,,,,,,,,,,,,,,,,,,,,,,,
,,,,,,,,,,stimuli/images/PICTURE_340.png,LETTER,5ded9996838b4f45b83bb3f9,14/11/1952,2020-07-09_13h02.33.042,proactive,2020.1.2,Win32,60,5f073de81c76c3308c0e4fb3,5f077792b667ed383946fe94,3,,,,,,mirror,,,,,,0,48,48,24,1,3,1,,,,,,,,,,,,,,,,,,,,,,,,,,,,,,,,,,,,,,,,,,,,,,,,,,,,,,,,,,,,,,,,,,,,,,,,,,,
,,,,,,,,,,stimuli/images/PICTURE_327.png,SERIES,5ded9996838b4f45b83bb3f9,14/11/1952,2020-07-09_13h02.33.042,proactive,2020.1.2,Win32,60,5f073de81c76c3308c0e4fb3,5f077792b667ed383946fe94,3,,,,,,helmet,,,,,,0,49,49,3,1,1,1,,,,,,,,,,,,,,,,,,,,,,,,,,,,,,,,,,,,,,,,,,,,,,,,,,,,,,,,,,,,,,,,,,,,,,,,,,,
,,,,,,,,,,stimuli/images/PICTURE_491.png,GLASS,5ded9996838b4f45b83bb3f9,14/11/1952,2020-07-09_13h02.33.042,proactive,2020.1.2,Win32,60,5f073de81c76c3308c0e4fb3,5f077792b667ed383946fe94,3,,,,,,rug,,,,,,0,50,50,14,1,2,1,,,,,,,,,,,,,,,,,,,,,,,,,,,,,,,,,,,,,,,,,,,,,,,,,,,,,,,,,,,,,,,,,,,,,,,,,,,
,,,,,,,,,,stimuli/images/PICTURE_42.png,BOYS,5ded9996838b4f45b83bb3f9,14/11/1952,2020-07-09_13h02.33.042,proactive,2020.1.2,Win32,60,5f073de81c76c3308c0e4fb3,5f077792b667ed383946fe94,3,,,,,,pear,,,,,,0,51,51,55,1,6,1,,,,,,,,,,,,,,,,,,,,,,,,,,,,,,,,,,,,,,,,,,,,,,,,,,,,,,,,,,,,,,,,,,,,,,,,,,,
,,,,,,,,,,stimuli/images/PICTURE_504.png,COPS,5ded9996838b4f45b83bb3f9,14/11/1952,2020-07-09_13h02.33.042,proactive,2020.1.2,Win32,60,5f073de81c76c3308c0e4fb3,5f077792b667ed383946fe94,3,,,,,,wheel,,,,,,0,52,52,52,1,6,1,,,,,,,,,,,,,,,,,,,,,,,,,,,,,,,,,,,,,,,,,,,,,,,,,,,,,,,,,,,,,,,,,,,,,,,,,,,
,,,,,,,,,,stimuli/images/PICTURE_340.png,VALLEY,5ded9996838b4f45b83bb3f9,14/11/1952,2020-07-09_13h02.33.042,proactive,2020.1.2,Win32,60,5f073de81c76c3308c0e4fb3,5f077792b667ed383946fe94,3,,,,,,mirror,,,,,,0,53,53,54,1,6,1,,,,,,,,,,,,,,,,,,,,,,,,,,,,,,,,,,,,,,,,,,,,,,,,,,,,,,,,,,,,,,,,,,,,,,,,,,,
,,,,,,,,,,stimuli/images/PICTURE_285.png,LIFE,5ded9996838b4f45b83bb3f9,14/11/1952,2020-07-09_13h02.33.042,proactive,2020.1.2,Win32,60,5f073de81c76c3308c0e4fb3,5f077792b667ed383946fe94,3,,,,,,carrot,,,,,,0,54,54,33,1,4,1,,,,,,,,,,,,,,,,,,,,,,,,,,,,,,,,,,,,,,,,,,,,,,,,,,,,,,,,,,,,,,,,,,,,,,,,,,,
,,,,,,,,,,stimuli/images/PICTURE_380.png,HONEY,5ded9996838b4f45b83bb3f9,14/11/1952,2020-07-09_13h02.33.042,proactive,2020.1.2,Win32,60,5f073de81c76c3308c0e4fb3,5f077792b667ed383946fe94,3,,,,,,gorilla,,,,,,0,55,55,19,1,2,1,,,,,,,,,,,,,,,,,,,,,,,,,,,,,,,,,,,,,,,,,,,,,,,,,,,,,,,,,,,,,,,,,,,,,,,,,,,
,,,,,,,,,,stimuli/images/PICTURE_504.png,YEAR,5ded9996838b4f45b83bb3f9,14/11/1952,2020-07-09_13h02.33.042,proactive,2020.1.2,Win32,60,5f073de81c76c3308c0e4fb3,5f077792b667ed383946fe94,3,,,,,,wheel,,,,,,0,56,56,13,1,2,1,,,,,,,,,,,,,,,,,,,,,,,,,,,,,,,,,,,,,,,,,,,,,,,,,,,,,,,,,,,,,,,,,,,,,,,,,,,
,,,,,,,,,,stimuli/images/PICTURE_296.png,LOTS,5ded9996838b4f45b83bb3f9,14/11/1952,2020-07-09_13h02.33.042,proactive,2020.1.2,Win32,60,5f073de81c76c3308c0e4fb3,5f077792b667ed383946fe94,3,,,,,,bolt,,,,,,0,57,57,9,1,1,1,,,,,,,,,,,,,,,,,,,,,,,,,,,,,,,,,,,,,,,,,,,,,,,,,,,,,,,,,,,,,,,,,,,,,,,,,,,
,,,,,,,,,,stimuli/images/PICTURE_403.png,RIVER,5ded9996838b4f45b83bb3f9,14/11/1952,2020-07-09_13h02.33.042,proactive,2020.1.2,Win32,60,5f073de81c76c3308c0e4fb3,5f077792b667ed383946fe94,3,,,,,,cathedral,,,,,,0,58,58,40,1,5,1,,,,,,,,,,,,,,,,,,,,,,,,,,,,,,,,,,,,,,,,,,,,,,,,,,,,,,,,,,,,,,,,,,,,,,,,,,,
,,YEAR,15.00127,1,,,,,,stimuli/images/PICTURE_147.png,YEAR,5ded9996838b4f45b83bb3f9,14/11/1952,2020-07-09_13h02.33.042,proactive,2020.1.2,Win32,60,5f073de81c76c3308c0e4fb3,5f077792b667ed383946fe94,3,,,,,,hanger,,,,,,,,,,,3,1,0,0,0,21,1,,,,,,,,,,,,,,,,,,,,,,,,,,,,,,,,,,,,,,,,,,,,,,,,,,,,,,,,,,,,,,,,,,,,,,
,,?,0.00165,0,,,,,,stimuli/images/PICTURE_677.png,APPLE,5ded9996838b4f45b83bb3f9,14/11/1952,2020-07-09_13h02.33.042,proactive,2020.1.2,Win32,60,5f073de81c76c3308c0e4fb3,5f077792b667ed383946fe94,3,,,,,,map,,,,,,,,,,,5,1,0,1,1,43,1,,,,,,,,,,,,,,,,,,,,,,,,,,,,,,,,,,,,,,,,,,,,,,,,,,,,,,,,,,,,,,,,,,,,,,
,,?,0.001165,0,,,,,,stimuli/images/PICTURE_380.png,CANDY,5ded9996838b4f45b83bb3f9,14/11/1952,2020-07-09_13h02.33.042,proactive,2020.1.2,Win32,60,5f073de81c76c3308c0e4fb3,5f077792b667ed383946fe94,3,,,,,,gorilla,,,,,,,,,,,1,1,0,2,2,0,1,,,,,,,,,,,,,,,,,,,,,,,,,,,,,,,,,,,,,,,,,,,,,,,,,,,,,,,,,,,,,,,,,,,,,,
,,?,0.001175,0,,,,,,stimuli/images/PICTURE_203.png,NIGHT,5ded9996838b4f45b83bb3f9,14/11/1952,2020-07-09_13h02.33.042,proactive,2020.1.2,Win32,60,5f073de81c76c3308c0e4fb3,5f077792b667ed383946fe94,3,,,,,,cap,,,,,,,,,,,1,1,0,3,3,2,1,,,,,,,,,,,,,,,,,,,,,,,,,,,,,,,,,,,,,,,,,,,,,,,,,,,,,,,,,,,,,,,,,,,,,,
,,?,0.001215,0,,,,,,stimuli/images/PICTURE_296.png,LIFE,5ded9996838b4f45b83bb3f9,14/11/1952,2020-07-09_13h02.33.042,proactive,2020.1.2,Win32,60,5f073de81c76c3308c0e4fb3,5f077792b667ed383946fe94,3,,,,,,bolt,,,,,,,,,,,6,1,0,4,4,57,1,,,,,,,,,,,,,,,,,,,,,,,,,,,,,,,,,,,,,,,,,,,,,,,,,,,,,,,,,,,,,,,,,,,,,,
,,?,0.00119,0,,,,,,stimuli/images/PICTURE_487.png,GIRL,5ded9996838b4f45b83bb3f9,14/11/1952,2020-07-09_13h02.33.042,proactive,2020.1.2,Win32,60,5f073de81c76c3308c0e4fb3,5f077792b667ed383946fe94,3,,,,,,basket,,,,,,,,,,,5,1,0,5,5,45,1,,,,,,,,,,,,,,,,,,,,,,,,,,,,,,,,,,,,,,,,,,,,,,,,,,,,,,,,,,,,,,,,,,,,,,
,,?,0.001245,0,,,,,,stimuli/images/PICTURE_667.png,RIVER,5ded9996838b4f45b83bb3f9,14/11/1952,2020-07-09_13h02.33.042,proactive,2020.1.2,Win32,60,5f073de81c76c3308c0e4fb3,5f077792b667ed383946fe94,3,,,,,,daisy,,,,,,,,,,,2,1,0,6,6,10,1,,,,,,,,,,,,,,,,,,,,,,,,,,,,,,,,,,,,,,,,,,,,,,,,,,,,,,,,,,,,,,,,,,,,,,
,,WRITER,15.006275,1,,,,,,stimuli/images/PICTURE_383.png,WRITER,5ded9996838b4f45b83bb3f9,14/11/1952,2020-07-09_13h02.33.042,proactive,2020.1.2,Win32,60,5f073de81c76c3308c0e4fb3,5f077792b667ed383946fe94,3,,,,,,coin,,,,,,,,,,,3,1,0,7,7,28,1,,,,,,,,,,,,,,,,,,,,,,,,,,,,,,,,,,,,,,,,,,,,,,,,,,,,,,,,,,,,,,,,,,,,,,
,,?,0.004615,0,,,,,,stimuli/images/PICTURE_68.png,ROOF,5ded9996838b4f45b83bb3f9,14/11/1952,2020-07-09_13h02.33.042,proactive,2020.1.2,Win32,60,5f073de81c76c3308c0e4fb3,5f077792b667ed383946fe94,3,,,,,,candle,,,,,,,,,,,4,1,0,8,8,38,1,,,,,,,,,,,,,,,,,,,,,,,,,,,,,,,,,,,,,,,,,,,,,,,,,,,,,,,,,,,,,,,,,,,,,,
,,?,0.00236,0,,,,,,stimuli/images/PICTURE_285.png,LIFE,5ded9996838b4f45b83bb3f9,14/11/1952,2020-07-09_13h02.33.042,proactive,2020.1.2,Win32,60,5f073de81c76c3308c0e4fb3,5f077792b667ed383946fe94,3,,,,,,carrot,,,,,,,,,,,4,1,0,9,9,33,1,,,,,,,,,,,,,,,,,,,,,,,,,,,,,,,,,,,,,,,,,,,,,,,,,,,,,,,,,,,,,,,,,,,,,,
,,?,0.002275,0,,,,,,stimuli/images/PICTURE_42.png,BOYS,5ded9996838b4f45b83bb3f9,14/11/1952,2020-07-09_13h02.33.042,proactive,2020.1.2,Win32,60,5f073de81c76c3308c0e4fb3,5f077792b667ed383946fe94,3,,,,,,pear,,,,,,,,,,,6,1,0,10,10,55,1,,,,,,,,,,,,,,,,,,,,,,,,,,,,,,,,,,,,,,,,,,,,,,,,,,,,,,,,,,,,,,,,,,,,,,
,,?,0.002465,0,,,,,,stimuli/images/PICTURE_655.png,TOILET,5ded9996838b4f45b83bb3f9,14/11/1952,2020-07-09_13h02.33.042,proactive,2020.1.2,Win32,60,5f073de81c76c3308c0e4fb3,5f077792b667ed383946fe94,3,,,,,,megaphone,,,,,,,,,,,2,1,0,11,11,12,1,,,,,,,,,,,,,,,,,,,,,,,,,,,,,,,,,,,,,,,,,,,,,,,,,,,,,,,,,,,,,,,,,,,,,,
,,?,0.002175,0,,,,,,stimuli/images/PICTURE_32.png,PILLS,5ded9996838b4f45b83bb3f9,14/11/1952,2020-07-09_13h02.33.042,proactive,2020.1.2,Win32,60,5f073de81c76c3308c0e4fb3,5f077792b667ed383946fe94,3,,,,,,crown,,,,,,,,,,,2,1,0,12,12,18,1,,,,,,,,,,,,,,,,,,,,,,,,,,,,,,,,,,,,,,,,,,,,,,,,,,,,,,,,,,,,,,,,,,,,,,
,,?,0.002215,0,,,,,,stimuli/images/PICTURE_297.png,RIVER,5ded9996838b4f45b83bb3f9,14/11/1952,2020-07-09_13h02.33.042,proactive,2020.1.2,Win32,60,5f073de81c76c3308c0e4fb3,5f077792b667ed383946fe94,3,,,,,,aeroplane,,,,,,,,,,,4,1,0,13,13,39,1,,,,,,,,,,,,,,,,,,,,,,,,,,,,,,,,,,,,,,,,,,,,,,,,,,,,,,,,,,,,,,,,,,,,,,
,,?,0.002615,0,,,,,,stimuli/images/PICTURE_95.png,HONEY,5ded9996838b4f45b83bb3f9,14/11/1952,2020-07-09_13h02.33.042,proactive,2020.1.2,Win32,60,5f073de81c76c3308c0e4fb3,5f077792b667ed383946fe94,3,,,,,,suitcase,,,,,,,,,,,5,1,0,14,14,44,1,,,,,,,,,,,,,,,,,,,,,,,,,,,,,,,,,,,,,,,,,,,,,,,,,,,,,,,,,,,,,,,,,,,,,,
,,?,0.00218,0,,,,,,stimuli/images/PICTURE_403.png,WRITER,5ded9996838b4f45b83bb3f9,14/11/1952,2020-07-09_13h02.33.042,proactive,2020.1.2,Win32,60,5f073de81c76c3308c0e4fb3,5f077792b667ed383946fe94,3,,,,,,cathedral,,,,,,,,,,,4,1,0,15,15,31,1,,,,,,,,,,,,,,,,,,,,,,,,,,,,,,,,,,,,,,,,,,,,,,,,,,,,,,,,,,,,,,,,,,,,,,
,,?,0.001395,0,,,,,,stimuli/images/PICTURE_85.png,TOILET,5ded9996838b4f45b83bb3f9,14/11/1952,2020-07-09_13h02.33.042,proactive,2020.1.2,Win32,60,5f073de81c76c3308c0e4fb3,5f077792b667ed383946fe94,3,,,,,,diamond,,,,,,,,,,,5,1,0,16,16,48,1,,,,,,,,,,,,,,,,,,,,,,,,,,,,,,,,,,,,,,,,,,,,,,,,,,,,,,,,,,,,,,,,,,,,,,
,,?,0.001185,0,,,,,,stimuli/images/PICTURE_383.png,SERIES,5ded9996838b4f45b83bb3f9,14/11/1952,2020-07-09_13h02.33.042,proactive,2020.1.2,Win32,60,5f073de81c76c3308c0e4fb3,5f077792b667ed383946fe94,3,,,,,,coin,,,,,,,,,,,5,1,0,17,17,46,1,,,,,,,,,,,,,,,,,,,,,,,,,,,,,,,,,,,,,,,,,,,,,,,,,,,,,,,,,,,,,,,,,,,,,,
,,?,0.001175,0,,,,,,stimuli/images/PICTURE_32.png,KIND,5ded9996838b4f45b83bb3f9,14/11/1952,2020-07-09_13h02.33.042,proactive,2020.1.2,Win32,60,5f073de81c76c3308c0e4fb3,5f077792b667ed383946fe94,3,,,,,,crown,,,,,,,,,,,4,1,0,18,18,35,1,,,,,,,,,,,,,,,,,,,,,,,,,,,,,,,,,,,,,,,,,,,,,,,,,,,,,,,,,,,,,,,,,,,,,,
,,?,0.00164,0,,,,,,stimuli/images/PICTURE_33.png,FRIEND,5ded9996838b4f45b83bb3f9,14/11/1952,2020-07-09_13h02.33.042,proactive,2020.1.2,Win32,60,5f073de81c76c3308c0e4fb3,5f077792b667ed383946fe94,3,,,,,,frame,,,,,,,,,,,1,1,0,19,19,8,1,,,,,,,,,,,,,,,,,,,,,,,,,,,,,,,,,,,,,,,,,,,,,,,,,,,,,,,,,,,,,,,,,,,,,,
,,?,0.00115,0,,,,,,stimuli/images/PICTURE_504.png,COPS,5ded9996838b4f45b83bb3f9,14/11/1952,2020-07-09_13h02.33.042,proactive,2020.1.2,Win32,60,5f073de81c76c3308c0e4fb3,5f077792b667ed383946fe94,3,,,,,,wheel,,,,,,,,,,,6,1,0,20,20,52,1,,,,,,,,,,,,,,,,,,,,,,,,,,,,,,,,,,,,,,,,,,,,,,,,,,,,,,,,,,,,,,,,,,,,,,
,,?,0.001245,0,,,,,,stimuli/images/PICTURE_405.png,YEAR,5ded9996838b4f45b83bb3f9,14/11/1952,2020-07-09_13h02.33.042,proactive,2020.1.2,Win32,60,5f073de81c76c3308c0e4fb3,5f077792b667ed383946fe94,3,,,,,,anchor,,,,,,,,,,,4,1,0,21,21,34,1,,,,,,,,,,,,,,,,,,,,,,,,,,,,,,,,,,,,,,,,,,,,,,,,,,,,,,,,,,,,,,,,,,,,,,
,,?,0.001155,0,,,,,,stimuli/images/PICTURE_708.png,RECORD,5ded9996838b4f45b83bb3f9,14/11/1952,2020-07-09_13h02.33.042,proactive,2020.1.2,Win32,60,5f073de81c76c3308c0e4fb3,5f077792b667ed383946fe94,3,,,,,,monkey,,,,,,,,,,,6,1,0,22,22,58,1,,,,,,,,,,,,,,,,,,,,,,,,,,,,,,,,,,,,,,,,,,,,,,,,,,,,,,,,,,,,,,,,,,,,,,
,,?,0.001145,0,,,,,,stimuli/images/PICTURE_85.png,NATION,5ded9996838b4f45b83bb3f9,14/11/1952,2020-07-09_13h02.33.042,proactive,2020.1.2,Win32,60,5f073de81c76c3308c0e4fb3,5f077792b667ed383946fe94,3,,,,,,diamond,,,,,,,,,,,1,1,0,23,23,5,1,,,,,,,,,,,,,,,,,,,,,,,,,,,,,,,,,,,,,,,,,,,,,,,,,,,,,,,,,,,,,,,,,,,,,,
,,?,0.00163,0,,,,,,stimuli/images/PICTURE_308.png,FAMILY,5ded9996838b4f45b83bb3f9,14/11/1952,2020-07-09_13h02.33.042,proactive,2020.1.2,Win32,60,5f073de81c76c3308c0e4fb3,5f077792b667ed383946fe94,3,,,,,,dice,,,,,,,,,,,4,1,0,24,24,36,1,,,,,,,,,,,,,,,,,,,,,,,,,,,,,,,,,,,,,,,,,,,,,,,,,,,,,,,,,,,,,,,,,,,,,,
,,?,0.00118,0,,,,,,stimuli/images/PICTURE_327.png,SERIES,5ded9996838b4f45b83bb3f9,14/11/1952,2020-07-09_13h02.33.042,proactive,2020.1.2,Win32,60,5f073de81c76c3308c0e4fb3,5f077792b667ed383946fe94,3,,,,,,helmet,,,,,,,,,,,1,1,0,25,25,3,1,,,,,,,,,,,,,,,,,,,,,,,,,,,,,,,,,,,,,,,,,,,,,,,,,,,,,,,,,,,,,,,,,,,,,,
,,?,0.00115,0,,,,,,stimuli/images/PICTURE_380.png,HONEY,5ded9996838b4f45b83bb3f9,14/11/1952,2020-07-09_13h02.33.042,proactive,2020.1.2,Win32,60,5f073de81c76c3308c0e4fb3,5f077792b667ed383946fe94,3,,,,,,gorilla,,,,,,,,,,,2,1,0,26,26,19,1,,,,,,,,,,,,,,,,,,,,,,,,,,,,,,,,,,,,,,,,,,,,,,,,,,,,,,,,,,,,,,,,,,,,,,
,,?,0.001165,0,,,,,,stimuli/images/PICTURE_744.png,WEAPON,5ded9996838b4f45b83bb3f9,14/11/1952,2020-07-09_13h02.33.042,proactive,2020.1.2,Win32,60,5f073de81c76c3308c0e4fb3,5f077792b667ed383946fe94,3,,,,,,ring,,,,,,,,,,,6,1,0,27,27,50,1,,,,,,,,,,,,,,,,,,,,,,,,,,,,,,,,,,,,,,,,,,,,,,,,,,,,,,,,,,,,,,,,,,,,,,
,,?,0.001165,0,,,,,,stimuli/images/PICTURE_233.png,LOTS,5ded9996838b4f45b83bb3f9,14/11/1952,2020-07-09_13h02.33.042,proactive,2020.1.2,Win32,60,5f073de81c76c3308c0e4fb3,5f077792b667ed383946fe94,3,,,,,,salt,,,,,,,,,,,5,1,0,28,28,42,1,,,,,,,,,,,,,,,,,,,,,,,,,,,,,,,,,,,,,,,,,,,,,,,,,,,,,,,,,,,,,,,,,,,,,,
,,PLENTY,15.012725,1,,,,,,stimuli/images/PICTURE_405.png,PLENTY,5ded9996838b4f45b83bb3f9,14/11/1952,2020-07-09_13h02.33.042,proactive,2020.1.2,Win32,60,5f073de81c76c3308c0e4fb3,5f077792b667ed383946fe94,3,,,,,,anchor,,,,,,,,,,,3,1,0,29,29,23,1,,,,,,,,,,,,,,,,,,,,,,,,,,,,,,,,,,,,,,,,,,,,,,,,,,,,,,,,,,,,,,,,,,,,,,
,,?,0.002605,0,,,,,,stimuli/images/PICTURE_68.png,MILE,5ded9996838b4f45b83bb3f9,14/11/1952,2020-07-09_13h02.33.042,proactive,2020.1.2,Win32,60,5f073de81c76c3308c0e4fb3,5f077792b667ed383946fe94,3,,,,,,candle,,,,,,,,,,,6,1,0,30,30,51,1,,,,,,,,,,,,,,,,,,,,,,,,,,,,,,,,,,,,,,,,,,,,,,,,,,,,,,,,,,,,,,,,,,,,,,
,,?,0.002205,0,,,,,,stimuli/images/PICTURE_449.png,DUDE,5ded9996838b4f45b83bb3f9,14/11/1952,2020-07-09_13h02.33.042,proactive,2020.1.2,Win32,60,5f073de81c76c3308c0e4fb3,5f077792b667ed383946fe94,3,,,,,,bench,,,,,,,,,,,2,1,0,31,31,17,1,,,,,,,,,,,,,,,,,,,,,,,,,,,,,,,,,,,,,,,,,,,,,,,,,,,,,,,,,,,,,,,,,,,,,,
,,BATH,15.013175,1,,,,,,stimuli/images/PICTURE_564.png,BATH,5ded9996838b4f45b83bb3f9,14/11/1952,2020-07-09_13h02.33.042,proactive,2020.1.2,Win32,60,5f073de81c76c3308c0e4fb3,5f077792b667ed383946fe94,3,,,,,,spoon,,,,,,,,,,,3,1,0,32,32,26,1,,,,,,,,,,,,,,,,,,,,,,,,,,,,,,,,,,,,,,,,,,,,,,,,,,,,,,,,,,,,,,,,,,,,,,
,,POLICY,15.009685,1,,,,,,stimuli/images/PICTURE_108.png,POLICY,5ded9996838b4f45b83bb3f9,14/11/1952,2020-07-09_13h02.33.042,proactive,2020.1.2,Win32,60,5f073de81c76c3308c0e4fb3,5f077792b667ed383946fe94,3,,,,,,calendar,,,,,,,,,,,3,1,0,33,33,22,1,,,,,,,,,,,,,,,,,,,,,,,,,,,,,,,,,,,,,,,,,,,,,,,,,,,,,,,,,,,,,,,,,,,,,,
,,?,0.00209,0,,,,,,stimuli/images/PICTURE_403.png,RIVER,5ded9996838b4f45b83bb3f9,14/11/1952,2020-07-09_13h02.33.042,proactive,2020.1.2,Win32,60,5f073de81c76c3308c0e4fb3,5f077792b667ed383946fe94,3,,,,,,cathedral,,,,,,,,,,,5,1,0,34,34,40,1,,,,,,,,,,,,,,,,,,,,,,,,,,,,,,,,,,,,,,,,,,,,,,,,,,,,,,,,,,,,,,,,,,,,,,
,,?,0.00173,0,,,,,,stimuli/images/PICTURE_296.png,LOTS,5ded9996838b4f45b83bb3f9,14/11/1952,2020-07-09_13h02.33.042,proactive,2020.1.2,Win32,60,5f073de81c76c3308c0e4fb3,5f077792b667ed383946fe94,3,,,,,,bolt,,,,,,,,,,,1,1,0,35,35,9,1,,,,,,,,,,,,,,,,,,,,,,,,,,,,,,,,,,,,,,,,,,,,,,,,,,,,,,,,,,,,,,,,,,,,,,
,,CASINO,15.016835,1,,,,,,stimuli/images/PICTURE_327.png,CASINO,5ded9996838b4f45b83bb3f9,14/11/1952,2020-07-09_13h02.33.042,proactive,2020.1.2,Win32,60,5f073de81c76c3308c0e4fb3,5f077792b667ed383946fe94,3,,,,,,helmet,,,,,,,,,,,3,1,0,36,36,20,1,,,,,,,,,,,,,,,,,,,,,,,,,,,,,,,,,,,,,,,,,,,,,,,,,,,,,,,,,,,,,,,,,,,,,,
,,?,0.00262,0,,,,,,stimuli/images/PICTURE_504.png,YEAR,5ded9996838b4f45b83bb3f9,14/11/1952,2020-07-09_13h02.33.042,proactive,2020.1.2,Win32,60,5f073de81c76c3308c0e4fb3,5f077792b667ed383946fe94,3,,,,,,wheel,,,,,,,,,,,2,1,0,37,37,13,1,,,,,,,,,,,,,,,,,,,,,,,,,,,,,,,,,,,,,,,,,,,,,,,,,,,,,,,,,,,,,,,,,,,,,,
,,?,0.002505,0,,,,,,stimuli/images/PICTURE_57.png,MOMENT,5ded9996838b4f45b83bb3f9,14/11/1952,2020-07-09_13h02.33.042,proactive,2020.1.2,Win32,60,5f073de81c76c3308c0e4fb3,5f077792b667ed383946fe94,3,,,,,,stamp,,,,,,,,,,,4,1,0,38,38,37,1,,,,,,,,,,,,,,,,,,,,,,,,,,,,,,,,,,,,,,,,,,,,,,,,,,,,,,,,,,,,,,,,,,,,,,
,,?,0.00302,0,,,,,,stimuli/images/PICTURE_340.png,VALLEY,5ded9996838b4f45b83bb3f9,14/11/1952,2020-07-09_13h02.33.042,proactive,2020.1.2,Win32,60,5f073de81c76c3308c0e4fb3,5f077792b667ed383946fe94,3,,,,,,mirror,,,,,,,,,,,6,1,0,39,39,54,1,,,,,,,,,,,,,,,,,,,,,,,,,,,,,,,,,,,,,,,,,,,,,,,,,,,,,,,,,,,,,,,,,,,,,,
,,?,0.00195,0,,,,,,stimuli/images/PICTURE_469.png,AGENT,5ded9996838b4f45b83bb3f9,14/11/1952,2020-07-09_13h02.33.042,proactive,2020.1.2,Win32,60,5f073de81c76c3308c0e4fb3,5f077792b667ed383946fe94,3,,,,,,stool,,,,,,,,,,,2,1,0,40,40,16,1,,,,,,,,,,,,,,,,,,,,,,,,,,,,,,,,,,,,,,,,,,,,,,,,,,,,,,,,,,,,,,,,,,,,,,
,,?,0.001895,0,,,,,,stimuli/images/PICTURE_95.png,BOYS,5ded9996838b4f45b83bb3f9,14/11/1952,2020-07-09_13h02.33.042,proactive,2020.1.2,Win32,60,5f073de81c76c3308c0e4fb3,5f077792b667ed383946fe94,3,,,,,,suitcase,,,,,,,,,,,1,1,0,41,41,1,1,,,,,,,,,,,,,,,,,,,,,,,,,,,,,,,,,,,,,,,,,,,,,,,,,,,,,,,,,,,,,,,,,,,,,,
,,?,0.001305,0,,,,,,stimuli/images/PICTURE_491.png,RIVER,5ded9996838b4f45b83bb3f9,14/11/1952,2020-07-09_13h02.33.042,proactive,2020.1.2,Win32,60,5f073de81c76c3308c0e4fb3,5f077792b667ed383946fe94,3,,,,,,rug,,,,,,,,,,,1,1,0,42,42,6,1,,,,,,,,,,,,,,,,,,,,,,,,,,,,,,,,,,,,,,,,,,,,,,,,,,,,,,,,,,,,,,,,,,,,,,
,,?,0.00142,0,,,,,,stimuli/images/PICTURE_147.png,WOMEN,5ded9996838b4f45b83bb3f9,14/11/1952,2020-07-09_13h02.33.042,proactive,2020.1.2,Win32,60,5f073de81c76c3308c0e4fb3,5f077792b667ed383946fe94,3,,,,,,hanger,,,,,,,,,,,1,1,0,43,43,7,1,,,,,,,,,,,,,,,,,,,,,,,,,,,,,,,,,,,,,,,,,,,,,,,,,,,,,,,,,,,,,,,,,,,,,,
,,MONTH,15.00521,1,,,,,,stimuli/images/PICTURE_654.png,MONTH,5ded9996838b4f45b83bb3f9,14/11/1952,2020-07-09_13h02.33.042,proactive,2020.1.2,Win32,60,5f073de81c76c3308c0e4fb3,5f077792b667ed383946fe94,3,,,,,,pencil,,,,,,,,,,,3,1,0,44,44,29,1,,,,,,,,,,,,,,,,,,,,,,,,,,,,,,,,,,,,,,,,,,,,,,,,,,,,,,,,,,,,,,,,,,,,,,
,,?,0.00199,0,,,,,,stimuli/images/PICTURE_504.png,ARTIST,5ded9996838b4f45b83bb3f9,14/11/1952,2020-07-09_13h02.33.042,proactive,2020.1.2,Win32,60,5f073de81c76c3308c0e4fb3,5f077792b667ed383946fe94,3,,,,,,wheel,,,,,,,,,,,5,1,0,45,45,49,1,,,,,,,,,,,,,,,,,,,,,,,,,,,,,,,,,,,,,,,,,,,,,,,,,,,,,,,,,,,,,,,,,,,,,,
,,?,0.001875,0,,,,,,stimuli/images/PICTURE_339.png,CLIENT,5ded9996838b4f45b83bb3f9,14/11/1952,2020-07-09_13h02.33.042,proactive,2020.1.2,Win32,60,5f073de81c76c3308c0e4fb3,5f077792b667ed383946fe94,3,,,,,,backpack,,,,,,,,,,,2,1,0,46,46,11,1,,,,,,,,,,,,,,,,,,,,,,,,,,,,,,,,,,,,,,,,,,,,,,,,,,,,,,,,,,,,,,,,,,,,,,
,,?,0.001825,0,,,,,,stimuli/images/PICTURE_467.png,POLICY,5ded9996838b4f45b83bb3f9,14/11/1952,2020-07-09_13h02.33.042,proactive,2020.1.2,Win32,60,5f073de81c76c3308c0e4fb3,5f077792b667ed383946fe94,3,,,,,,peg,,,,,,,,,,,6,1,0,47,47,53,1,,,,,,,,,,,,,,,,,,,,,,,,,,,,,,,,,,,,,,,,,,,,,,,,,,,,,,,,,,,,,,,,,,,,,,
,,?,0.00266,0,,,,,,stimuli/images/PICTURE_685.png,PENNY,5ded9996838b4f45b83bb3f9,14/11/1952,2020-07-09_13h02.33.042,proactive,2020.1.2,Win32,60,5f073de81c76c3308c0e4fb3,5f077792b667ed383946fe94,3,,,,,,goose,,,,,,,,,,,1,1,0,48,48,4,1,,,,,,,,,,,,,,,,,,,,,,,,,,,,,,,,,,,,,,,,,,,,,,,,,,,,,,,,,,,,,,,,,,,,,,
,,?,0.0016,0,,,,,,stimuli/images/PICTURE_208.png,SYSTEM,5ded9996838b4f45b83bb3f9,14/11/1952,2020-07-09_13h02.33.042,proactive,2020.1.2,Win32,60,5f073de81c76c3308c0e4fb3,5f077792b667ed383946fe94,3,,,,,,microphone,,,,,,,,,,,4,1,0,49,49,32,1,,,,,,,,,,,,,,,,,,,,,,,,,,,,,,,,,,,,,,,,,,,,,,,,,,,,,,,,,,,,,,,,,,,,,,
,,?,0.001155,0,,,,,,stimuli/images/PICTURE_203.png,GODS,5ded9996838b4f45b83bb3f9,14/11/1952,2020-07-09_13h02.33.042,proactive,2020.1.2,Win32,60,5f073de81c76c3308c0e4fb3,5f077792b667ed383946fe94,3,,,,,,cap,,,,,,,,,,,4,1,0,50,50,30,1,,,,,,,,,,,,,,,,,,,,,,,,,,,,,,,,,,,,,,,,,,,,,,,,,,,,,,,,,,,,,,,,,,,,,,
,,TOILET,15.0159,1,,,,,,stimuli/images/PICTURE_403.png,TOILET,5ded9996838b4f45b83bb3f9,14/11/1952,2020-07-09_13h02.33.042,proactive,2020.1.2,Win32,60,5f073de81c76c3308c0e4fb3,5f077792b667ed383946fe94,3,,,,,,cathedral,,,,,,,,,,,3,1,0,51,51,25,1,,,,,,,,,,,,,,,,,,,,,,,,,,,,,,,,,,,,,,,,,,,,,,,,,,,,,,,,,,,,,,,,,,,,,,
,,HOTEL,15.009315,1,,,,,,stimuli/images/PICTURE_750.png,HOTEL,5ded9996838b4f45b83bb3f9,14/11/1952,2020-07-09_13h02.33.042,proactive,2020.1.2,Win32,60,5f073de81c76c3308c0e4fb3,5f077792b667ed383946fe94,3,,,,,,kettle,,,,,,,,,,,3,1,0,52,52,27,1,,,,,,,,,,,,,,,,,,,,,,,,,,,,,,,,,,,,,,,,,,,,,,,,,,,,,,,,,,,,,,,,,,,,,,
,,?,0.00208,0,,,,,,stimuli/images/PICTURE_108.png,FLIGHT,5ded9996838b4f45b83bb3f9,14/11/1952,2020-07-09_13h02.33.042,proactive,2020.1.2,Win32,60,5f073de81c76c3308c0e4fb3,5f077792b667ed383946fe94,3,,,,,,calendar,,,,,,,,,,,6,1,0,53,53,59,1,,,,,,,,,,,,,,,,,,,,,,,,,,,,,,,,,,,,,,,,,,,,,,,,,,,,,,,,,,,,,,,,,,,,,,
,,?,0.0018,0,,,,,,stimuli/images/PICTURE_491.png,GLASS,5ded9996838b4f45b83bb3f9,14/11/1952,2020-07-09_13h02.33.042,proactive,2020.1.2,Win32,60,5f073de81c76c3308c0e4fb3,5f077792b667ed383946fe94,3,,,,,,rug,,,,,,,,,,,2,1,0,54,54,14,1,,,,,,,,,,,,,,,,,,,,,,,,,,,,,,,,,,,,,,,,,,,,,,,,,,,,,,,,,,,,,,,,,,,,,,
,,?,0.001805,0,,,,,,stimuli/images/PICTURE_95.png,MILLER,5ded9996838b4f45b83bb3f9,14/11/1952,2020-07-09_13h02.33.042,proactive,2020.1.2,Win32,60,5f073de81c76c3308c0e4fb3,5f077792b667ed383946fe94,3,,,,,,suitcase,,,,,,,,,,,6,1,0,55,55,56,1,,,,,,,,,,,,,,,,,,,,,,,,,,,,,,,,,,,,,,,,,,,,,,,,,,,,,,,,,,,,,,,,,,,,,,
,,?,0.00223,0,,,,,,stimuli/images/PICTURE_2.png,FLIGHT,5ded9996838b4f45b83bb3f9,14/11/1952,2020-07-09_13h02.33.042,proactive,2020.1.2,Win32,60,5f073de81c76c3308c0e4fb3,5f077792b667ed383946fe94,3,,,,,,tyre,,,,,,,,,,,2,1,0,56,56,15,1,,,,,,,,,,,,,,,,,,,,,,,,,,,,,,,,,,,,,,,,,,,,,,,,,,,,,,,,,,,,,,,,,,,,,,
,,?,0.001865,0,,,,,,stimuli/images/PICTURE_675.png,SALE,5ded9996838b4f45b83bb3f9,14/11/1952,2020-07-09_13h02.33.042,proactive,2020.1.2,Win32,60,5f073de81c76c3308c0e4fb3,5f077792b667ed383946fe94,3,,,,,,windmill,,,,,,,,,,,5,1,0,57,57,47,1,,,,,,,,,,,,,,,,,,,,,,,,,,,,,,,,,,,,,,,,,,,,,,,,,,,,,,,,,,,,,,,,,,,,,,
,,?,0.001775,0,,,,,,stimuli/images/PICTURE_177.png,WRITER,5ded9996838b4f45b83bb3f9,14/11/1952,2020-07-09_13h02.33.042,proactive,2020.1.2,Win32,60,5f073de81c76c3308c0e4fb3,5f077792b667ed383946fe94,3,,,,,,mushroom,,,,,,,,,,,5,1,0,58,58,41,1,,,,,,,,,,,,,,,,,,,,,,,,,,,,,,,,,,,,,,,,,,,,,,,,,,,,,,,,,,,,,,,,,,,,,,
,,STORY,15.014705,0,,,,,,stimuli/images/PICTURE_340.png,LETTER,5ded9996838b4f45b83bb3f9,14/11/1952,2020-07-09_13h02.33.042,proactive,2020.1.2,Win32,60,5f073de81c76c3308c0e4fb3,5f077792b667ed383946fe94,3,,,,,,mirror,,,,,,,,,,,3,1,0,59,59,24,1,,,,,,,,,,,,,,,,,,,,,,,,,,,,,,,,,,,,,,,,,,,,,,,,,,,,,,,,,,,,,,,,,,,,,,
,,,,,,,,,,,,5ded9996838b4f45b83bb3f9,14/11/1952,2020-07-09_13h02.33.042,proactive,2020.1.2,Win32,60,5f073de81c76c3308c0e4fb3,5f077792b667ed383946fe94,3,,,,,,,,,,,,,,,,,,,,,,,,0,1,1,1,1,stimuli/learn-block2.csv,,,,,,,,,,,,,,,,,,,,,,,,,,,,,,,,,,,,,,,,,,,,,,,,,,,,,,,,,,,,,,,,
,,,,,,,,,,stimuli/images/PICTURE_488.png,STYLE,5ded9996838b4f45b83bb3f9,14/11/1952,2020-07-09_13h02.33.042,proactive,2020.1.2,Win32,60,5f073de81c76c3308c0e4fb3,5f077792b667ed383946fe94,3,,,,,,sun,,,,,,0,0,0,33,1,4,0,,,,,,,,,,,,,,,,,,,,,,,,,,,,,,,,,,,,,,,,,,,,,,,,,,,,,,,,,,,,,,,,,,,,,,,,,,,
,,,,,,,,,,stimuli/images/PICTURE_151.png,GIRL,5ded9996838b4f45b83bb3f9,14/11/1952,2020-07-09_13h02.33.042,proactive,2020.1.2,Win32,60,5f073de81c76c3308c0e4fb3,5f077792b667ed383946fe94,3,,,,,,tray,,,,,,0,1,1,19,1,2,0,,,,,,,,,,,,,,,,,,,,,,,,,,,,,,,,,,,,,,,,,,,,,,,,,,,,,,,,,,,,,,,,,,,,,,,,,,,
,,,,,,,,,,stimuli/images/PICTURE_308.png,ESTATE,5ded9996838b4f45b83bb3f9,14/11/1952,2020-07-09_13h02.33.042,proactive,2020.1.2,Win32,60,5f073de81c76c3308c0e4fb3,5f077792b667ed383946fe94,3,,,,,,dice,,,,,,0,2,2,46,1,5,0,,,,,,,,,,,,,,,,,,,,,,,,,,,,,,,,,,,,,,,,,,,,,,,,,,,,,,,,,,,,,,,,,,,,,,,,,,,
,,,,,,,,,,stimuli/images/PICTURE_744.png,SAKE,5ded9996838b4f45b83bb3f9,14/11/1952,2020-07-09_13h02.33.042,proactive,2020.1.2,Win32,60,5f073de81c76c3308c0e4fb3,5f077792b667ed383946fe94,3,,,,,,ring,,,,,,0,3,3,17,1,2,0,,,,,,,,,,,,,,,,,,,,,,,,,,,,,,,,,,,,,,,,,,,,,,,,,,,,,,,,,,,,,,,,,,,,,,,,,,,
,,,,,,,,,,stimuli/images/PICTURE_233.png,IDEAS,5ded9996838b4f45b83bb3f9,14/11/1952,2020-07-09_13h02.33.042,proactive,2020.1.2,Win32,60,5f073de81c76c3308c0e4fb3,5f077792b667ed383946fe94,3,,,,,,salt,,,,,,0,4,4,28,1,3,0,,,,,,,,,,,,,,,,,,,,,,,,,,,,,,,,,,,,,,,,,,,,,,,,,,,,,,,,,,,,,,,,,,,,,,,,,,,
,,,,,,,,,,stimuli/images/PICTURE_708.png,CLIENT,5ded9996838b4f45b83bb3f9,14/11/1952,2020-07-09_13h02.33.042,proactive,2020.1.2,Win32,60,5f073de81c76c3308c0e4fb3,5f077792b667ed383946fe94,3,,,,,,monkey,,,,,,0,5,5,5,1,1,0,,,,,,,,,,,,,,,,,,,,,,,,,,,,,,,,,,,,,,,,,,,,,,,,,,,,,,,,,,,,,,,,,,,,,,,,,,,
,,,,,,,,,,stimuli/images/PICTURE_469.png,LETTER,5ded9996838b4f45b83bb3f9,14/11/1952,2020-07-09_13h02.33.042,proactive,2020.1.2,Win32,60,5f073de81c76c3308c0e4fb3,5f077792b667ed383946fe94,3,,,,,,stool,,,,,,0,6,6,42,1,5,0,,,,,,,,,,,,,,,,,,,,,,,,,,,,,,,,,,,,,,,,,,,,,,,,,,,,,,,,,,,,,,,,,,,,,,,,,,,
,,,,,,,,,,stimuli/images/PICTURE_208.png,MONTH,5ded9996838b4f45b83bb3f9,14/11/1952,2020-07-09_13h02.33.042,proactive,2020.1.2,Win32,60,5f073de81c76c3308c0e4fb3,5f077792b667ed383946fe94,3,,,,,,microphone,,,,,,0,7,7,53,1,6,0,,,,,,,,,,,,,,,,,,,,,,,,,,,,,,,,,,,,,,,,,,,,,,,,,,,,,,,,,,,,,,,,,,,,,,,,,,,
,,,,,,,,,,stimuli/images/PICTURE_255.png,AREA,5ded9996838b4f45b83bb3f9,14/11/1952,2020-07-09_13h02.33.042,proactive,2020.1.2,Win32,60,5f073de81c76c3308c0e4fb3,5f077792b667ed383946fe94,3,,,,,,shovel,,,,,,0,8,8,22,1,3,0,,,,,,,,,,,,,,,,,,,,,,,,,,,,,,,,,,,,,,,,,,,,,,,,,,,,,,,,,,,,,,,,,,,,,,,,,,,
,,,,,,,,,,stimuli/images/PICTURE_692.png,MONTH,5ded9996838b4f45b83bb3f9,14/11/1952,2020-07-09_13h02.33.042,proactive,2020.1.2,Win32,60,5f073de81c76c3308c0e4fb3,5f077792b667ed383946fe94,3,,,,,,cherry,,,,,,0,9,9,16,1,2,0,,,,,,,,,,,,,,,,,,,,,,,,,,,,,,,,,,,,,,,,,,,,,,,,,,,,,,,,,,,,,,,,,,,,,,,,,,,
,,,,,,,,,,stimuli/images/PICTURE_675.png,WEAPON,5ded9996838b4f45b83bb3f9,14/11/1952,2020-07-09_13h02.33.042,proactive,2020.1.2,Win32,60,5f073de81c76c3308c0e4fb3,5f077792b667ed383946fe94,3,,,,,,windmill,,,,,,0,10,10,32,1,4,0,,,,,,,,,,,,,,,,,,,,,,,,,,,,,,,,,,,,,,,,,,,,,,,,,,,,,,,,,,,,,,,,,,,,,,,,,,,
,,,,,,,,,,stimuli/images/PICTURE_744.png,SYSTEM,5ded9996838b4f45b83bb3f9,14/11/1952,2020-07-09_13h02.33.042,proactive,2020.1.2,Win32,60,5f073de81c76c3308c0e4fb3,5f077792b667ed383946fe94,3,,,,,,ring,,,,,,0,11,11,43,1,5,0,,,,,,,,,,,,,,,,,,,,,,,,,,,,,,,,,,,,,,,,,,,,,,,,,,,,,,,,,,,,,,,,,,,,,,,,,,,
,,,,,,,,,,stimuli/images/PICTURE_380.png,PHOTO,5ded9996838b4f45b83bb3f9,14/11/1952,2020-07-09_13h02.33.042,proactive,2020.1.2,Win32,60,5f073de81c76c3308c0e4fb3,5f077792b667ed383946fe94,3,,,,,,gorilla,,,,,,0,12,12,52,1,6,0,,,,,,,,,,,,,,,,,,,,,,,,,,,,,,,,,,,,,,,,,,,,,,,,,,,,,,,,,,,,,,,,,,,,,,,,,,,
,,,,,,,,,,stimuli/images/PICTURE_285.png,ADVICE,5ded9996838b4f45b83bb3f9,14/11/1952,2020-07-09_13h02.33.042,proactive,2020.1.2,Win32,60,5f073de81c76c3308c0e4fb3,5f077792b667ed383946fe94,3,,,,,,carrot,,,,,,0,13,13,12,1,2,0,,,,,,,,,,,,,,,,,,,,,,,,,,,,,,,,,,,,,,,,,,,,,,,,,,,,,,,,,,,,,,,,,,,,,,,,,,,
,,,,,,,,,,stimuli/images/PICTURE_708.png,PENNY,5ded9996838b4f45b83bb3f9,14/11/1952,2020-07-09_13h02.33.042,proactive,2020.1.2,Win32,60,5f073de81c76c3308c0e4fb3,5f077792b667ed383946fe94,3,,,,,,monkey,,,,,,0,14,14,31,1,4,0,,,,,,,,,,,,,,,,,,,,,,,,,,,,,,,,,,,,,,,,,,,,,,,,,,,,,,,,,,,,,,,,,,,,,,,,,,,
,,,,,,,,,,stimuli/images/PICTURE_160.png,FEET,5ded9996838b4f45b83bb3f9,14/11/1952,2020-07-09_13h02.33.042,proactive,2020.1.2,Win32,60,5f073de81c76c3308c0e4fb3,5f077792b667ed383946fe94,3,,,,,,wheelbarrow,,,,,,0,15,15,58,1,6,0,,,,,,,,,,,,,,,,,,,,,,,,,,,,,,,,,,,,,,,,,,,,,,,,,,,,,,,,,,,,,,,,,,,,,,,,,,,
,,,,,,,,,,stimuli/images/PICTURE_85.png,THING,5ded9996838b4f45b83bb3f9,14/11/1952,2020-07-09_13h02.33.042,proactive,2020.1.2,Win32,60,5f073de81c76c3308c0e4fb3,5f077792b667ed383946fe94,3,,,,,,diamond,,,,,,0,16,16,15,1,2,0,,,,,,,,,,,,,,,,,,,,,,,,,,,,,,,,,,,,,,,,,,,,,,,,,,,,,,,,,,,,,,,,,,,,,,,,,,,
,,,,,,,,,,stimuli/images/PICTURE_380.png,DEATH,5ded9996838b4f45b83bb3f9,14/11/1952,2020-07-09_13h02.33.042,proactive,2020.1.2,Win32,60,5f073de81c76c3308c0e4fb3,5f077792b667ed383946fe94,3,,,,,,gorilla,,,,,,0,17,17,49,1,5,0,,,,,,,,,,,,,,,,,,,,,,,,,,,,,,,,,,,,,,,,,,,,,,,,,,,,,,,,,,,,,,,,,,,,,,,,,,,
,,,,,,,,,,stimuli/images/PICTURE_160.png,LEADER,5ded9996838b4f45b83bb3f9,14/11/1952,2020-07-09_13h02.33.042,proactive,2020.1.2,Win32,60,5f073de81c76c3308c0e4fb3,5f077792b667ed383946fe94,3,,,,,,wheelbarrow,,,,,,0,18,18,3,1,1,0,,,,,,,,,,,,,,,,,,,,,,,,,,,,,,,,,,,,,,,,,,,,,,,,,,,,,,,,,,,,,,,,,,,,,,,,,,,
,,,,,,,,,,stimuli/images/PICTURE_314.png,SAKE,5ded9996838b4f45b83bb3f9,14/11/1952,2020-07-09_13h02.33.042,proactive,2020.1.2,Win32,60,5f073de81c76c3308c0e4fb3,5f077792b667ed383946fe94,3,,,,,,perfume,,,,,,0,19,19,7,1,1,0,,,,,,,,,,,,,,,,,,,,,,,,,,,,,,,,,,,,,,,,,,,,,,,,,,,,,,,,,,,,,,,,,,,,,,,,,,,
,,,,,,,,,,stimuli/images/PICTURE_667.png,BATH,5ded9996838b4f45b83bb3f9,14/11/1952,2020-07-09_13h02.33.042,proactive,2020.1.2,Win32,60,5f073de81c76c3308c0e4fb3,5f077792b667ed383946fe94,3,,,,,,daisy,,,,,,0,20,20,4,1,1,0,,,,,,,,,,,,,,,,,,,,,,,,,,,,,,,,,,,,,,,,,,,,,,,,,,,,,,,,,,,,,,,,,,,,,,,,,,,
,,,,,,,,,,stimuli/images/PICTURE_314.png,GODS,5ded9996838b4f45b83bb3f9,14/11/1952,2020-07-09_13h02.33.042,proactive,2020.1.2,Win32,60,5f073de81c76c3308c0e4fb3,5f077792b667ed383946fe94,3,,,,,,perfume,,,,,,0,21,21,11,1,2,0,,,,,,,,,,,,,,,,,,,,,,,,,,,,,,,,,,,,,,,,,,,,,,,,,,,,,,,,,,,,,,,,,,,,,,,,,,,
,,,,,,,,,,stimuli/images/PICTURE_233.png,WOMEN,5ded9996838b4f45b83bb3f9,14/11/1952,2020-07-09_13h02.33.042,proactive,2020.1.2,Win32,60,5f073de81c76c3308c0e4fb3,5f077792b667ed383946fe94,3,,,,,,salt,,,,,,0,22,22,38,1,4,0,,,,,,,,,,,,,,,,,,,,,,,,,,,,,,,,,,,,,,,,,,,,,,,,,,,,,,,,,,,,,,,,,,,,,,,,,,,
,,,,,,,,,,stimuli/images/PICTURE_677.png,MILE,5ded9996838b4f45b83bb3f9,14/11/1952,2020-07-09_13h02.33.042,proactive,2020.1.2,Win32,60,5f073de81c76c3308c0e4fb3,5f077792b667ed383946fe94,3,,,,,,map,,,,,,0,23,23,30,1,4,0,,,,,,,,,,,,,,,,,,,,,,,,,,,,,,,,,,,,,,,,,,,,,,,,,,,,,,,,,,,,,,,,,,,,,,,,,,,
,,,,,,,,,,stimuli/images/PICTURE_504.png,BODY,5ded9996838b4f45b83bb3f9,14/11/1952,2020-07-09_13h02.33.042,proactive,2020.1.2,Win32,60,5f073de81c76c3308c0e4fb3,5f077792b667ed383946fe94,3,,,,,,wheel,,,,,,0,24,24,8,1,1,0,,,,,,,,,,,,,,,,,,,,,,,,,,,,,,,,,,,,,,,,,,,,,,,,,,,,,,,,,,,,,,,,,,,,,,,,,,,
,,,,,,,,,,stimuli/images/PICTURE_467.png,DEMON,5ded9996838b4f45b83bb3f9,14/11/1952,2020-07-09_13h02.33.042,proactive,2020.1.2,Win32,60,5f073de81c76c3308c0e4fb3,5f077792b667ed383946fe94,3,,,,,,peg,,,,,,0,25,25,23,1,3,0,,,,,,,,,,,,,,,,,,,,,,,,,,,,,,,,,,,,,,,,,,,,,,,,,,,,,,,,,,,,,,,,,,,,,,,,,,,
,,,,,,,,,,stimuli/images/PICTURE_208.png,LOTS,5ded9996838b4f45b83bb3f9,14/11/1952,2020-07-09_13h02.33.042,proactive,2020.1.2,Win32,60,5f073de81c76c3308c0e4fb3,5f077792b667ed383946fe94,3,,,,,,microphone,,,,,,0,26,26,10,1,2,0,,,,,,,,,,,,,,,,,,,,,,,,,,,,,,,,,,,,,,,,,,,,,,,,,,,,,,,,,,,,,,,,,,,,,,,,,,,
,,,,,,,,,,stimuli/images/PICTURE_215.png,PLENTY,5ded9996838b4f45b83bb3f9,14/11/1952,2020-07-09_13h02.33.042,proactive,2020.1.2,Win32,60,5f073de81c76c3308c0e4fb3,5f077792b667ed383946fe94,3,,,,,,boot,,,,,,0,27,27,37,1,4,0,,,,,,,,,,,,,,,,,,,,,,,,,,,,,,,,,,,,,,,,,,,,,,,,,,,,,,,,,,,,,,,,,,,,,,,,,,,
,,,,,,,,,,stimuli/images/PICTURE_95.png,STYLE,5ded9996838b4f45b83bb3f9,14/11/1952,2020-07-09_13h02.33.042,proactive,2020.1.2,Win32,60,5f073de81c76c3308c0e4fb3,5f077792b667ed383946fe94,3,,,,,,suitcase,,,,,,0,28,28,25,1,3,0,,,,,,,,,,,,,,,,,,,,,,,,,,,,,,,,,,,,,,,,,,,,,,,,,,,,,,,,,,,,,,,,,,,,,,,,,,,
,,,,,,,,,,stimuli/images/PICTURE_248.png,DOZEN,5ded9996838b4f45b83bb3f9,14/11/1952,2020-07-09_13h02.33.042,proactive,2020.1.2,Win32,60,5f073de81c76c3308c0e4fb3,5f077792b667ed383946fe94,3,,,,,,cart,,,,,,0,29,29,39,1,4,0,,,,,,,,,,,,,,,,,,,,,,,,,,,,,,,,,,,,,,,,,,,,,,,,,,,,,,,,,,,,,,,,,,,,,,,,,,,
,,,,,,,,,,stimuli/images/PICTURE_688.png,CASINO,5ded9996838b4f45b83bb3f9,14/11/1952,2020-07-09_13h02.33.042,proactive,2020.1.2,Win32,60,5f073de81c76c3308c0e4fb3,5f077792b667ed383946fe94,3,,,,,,runner,,,,,,0,30,30,2,1,1,0,,,,,,,,,,,,,,,,,,,,,,,,,,,,,,,,,,,,,,,,,,,,,,,,,,,,,,,,,,,,,,,,,,,,,,,,,,,
,,,,,,,,,,stimuli/images/PICTURE_487.png,FLIGHT,5ded9996838b4f45b83bb3f9,14/11/1952,2020-07-09_13h02.33.042,proactive,2020.1.2,Win32,60,5f073de81c76c3308c0e4fb3,5f077792b667ed383946fe94,3,,,,,,basket,,,,,,0,31,31,9,1,1,0,,,,,,,,,,,,,,,,,,,,,,,,,,,,,,,,,,,,,,,,,,,,,,,,,,,,,,,,,,,,,,,,,,,,,,,,,,,
,,,,,,,,,,stimuli/images/PICTURE_654.png,VALLEY,5ded9996838b4f45b83bb3f9,14/11/1952,2020-07-09_13h02.33.042,proactive,2020.1.2,Win32,60,5f073de81c76c3308c0e4fb3,5f077792b667ed383946fe94,3,,,,,,pencil,,,,,,0,32,32,1,1,1,0,,,,,,,,,,,,,,,,,,,,,,,,,,,,,,,,,,,,,,,,,,,,,,,,,,,,,,,,,,,,,,,,,,,,,,,,,,,
,,,,,,,,,,stimuli/images/PICTURE_509.png,PHOTO,5ded9996838b4f45b83bb3f9,14/11/1952,2020-07-09_13h02.33.042,proactive,2020.1.2,Win32,60,5f073de81c76c3308c0e4fb3,5f077792b667ed383946fe94,3,,,,,,telephone,,,,,,0,33,33,21,1,3,0,,,,,,,,,,,,,,,,,,,,,,,,,,,,,,,,,,,,,,,,,,,,,,,,,,,,,,,,,,,,,,,,,,,,,,,,,,,
,,,,,,,,,,stimuli/images/PICTURE_302.png,FAMILY,5ded9996838b4f45b83bb3f9,14/11/1952,2020-07-09_13h02.33.042,proactive,2020.1.2,Win32,60,5f073de81c76c3308c0e4fb3,5f077792b667ed383946fe94,3,,,,,,taxi,,,,,,0,34,34,18,1,2,0,,,,,,,,,,,,,,,,,,,,,,,,,,,,,,,,,,,,,,,,,,,,,,,,,,,,,,,,,,,,,,,,,,,,,,,,,,,
,,,,,,,,,,stimuli/images/PICTURE_348.png,SPEECH,5ded9996838b4f45b83bb3f9,14/11/1952,2020-07-09_13h02.33.042,proactive,2020.1.2,Win32,60,5f073de81c76c3308c0e4fb3,5f077792b667ed383946fe94,3,,,,,,pepper,,,,,,0,35,35,20,1,3,0,,,,,,,,,,,,,,,,,,,,,,,,,,,,,,,,,,,,,,,,,,,,,,,,,,,,,,,,,,,,,,,,,,,,,,,,,,,
,,,,,,,,,,stimuli/images/PICTURE_491.png,ROOF,5ded9996838b4f45b83bb3f9,14/11/1952,2020-07-09_13h02.33.042,proactive,2020.1.2,Win32,60,5f073de81c76c3308c0e4fb3,5f077792b667ed383946fe94,3,,,,,,rug,,,,,,0,36,36,24,1,3,0,,,,,,,,,,,,,,,,,,,,,,,,,,,,,,,,,,,,,,,,,,,,,,,,,,,,,,,,,,,,,,,,,,,,,,,,,,,
,,,,,,,,,,stimuli/images/PICTURE_68.png,MILE,5ded9996838b4f45b83bb3f9,14/11/1952,2020-07-09_13h02.33.042,proactive,2020.1.2,Win32,60,5f073de81c76c3308c0e4fb3,5f077792b667ed383946fe94,3,,,,,,candle,,,,,,0,37,37,44,1,5,0,,,,,,,,,,,,,,,,,,,,,,,,,,,,,,,,,,,,,,,,,,,,,,,,,,,,,,,,,,,,,,,,,,,,,,,,,,,
,,,,,,,,,,stimuli/images/PICTURE_453.png,DUDE,5ded9996838b4f45b83bb3f9,14/11/1952,2020-07-09_13h02.33.042,proactive,2020.1.2,Win32,60,5f073de81c76c3308c0e4fb3,5f077792b667ed383946fe94,3,,,,,,scissors,,,,,,0,38,38,27,1,3,0,,,,,,,,,,,,,,,,,,,,,,,,,,,,,,,,,,,,,,,,,,,,,,,,,,,,,,,,,,,,,,,,,,,,,,,,,,,
,,,,,,,,,,stimuli/images/PICTURE_203.png,ARTIST,5ded9996838b4f45b83bb3f9,14/11/1952,2020-07-09_13h02.33.042,proactive,2020.1.2,Win32,60,5f073de81c76c3308c0e4fb3,5f077792b667ed383946fe94,3,,,,,,cap,,,,,,0,39,39,26,1,3,0,,,,,,,,,,,,,,,,,,,,,,,,,,,,,,,,,,,,,,,,,,,,,,,,,,,,,,,,,,,,,,,,,,,,,,,,,,,
,,,,,,,,,,stimuli/images/PICTURE_311.png,BEAUTY,5ded9996838b4f45b83bb3f9,14/11/1952,2020-07-09_13h02.33.042,proactive,2020.1.2,Win32,60,5f073de81c76c3308c0e4fb3,5f077792b667ed383946fe94,3,,,,,,razor,,,,,,0,40,40,13,1,2,0,,,,,,,,,,,,,,,,,,,,,,,,,,,,,,,,,,,,,,,,,,,,,,,,,,,,,,,,,,,,,,,,,,,,,,,,,,,
,,,,,,,,,,stimuli/images/PICTURE_208.png,THING,5ded9996838b4f45b83bb3f9,14/11/1952,2020-07-09_13h02.33.042,proactive,2020.1.2,Win32,60,5f073de81c76c3308c0e4fb3,5f077792b667ed383946fe94,3,,,,,,microphone,,,,,,0,41,41,47,1,5,0,,,,,,,,,,,,,,,,,,,,,,,,,,,,,,,,,,,,,,,,,,,,,,,,,,,,,,,,,,,,,,,,,,,,,,,,,,,
,,,,,,,,,,stimuli/images/PICTURE_470.png,CASINO,5ded9996838b4f45b83bb3f9,14/11/1952,2020-07-09_13h02.33.042,proactive,2020.1.2,Win32,60,5f073de81c76c3308c0e4fb3,5f077792b667ed383946fe94,3,,,,,,motorbike,,,,,,0,42,42,36,1,4,0,,,,,,,,,,,,,,,,,,,,,,,,,,,,,,,,,,,,,,,,,,,,,,,,,,,,,,,,,,,,,,,,,,,,,,,,,,,
,,,,,,,,,,stimuli/images/PICTURE_453.png,PLENTY,5ded9996838b4f45b83bb3f9,14/11/1952,2020-07-09_13h02.33.042,proactive,2020.1.2,Win32,60,5f073de81c76c3308c0e4fb3,5f077792b667ed383946fe94,3,,,,,,scissors,,,,,,0,43,43,56,1,6,0,,,,,,,,,,,,,,,,,,,,,,,,,,,,,,,,,,,,,,,,,,,,,,,,,,,,,,,,,,,,,,,,,,,,,,,,,,,
,,,,,,,,,,stimuli/images/PICTURE_123.png,ADVICE,5ded9996838b4f45b83bb3f9,14/11/1952,2020-07-09_13h02.33.042,proactive,2020.1.2,Win32,60,5f073de81c76c3308c0e4fb3,5f077792b667ed383946fe94,3,,,,,,dart,,,,,,0,44,44,50,1,6,0,,,,,,,,,,,,,,,,,,,,,,,,,,,,,,,,,,,,,,,,,,,,,,,,,,,,,,,,,,,,,,,,,,,,,,,,,,,
,,,,,,,,,,stimuli/images/PICTURE_356.png,DANGER,5ded9996838b4f45b83bb3f9,14/11/1952,2020-07-09_13h02.33.042,proactive,2020.1.2,Win32,60,5f073de81c76c3308c0e4fb3,5f077792b667ed383946fe94,3,,,,,,pawn,,,,,,0,45,45,55,1,6,0,,,,,,,,,,,,,,,,,,,,,,,,,,,,,,,,,,,,,,,,,,,,,,,,,,,,,,,,,,,,,,,,,,,,,,,,,,,
,,,,,,,,,,stimuli/images/PICTURE_708.png,YARD,5ded9996838b4f45b83bb3f9,14/11/1952,2020-07-09_13h02.33.042,proactive,2020.1.2,Win32,60,5f073de81c76c3308c0e4fb3,5f077792b667ed383946fe94,3,,,,,,monkey,,,,,,0,46,46,29,1,3,0,,,,,,,,,,,,,,,,,,,,,,,,,,,,,,,,,,,,,,,,,,,,,,,,,,,,,,,,,,,,,,,,,,,,,,,,,,,
,,,,,,,,,,stimuli/images/PICTURE_688.png,WOMEN,5ded9996838b4f45b83bb3f9,14/11/1952,2020-07-09_13h02.33.042,proactive,2020.1.2,Win32,60,5f073de81c76c3308c0e4fb3,5f077792b667ed383946fe94,3,,,,,,runner,,,,,,0,47,47,14,1,2,0,,,,,,,,,,,,,,,,,,,,,,,,,,,,,,,,,,,,,,,,,,,,,,,,,,,,,,,,,,,,,,,,,,,,,,,,,,,
,,,,,,,,,,stimuli/images/PICTURE_177.png,CARS,5ded9996838b4f45b83bb3f9,14/11/1952,2020-07-09_13h02.33.042,proactive,2020.1.2,Win32,60,5f073de81c76c3308c0e4fb3,5f077792b667ed383946fe94,3,,,,,,mushroom,,,,,,0,48,48,35,1,4,0,,,,,,,,,,,,,,,,,,,,,,,,,,,,,,,,,,,,,,,,,,,,,,,,,,,,,,,,,,,,,,,,,,,,,,,,,,,
,,,,,,,,,,stimuli/images/PICTURE_491.png,WRITER,5ded9996838b4f45b83bb3f9,14/11/1952,2020-07-09_13h02.33.042,proactive,2020.1.2,Win32,60,5f073de81c76c3308c0e4fb3,5f077792b667ed383946fe94,3,,,,,,rug,,,,,,0,49,49,57,1,6,0,,,,,,,,,,,,,,,,,,,,,,,,,,,,,,,,,,,,,,,,,,,,,,,,,,,,,,,,,,,,,,,,,,,,,,,,,,,
,,,,,,,,,,stimuli/images/PICTURE_327.png,BEAUTY,5ded9996838b4f45b83bb3f9,14/11/1952,2020-07-09_13h02.33.042,proactive,2020.1.2,Win32,60,5f073de81c76c3308c0e4fb3,5f077792b667ed383946fe94,3,,,,,,helmet,,,,,,0,50,50,48,1,5,0,,,,,,,,,,,,,,,,,,,,,,,,,,,,,,,,,,,,,,,,,,,,,,,,,,,,,,,,,,,,,,,,,,,,,,,,,,,
,,,,,,,,,,stimuli/images/PICTURE_308.png,KIND,5ded9996838b4f45b83bb3f9,14/11/1952,2020-07-09_13h02.33.042,proactive,2020.1.2,Win32,60,5f073de81c76c3308c0e4fb3,5f077792b667ed383946fe94,3,,,,,,dice,,,,,,0,51,51,54,1,6,0,,,,,,,,,,,,,,,,,,,,,,,,,,,,,,,,,,,,,,,,,,,,,,,,,,,,,,,,,,,,,,,,,,,,,,,,,,,
,,,,,,,,,,stimuli/images/PICTURE_123.png,ADVICE,5ded9996838b4f45b83bb3f9,14/11/1952,2020-07-09_13h02.33.042,proactive,2020.1.2,Win32,60,5f073de81c76c3308c0e4fb3,5f077792b667ed383946fe94,3,,,,,,dart,,,,,,0,52,52,40,1,5,0,,,,,,,,,,,,,,,,,,,,,,,,,,,,,,,,,,,,,,,,,,,,,,,,,,,,,,,,,,,,,,,,,,,,,,,,,,,
,,,,,,,,,,stimuli/images/PICTURE_449.png,THING,5ded9996838b4f45b83bb3f9,14/11/1952,2020-07-09_13h02.33.042,proactive,2020.1.2,Win32,60,5f073de81c76c3308c0e4fb3,5f077792b667ed383946fe94,3,,,,,,bench,,,,,,0,53,53,59,1,6,0,,,,,,,,,,,,,,,,,,,,,,,,,,,,,,,,,,,,,,,,,,,,,,,,,,,,,,,,,,,,,,,,,,,,,,,,,,,
,,,,,,,,,,stimuli/images/PICTURE_339.png,PLENTY,5ded9996838b4f45b83bb3f9,14/11/1952,2020-07-09_13h02.33.042,proactive,2020.1.2,Win32,60,5f073de81c76c3308c0e4fb3,5f077792b667ed383946fe94,3,,,,,,backpack,,,,,,0,54,54,0,1,1,0,,,,,,,,,,,,,,,,,,,,,,,,,,,,,,,,,,,,,,,,,,,,,,,,,,,,,,,,,,,,,,,,,,,,,,,,,,,
,,,,,,,,,,stimuli/images/PICTURE_469.png,ARTIST,5ded9996838b4f45b83bb3f9,14/11/1952,2020-07-09_13h02.33.042,proactive,2020.1.2,Win32,60,5f073de81c76c3308c0e4fb3,5f077792b667ed383946fe94,3,,,,,,stool,,,,,,0,55,55,6,1,1,0,,,,,,,,,,,,,,,,,,,,,,,,,,,,,,,,,,,,,,,,,,,,,,,,,,,,,,,,,,,,,,,,,,,,,,,,,,,
,,,,,,,,,,stimuli/images/PICTURE_311.png,FRIEND,5ded9996838b4f45b83bb3f9,14/11/1952,2020-07-09_13h02.33.042,proactive,2020.1.2,Win32,60,5f073de81c76c3308c0e4fb3,5f077792b667ed383946fe94,3,,,,,,razor,,,,,,0,56,56,34,1,4,0,,,,,,,,,,,,,,,,,,,,,,,,,,,,,,,,,,,,,,,,,,,,,,,,,,,,,,,,,,,,,,,,,,,,,,,,,,,
,,,,,,,,,,stimuli/images/PICTURE_147.png,MOMENT,5ded9996838b4f45b83bb3f9,14/11/1952,2020-07-09_13h02.33.042,proactive,2020.1.2,Win32,60,5f073de81c76c3308c0e4fb3,5f077792b667ed383946fe94,3,,,,,,hanger,,,,,,0,57,57,51,1,6,0,,,,,,,,,,,,,,,,,,,,,,,,,,,,,,,,,,,,,,,,,,,,,,,,,,,,,,,,,,,,,,,,,,,,,,,,,,,
,,,,,,,,,,stimuli/images/PICTURE_32.png,JUNGLE,5ded9996838b4f45b83bb3f9,14/11/1952,2020-07-09_13h02.33.042,proactive,2020.1.2,Win32,60,5f073de81c76c3308c0e4fb3,5f077792b667ed383946fe94,3,,,,,,crown,,,,,,0,58,58,45,1,5,0,,,,,,,,,,,,,,,,,,,,,,,,,,,,,,,,,,,,,,,,,,,,,,,,,,,,,,,,,,,,,,,,,,,,,,,,,,,
,,?,0.00235,0,,,,,,stimuli/images/PICTURE_488.png,STYLE,5ded9996838b4f45b83bb3f9,14/11/1952,2020-07-09_13h02.33.042,proactive,2020.1.2,Win32,60,5f073de81c76c3308c0e4fb3,5f077792b667ed383946fe94,3,,,,,,sun,,,,,,,,,,,4,0,0,0,0,33,1,,,,,,,,,,,,,,,,,,,,,,,,,,,,,,,,,,,,,,,,,,,,,,,,,,,,,,,,,,,,,,,,,,,,,,
,,?,0.00264,0,,,,,,stimuli/images/PICTURE_449.png,THING,5ded9996838b4f45b83bb3f9,14/11/1952,2020-07-09_13h02.33.042,proactive,2020.1.2,Win32,60,5f073de81c76c3308c0e4fb3,5f077792b667ed383946fe94,3,,,,,,bench,,,,,,,,,,,6,0,0,1,1,59,1,,,,,,,,,,,,,,,,,,,,,,,,,,,,,,,,,,,,,,,,,,,,,,,,,,,,,,,,,,,,,,,,,,,,,,
,,?,0.00199,0,,,,,,stimuli/images/PICTURE_32.png,JUNGLE,5ded9996838b4f45b83bb3f9,14/11/1952,2020-07-09_13h02.33.042,proactive,2020.1.2,Win32,60,5f073de81c76c3308c0e4fb3,5f077792b667ed383946fe94,3,,,,,,crown,,,,,,,,,,,5,0,0,2,2,45,1,,,,,,,,,,,,,,,,,,,,,,,,,,,,,,,,,,,,,,,,,,,,,,,,,,,,,,,,,,,,,,,,,,,,,,
,,PHOTO,15.016275,1,,,,,,stimuli/images/PICTURE_509.png,PHOTO,5ded9996838b4f45b83bb3f9,14/11/1952,2020-07-09_13h02.33.042,proactive,2020.1.2,Win32,60,5f073de81c76c3308c0e4fb3,5f077792b667ed383946fe94,3,,,,,,telephone,,,,,,,,,,,3,0,0,3,3,21,1,,,,,,,,,,,,,,,,,,,,,,,,,,,,,,,,,,,,,,,,,,,,,,,,,,,,,,,,,,,,,,,,,,,,,,
,,?,0.00189,0,,,,,,stimuli/images/PICTURE_285.png,ADVICE,5ded9996838b4f45b83bb3f9,14/11/1952,2020-07-09_13h02.33.042,proactive,2020.1.2,Win32,60,5f073de81c76c3308c0e4fb3,5f077792b667ed383946fe94,3,,,,,,carrot,,,,,,,,,,,2,0,0,4,4,12,1,,,,,,,,,,,,,,,,,,,,,,,,,,,,,,,,,,,,,,,,,,,,,,,,,,,,,,,,,,,,,,,,,,,,,,
,,?,0.001425,0,,,,,,stimuli/images/PICTURE_469.png,LETTER,5ded9996838b4f45b83bb3f9,14/11/1952,2020-07-09_13h02.33.042,proactive,2020.1.2,Win32,60,5f073de81c76c3308c0e4fb3,5f077792b667ed383946fe94,3,,,,,,stool,,,,,,,,,,,5,0,0,5,5,42,1,,,,,,,,,,,,,,,,,,,,,,,,,,,,,,,,,,,,,,,,,,,,,,,,,,,,,,,,,,,,,,,,,,,,,,
,,?,0.00136,0,,,,,,stimuli/images/PICTURE_123.png,ADVICE,5ded9996838b4f45b83bb3f9,14/11/1952,2020-07-09_13h02.33.042,proactive,2020.1.2,Win32,60,5f073de81c76c3308c0e4fb3,5f077792b667ed383946fe94,3,,,,,,dart,,,,,,,,,,,6,0,0,6,6,50,1,,,,,,,,,,,,,,,,,,,,,,,,,,,,,,,,,,,,,,,,,,,,,,,,,,,,,,,,,,,,,,,,,,,,,,
,,?,0.00135,0,,,,,,stimuli/images/PICTURE_308.png,ESTATE,5ded9996838b4f45b83bb3f9,14/11/1952,2020-07-09_13h02.33.042,proactive,2020.1.2,Win32,60,5f073de81c76c3308c0e4fb3,5f077792b667ed383946fe94,3,,,,,,dice,,,,,,,,,,,5,0,0,7,7,46,1,,,,,,,,,,,,,,,,,,,,,,,,,,,,,,,,,,,,,,,,,,,,,,,,,,,,,,,,,,,,,,,,,,,,,,
,,?,0.00181,0,,,,,,stimuli/images/PICTURE_215.png,PLENTY,5ded9996838b4f45b83bb3f9,14/11/1952,2020-07-09_13h02.33.042,proactive,2020.1.2,Win32,60,5f073de81c76c3308c0e4fb3,5f077792b667ed383946fe94,3,,,,,,boot,,,,,,,,,,,4,0,0,8,8,37,1,,,,,,,,,,,,,,,,,,,,,,,,,,,,,,,,,,,,,,,,,,,,,,,,,,,,,,,,,,,,,,,,,,,,,,
,,?,0.001275,0,,,,,,stimuli/images/PICTURE_469.png,ARTIST,5ded9996838b4f45b83bb3f9,14/11/1952,2020-07-09_13h02.33.042,proactive,2020.1.2,Win32,60,5f073de81c76c3308c0e4fb3,5f077792b667ed383946fe94,3,,,,,,stool,,,,,,,,,,,1,0,0,9,9,6,1,,,,,,,,,,,,,,,,,,,,,,,,,,,,,,,,,,,,,,,,,,,,,,,,,,,,,,,,,,,,,,,,,,,,,,
,,STYLE,15.00457,1,,,,,,stimuli/images/PICTURE_95.png,STYLE,5ded9996838b4f45b83bb3f9,14/11/1952,2020-07-09_13h02.33.042,proactive,2020.1.2,Win32,60,5f073de81c76c3308c0e4fb3,5f077792b667ed383946fe94,3,,,,,,suitcase,,,,,,,,,,,3,0,0,10,10,25,1,,,,,,,,,,,,,,,,,,,,,,,,,,,,,,,,,,,,,,,,,,,,,,,,,,,,,,,,,,,,,,,,,,,,,,
,,ROOF,15.009435,1,,,,,,stimuli/images/PICTURE_491.png,ROOF,5ded9996838b4f45b83bb3f9,14/11/1952,2020-07-09_13h02.33.042,proactive,2020.1.2,Win32,60,5f073de81c76c3308c0e4fb3,5f077792b667ed383946fe94,3,,,,,,rug,,,,,,,,,,,3,0,0,11,11,24,1,,,,,,,,,,,,,,,,,,,,,,,,,,,,,,,,,,,,,,,,,,,,,,,,,,,,,,,,,,,,,,,,,,,,,,
,,?,0.002075,0,,,,,,stimuli/images/PICTURE_160.png,LEADER,5ded9996838b4f45b83bb3f9,14/11/1952,2020-07-09_13h02.33.042,proactive,2020.1.2,Win32,60,5f073de81c76c3308c0e4fb3,5f077792b667ed383946fe94,3,,,,,,wheelbarrow,,,,,,,,,,,1,0,0,12,12,3,1,,,,,,,,,,,,,,,,,,,,,,,,,,,,,,,,,,,,,,,,,,,,,,,,,,,,,,,,,,,,,,,,,,,,,,
,,YARD,15.00396,1,,,,,,stimuli/images/PICTURE_708.png,YARD,5ded9996838b4f45b83bb3f9,14/11/1952,2020-07-09_13h02.33.042,proactive,2020.1.2,Win32,60,5f073de81c76c3308c0e4fb3,5f077792b667ed383946fe94,3,,,,,,monkey,,,,,,,,,,,3,0,0,13,13,29,1,,,,,,,,,,,,,,,,,,,,,,,,,,,,,,,,,,,,,,,,,,,,,,,,,,,,,,,,,,,,,,,,,,,,,,
,,?,0.00185,0,,,,,,stimuli/images/PICTURE_744.png,SYSTEM,5ded9996838b4f45b83bb3f9,14/11/1952,2020-07-09_13h02.33.042,proactive,2020.1.2,Win32,60,5f073de81c76c3308c0e4fb3,5f077792b667ed383946fe94,3,,,,,,ring,,,,,,,,,,,5,0,0,14,14,43,1,,,,,,,,,,,,,,,,,,,,,,,,,,,,,,,,,,,,,,,,,,,,,,,,,,,,,,,,,,,,,,,,,,,,,,
,,?,0.001625,0,,,,,,stimuli/images/PICTURE_688.png,CASINO,5ded9996838b4f45b83bb3f9,14/11/1952,2020-07-09_13h02.33.042,proactive,2020.1.2,Win32,60,5f073de81c76c3308c0e4fb3,5f077792b667ed383946fe94,3,,,,,,runner,,,,,,,,,,,1,0,0,15,15,2,1,,,,,,,,,,,,,,,,,,,,,,,,,,,,,,,,,,,,,,,,,,,,,,,,,,,,,,,,,,,,,,,,,,,,,,
,,AREA,15.0007,1,,,,,,stimuli/images/PICTURE_255.png,AREA,5ded9996838b4f45b83bb3f9,14/11/1952,2020-07-09_13h02.33.042,proactive,2020.1.2,Win32,60,5f073de81c76c3308c0e4fb3,5f077792b667ed383946fe94,3,,,,,,shovel,,,,,,,,,,,3,0,0,16,16,22,1,,,,,,,,,,,,,,,,,,,,,,,,,,,,,,,,,,,,,,,,,,,,,,,,,,,,,,,,,,,,,,,,,,,,,,
