consent_key.keys,consent_key.rt,recalled,recalled_rt,recall_acc,example_recall.thisRepN,example_recall.thisTrialN,example_recall.thisN,example_recall.thisIndex,example_recall.ran,file,word,participant,please enter your date of birth (dd/mm/yyyy),date,expName,psychopyVersion,OS,frameRate,STUDY_ID,SESSION_ID,list,prac_learn_study_loop.thisRepN,prac_learn_study_loop.thisTrialN,prac_learn_study_loop.thisN,prac_learn_study_loop.thisIndex,prac_learn_study_loop.ran,image,prac_learn_test_loop.thisRepN,prac_learn_test_loop.thisTrialN,prac_learn_test_loop.thisN,prac_learn_test_loop.thisIndex,prac_learn_test_loop.ran,learn_study_loop.thisRepN,learn_study_loop.thisTrialN,learn_study_loop.thisN,learn_study_loop.thisIndex,learn_study_loop.ran,list_no,block_no,learn_test_loop.thisRepN,learn_test_loop.thisTrialN,learn_test_loop.thisN,learn_test_loop.thisIndex,learn_test_loop.ran,learn_blocks.thisRepN,learn_blocks.thisTrialN,learn_blocks.thisN,learn_blocks.thisIndex,learn_blocks.ran,block_csv,key_resp_13.keys,key_resp_13.rt,learn_blocks_loop.thisRepN,learn_blocks_loop.thisTrialN,learn_blocks_loop.thisN,learn_blocks_loop.thisIndex,learn_blocks_loop.ran,final_learn_test.thisRepN,final_learn_test.thisTrialN,final_learn_test.thisN,final_learn_test.thisIndex,final_learn_test.ran,prac_wm_test_loop.thisRepN,prac_wm_test_loop.thisTrialN,prac_wm_test_loop.thisN,prac_wm_test_loop.thisIndex,prac_wm_test_loop.ran,wm_recalled1,wm_recall_rt1,wm_probed1,wm_recall_acc1,wm_recalled2,wm_recall_rt2,wm_probed2,wm_recall_acc2,wm_recalled3,wm_recall_rt3,wm_probed3,wm_recall_acc3,wm_recalled4,wm_recall_rt4,wm_probed4,wm_recall_acc4,prac_wm_trial_loop.thisRepN,prac_wm_trial_loop.thisTrialN,prac_wm_trial_loop.thisN,prac_wm_trial_loop.thisIndex,prac_wm_trial_loop.ran,word1,image1,file1,item_type1,word2,image2,file2,item_type2,word4,image4,file4,item_type4,word3,image3,file3,item_type3,wm_test_loop.thisRepN,wm_test_loop.thisTrialN,wm_test_loop.thisN,wm_test_loop.thisIndex,wm_test_loop.ran,wm_trial_loop.thisRepN,wm_trial_loop.thisTrialN,wm_trial_loop.thisN,wm_trial_loop.thisIndex,wm_trial_loop.ran
y,8.352995,TOUGH,15.00474,1,0,0,0,0,1,stimuli/images/PICTURE_747.png,TOUGH,5dfb7cbd01423f8a774d893b,21/09/1951,2020-07-09_21h03.35.126,proactive,2020.1.2,Win32,60,5f073de81c76c3308c0e4fb3,5f0777f3c10cab3808bf3f52,3,,,,,,,,,,,,,,,,,,,,,,,,,,,,,,,,,,,,,,,,,,,,,,,,,,,,,,,,,,,,,,,,,,,,,,,,,,,,,,,,,,,,,,,,,,,,,
,,,,,,,,,,stimuli/images/PICTURE_658.png,DEVIL,5dfb7cbd01423f8a774d893b,21/09/1951,2020-07-09_21h03.35.126,proactive,2020.1.2,Win32,60,5f073de81c76c3308c0e4fb3,5f0777f3c10cab3808bf3f52,3,0,0,0,3,1,crow,,,,,,,,,,,,,,,,,,,,,,,,,,,,,,,,,,,,,,,,,,,,,,,,,,,,,,,,,,,,,,,,,,,,,,,,,,,,,,,,,,,,,,,
,,,,,,,,,,stimuli/images/PICTURE_697.png,KILLER,5dfb7cbd01423f8a774d893b,21/09/1951,2020-07-09_21h03.35.126,proactive,2020.1.2,Win32,60,5f073de81c76c3308c0e4fb3,5f0777f3c10cab3808bf3f52,3,0,1,1,4,1,peach,,,,,,,,,,,,,,,,,,,,,,,,,,,,,,,,,,,,,,,,,,,,,,,,,,,,,,,,,,,,,,,,,,,,,,,,,,,,,,,,,,,,,,,
,,,,,,,,,,stimuli/images/PICTURE_269.png,GENIUS,5dfb7cbd01423f8a774d893b,21/09/1951,2020-07-09_21h03.35.126,proactive,2020.1.2,Win32,60,5f073de81c76c3308c0e4fb3,5f0777f3c10cab3808bf3f52,3,0,2,2,0,1,chameleon,,,,,,,,,,,,,,,,,,,,,,,,,,,,,,,,,,,,,,,,,,,,,,,,,,,,,,,,,,,,,,,,,,,,,,,,,,,,,,,,,,,,,,,
,,,,,,,,,,stimuli/images/PICTURE_727.png,CELL,5dfb7cbd01423f8a774d893b,21/09/1951,2020-07-09_21h03.35.126,proactive,2020.1.2,Win32,60,5f073de81c76c3308c0e4fb3,5f0777f3c10cab3808bf3f52,3,0,3,3,1,1,hose,,,,,,,,,,,,,,,,,,,,,,,,,,,,,,,,,,,,,,,,,,,,,,,,,,,,,,,,,,,,,,,,,,,,,,,,,,,,,,,,,,,,,,,
,,LOSS,15.00416,1,,,,,,stimuli/images/PICTURE_378.png,LOSS,5dfb7cbd01423f8a774d893b,21/09/1951,2020-07-09_21h03.35.126,proactive,2020.1.2,Win32,60,5f073de81c76c3308c0e4fb3,5f0777f3c10cab3808bf3f52,3,,,,,,lobster,0,0,0,2,1,,,,,,,,,,,,,,,,,,,,,,,,,,,,,,,,,,,,,,,,,,,,,,,,,,,,,,,,,,,,,,,,,,,,,,,,,,,,,,,,,,
,,KILLER,15.005895,1,,,,,,stimuli/images/PICTURE_697.png,KILLER,5dfb7cbd01423f8a774d893b,21/09/1951,2020-07-09_21h03.35.126,proactive,2020.1.2,Win32,60,5f073de81c76c3308c0e4fb3,5f0777f3c10cab3808bf3f52,3,,,,,,peach,0,1,1,4,1,,,,,,,,,,,,,,,,,,,,,,,,,,,,,,,,,,,,,,,,,,,,,,,,,,,,,,,,,,,,,,,,,,,,,,,,,,,,,,,,,,
,,DEVIL,15.005395,1,,,,,,stimuli/images/PICTURE_658.png,DEVIL,5dfb7cbd01423f8a774d893b,21/09/1951,2020-07-09_21h03.35.126,proactive,2020.1.2,Win32,60,5f073de81c76c3308c0e4fb3,5f0777f3c10cab3808bf3f52,3,,,,,,crow,0,2,2,3,1,,,,,,,,,,,,,,,,,,,,,,,,,,,,,,,,,,,,,,,,,,,,,,,,,,,,,,,,,,,,,,,,,,,,,,,,,,,,,,,,,,
,,CELL,15.004685,1,,,,,,stimuli/images/PICTURE_727.png,CELL,5dfb7cbd01423f8a774d893b,21/09/1951,2020-07-09_21h03.35.126,proactive,2020.1.2,Win32,60,5f073de81c76c3308c0e4fb3,5f0777f3c10cab3808bf3f52,3,,,,,,hose,0,3,3,1,1,,,,,,,,,,,,,,,,,,,,,,,,,,,,,,,,,,,,,,,,,,,,,,,,,,,,,,,,,,,,,,,,,,,,,,,,,,,,,,,,,,
,,GENIUS,15.00516,1,,,,,,stimuli/images/PICTURE_269.png,GENIUS,5dfb7cbd01423f8a774d893b,21/09/1951,2020-07-09_21h03.35.126,proactive,2020.1.2,Win32,60,5f073de81c76c3308c0e4fb3,5f0777f3c10cab3808bf3f52,3,,,,,,chameleon,0,4,4,0,1,,,,,,,,,,,,,,,,,,,,,,,,,,,,,,,,,,,,,,,,,,,,,,,,,,,,,,,,,,,,,,,,,,,,,,,,,,,,,,,,,,
,,,,,,,,,,stimuli/images/PICTURE_405.png,YEAR,5dfb7cbd01423f8a774d893b,21/09/1951,2020-07-09_21h03.35.126,proactive,2020.1.2,Win32,60,5f073de81c76c3308c0e4fb3,5f0777f3c10cab3808bf3f52,3,,,,,,anchor,,,,,,0,0,0,34,1,4,1,,,,,,,,,,,,,,,,,,,,,,,,,,,,,,,,,,,,,,,,,,,,,,,,,,,,,,,,,,,,,,,,,,,,,,,,,,,
,,,,,,,,,,stimuli/images/PICTURE_750.png,HOTEL,5dfb7cbd01423f8a774d893b,21/09/1951,2020-07-09_21h03.35.126,proactive,2020.1.2,Win32,60,5f073de81c76c3308c0e4fb3,5f0777f3c10cab3808bf3f52,3,,,,,,kettle,,,,,,0,1,1,27,1,3,1,,,,,,,,,,,,,,,,,,,,,,,,,,,,,,,,,,,,,,,,,,,,,,,,,,,,,,,,,,,,,,,,,,,,,,,,,,,
,,,,,,,,,,stimuli/images/PICTURE_308.png,FAMILY,5dfb7cbd01423f8a774d893b,21/09/1951,2020-07-09_21h03.35.126,proactive,2020.1.2,Win32,60,5f073de81c76c3308c0e4fb3,5f0777f3c10cab3808bf3f52,3,,,,,,dice,,,,,,0,2,2,36,1,4,1,,,,,,,,,,,,,,,,,,,,,,,,,,,,,,,,,,,,,,,,,,,,,,,,,,,,,,,,,,,,,,,,,,,,,,,,,,,
,,,,,,,,,,stimuli/images/PICTURE_504.png,ARTIST,5dfb7cbd01423f8a774d893b,21/09/1951,2020-07-09_21h03.35.126,proactive,2020.1.2,Win32,60,5f073de81c76c3308c0e4fb3,5f0777f3c10cab3808bf3f52,3,,,,,,wheel,,,,,,0,3,3,49,1,5,1,,,,,,,,,,,,,,,,,,,,,,,,,,,,,,,,,,,,,,,,,,,,,,,,,,,,,,,,,,,,,,,,,,,,,,,,,,,
,,,,,,,,,,stimuli/images/PICTURE_42.png,BOYS,5dfb7cbd01423f8a774d893b,21/09/1951,2020-07-09_21h03.35.126,proactive,2020.1.2,Win32,60,5f073de81c76c3308c0e4fb3,5f0777f3c10cab3808bf3f52,3,,,,,,pear,,,,,,0,4,4,55,1,6,1,,,,,,,,,,,,,,,,,,,,,,,,,,,,,,,,,,,,,,,,,,,,,,,,,,,,,,,,,,,,,,,,,,,,,,,,,,,
,,,,,,,,,,stimuli/images/PICTURE_380.png,HONEY,5dfb7cbd01423f8a774d893b,21/09/1951,2020-07-09_21h03.35.126,proactive,2020.1.2,Win32,60,5f073de81c76c3308c0e4fb3,5f0777f3c10cab3808bf3f52,3,,,,,,gorilla,,,,,,0,5,5,19,1,2,1,,,,,,,,,,,,,,,,,,,,,,,,,,,,,,,,,,,,,,,,,,,,,,,,,,,,,,,,,,,,,,,,,,,,,,,,,,,
,,,,,,,,,,stimuli/images/PICTURE_339.png,CLIENT,5dfb7cbd01423f8a774d893b,21/09/1951,2020-07-09_21h03.35.126,proactive,2020.1.2,Win32,60,5f073de81c76c3308c0e4fb3,5f0777f3c10cab3808bf3f52,3,,,,,,backpack,,,,,,0,6,6,11,1,2,1,,,,,,,,,,,,,,,,,,,,,,,,,,,,,,,,,,,,,,,,,,,,,,,,,,,,,,,,,,,,,,,,,,,,,,,,,,,
,,,,,,,,,,stimuli/images/PICTURE_403.png,WRITER,5dfb7cbd01423f8a774d893b,21/09/1951,2020-07-09_21h03.35.126,proactive,2020.1.2,Win32,60,5f073de81c76c3308c0e4fb3,5f0777f3c10cab3808bf3f52,3,,,,,,cathedral,,,,,,0,7,7,31,1,4,1,,,,,,,,,,,,,,,,,,,,,,,,,,,,,,,,,,,,,,,,,,,,,,,,,,,,,,,,,,,,,,,,,,,,,,,,,,,
,,,,,,,,,,stimuli/images/PICTURE_57.png,MOMENT,5dfb7cbd01423f8a774d893b,21/09/1951,2020-07-09_21h03.35.126,proactive,2020.1.2,Win32,60,5f073de81c76c3308c0e4fb3,5f0777f3c10cab3808bf3f52,3,,,,,,stamp,,,,,,0,8,8,37,1,4,1,,,,,,,,,,,,,,,,,,,,,,,,,,,,,,,,,,,,,,,,,,,,,,,,,,,,,,,,,,,,,,,,,,,,,,,,,,,
,,,,,,,,,,stimuli/images/PICTURE_340.png,LETTER,5dfb7cbd01423f8a774d893b,21/09/1951,2020-07-09_21h03.35.126,proactive,2020.1.2,Win32,60,5f073de81c76c3308c0e4fb3,5f0777f3c10cab3808bf3f52,3,,,,,,mirror,,,,,,0,9,9,24,1,3,1,,,,,,,,,,,,,,,,,,,,,,,,,,,,,,,,,,,,,,,,,,,,,,,,,,,,,,,,,,,,,,,,,,,,,,,,,,,
,,,,,,,,,,stimuli/images/PICTURE_147.png,WOMEN,5dfb7cbd01423f8a774d893b,21/09/1951,2020-07-09_21h03.35.126,proactive,2020.1.2,Win32,60,5f073de81c76c3308c0e4fb3,5f0777f3c10cab3808bf3f52,3,,,,,,hanger,,,,,,0,10,10,7,1,1,1,,,,,,,,,,,,,,,,,,,,,,,,,,,,,,,,,,,,,,,,,,,,,,,,,,,,,,,,,,,,,,,,,,,,,,,,,,,
,,,,,,,,,,stimuli/images/PICTURE_297.png,RIVER,5dfb7cbd01423f8a774d893b,21/09/1951,2020-07-09_21h03.35.126,proactive,2020.1.2,Win32,60,5f073de81c76c3308c0e4fb3,5f0777f3c10cab3808bf3f52,3,,,,,,aeroplane,,,,,,0,11,11,39,1,4,1,,,,,,,,,,,,,,,,,,,,,,,,,,,,,,,,,,,,,,,,,,,,,,,,,,,,,,,,,,,,,,,,,,,,,,,,,,,
,,,,,,,,,,stimuli/images/PICTURE_85.png,TOILET,5dfb7cbd01423f8a774d893b,21/09/1951,2020-07-09_21h03.35.126,proactive,2020.1.2,Win32,60,5f073de81c76c3308c0e4fb3,5f0777f3c10cab3808bf3f52,3,,,,,,diamond,,,,,,0,12,12,48,1,5,1,,,,,,,,,,,,,,,,,,,,,,,,,,,,,,,,,,,,,,,,,,,,,,,,,,,,,,,,,,,,,,,,,,,,,,,,,,,
,,,,,,,,,,stimuli/images/PICTURE_208.png,SYSTEM,5dfb7cbd01423f8a774d893b,21/09/1951,2020-07-09_21h03.35.126,proactive,2020.1.2,Win32,60,5f073de81c76c3308c0e4fb3,5f0777f3c10cab3808bf3f52,3,,,,,,microphone,,,,,,0,13,13,32,1,4,1,,,,,,,,,,,,,,,,,,,,,,,,,,,,,,,,,,,,,,,,,,,,,,,,,,,,,,,,,,,,,,,,,,,,,,,,,,,
,,,,,,,,,,stimuli/images/PICTURE_95.png,BOYS,5dfb7cbd01423f8a774d893b,21/09/1951,2020-07-09_21h03.35.126,proactive,2020.1.2,Win32,60,5f073de81c76c3308c0e4fb3,5f0777f3c10cab3808bf3f52,3,,,,,,suitcase,,,,,,0,14,14,1,1,1,1,,,,,,,,,,,,,,,,,,,,,,,,,,,,,,,,,,,,,,,,,,,,,,,,,,,,,,,,,,,,,,,,,,,,,,,,,,,
,,,,,,,,,,stimuli/images/PICTURE_68.png,MILE,5dfb7cbd01423f8a774d893b,21/09/1951,2020-07-09_21h03.35.126,proactive,2020.1.2,Win32,60,5f073de81c76c3308c0e4fb3,5f0777f3c10cab3808bf3f52,3,,,,,,candle,,,,,,0,15,15,51,1,6,1,,,,,,,,,,,,,,,,,,,,,,,,,,,,,,,,,,,,,,,,,,,,,,,,,,,,,,,,,,,,,,,,,,,,,,,,,,,
,,,,,,,,,,stimuli/images/PICTURE_2.png,FLIGHT,5dfb7cbd01423f8a774d893b,21/09/1951,2020-07-09_21h03.35.126,proactive,2020.1.2,Win32,60,5f073de81c76c3308c0e4fb3,5f0777f3c10cab3808bf3f52,3,,,,,,tyre,,,,,,0,16,16,15,1,2,1,,,,,,,,,,,,,,,,,,,,,,,,,,,,,,,,,,,,,,,,,,,,,,,,,,,,,,,,,,,,,,,,,,,,,,,,,,,
,,,,,,,,,,stimuli/images/PICTURE_108.png,FLIGHT,5dfb7cbd01423f8a774d893b,21/09/1951,2020-07-09_21h03.35.126,proactive,2020.1.2,Win32,60,5f073de81c76c3308c0e4fb3,5f0777f3c10cab3808bf3f52,3,,,,,,calendar,,,,,,0,17,17,59,1,6,1,,,,,,,,,,,,,,,,,,,,,,,,,,,,,,,,,,,,,,,,,,,,,,,,,,,,,,,,,,,,,,,,,,,,,,,,,,,
,,,,,,,,,,stimuli/images/PICTURE_469.png,AGENT,5dfb7cbd01423f8a774d893b,21/09/1951,2020-07-09_21h03.35.126,proactive,2020.1.2,Win32,60,5f073de81c76c3308c0e4fb3,5f0777f3c10cab3808bf3f52,3,,,,,,stool,,,,,,0,18,18,16,1,2,1,,,,,,,,,,,,,,,,,,,,,,,,,,,,,,,,,,,,,,,,,,,,,,,,,,,,,,,,,,,,,,,,,,,,,,,,,,,
,,,,,,,,,,stimuli/images/PICTURE_203.png,NIGHT,5dfb7cbd01423f8a774d893b,21/09/1951,2020-07-09_21h03.35.126,proactive,2020.1.2,Win32,60,5f073de81c76c3308c0e4fb3,5f0777f3c10cab3808bf3f52,3,,,,,,cap,,,,,,0,19,19,2,1,1,1,,,,,,,,,,,,,,,,,,,,,,,,,,,,,,,,,,,,,,,,,,,,,,,,,,,,,,,,,,,,,,,,,,,,,,,,,,,
,,,,,,,,,,stimuli/images/PICTURE_33.png,FRIEND,5dfb7cbd01423f8a774d893b,21/09/1951,2020-07-09_21h03.35.126,proactive,2020.1.2,Win32,60,5f073de81c76c3308c0e4fb3,5f0777f3c10cab3808bf3f52,3,,,,,,frame,,,,,,0,20,20,8,1,1,1,,,,,,,,,,,,,,,,,,,,,,,,,,,,,,,,,,,,,,,,,,,,,,,,,,,,,,,,,,,,,,,,,,,,,,,,,,,
,,,,,,,,,,stimuli/images/PICTURE_449.png,DUDE,5dfb7cbd01423f8a774d893b,21/09/1951,2020-07-09_21h03.35.126,proactive,2020.1.2,Win32,60,5f073de81c76c3308c0e4fb3,5f0777f3c10cab3808bf3f52,3,,,,,,bench,,,,,,0,21,21,17,1,2,1,,,,,,,,,,,,,,,,,,,,,,,,,,,,,,,,,,,,,,,,,,,,,,,,,,,,,,,,,,,,,,,,,,,,,,,,,,,
,,,,,,,,,,stimuli/images/PICTURE_285.png,LIFE,5dfb7cbd01423f8a774d893b,21/09/1951,2020-07-09_21h03.35.126,proactive,2020.1.2,Win32,60,5f073de81c76c3308c0e4fb3,5f0777f3c10cab3808bf3f52,3,,,,,,carrot,,,,,,0,22,22,33,1,4,1,,,,,,,,,,,,,,,,,,,,,,,,,,,,,,,,,,,,,,,,,,,,,,,,,,,,,,,,,,,,,,,,,,,,,,,,,,,
,,,,,,,,,,stimuli/images/PICTURE_403.png,RIVER,5dfb7cbd01423f8a774d893b,21/09/1951,2020-07-09_21h03.35.126,proactive,2020.1.2,Win32,60,5f073de81c76c3308c0e4fb3,5f0777f3c10cab3808bf3f52,3,,,,,,cathedral,,,,,,0,23,23,40,1,5,1,,,,,,,,,,,,,,,,,,,,,,,,,,,,,,,,,,,,,,,,,,,,,,,,,,,,,,,,,,,,,,,,,,,,,,,,,,,
,,,,,,,,,,stimuli/images/PICTURE_95.png,MILLER,5dfb7cbd01423f8a774d893b,21/09/1951,2020-07-09_21h03.35.126,proactive,2020.1.2,Win32,60,5f073de81c76c3308c0e4fb3,5f0777f3c10cab3808bf3f52,3,,,,,,suitcase,,,,,,0,24,24,56,1,6,1,,,,,,,,,,,,,,,,,,,,,,,,,,,,,,,,,,,,,,,,,,,,,,,,,,,,,,,,,,,,,,,,,,,,,,,,,,,
,,,,,,,,,,stimuli/images/PICTURE_504.png,YEAR,5dfb7cbd01423f8a774d893b,21/09/1951,2020-07-09_21h03.35.126,proactive,2020.1.2,Win32,60,5f073de81c76c3308c0e4fb3,5f0777f3c10cab3808bf3f52,3,,,,,,wheel,,,,,,0,25,25,13,1,2,1,,,,,,,,,,,,,,,,,,,,,,,,,,,,,,,,,,,,,,,,,,,,,,,,,,,,,,,,,,,,,,,,,,,,,,,,,,,
,,,,,,,,,,stimuli/images/PICTURE_68.png,ROOF,5dfb7cbd01423f8a774d893b,21/09/1951,2020-07-09_21h03.35.126,proactive,2020.1.2,Win32,60,5f073de81c76c3308c0e4fb3,5f0777f3c10cab3808bf3f52,3,,,,,,candle,,,,,,0,26,26,38,1,4,1,,,,,,,,,,,,,,,,,,,,,,,,,,,,,,,,,,,,,,,,,,,,,,,,,,,,,,,,,,,,,,,,,,,,,,,,,,,
,,,,,,,,,,stimuli/images/PICTURE_564.png,BATH,5dfb7cbd01423f8a774d893b,21/09/1951,2020-07-09_21h03.35.126,proactive,2020.1.2,Win32,60,5f073de81c76c3308c0e4fb3,5f0777f3c10cab3808bf3f52,3,,,,,,spoon,,,,,,0,27,27,26,1,3,1,,,,,,,,,,,,,,,,,,,,,,,,,,,,,,,,,,,,,,,,,,,,,,,,,,,,,,,,,,,,,,,,,,,,,,,,,,,
,,,,,,,,,,stimuli/images/PICTURE_85.png,NATION,5dfb7cbd01423f8a774d893b,21/09/1951,2020-07-09_21h03.35.126,proactive,2020.1.2,Win32,60,5f073de81c76c3308c0e4fb3,5f0777f3c10cab3808bf3f52,3,,,,,,diamond,,,,,,0,28,28,5,1,1,1,,,,,,,,,,,,,,,,,,,,,,,,,,,,,,,,,,,,,,,,,,,,,,,,,,,,,,,,,,,,,,,,,,,,,,,,,,,
,,,,,,,,,,stimuli/images/PICTURE_487.png,GIRL,5dfb7cbd01423f8a774d893b,21/09/1951,2020-07-09_21h03.35.126,proactive,2020.1.2,Win32,60,5f073de81c76c3308c0e4fb3,5f0777f3c10cab3808bf3f52,3,,,,,,basket,,,,,,0,29,29,45,1,5,1,,,,,,,,,,,,,,,,,,,,,,,,,,,,,,,,,,,,,,,,,,,,,,,,,,,,,,,,,,,,,,,,,,,,,,,,,,,
,,,,,,,,,,stimuli/images/PICTURE_685.png,PENNY,5dfb7cbd01423f8a774d893b,21/09/1951,2020-07-09_21h03.35.126,proactive,2020.1.2,Win32,60,5f073de81c76c3308c0e4fb3,5f0777f3c10cab3808bf3f52,3,,,,,,goose,,,,,,0,30,30,4,1,1,1,,,,,,,,,,,,,,,,,,,,,,,,,,,,,,,,,,,,,,,,,,,,,,,,,,,,,,,,,,,,,,,,,,,,,,,,,,,
,,,,,,,,,,stimuli/images/PICTURE_296.png,LOTS,5dfb7cbd01423f8a774d893b,21/09/1951,2020-07-09_21h03.35.126,proactive,2020.1.2,Win32,60,5f073de81c76c3308c0e4fb3,5f0777f3c10cab3808bf3f52,3,,,,,,bolt,,,,,,0,31,31,9,1,1,1,,,,,,,,,,,,,,,,,,,,,,,,,,,,,,,,,,,,,,,,,,,,,,,,,,,,,,,,,,,,,,,,,,,,,,,,,,,
,,,,,,,,,,stimuli/images/PICTURE_147.png,YEAR,5dfb7cbd01423f8a774d893b,21/09/1951,2020-07-09_21h03.35.126,proactive,2020.1.2,Win32,60,5f073de81c76c3308c0e4fb3,5f0777f3c10cab3808bf3f52,3,,,,,,hanger,,,,,,0,32,32,21,1,3,1,,,,,,,,,,,,,,,,,,,,,,,,,,,,,,,,,,,,,,,,,,,,,,,,,,,,,,,,,,,,,,,,,,,,,,,,,,,
,,,,,,,,,,stimuli/images/PICTURE_491.png,RIVER,5dfb7cbd01423f8a774d893b,21/09/1951,2020-07-09_21h03.35.126,proactive,2020.1.2,Win32,60,5f073de81c76c3308c0e4fb3,5f0777f3c10cab3808bf3f52,3,,,,,,rug,,,,,,0,33,33,6,1,1,1,,,,,,,,,,,,,,,,,,,,,,,,,,,,,,,,,,,,,,,,,,,,,,,,,,,,,,,,,,,,,,,,,,,,,,,,,,,
,,,,,,,,,,stimuli/images/PICTURE_654.png,MONTH,5dfb7cbd01423f8a774d893b,21/09/1951,2020-07-09_21h03.35.126,proactive,2020.1.2,Win32,60,5f073de81c76c3308c0e4fb3,5f0777f3c10cab3808bf3f52,3,,,,,,pencil,,,,,,0,34,34,29,1,3,1,,,,,,,,,,,,,,,,,,,,,,,,,,,,,,,,,,,,,,,,,,,,,,,,,,,,,,,,,,,,,,,,,,,,,,,,,,,
,,,,,,,,,,stimuli/images/PICTURE_95.png,HONEY,5dfb7cbd01423f8a774d893b,21/09/1951,2020-07-09_21h03.35.126,proactive,2020.1.2,Win32,60,5f073de81c76c3308c0e4fb3,5f0777f3c10cab3808bf3f52,3,,,,,,suitcase,,,,,,0,35,35,44,1,5,1,,,,,,,,,,,,,,,,,,,,,,,,,,,,,,,,,,,,,,,,,,,,,,,,,,,,,,,,,,,,,,,,,,,,,,,,,,,
,,,,,,,,,,stimuli/images/PICTURE_32.png,PILLS,5dfb7cbd01423f8a774d893b,21/09/1951,2020-07-09_21h03.35.126,proactive,2020.1.2,Win32,60,5f073de81c76c3308c0e4fb3,5f0777f3c10cab3808bf3f52,3,,,,,,crown,,,,,,0,36,36,18,1,2,1,,,,,,,,,,,,,,,,,,,,,,,,,,,,,,,,,,,,,,,,,,,,,,,,,,,,,,,,,,,,,,,,,,,,,,,,,,,
,,,,,,,,,,stimuli/images/PICTURE_677.png,APPLE,5dfb7cbd01423f8a774d893b,21/09/1951,2020-07-09_21h03.35.126,proactive,2020.1.2,Win32,60,5f073de81c76c3308c0e4fb3,5f0777f3c10cab3808bf3f52,3,,,,,,map,,,,,,0,37,37,43,1,5,1,,,,,,,,,,,,,,,,,,,,,,,,,,,,,,,,,,,,,,,,,,,,,,,,,,,,,,,,,,,,,,,,,,,,,,,,,,,
,,,,,,,,,,stimuli/images/PICTURE_675.png,SALE,5dfb7cbd01423f8a774d893b,21/09/1951,2020-07-09_21h03.35.126,proactive,2020.1.2,Win32,60,5f073de81c76c3308c0e4fb3,5f0777f3c10cab3808bf3f52,3,,,,,,windmill,,,,,,0,38,38,47,1,5,1,,,,,,,,,,,,,,,,,,,,,,,,,,,,,,,,,,,,,,,,,,,,,,,,,,,,,,,,,,,,,,,,,,,,,,,,,,,
,,,,,,,,,,stimuli/images/PICTURE_504.png,COPS,5dfb7cbd01423f8a774d893b,21/09/1951,2020-07-09_21h03.35.126,proactive,2020.1.2,Win32,60,5f073de81c76c3308c0e4fb3,5f0777f3c10cab3808bf3f52,3,,,,,,wheel,,,,,,0,39,39,52,1,6,1,,,,,,,,,,,,,,,,,,,,,,,,,,,,,,,,,,,,,,,,,,,,,,,,,,,,,,,,,,,,,,,,,,,,,,,,,,,
,,,,,,,,,,stimuli/images/PICTURE_380.png,CANDY,5dfb7cbd01423f8a774d893b,21/09/1951,2020-07-09_21h03.35.126,proactive,2020.1.2,Win32,60,5f073de81c76c3308c0e4fb3,5f0777f3c10cab3808bf3f52,3,,,,,,gorilla,,,,,,0,40,40,0,1,1,1,,,,,,,,,,,,,,,,,,,,,,,,,,,,,,,,,,,,,,,,,,,,,,,,,,,,,,,,,,,,,,,,,,,,,,,,,,,
,,,,,,,,,,stimuli/images/PICTURE_467.png,POLICY,5dfb7cbd01423f8a774d893b,21/09/1951,2020-07-09_21h03.35.126,proactive,2020.1.2,Win32,60,5f073de81c76c3308c0e4fb3,5f0777f3c10cab3808bf3f52,3,,,,,,peg,,,,,,0,41,41,53,1,6,1,,,,,,,,,,,,,,,,,,,,,,,,,,,,,,,,,,,,,,,,,,,,,,,,,,,,,,,,,,,,,,,,,,,,,,,,,,,
,,,,,,,,,,stimuli/images/PICTURE_708.png,RECORD,5dfb7cbd01423f8a774d893b,21/09/1951,2020-07-09_21h03.35.126,proactive,2020.1.2,Win32,60,5f073de81c76c3308c0e4fb3,5f0777f3c10cab3808bf3f52,3,,,,,,monkey,,,,,,0,42,42,58,1,6,1,,,,,,,,,,,,,,,,,,,,,,,,,,,,,,,,,,,,,,,,,,,,,,,,,,,,,,,,,,,,,,,,,,,,,,,,,,,
,,,,,,,,,,stimuli/images/PICTURE_327.png,SERIES,5dfb7cbd01423f8a774d893b,21/09/1951,2020-07-09_21h03.35.126,proactive,2020.1.2,Win32,60,5f073de81c76c3308c0e4fb3,5f0777f3c10cab3808bf3f52,3,,,,,,helmet,,,,,,0,43,43,3,1,1,1,,,,,,,,,,,,,,,,,,,,,,,,,,,,,,,,,,,,,,,,,,,,,,,,,,,,,,,,,,,,,,,,,,,,,,,,,,,
,,,,,,,,,,stimuli/images/PICTURE_203.png,GODS,5dfb7cbd01423f8a774d893b,21/09/1951,2020-07-09_21h03.35.126,proactive,2020.1.2,Win32,60,5f073de81c76c3308c0e4fb3,5f0777f3c10cab3808bf3f52,3,,,,,,cap,,,,,,0,44,44,30,1,4,1,,,,,,,,,,,,,,,,,,,,,,,,,,,,,,,,,,,,,,,,,,,,,,,,,,,,,,,,,,,,,,,,,,,,,,,,,,,
,,,,,,,,,,stimuli/images/PICTURE_405.png,PLENTY,5dfb7cbd01423f8a774d893b,21/09/1951,2020-07-09_21h03.35.126,proactive,2020.1.2,Win32,60,5f073de81c76c3308c0e4fb3,5f0777f3c10cab3808bf3f52,3,,,,,,anchor,,,,,,0,45,45,23,1,3,1,,,,,,,,,,,,,,,,,,,,,,,,,,,,,,,,,,,,,,,,,,,,,,,,,,,,,,,,,,,,,,,,,,,,,,,,,,,
,,,,,,,,,,stimuli/images/PICTURE_383.png,WRITER,5dfb7cbd01423f8a774d893b,21/09/1951,2020-07-09_21h03.35.126,proactive,2020.1.2,Win32,60,5f073de81c76c3308c0e4fb3,5f0777f3c10cab3808bf3f52,3,,,,,,coin,,,,,,0,46,46,28,1,3,1,,,,,,,,,,,,,,,,,,,,,,,,,,,,,,,,,,,,,,,,,,,,,,,,,,,,,,,,,,,,,,,,,,,,,,,,,,,
,,,,,,,,,,stimuli/images/PICTURE_296.png,LIFE,5dfb7cbd01423f8a774d893b,21/09/1951,2020-07-09_21h03.35.126,proactive,2020.1.2,Win32,60,5f073de81c76c3308c0e4fb3,5f0777f3c10cab3808bf3f52,3,,,,,,bolt,,,,,,0,47,47,57,1,6,1,,,,,,,,,,,,,,,,,,,,,,,,,,,,,,,,,,,,,,,,,,,,,,,,,,,,,,,,,,,,,,,,,,,,,,,,,,,
,,,,,,,,,,stimuli/images/PICTURE_32.png,KIND,5dfb7cbd01423f8a774d893b,21/09/1951,2020-07-09_21h03.35.126,proactive,2020.1.2,Win32,60,5f073de81c76c3308c0e4fb3,5f0777f3c10cab3808bf3f52,3,,,,,,crown,,,,,,0,48,48,35,1,4,1,,,,,,,,,,,,,,,,,,,,,,,,,,,,,,,,,,,,,,,,,,,,,,,,,,,,,,,,,,,,,,,,,,,,,,,,,,,
,,,,,,,,,,stimuli/images/PICTURE_744.png,WEAPON,5dfb7cbd01423f8a774d893b,21/09/1951,2020-07-09_21h03.35.126,proactive,2020.1.2,Win32,60,5f073de81c76c3308c0e4fb3,5f0777f3c10cab3808bf3f52,3,,,,,,ring,,,,,,0,49,49,50,1,6,1,,,,,,,,,,,,,,,,,,,,,,,,,,,,,,,,,,,,,,,,,,,,,,,,,,,,,,,,,,,,,,,,,,,,,,,,,,,
,,,,,,,,,,stimuli/images/PICTURE_667.png,RIVER,5dfb7cbd01423f8a774d893b,21/09/1951,2020-07-09_21h03.35.126,proactive,2020.1.2,Win32,60,5f073de81c76c3308c0e4fb3,5f0777f3c10cab3808bf3f52,3,,,,,,daisy,,,,,,0,50,50,10,1,2,1,,,,,,,,,,,,,,,,,,,,,,,,,,,,,,,,,,,,,,,,,,,,,,,,,,,,,,,,,,,,,,,,,,,,,,,,,,,
,,,,,,,,,,stimuli/images/PICTURE_327.png,CASINO,5dfb7cbd01423f8a774d893b,21/09/1951,2020-07-09_21h03.35.126,proactive,2020.1.2,Win32,60,5f073de81c76c3308c0e4fb3,5f0777f3c10cab3808bf3f52,3,,,,,,helmet,,,,,,0,51,51,20,1,3,1,,,,,,,,,,,,,,,,,,,,,,,,,,,,,,,,,,,,,,,,,,,,,,,,,,,,,,,,,,,,,,,,,,,,,,,,,,,
,,,,,,,,,,stimuli/images/PICTURE_383.png,SERIES,5dfb7cbd01423f8a774d893b,21/09/1951,2020-07-09_21h03.35.126,proactive,2020.1.2,Win32,60,5f073de81c76c3308c0e4fb3,5f0777f3c10cab3808bf3f52,3,,,,,,coin,,,,,,0,52,52,46,1,5,1,,,,,,,,,,,,,,,,,,,,,,,,,,,,,,,,,,,,,,,,,,,,,,,,,,,,,,,,,,,,,,,,,,,,,,,,,,,
,,,,,,,,,,stimuli/images/PICTURE_491.png,GLASS,5dfb7cbd01423f8a774d893b,21/09/1951,2020-07-09_21h03.35.126,proactive,2020.1.2,Win32,60,5f073de81c76c3308c0e4fb3,5f0777f3c10cab3808bf3f52,3,,,,,,rug,,,,,,0,53,53,14,1,2,1,,,,,,,,,,,,,,,,,,,,,,,,,,,,,,,,,,,,,,,,,,,,,,,,,,,,,,,,,,,,,,,,,,,,,,,,,,,
,,,,,,,,,,stimuli/images/PICTURE_403.png,TOILET,5dfb7cbd01423f8a774d893b,21/09/1951,2020-07-09_21h03.35.126,proactive,2020.1.2,Win32,60,5f073de81c76c3308c0e4fb3,5f0777f3c10cab3808bf3f52,3,,,,,,cathedral,,,,,,0,54,54,25,1,3,1,,,,,,,,,,,,,,,,,,,,,,,,,,,,,,,,,,,,,,,,,,,,,,,,,,,,,,,,,,,,,,,,,,,,,,,,,,,
,,,,,,,,,,stimuli/images/PICTURE_655.png,TOILET,5dfb7cbd01423f8a774d893b,21/09/1951,2020-07-09_21h03.35.126,proactive,2020.1.2,Win32,60,5f073de81c76c3308c0e4fb3,5f0777f3c10cab3808bf3f52,3,,,,,,megaphone,,,,,,0,55,55,12,1,2,1,,,,,,,,,,,,,,,,,,,,,,,,,,,,,,,,,,,,,,,,,,,,,,,,,,,,,,,,,,,,,,,,,,,,,,,,,,,
,,,,,,,,,,stimuli/images/PICTURE_177.png,WRITER,5dfb7cbd01423f8a774d893b,21/09/1951,2020-07-09_21h03.35.126,proactive,2020.1.2,Win32,60,5f073de81c76c3308c0e4fb3,5f0777f3c10cab3808bf3f52,3,,,,,,mushroom,,,,,,0,56,56,41,1,5,1,,,,,,,,,,,,,,,,,,,,,,,,,,,,,,,,,,,,,,,,,,,,,,,,,,,,,,,,,,,,,,,,,,,,,,,,,,,
,,,,,,,,,,stimuli/images/PICTURE_233.png,LOTS,5dfb7cbd01423f8a774d893b,21/09/1951,2020-07-09_21h03.35.126,proactive,2020.1.2,Win32,60,5f073de81c76c3308c0e4fb3,5f0777f3c10cab3808bf3f52,3,,,,,,salt,,,,,,0,57,57,42,1,5,1,,,,,,,,,,,,,,,,,,,,,,,,,,,,,,,,,,,,,,,,,,,,,,,,,,,,,,,,,,,,,,,,,,,,,,,,,,,
,,,,,,,,,,stimuli/images/PICTURE_340.png,VALLEY,5dfb7cbd01423f8a774d893b,21/09/1951,2020-07-09_21h03.35.126,proactive,2020.1.2,Win32,60,5f073de81c76c3308c0e4fb3,5f0777f3c10cab3808bf3f52,3,,,,,,mirror,,,,,,0,58,58,54,1,6,1,,,,,,,,,,,,,,,,,,,,,,,,,,,,,,,,,,,,,,,,,,,,,,,,,,,,,,,,,,,,,,,,,,,,,,,,,,,
,,?,0.001915,0,,,,,,stimuli/images/PICTURE_33.png,FRIEND,5dfb7cbd01423f8a774d893b,21/09/1951,2020-07-09_21h03.35.126,proactive,2020.1.2,Win32,60,5f073de81c76c3308c0e4fb3,5f0777f3c10cab3808bf3f52,3,,,,,,frame,,,,,,,,,,,1,1,0,0,0,8,1,,,,,,,,,,,,,,,,,,,,,,,,,,,,,,,,,,,,,,,,,,,,,,,,,,,,,,,,,,,,,,,,,,,,,,
,,?,0.001845,0,,,,,,stimuli/images/PICTURE_296.png,LIFE,5dfb7cbd01423f8a774d893b,21/09/1951,2020-07-09_21h03.35.126,proactive,2020.1.2,Win32,60,5f073de81c76c3308c0e4fb3,5f0777f3c10cab3808bf3f52,3,,,,,,bolt,,,,,,,,,,,6,1,0,1,1,57,1,,,,,,,,,,,,,,,,,,,,,,,,,,,,,,,,,,,,,,,,,,,,,,,,,,,,,,,,,,,,,,,,,,,,,,
,,LETTER,15.002735,1,,,,,,stimuli/images/PICTURE_340.png,LETTER,5dfb7cbd01423f8a774d893b,21/09/1951,2020-07-09_21h03.35.126,proactive,2020.1.2,Win32,60,5f073de81c76c3308c0e4fb3,5f0777f3c10cab3808bf3f52,3,,,,,,mirror,,,,,,,,,,,3,1,0,2,2,24,1,,,,,,,,,,,,,,,,,,,,,,,,,,,,,,,,,,,,,,,,,,,,,,,,,,,,,,,,,,,,,,,,,,,,,,
,,?,0.00091,0,,,,,,stimuli/images/PICTURE_233.png,LOTS,5dfb7cbd01423f8a774d893b,21/09/1951,2020-07-09_21h03.35.126,proactive,2020.1.2,Win32,60,5f073de81c76c3308c0e4fb3,5f0777f3c10cab3808bf3f52,3,,,,,,salt,,,,,,,,,,,5,1,0,3,3,42,1,,,,,,,,,,,,,,,,,,,,,,,,,,,,,,,,,,,,,,,,,,,,,,,,,,,,,,,,,,,,,,,,,,,,,,
,,?,0.00062,0,,,,,,stimuli/images/PICTURE_57.png,MOMENT,5dfb7cbd01423f8a774d893b,21/09/1951,2020-07-09_21h03.35.126,proactive,2020.1.2,Win32,60,5f073de81c76c3308c0e4fb3,5f0777f3c10cab3808bf3f52,3,,,,,,stamp,,,,,,,,,,,4,1,0,4,4,37,1,,,,,,,,,,,,,,,,,,,,,,,,,,,,,,,,,,,,,,,,,,,,,,,,,,,,,,,,,,,,,,,,,,,,,,
,,?,0.000725,0,,,,,,stimuli/images/PICTURE_467.png,POLICY,5dfb7cbd01423f8a774d893b,21/09/1951,2020-07-09_21h03.35.126,proactive,2020.1.2,Win32,60,5f073de81c76c3308c0e4fb3,5f0777f3c10cab3808bf3f52,3,,,,,,peg,,,,,,,,,,,6,1,0,5,5,53,1,,,,,,,,,,,,,,,,,,,,,,,,,,,,,,,,,,,,,,,,,,,,,,,,,,,,,,,,,,,,,,,,,,,,,,
,,?,0.00056,0,,,,,,stimuli/images/PICTURE_85.png,NATION,5dfb7cbd01423f8a774d893b,21/09/1951,2020-07-09_21h03.35.126,proactive,2020.1.2,Win32,60,5f073de81c76c3308c0e4fb3,5f0777f3c10cab3808bf3f52,3,,,,,,diamond,,,,,,,,,,,1,1,0,6,6,5,1,,,,,,,,,,,,,,,,,,,,,,,,,,,,,,,,,,,,,,,,,,,,,,,,,,,,,,,,,,,,,,,,,,,,,,
,,?,0.00054,0,,,,,,stimuli/images/PICTURE_380.png,HONEY,5dfb7cbd01423f8a774d893b,21/09/1951,2020-07-09_21h03.35.126,proactive,2020.1.2,Win32,60,5f073de81c76c3308c0e4fb3,5f0777f3c10cab3808bf3f52,3,,,,,,gorilla,,,,,,,,,,,2,1,0,7,7,19,1,,,,,,,,,,,,,,,,,,,,,,,,,,,,,,,,,,,,,,,,,,,,,,,,,,,,,,,,,,,,,,,,,,,,,,
,,?,0.00069,0,,,,,,stimuli/images/PICTURE_208.png,SYSTEM,5dfb7cbd01423f8a774d893b,21/09/1951,2020-07-09_21h03.35.126,proactive,2020.1.2,Win32,60,5f073de81c76c3308c0e4fb3,5f0777f3c10cab3808bf3f52,3,,,,,,microphone,,,,,,,,,,,4,1,0,8,8,32,1,,,,,,,,,,,,,,,,,,,,,,,,,,,,,,,,,,,,,,,,,,,,,,,,,,,,,,,,,,,,,,,,,,,,,,
,,?,0.000525,0,,,,,,stimuli/images/PICTURE_708.png,RECORD,5dfb7cbd01423f8a774d893b,21/09/1951,2020-07-09_21h03.35.126,proactive,2020.1.2,Win32,60,5f073de81c76c3308c0e4fb3,5f0777f3c10cab3808bf3f52,3,,,,,,monkey,,,,,,,,,,,6,1,0,9,9,58,1,,,,,,,,,,,,,,,,,,,,,,,,,,,,,,,,,,,,,,,,,,,,,,,,,,,,,,,,,,,,,,,,,,,,,,
,,?,0.000505,0,,,,,,stimuli/images/PICTURE_340.png,VALLEY,5dfb7cbd01423f8a774d893b,21/09/1951,2020-07-09_21h03.35.126,proactive,2020.1.2,Win32,60,5f073de81c76c3308c0e4fb3,5f0777f3c10cab3808bf3f52,3,,,,,,mirror,,,,,,,,,,,6,1,0,10,10,54,1,,,,,,,,,,,,,,,,,,,,,,,,,,,,,,,,,,,,,,,,,,,,,,,,,,,,,,,,,,,,,,,,,,,,,,
,,?,0.00051,0,,,,,,stimuli/images/PICTURE_504.png,ARTIST,5dfb7cbd01423f8a774d893b,21/09/1951,2020-07-09_21h03.35.126,proactive,2020.1.2,Win32,60,5f073de81c76c3308c0e4fb3,5f0777f3c10cab3808bf3f52,3,,,,,,wheel,,,,,,,,,,,5,1,0,11,11,49,1,,,,,,,,,,,,,,,,,,,,,,,,,,,,,,,,,,,,,,,,,,,,,,,,,,,,,,,,,,,,,,,,,,,,,,
,,?,0.00051,0,,,,,,stimuli/images/PICTURE_383.png,SERIES,5dfb7cbd01423f8a774d893b,21/09/1951,2020-07-09_21h03.35.126,proactive,2020.1.2,Win32,60,5f073de81c76c3308c0e4fb3,5f0777f3c10cab3808bf3f52,3,,,,,,coin,,,,,,,,,,,5,1,0,12,12,46,1,,,,,,,,,,,,,,,,,,,,,,,,,,,,,,,,,,,,,,,,,,,,,,,,,,,,,,,,,,,,,,,,,,,,,,
,,YEAR,15.00639,1,,,,,,stimuli/images/PICTURE_147.png,YEAR,5dfb7cbd01423f8a774d893b,21/09/1951,2020-07-09_21h03.35.126,proactive,2020.1.2,Win32,60,5f073de81c76c3308c0e4fb3,5f0777f3c10cab3808bf3f52,3,,,,,,hanger,,,,,,,,,,,3,1,0,13,13,21,1,,,,,,,,,,,,,,,,,,,,,,,,,,,,,,,,,,,,,,,,,,,,,,,,,,,,,,,,,,,,,,,,,,,,,,
,,?,0.001355,0,,,,,,stimuli/images/PICTURE_504.png,COPS,5dfb7cbd01423f8a774d893b,21/09/1951,2020-07-09_21h03.35.126,proactive,2020.1.2,Win32,60,5f073de81c76c3308c0e4fb3,5f0777f3c10cab3808bf3f52,3,,,,,,wheel,,,,,,,,,,,6,1,0,14,14,52,1,,,,,,,,,,,,,,,,,,,,,,,,,,,,,,,,,,,,,,,,,,,,,,,,,,,,,,,,,,,,,,,,,,,,,,
,,?,0.001405,0,,,,,,stimuli/images/PICTURE_405.png,YEAR,5dfb7cbd01423f8a774d893b,21/09/1951,2020-07-09_21h03.35.126,proactive,2020.1.2,Win32,60,5f073de81c76c3308c0e4fb3,5f0777f3c10cab3808bf3f52,3,,,,,,anchor,,,,,,,,,,,4,1,0,15,15,34,1,,,,,,,,,,,,,,,,,,,,,,,,,,,,,,,,,,,,,,,,,,,,,,,,,,,,,,,,,,,,,,,,,,,,,,
,,HOTEL,15.01499,1,,,,,,stimuli/images/PICTURE_750.png,HOTEL,5dfb7cbd01423f8a774d893b,21/09/1951,2020-07-09_21h03.35.126,proactive,2020.1.2,Win32,60,5f073de81c76c3308c0e4fb3,5f0777f3c10cab3808bf3f52,3,,,,,,kettle,,,,,,,,,,,3,1,0,16,16,27,1,,,,,,,,,,,,,,,,,,,,,,,,,,,,,,,,,,,,,,,,,,,,,,,,,,,,,,,,,,,,,,,,,,,,,,
,,?,0.00168,0,,,,,,stimuli/images/PICTURE_675.png,SALE,5dfb7cbd01423f8a774d893b,21/09/1951,2020-07-09_21h03.35.126,proactive,2020.1.2,Win32,60,5f073de81c76c3308c0e4fb3,5f0777f3c10cab3808bf3f52,3,,,,,,windmill,,,,,,,,,,,5,1,0,17,17,47,1,,,,,,,,,,,,,,,,,,,,,,,,,,,,,,,,,,,,,,,,,,,,,,,,,,,,,,,,,,,,,,,,,,,,,,
,,?,0.00112,0,,,,,,stimuli/images/PICTURE_380.png,CANDY,5dfb7cbd01423f8a774d893b,21/09/1951,2020-07-09_21h03.35.126,proactive,2020.1.2,Win32,60,5f073de81c76c3308c0e4fb3,5f0777f3c10cab3808bf3f52,3,,,,,,gorilla,,,,,,,,,,,1,1,0,18,18,0,1,,,,,,,,,,,,,,,,,,,,,,,,,,,,,,,,,,,,,,,,,,,,,,,,,,,,,,,,,,,,,,,,,,,,,,
,,TOILET,15.015095,1,,,,,,stimuli/images/PICTURE_403.png,TOILET,5dfb7cbd01423f8a774d893b,21/09/1951,2020-07-09_21h03.35.126,proactive,2020.1.2,Win32,60,5f073de81c76c3308c0e4fb3,5f0777f3c10cab3808bf3f52,3,,,,,,cathedral,,,,,,,,,,,3,1,0,19,19,25,1,,,,,,,,,,,,,,,,,,,,,,,,,,,,,,,,,,,,,,,,,,,,,,,,,,,,,,,,,,,,,,,,,,,,,,
,,?,0.000945,0,,,,,,stimuli/images/PICTURE_147.png,WOMEN,5dfb7cbd01423f8a774d893b,21/09/1951,2020-07-09_21h03.35.126,proactive,2020.1.2,Win32,60,5f073de81c76c3308c0e4fb3,5f0777f3c10cab3808bf3f52,3,,,,,,hanger,,,,,,,,,,,1,1,0,20,20,7,1,,,,,,,,,,,,,,,,,,,,,,,,,,,,,,,,,,,,,,,,,,,,,,,,,,,,,,,,,,,,,,,,,,,,,,
,,?,0.003235,0,,,,,,stimuli/images/PICTURE_744.png,WEAPON,5dfb7cbd01423f8a774d893b,21/09/1951,2020-07-09_21h03.35.126,proactive,2020.1.2,Win32,60,5f073de81c76c3308c0e4fb3,5f0777f3c10cab3808bf3f52,3,,,,,,ring,,,,,,,,,,,6,1,0,21,21,50,1,,,,,,,,,,,,,,,,,,,,,,,,,,,,,,,,,,,,,,,,,,,,,,,,,,,,,,,,,,,,,,,,,,,,,,
,,?,0.00154,0,,,,,,stimuli/images/PICTURE_296.png,LOTS,5dfb7cbd01423f8a774d893b,21/09/1951,2020-07-09_21h03.35.126,proactive,2020.1.2,Win32,60,5f073de81c76c3308c0e4fb3,5f0777f3c10cab3808bf3f52,3,,,,,,bolt,,,,,,,,,,,1,1,0,22,22,9,1,,,,,,,,,,,,,,,,,,,,,,,,,,,,,,,,,,,,,,,,,,,,,,,,,,,,,,,,,,,,,,,,,,,,,,
,,PLENTY,15.012585,1,,,,,,stimuli/images/PICTURE_405.png,PLENTY,5dfb7cbd01423f8a774d893b,21/09/1951,2020-07-09_21h03.35.126,proactive,2020.1.2,Win32,60,5f073de81c76c3308c0e4fb3,5f0777f3c10cab3808bf3f52,3,,,,,,anchor,,,,,,,,,,,3,1,0,23,23,23,1,,,,,,,,,,,,,,,,,,,,,,,,,,,,,,,,,,,,,,,,,,,,,,,,,,,,,,,,,,,,,,,,,,,,,,
,,?,0.000845,0,,,,,,stimuli/images/PICTURE_685.png,PENNY,5dfb7cbd01423f8a774d893b,21/09/1951,2020-07-09_21h03.35.126,proactive,2020.1.2,Win32,60,5f073de81c76c3308c0e4fb3,5f0777f3c10cab3808bf3f52,3,,,,,,goose,,,,,,,,,,,1,1,0,24,24,4,1,,,,,,,,,,,,,,,,,,,,,,,,,,,,,,,,,,,,,,,,,,,,,,,,,,,,,,,,,,,,,,,,,,,,,,
,,?,0.00076,0,,,,,,stimuli/images/PICTURE_504.png,YEAR,5dfb7cbd01423f8a774d893b,21/09/1951,2020-07-09_21h03.35.126,proactive,2020.1.2,Win32,60,5f073de81c76c3308c0e4fb3,5f0777f3c10cab3808bf3f52,3,,,,,,wheel,,,,,,,,,,,2,1,0,25,25,13,1,,,,,,,,,,,,,,,,,,,,,,,,,,,,,,,,,,,,,,,,,,,,,,,,,,,,,,,,,,,,,,,,,,,,,,
,,?,0.00083,0,,,,,,stimuli/images/PICTURE_177.png,WRITER,5dfb7cbd01423f8a774d893b,21/09/1951,2020-07-09_21h03.35.126,proactive,2020.1.2,Win32,60,5f073de81c76c3308c0e4fb3,5f0777f3c10cab3808bf3f52,3,,,,,,mushroom,,,,,,,,,,,5,1,0,26,26,41,1,,,,,,,,,,,,,,,,,,,,,,,,,,,,,,,,,,,,,,,,,,,,,,,,,,,,,,,,,,,,,,,,,,,,,,
,,?,0.000655,0,,,,,,stimuli/images/PICTURE_32.png,PILLS,5dfb7cbd01423f8a774d893b,21/09/1951,2020-07-09_21h03.35.126,proactive,2020.1.2,Win32,60,5f073de81c76c3308c0e4fb3,5f0777f3c10cab3808bf3f52,3,,,,,,crown,,,,,,,,,,,2,1,0,27,27,18,1,,,,,,,,,,,,,,,,,,,,,,,,,,,,,,,,,,,,,,,,,,,,,,,,,,,,,,,,,,,,,,,,,,,,,,
,,?,0.00057,0,,,,,,stimuli/images/PICTURE_108.png,FLIGHT,5dfb7cbd01423f8a774d893b,21/09/1951,2020-07-09_21h03.35.126,proactive,2020.1.2,Win32,60,5f073de81c76c3308c0e4fb3,5f0777f3c10cab3808bf3f52,3,,,,,,calendar,,,,,,,,,,,6,1,0,28,28,59,1,,,,,,,,,,,,,,,,,,,,,,,,,,,,,,,,,,,,,,,,,,,,,,,,,,,,,,,,,,,,,,,,,,,,,,
,,?,0.001585,0,,,,,,stimuli/images/PICTURE_95.png,MILLER,5dfb7cbd01423f8a774d893b,21/09/1951,2020-07-09_21h03.35.126,proactive,2020.1.2,Win32,60,5f073de81c76c3308c0e4fb3,5f0777f3c10cab3808bf3f52,3,,,,,,suitcase,,,,,,,,,,,6,1,0,29,29,56,1,,,,,,,,,,,,,,,,,,,,,,,,,,,,,,,,,,,,,,,,,,,,,,,,,,,,,,,,,,,,,,,,,,,,,,
,,?,0.0005,0,,,,,,stimuli/images/PICTURE_327.png,SERIES,5dfb7cbd01423f8a774d893b,21/09/1951,2020-07-09_21h03.35.126,proactive,2020.1.2,Win32,60,5f073de81c76c3308c0e4fb3,5f0777f3c10cab3808bf3f52,3,,,,,,helmet,,,,,,,,,,,1,1,0,30,30,3,1,,,,,,,,,,,,,,,,,,,,,,,,,,,,,,,,,,,,,,,,,,,,,,,,,,,,,,,,,,,,,,,,,,,,,,
,,?,0.000495,0,,,,,,stimuli/images/PICTURE_449.png,DUDE,5dfb7cbd01423f8a774d893b,21/09/1951,2020-07-09_21h03.35.126,proactive,2020.1.2,Win32,60,5f073de81c76c3308c0e4fb3,5f0777f3c10cab3808bf3f52,3,,,,,,bench,,,,,,,,,,,2,1,0,31,31,17,1,,,,,,,,,,,,,,,,,,,,,,,,,,,,,,,,,,,,,,,,,,,,,,,,,,,,,,,,,,,,,,,,,,,,,,
,,?,0.00049,0,,,,,,stimuli/images/PICTURE_68.png,ROOF,5dfb7cbd01423f8a774d893b,21/09/1951,2020-07-09_21h03.35.126,proactive,2020.1.2,Win32,60,5f073de81c76c3308c0e4fb3,5f0777f3c10cab3808bf3f52,3,,,,,,candle,,,,,,,,,,,4,1,0,32,32,38,1,,,,,,,,,,,,,,,,,,,,,,,,,,,,,,,,,,,,,,,,,,,,,,,,,,,,,,,,,,,,,,,,,,,,,,
,,?,0.00103,0,,,,,,stimuli/images/PICTURE_42.png,BOYS,5dfb7cbd01423f8a774d893b,21/09/1951,2020-07-09_21h03.35.126,proactive,2020.1.2,Win32,60,5f073de81c76c3308c0e4fb3,5f0777f3c10cab3808bf3f52,3,,,,,,pear,,,,,,,,,,,6,1,0,33,33,55,1,,,,,,,,,,,,,,,,,,,,,,,,,,,,,,,,,,,,,,,,,,,,,,,,,,,,,,,,,,,,,,,,,,,,,,
,,?,0.000665,0,,,,,,stimuli/images/PICTURE_491.png,GLASS,5dfb7cbd01423f8a774d893b,21/09/1951,2020-07-09_21h03.35.126,proactive,2020.1.2,Win32,60,5f073de81c76c3308c0e4fb3,5f0777f3c10cab3808bf3f52,3,,,,,,rug,,,,,,,,,,,2,1,0,34,34,14,1,,,,,,,,,,,,,,,,,,,,,,,,,,,,,,,,,,,,,,,,,,,,,,,,,,,,,,,,,,,,,,,,,,,,,,
,,?,0.00049,0,,,,,,stimuli/images/PICTURE_308.png,FAMILY,5dfb7cbd01423f8a774d893b,21/09/1951,2020-07-09_21h03.35.126,proactive,2020.1.2,Win32,60,5f073de81c76c3308c0e4fb3,5f0777f3c10cab3808bf3f52,3,,,,,,dice,,,,,,,,,,,4,1,0,35,35,36,1,,,,,,,,,,,,,,,,,,,,,,,,,,,,,,,,,,,,,,,,,,,,,,,,,,,,,,,,,,,,,,,,,,,,,,
,,?,0.000465,0,,,,,,stimuli/images/PICTURE_203.png,GODS,5dfb7cbd01423f8a774d893b,21/09/1951,2020-07-09_21h03.35.126,proactive,2020.1.2,Win32,60,5f073de81c76c3308c0e4fb3,5f0777f3c10cab3808bf3f52,3,,,,,,cap,,,,,,,,,,,4,1,0,36,36,30,1,,,,,,,,,,,,,,,,,,,,,,,,,,,,,,,,,,,,,,,,,,,,,,,,,,,,,,,,,,,,,,,,,,,,,,
,,POLICY,15.01808,1,,,,,,stimuli/images/PICTURE_108.png,POLICY,5dfb7cbd01423f8a774d893b,21/09/1951,2020-07-09_21h03.35.126,proactive,2020.1.2,Win32,60,5f073de81c76c3308c0e4fb3,5f0777f3c10cab3808bf3f52,3,,,,,,calendar,,,,,,,,,,,3,1,0,37,37,22,1,,,,,,,,,,,,,,,,,,,,,,,,,,,,,,,,,,,,,,,,,,,,,,,,,,,,,,,,,,,,,,,,,,,,,,
,,?,0.000835,0,,,,,,stimuli/images/PICTURE_487.png,GIRL,5dfb7cbd01423f8a774d893b,21/09/1951,2020-07-09_21h03.35.126,proactive,2020.1.2,Win32,60,5f073de81c76c3308c0e4fb3,5f0777f3c10cab3808bf3f52,3,,,,,,basket,,,,,,,,,,,5,1,0,38,38,45,1,,,,,,,,,,,,,,,,,,,,,,,,,,,,,,,,,,,,,,,,,,,,,,,,,,,,,,,,,,,,,,,,,,,,,,
,,?,0.000555,0,,,,,,stimuli/images/PICTURE_85.png,TOILET,5dfb7cbd01423f8a774d893b,21/09/1951,2020-07-09_21h03.35.126,proactive,2020.1.2,Win32,60,5f073de81c76c3308c0e4fb3,5f0777f3c10cab3808bf3f52,3,,,,,,diamond,,,,,,,,,,,5,1,0,39,39,48,1,,,,,,,,,,,,,,,,,,,,,,,,,,,,,,,,,,,,,,,,,,,,,,,,,,,,,,,,,,,,,,,,,,,,,,
,,?,0.000505,0,,,,,,stimuli/images/PICTURE_403.png,WRITER,5dfb7cbd01423f8a774d893b,21/09/1951,2020-07-09_21h03.35.126,proactive,2020.1.2,Win32,60,5f073de81c76c3308c0e4fb3,5f0777f3c10cab3808bf3f52,3,,,,,,cathedral,,,,,,,,,,,4,1,0,40,40,31,1,,,,,,,,,,,,,,,,,,,,,,,,,,,,,,,,,,,,,,,,,,,,,,,,,,,,,,,,,,,,,,,,,,,,,,
,,BATH,15.00132,1,,,,,,stimuli/images/PICTURE_564.png,BATH,5dfb7cbd01423f8a774d893b,21/09/1951,2020-07-09_21h03.35.126,proactive,2020.1.2,Win32,60,5f073de81c76c3308c0e4fb3,5f0777f3c10cab3808bf3f52,3,,,,,,spoon,,,,,,,,,,,3,1,0,41,41,26,1,,,,,,,,,,,,,,,,,,,,,,,,,,,,,,,,,,,,,,,,,,,,,,,,,,,,,,,,,,,,,,,,,,,,,,
,,?,0.004365,0,,,,,,stimuli/images/PICTURE_677.png,APPLE,5dfb7cbd01423f8a774d893b,21/09/1951,2020-07-09_21h03.35.126,proactive,2020.1.2,Win32,60,5f073de81c76c3308c0e4fb3,5f0777f3c10cab3808bf3f52,3,,,,,,map,,,,,,,,,,,5,1,0,42,42,43,1,,,,,,,,,,,,,,,,,,,,,,,,,,,,,,,,,,,,,,,,,,,,,,,,,,,,,,,,,,,,,,,,,,,,,,
,,?,0.00146,0,,,,,,stimuli/images/PICTURE_491.png,RIVER,5dfb7cbd01423f8a774d893b,21/09/1951,2020-07-09_21h03.35.126,proactive,2020.1.2,Win32,60,5f073de81c76c3308c0e4fb3,5f0777f3c10cab3808bf3f52,3,,,,,,rug,,,,,,,,,,,1,1,0,43,43,6,1,,,,,,,,,,,,,,,,,,,,,,,,,,,,,,,,,,,,,,,,,,,,,,,,,,,,,,,,,,,,,,,,,,,,,,
,,?,0.001585,0,,,,,,stimuli/images/PICTURE_203.png,NIGHT,5dfb7cbd01423f8a774d893b,21/09/1951,2020-07-09_21h03.35.126,proactive,2020.1.2,Win32,60,5f073de81c76c3308c0e4fb3,5f0777f3c10cab3808bf3f52,3,,,,,,cap,,,,,,,,,,,1,1,0,44,44,2,1,,,,,,,,,,,,,,,,,,,,,,,,,,,,,,,,,,,,,,,,,,,,,,,,,,,,,,,,,,,,,,,,,,,,,,
,,?,0.002215,0,,,,,,stimuli/images/PICTURE_655.png,TOILET,5dfb7cbd01423f8a774d893b,21/09/1951,2020-07-09_21h03.35.126,proactive,2020.1.2,Win32,60,5f073de81c76c3308c0e4fb3,5f0777f3c10cab3808bf3f52,3,,,,,,megaphone,,,,,,,,,,,2,1,0,45,45,12,1,,,,,,,,,,,,,,,,,,,,,,,,,,,,,,,,,,,,,,,,,,,,,,,,,,,,,,,,,,,,,,,,,,,,,,
,,?,0.0019,0,,,,,,stimuli/images/PICTURE_667.png,RIVER,5dfb7cbd01423f8a774d893b,21/09/1951,2020-07-09_21h03.35.126,proactive,2020.1.2,Win32,60,5f073de81c76c3308c0e4fb3,5f0777f3c10cab3808bf3f52,3,,,,,,daisy,,,,,,,,,,,2,1,0,46,46,10,1,,,,,,,,,,,,,,,,,,,,,,,,,,,,,,,,,,,,,,,,,,,,,,,,,,,,,,,,,,,,,,,,,,,,,,
,,?,0.001535,0,,,,,,stimuli/images/PICTURE_68.png,MILE,5dfb7cbd01423f8a774d893b,21/09/1951,2020-07-09_21h03.35.126,proactive,2020.1.2,Win32,60,5f073de81c76c3308c0e4fb3,5f0777f3c10cab3808bf3f52,3,,,,,,candle,,,,,,,,,,,6,1,0,47,47,51,1,,,,,,,,,,,,,,,,,,,,,,,,,,,,,,,,,,,,,,,,,,,,,,,,,,,,,,,,,,,,,,,,,,,,,,
,,?,0.00122,0,,,,,,stimuli/images/PICTURE_95.png,HONEY,5dfb7cbd01423f8a774d893b,21/09/1951,2020-07-09_21h03.35.126,proactive,2020.1.2,Win32,60,5f073de81c76c3308c0e4fb3,5f0777f3c10cab3808bf3f52,3,,,,,,suitcase,,,,,,,,,,,5,1,0,48,48,44,1,,,,,,,,,,,,,,,,,,,,,,,,,,,,,,,,,,,,,,,,,,,,,,,,,,,,,,,,,,,,,,,,,,,,,,
,,MONTH,15.008015,1,,,,,,stimuli/images/PICTURE_654.png,MONTH,5dfb7cbd01423f8a774d893b,21/09/1951,2020-07-09_21h03.35.126,proactive,2020.1.2,Win32,60,5f073de81c76c3308c0e4fb3,5f0777f3c10cab3808bf3f52,3,,,,,,pencil,,,,,,,,,,,3,1,0,49,49,29,1,,,,,,,,,,,,,,,,,,,,,,,,,,,,,,,,,,,,,,,,,,,,,,,,,,,,,,,,,,,,,,,,,,,,,,
,,CASINO,15.00632,1,,,,,,stimuli/images/PICTURE_327.png,CASINO,5dfb7cbd01423f8a774d893b,21/09/1951,2020-07-09_21h03.35.126,proactive,2020.1.2,Win32,60,5f073de81c76c3308c0e4fb3,5f0777f3c10cab3808bf3f52,3,,,,,,helmet,,,,,,,,,,,3,1,0,50,50,20,1,,,,,,,,,,,,,,,,,,,,,,,,,,,,,,,,,,,,,,,,,,,,,,,,,,,,,,,,,,,,,,,,,,,,,,
,,?,0.000995,0,,,,,,stimuli/images/PICTURE_95.png,BOYS,5dfb7cbd01423f8a774d893b,21/09/1951,2020-07-09_21h03.35.126,proactive,2020.1.2,Win32,60,5f073de81c76c3308c0e4fb3,5f0777f3c10cab3808bf3f52,3,,,,,,suitcase,,,,,,,,,,,1,1,0,51,51,1,1,,,,,,,,,,,,,,,,,,,,,,,,,,,,,,,,,,,,,,,,,,,,,,,,,,,,,,,,,,,,,,,,,,,,,,
,,?,0.000715,0,,,,,,stimuli/images/PICTURE_297.png,RIVER,5dfb7cbd01423f8a774d893b,21/09/1951,2020-07-09_21h03.35.126,proactive,2020.1.2,Win32,60,5f073de81c76c3308c0e4fb3,5f0777f3c10cab3808bf3f52,3,,,,,,aeroplane,,,,,,,,,,,4,1,0,52,52,39,1,,,,,,,,,,,,,,,,,,,,,,,,,,,,,,,,,,,,,,,,,,,,,,,,,,,,,,,,,,,,,,,,,,,,,,
,,?,0.00052,0,,,,,,stimuli/images/PICTURE_339.png,CLIENT,5dfb7cbd01423f8a774d893b,21/09/1951,2020-07-09_21h03.35.126,proactive,2020.1.2,Win32,60,5f073de81c76c3308c0e4fb3,5f0777f3c10cab3808bf3f52,3,,,,,,backpack,,,,,,,,,,,2,1,0,53,53,11,1,,,,,,,,,,,,,,,,,,,,,,,,,,,,,,,,,,,,,,,,,,,,,,,,,,,,,,,,,,,,,,,,,,,,,,
,,?,0.000485,0,,,,,,stimuli/images/PICTURE_403.png,RIVER,5dfb7cbd01423f8a774d893b,21/09/1951,2020-07-09_21h03.35.126,proactive,2020.1.2,Win32,60,5f073de81c76c3308c0e4fb3,5f0777f3c10cab3808bf3f52,3,,,,,,cathedral,,,,,,,,,,,5,1,0,54,54,40,1,,,,,,,,,,,,,,,,,,,,,,,,,,,,,,,,,,,,,,,,,,,,,,,,,,,,,,,,,,,,,,,,,,,,,,
,,?,0.000685,0,,,,,,stimuli/images/PICTURE_285.png,LIFE,5dfb7cbd01423f8a774d893b,21/09/1951,2020-07-09_21h03.35.126,proactive,2020.1.2,Win32,60,5f073de81c76c3308c0e4fb3,5f0777f3c10cab3808bf3f52,3,,,,,,carrot,,,,,,,,,,,4,1,0,55,55,33,1,,,,,,,,,,,,,,,,,,,,,,,,,,,,,,,,,,,,,,,,,,,,,,,,,,,,,,,,,,,,,,,,,,,,,,
,,?,0.0005,0,,,,,,stimuli/images/PICTURE_32.png,KIND,5dfb7cbd01423f8a774d893b,21/09/1951,2020-07-09_21h03.35.126,proactive,2020.1.2,Win32,60,5f073de81c76c3308c0e4fb3,5f0777f3c10cab3808bf3f52,3,,,,,,crown,,,,,,,,,,,4,1,0,56,56,35,1,,,,,,,,,,,,,,,,,,,,,,,,,,,,,,,,,,,,,,,,,,,,,,,,,,,,,,,,,,,,,,,,,,,,,,
,,?,0.000485,0,,,,,,stimuli/images/PICTURE_2.png,FLIGHT,5dfb7cbd01423f8a774d893b,21/09/1951,2020-07-09_21h03.35.126,proactive,2020.1.2,Win32,60,5f073de81c76c3308c0e4fb3,5f0777f3c10cab3808bf3f52,3,,,,,,tyre,,,,,,,,,,,2,1,0,57,57,15,1,,,,,,,,,,,,,,,,,,,,,,,,,,,,,,,,,,,,,,,,,,,,,,,,,,,,,,,,,,,,,,,,,,,,,,
,,?,0.000545,0,,,,,,stimuli/images/PICTURE_469.png,AGENT,5dfb7cbd01423f8a774d893b,21/09/1951,2020-07-09_21h03.35.126,proactive,2020.1.2,Win32,60,5f073de81c76c3308c0e4fb3,5f0777f3c10cab3808bf3f52,3,,,,,,stool,,,,,,,,,,,2,1,0,58,58,16,1,,,,,,,,,,,,,,,,,,,,,,,,,,,,,,,,,,,,,,,,,,,,,,,,,,,,,,,,,,,,,,,,,,,,,,
,,WRITER,15.00776,1,,,,,,stimuli/images/PICTURE_383.png,WRITER,5dfb7cbd01423f8a774d893b,21/09/1951,2020-07-09_21h03.35.126,proactive,2020.1.2,Win32,60,5f073de81c76c3308c0e4fb3,5f0777f3c10cab3808bf3f52,3,,,,,,coin,,,,,,,,,,,3,1,0,59,59,28,1,,,,,,,,,,,,,,,,,,,,,,,,,,,,,,,,,,,,,,,,,,,,,,,,,,,,,,,,,,,,,,,,,,,,,,
,,,,,,,,,,,,5dfb7cbd01423f8a774d893b,21/09/1951,2020-07-09_21h03.35.126,proactive,2020.1.2,Win32,60,5f073de81c76c3308c0e4fb3,5f0777f3c10cab3808bf3f52,3,,,,,,,,,,,,,,,,,,,,,,,,0,0,0,1,1,stimuli/learn-block2.csv,,,,,,,,,,,,,,,,,,,,,,,,,,,,,,,,,,,,,,,,,,,,,,,,,,,,,,,,,,,,,,,,
,,,,,,,,,,stimuli/images/PICTURE_470.png,CASINO,5dfb7cbd01423f8a774d893b,21/09/1951,2020-07-09_21h03.35.126,proactive,2020.1.2,Win32,60,5f073de81c76c3308c0e4fb3,5f0777f3c10cab3808bf3f52,3,,,,,,motorbike,,,,,,0,0,0,36,1,4,0,,,,,,,,,,,,,,,,,,,,,,,,,,,,,,,,,,,,,,,,,,,,,,,,,,,,,,,,,,,,,,,,,,,,,,,,,,,
,,,,,,,,,,stimuli/images/PICTURE_203.png,ARTIST,5dfb7cbd01423f8a774d893b,21/09/1951,2020-07-09_21h03.35.126,proactive,2020.1.2,Win32,60,5f073de81c76c3308c0e4fb3,5f0777f3c10cab3808bf3f52,3,,,,,,cap,,,,,,0,1,1,26,1,3,0,,,,,,,,,,,,,,,,,,,,,,,,,,,,,,,,,,,,,,,,,,,,,,,,,,,,,,,,,,,,,,,,,,,,,,,,,,,
,,,,,,,,,,stimuli/images/PICTURE_348.png,SPEECH,5dfb7cbd01423f8a774d893b,21/09/1951,2020-07-09_21h03.35.126,proactive,2020.1.2,Win32,60,5f073de81c76c3308c0e4fb3,5f0777f3c10cab3808bf3f52,3,,,,,,pepper,,,,,,0,2,2,20,1,3,0,,,,,,,,,,,,,,,,,,,,,,,,,,,,,,,,,,,,,,,,,,,,,,,,,,,,,,,,,,,,,,,,,,,,,,,,,,,
,,,,,,,,,,stimuli/images/PICTURE_654.png,VALLEY,5dfb7cbd01423f8a774d893b,21/09/1951,2020-07-09_21h03.35.126,proactive,2020.1.2,Win32,60,5f073de81c76c3308c0e4fb3,5f0777f3c10cab3808bf3f52,3,,,,,,pencil,,,,,,0,3,3,1,1,1,0,,,,,,,,,,,,,,,,,,,,,,,,,,,,,,,,,,,,,,,,,,,,,,,,,,,,,,,,,,,,,,,,,,,,,,,,,,,
,,,,,,,,,,stimuli/images/PICTURE_151.png,GIRL,5dfb7cbd01423f8a774d893b,21/09/1951,2020-07-09_21h03.35.126,proactive,2020.1.2,Win32,60,5f073de81c76c3308c0e4fb3,5f0777f3c10cab3808bf3f52,3,,,,,,tray,,,,,,0,4,4,19,1,2,0,,,,,,,,,,,,,,,,,,,,,,,,,,,,,,,,,,,,,,,,,,,,,,,,,,,,,,,,,,,,,,,,,,,,,,,,,,,
,,,,,,,,,,stimuli/images/PICTURE_248.png,DOZEN,5dfb7cbd01423f8a774d893b,21/09/1951,2020-07-09_21h03.35.126,proactive,2020.1.2,Win32,60,5f073de81c76c3308c0e4fb3,5f0777f3c10cab3808bf3f52,3,,,,,,cart,,,,,,0,5,5,39,1,4,0,,,,,,,,,,,,,,,,,,,,,,,,,,,,,,,,,,,,,,,,,,,,,,,,,,,,,,,,,,,,,,,,,,,,,,,,,,,
,,,,,,,,,,stimuli/images/PICTURE_453.png,PLENTY,5dfb7cbd01423f8a774d893b,21/09/1951,2020-07-09_21h03.35.126,proactive,2020.1.2,Win32,60,5f073de81c76c3308c0e4fb3,5f0777f3c10cab3808bf3f52,3,,,,,,scissors,,,,,,0,6,6,56,1,6,0,,,,,,,,,,,,,,,,,,,,,,,,,,,,,,,,,,,,,,,,,,,,,,,,,,,,,,,,,,,,,,,,,,,,,,,,,,,
,,,,,,,,,,stimuli/images/PICTURE_356.png,DANGER,5dfb7cbd01423f8a774d893b,21/09/1951,2020-07-09_21h03.35.126,proactive,2020.1.2,Win32,60,5f073de81c76c3308c0e4fb3,5f0777f3c10cab3808bf3f52,3,,,,,,pawn,,,,,,0,7,7,55,1,6,0,,,,,,,,,,,,,,,,,,,,,,,,,,,,,,,,,,,,,,,,,,,,,,,,,,,,,,,,,,,,,,,,,,,,,,,,,,,
,,,,,,,,,,stimuli/images/PICTURE_311.png,FRIEND,5dfb7cbd01423f8a774d893b,21/09/1951,2020-07-09_21h03.35.126,proactive,2020.1.2,Win32,60,5f073de81c76c3308c0e4fb3,5f0777f3c10cab3808bf3f52,3,,,,,,razor,,,,,,0,8,8,34,1,4,0,,,,,,,,,,,,,,,,,,,,,,,,,,,,,,,,,,,,,,,,,,,,,,,,,,,,,,,,,,,,,,,,,,,,,,,,,,,
,,,,,,,,,,stimuli/images/PICTURE_85.png,THING,5dfb7cbd01423f8a774d893b,21/09/1951,2020-07-09_21h03.35.126,proactive,2020.1.2,Win32,60,5f073de81c76c3308c0e4fb3,5f0777f3c10cab3808bf3f52,3,,,,,,diamond,,,,,,0,9,9,15,1,2,0,,,,,,,,,,,,,,,,,,,,,,,,,,,,,,,,,,,,,,,,,,,,,,,,,,,,,,,,,,,,,,,,,,,,,,,,,,,
,,,,,,,,,,stimuli/images/PICTURE_123.png,ADVICE,5dfb7cbd01423f8a774d893b,21/09/1951,2020-07-09_21h03.35.126,proactive,2020.1.2,Win32,60,5f073de81c76c3308c0e4fb3,5f0777f3c10cab3808bf3f52,3,,,,,,dart,,,,,,0,10,10,50,1,6,0,,,,,,,,,,,,,,,,,,,,,,,,,,,,,,,,,,,,,,,,,,,,,,,,,,,,,,,,,,,,,,,,,,,,,,,,,,,
,,,,,,,,,,stimuli/images/PICTURE_68.png,MILE,5dfb7cbd01423f8a774d893b,21/09/1951,2020-07-09_21h03.35.126,proactive,2020.1.2,Win32,60,5f073de81c76c3308c0e4fb3,5f0777f3c10cab3808bf3f52,3,,,,,,candle,,,,,,0,11,11,44,1,5,0,,,,,,,,,,,,,,,,,,,,,,,,,,,,,,,,,,,,,,,,,,,,,,,,,,,,,,,,,,,,,,,,,,,,,,,,,,,
,,,,,,,,,,stimuli/images/PICTURE_469.png,ARTIST,5dfb7cbd01423f8a774d893b,21/09/1951,2020-07-09_21h03.35.126,proactive,2020.1.2,Win32,60,5f073de81c76c3308c0e4fb3,5f0777f3c10cab3808bf3f52,3,,,,,,stool,,,,,,0,12,12,6,1,1,0,,,,,,,,,,,,,,,,,,,,,,,,,,,,,,,,,,,,,,,,,,,,,,,,,,,,,,,,,,,,,,,,,,,,,,,,,,,
,,,,,,,,,,stimuli/images/PICTURE_509.png,PHOTO,5dfb7cbd01423f8a774d893b,21/09/1951,2020-07-09_21h03.35.126,proactive,2020.1.2,Win32,60,5f073de81c76c3308c0e4fb3,5f0777f3c10cab3808bf3f52,3,,,,,,telephone,,,,,,0,13,13,21,1,3,0,,,,,,,,,,,,,,,,,,,,,,,,,,,,,,,,,,,,,,,,,,,,,,,,,,,,,,,,,,,,,,,,,,,,,,,,,,,
,,,,,,,,,,stimuli/images/PICTURE_215.png,PLENTY,5dfb7cbd01423f8a774d893b,21/09/1951,2020-07-09_21h03.35.126,proactive,2020.1.2,Win32,60,5f073de81c76c3308c0e4fb3,5f0777f3c10cab3808bf3f52,3,,,,,,boot,,,,,,0,14,14,37,1,4,0,,,,,,,,,,,,,,,,,,,,,,,,,,,,,,,,,,,,,,,,,,,,,,,,,,,,,,,,,,,,,,,,,,,,,,,,,,,
,,,,,,,,,,stimuli/images/PICTURE_487.png,FLIGHT,5dfb7cbd01423f8a774d893b,21/09/1951,2020-07-09_21h03.35.126,proactive,2020.1.2,Win32,60,5f073de81c76c3308c0e4fb3,5f0777f3c10cab3808bf3f52,3,,,,,,basket,,,,,,0,15,15,9,1,1,0,,,,,,,,,,,,,,,,,,,,,,,,,,,,,,,,,,,,,,,,,,,,,,,,,,,,,,,,,,,,,,,,,,,,,,,,,,,
,,,,,,,,,,stimuli/images/PICTURE_491.png,WRITER,5dfb7cbd01423f8a774d893b,21/09/1951,2020-07-09_21h03.35.126,proactive,2020.1.2,Win32,60,5f073de81c76c3308c0e4fb3,5f0777f3c10cab3808bf3f52,3,,,,,,rug,,,,,,0,16,16,57,1,6,0,,,,,,,,,,,,,,,,,,,,,,,,,,,,,,,,,,,,,,,,,,,,,,,,,,,,,,,,,,,,,,,,,,,,,,,,,,,
,,,,,,,,,,stimuli/images/PICTURE_327.png,BEAUTY,5dfb7cbd01423f8a774d893b,21/09/1951,2020-07-09_21h03.35.126,proactive,2020.1.2,Win32,60,5f073de81c76c3308c0e4fb3,5f0777f3c10cab3808bf3f52,3,,,,,,helmet,,,,,,0,17,17,48,1,5,0,,,,,,,,,,,,,,,,,,,,,,,,,,,,,,,,,,,,,,,,,,,,,,,,,,,,,,,,,,,,,,,,,,,,,,,,,,,
,,,,,,,,,,stimuli/images/PICTURE_380.png,PHOTO,5dfb7cbd01423f8a774d893b,21/09/1951,2020-07-09_21h03.35.126,proactive,2020.1.2,Win32,60,5f073de81c76c3308c0e4fb3,5f0777f3c10cab3808bf3f52,3,,,,,,gorilla,,,,,,0,18,18,52,1,6,0,,,,,,,,,,,,,,,,,,,,,,,,,,,,,,,,,,,,,,,,,,,,,,,,,,,,,,,,,,,,,,,,,,,,,,,,,,,
,,,,,,,,,,stimuli/images/PICTURE_744.png,SAKE,5dfb7cbd01423f8a774d893b,21/09/1951,2020-07-09_21h03.35.126,proactive,2020.1.2,Win32,60,5f073de81c76c3308c0e4fb3,5f0777f3c10cab3808bf3f52,3,,,,,,ring,,,,,,0,19,19,17,1,2,0,,,,,,,,,,,,,,,,,,,,,,,,,,,,,,,,,,,,,,,,,,,,,,,,,,,,,,,,,,,,,,,,,,,,,,,,,,,
,,,,,,,,,,stimuli/images/PICTURE_160.png,LEADER,5dfb7cbd01423f8a774d893b,21/09/1951,2020-07-09_21h03.35.126,proactive,2020.1.2,Win32,60,5f073de81c76c3308c0e4fb3,5f0777f3c10cab3808bf3f52,3,,,,,,wheelbarrow,,,,,,0,20,20,3,1,1,0,,,,,,,,,,,,,,,,,,,,,,,,,,,,,,,,,,,,,,,,,,,,,,,,,,,,,,,,,,,,,,,,,,,,,,,,,,,
,,,,,,,,,,stimuli/images/PICTURE_688.png,CASINO,5dfb7cbd01423f8a774d893b,21/09/1951,2020-07-09_21h03.35.126,proactive,2020.1.2,Win32,60,5f073de81c76c3308c0e4fb3,5f0777f3c10cab3808bf3f52,3,,,,,,runner,,,,,,0,21,21,2,1,1,0,,,,,,,,,,,,,,,,,,,,,,,,,,,,,,,,,,,,,,,,,,,,,,,,,,,,,,,,,,,,,,,,,,,,,,,,,,,
,,,,,,,,,,stimuli/images/PICTURE_255.png,AREA,5dfb7cbd01423f8a774d893b,21/09/1951,2020-07-09_21h03.35.126,proactive,2020.1.2,Win32,60,5f073de81c76c3308c0e4fb3,5f0777f3c10cab3808bf3f52,3,,,,,,shovel,,,,,,0,22,22,22,1,3,0,,,,,,,,,,,,,,,,,,,,,,,,,,,,,,,,,,,,,,,,,,,,,,,,,,,,,,,,,,,,,,,,,,,,,,,,,,,
,,,,,,,,,,stimuli/images/PICTURE_160.png,FEET,5dfb7cbd01423f8a774d893b,21/09/1951,2020-07-09_21h03.35.126,proactive,2020.1.2,Win32,60,5f073de81c76c3308c0e4fb3,5f0777f3c10cab3808bf3f52,3,,,,,,wheelbarrow,,,,,,0,23,23,58,1,6,0,,,,,,,,,,,,,,,,,,,,,,,,,,,,,,,,,,,,,,,,,,,,,,,,,,,,,,,,,,,,,,,,,,,,,,,,,,,
,,,,,,,,,,stimuli/images/PICTURE_314.png,SAKE,5dfb7cbd01423f8a774d893b,21/09/1951,2020-07-09_21h03.35.126,proactive,2020.1.2,Win32,60,5f073de81c76c3308c0e4fb3,5f0777f3c10cab3808bf3f52,3,,,,,,perfume,,,,,,0,24,24,7,1,1,0,,,,,,,,,,,,,,,,,,,,,,,,,,,,,,,,,,,,,,,,,,,,,,,,,,,,,,,,,,,,,,,,,,,,,,,,,,,
,,,,,,,,,,stimuli/images/PICTURE_504.png,BODY,5dfb7cbd01423f8a774d893b,21/09/1951,2020-07-09_21h03.35.126,proactive,2020.1.2,Win32,60,5f073de81c76c3308c0e4fb3,5f0777f3c10cab3808bf3f52,3,,,,,,wheel,,,,,,0,25,25,8,1,1,0,,,,,,,,,,,,,,,,,,,,,,,,,,,,,,,,,,,,,,,,,,,,,,,,,,,,,,,,,,,,,,,,,,,,,,,,,,,
,,,,,,,,,,stimuli/images/PICTURE_453.png,DUDE,5dfb7cbd01423f8a774d893b,21/09/1951,2020-07-09_21h03.35.126,proactive,2020.1.2,Win32,60,5f073de81c76c3308c0e4fb3,5f0777f3c10cab3808bf3f52,3,,,,,,scissors,,,,,,0,26,26,27,1,3,0,,,,,,,,,,,,,,,,,,,,,,,,,,,,,,,,,,,,,,,,,,,,,,,,,,,,,,,,,,,,,,,,,,,,,,,,,,,
,,,,,,,,,,stimuli/images/PICTURE_380.png,DEATH,5dfb7cbd01423f8a774d893b,21/09/1951,2020-07-09_21h03.35.126,proactive,2020.1.2,Win32,60,5f073de81c76c3308c0e4fb3,5f0777f3c10cab3808bf3f52,3,,,,,,gorilla,,,,,,0,27,27,49,1,5,0,,,,,,,,,,,,,,,,,,,,,,,,,,,,,,,,,,,,,,,,,,,,,,,,,,,,,,,,,,,,,,,,,,,,,,,,,,,
,,,,,,,,,,stimuli/images/PICTURE_32.png,JUNGLE,5dfb7cbd01423f8a774d893b,21/09/1951,2020-07-09_21h03.35.126,proactive,2020.1.2,Win32,60,5f073de81c76c3308c0e4fb3,5f0777f3c10cab3808bf3f52,3,,,,,,crown,,,,,,0,28,28,45,1,5,0,,,,,,,,,,,,,,,,,,,,,,,,,,,,,,,,,,,,,,,,,,,,,,,,,,,,,,,,,,,,,,,,,,,,,,,,,,,
,,,,,,,,,,stimuli/images/PICTURE_708.png,CLIENT,5dfb7cbd01423f8a774d893b,21/09/1951,2020-07-09_21h03.35.126,proactive,2020.1.2,Win32,60,5f073de81c76c3308c0e4fb3,5f0777f3c10cab3808bf3f52,3,,,,,,monkey,,,,,,0,29,29,5,1,1,0,,,,,,,,,,,,,,,,,,,,,,,,,,,,,,,,,,,,,,,,,,,,,,,,,,,,,,,,,,,,,,,,,,,,,,,,,,,
,,,,,,,,,,stimuli/images/PICTURE_708.png,PENNY,5dfb7cbd01423f8a774d893b,21/09/1951,2020-07-09_21h03.35.126,proactive,2020.1.2,Win32,60,5f073de81c76c3308c0e4fb3,5f0777f3c10cab3808bf3f52,3,,,,,,monkey,,,,,,0,30,30,31,1,4,0,,,,,,,,,,,,,,,,,,,,,,,,,,,,,,,,,,,,,,,,,,,,,,,,,,,,,,,,,,,,,,,,,,,,,,,,,,,
,,,,,,,,,,stimuli/images/PICTURE_233.png,WOMEN,5dfb7cbd01423f8a774d893b,21/09/1951,2020-07-09_21h03.35.126,proactive,2020.1.2,Win32,60,5f073de81c76c3308c0e4fb3,5f0777f3c10cab3808bf3f52,3,,,,,,salt,,,,,,0,31,31,38,1,4,0,,,,,,,,,,,,,,,,,,,,,,,,,,,,,,,,,,,,,,,,,,,,,,,,,,,,,,,,,,,,,,,,,,,,,,,,,,,
,,,,,,,,,,stimuli/images/PICTURE_692.png,MONTH,5dfb7cbd01423f8a774d893b,21/09/1951,2020-07-09_21h03.35.126,proactive,2020.1.2,Win32,60,5f073de81c76c3308c0e4fb3,5f0777f3c10cab3808bf3f52,3,,,,,,cherry,,,,,,0,32,32,16,1,2,0,,,,,,,,,,,,,,,,,,,,,,,,,,,,,,,,,,,,,,,,,,,,,,,,,,,,,,,,,,,,,,,,,,,,,,,,,,,
,,,,,,,,,,stimuli/images/PICTURE_488.png,STYLE,5dfb7cbd01423f8a774d893b,21/09/1951,2020-07-09_21h03.35.126,proactive,2020.1.2,Win32,60,5f073de81c76c3308c0e4fb3,5f0777f3c10cab3808bf3f52,3,,,,,,sun,,,,,,0,33,33,33,1,4,0,,,,,,,,,,,,,,,,,,,,,,,,,,,,,,,,,,,,,,,,,,,,,,,,,,,,,,,,,,,,,,,,,,,,,,,,,,,
,,,,,,,,,,stimuli/images/PICTURE_688.png,WOMEN,5dfb7cbd01423f8a774d893b,21/09/1951,2020-07-09_21h03.35.126,proactive,2020.1.2,Win32,60,5f073de81c76c3308c0e4fb3,5f0777f3c10cab3808bf3f52,3,,,,,,runner,,,,,,0,34,34,14,1,2,0,,,,,,,,,,,,,,,,,,,,,,,,,,,,,,,,,,,,,,,,,,,,,,,,,,,,,,,,,,,,,,,,,,,,,,,,,,,
,,,,,,,,,,stimuli/images/PICTURE_208.png,LOTS,5dfb7cbd01423f8a774d893b,21/09/1951,2020-07-09_21h03.35.126,proactive,2020.1.2,Win32,60,5f073de81c76c3308c0e4fb3,5f0777f3c10cab3808bf3f52,3,,,,,,microphone,,,,,,0,35,35,10,1,2,0,,,,,,,,,,,,,,,,,,,,,,,,,,,,,,,,,,,,,,,,,,,,,,,,,,,,,,,,,,,,,,,,,,,,,,,,,,,
,,,,,,,,,,stimuli/images/PICTURE_311.png,BEAUTY,5dfb7cbd01423f8a774d893b,21/09/1951,2020-07-09_21h03.35.126,proactive,2020.1.2,Win32,60,5f073de81c76c3308c0e4fb3,5f0777f3c10cab3808bf3f52,3,,,,,,razor,,,,,,0,36,36,13,1,2,0,,,,,,,,,,,,,,,,,,,,,,,,,,,,,,,,,,,,,,,,,,,,,,,,,,,,,,,,,,,,,,,,,,,,,,,,,,,
,,,,,,,,,,stimuli/images/PICTURE_677.png,MILE,5dfb7cbd01423f8a774d893b,21/09/1951,2020-07-09_21h03.35.126,proactive,2020.1.2,Win32,60,5f073de81c76c3308c0e4fb3,5f0777f3c10cab3808bf3f52,3,,,,,,map,,,,,,0,37,37,30,1,4,0,,,,,,,,,,,,,,,,,,,,,,,,,,,,,,,,,,,,,,,,,,,,,,,,,,,,,,,,,,,,,,,,,,,,,,,,,,,
,,,,,,,,,,stimuli/images/PICTURE_667.png,PLENTY,5dfb7cbd01423f8a774d893b,21/09/1951,2020-07-09_21h03.35.126,proactive,2020.1.2,Win32,60,5f073de81c76c3308c0e4fb3,5f0777f3c10cab3808bf3f52,3,,,,,,daisy,,,,,,0,38,38,41,1,5,0,,,,,,,,,,,,,,,,,,,,,,,,,,,,,,,,,,,,,,,,,,,,,,,,,,,,,,,,,,,,,,,,,,,,,,,,,,,
,,,,,,,,,,stimuli/images/PICTURE_469.png,LETTER,5dfb7cbd01423f8a774d893b,21/09/1951,2020-07-09_21h03.35.126,proactive,2020.1.2,Win32,60,5f073de81c76c3308c0e4fb3,5f0777f3c10cab3808bf3f52,3,,,,,,stool,,,,,,0,39,39,42,1,5,0,,,,,,,,,,,,,,,,,,,,,,,,,,,,,,,,,,,,,,,,,,,,,,,,,,,,,,,,,,,,,,,,,,,,,,,,,,,
,,,,,,,,,,stimuli/images/PICTURE_708.png,YARD,5dfb7cbd01423f8a774d893b,21/09/1951,2020-07-09_21h03.35.126,proactive,2020.1.2,Win32,60,5f073de81c76c3308c0e4fb3,5f0777f3c10cab3808bf3f52,3,,,,,,monkey,,,,,,0,40,40,29,1,3,0,,,,,,,,,,,,,,,,,,,,,,,,,,,,,,,,,,,,,,,,,,,,,,,,,,,,,,,,,,,,,,,,,,,,,,,,,,,
,,,,,,,,,,stimuli/images/PICTURE_308.png,KIND,5dfb7cbd01423f8a774d893b,21/09/1951,2020-07-09_21h03.35.126,proactive,2020.1.2,Win32,60,5f073de81c76c3308c0e4fb3,5f0777f3c10cab3808bf3f52,3,,,,,,dice,,,,,,0,41,41,54,1,6,0,,,,,,,,,,,,,,,,,,,,,,,,,,,,,,,,,,,,,,,,,,,,,,,,,,,,,,,,,,,,,,,,,,,,,,,,,,,
,,,,,,,,,,stimuli/images/PICTURE_675.png,WEAPON,5dfb7cbd01423f8a774d893b,21/09/1951,2020-07-09_21h03.35.126,proactive,2020.1.2,Win32,60,5f073de81c76c3308c0e4fb3,5f0777f3c10cab3808bf3f52,3,,,,,,windmill,,,,,,0,42,42,32,1,4,0,,,,,,,,,,,,,,,,,,,,,,,,,,,,,,,,,,,,,,,,,,,,,,,,,,,,,,,,,,,,,,,,,,,,,,,,,,,
,,,,,,,,,,stimuli/images/PICTURE_339.png,PLENTY,5dfb7cbd01423f8a774d893b,21/09/1951,2020-07-09_21h03.35.126,proactive,2020.1.2,Win32,60,5f073de81c76c3308c0e4fb3,5f0777f3c10cab3808bf3f52,3,,,,,,backpack,,,,,,0,43,43,0,1,1,0,,,,,,,,,,,,,,,,,,,,,,,,,,,,,,,,,,,,,,,,,,,,,,,,,,,,,,,,,,,,,,,,,,,,,,,,,,,
,,,,,,,,,,stimuli/images/PICTURE_95.png,STYLE,5dfb7cbd01423f8a774d893b,21/09/1951,2020-07-09_21h03.35.126,proactive,2020.1.2,Win32,60,5f073de81c76c3308c0e4fb3,5f0777f3c10cab3808bf3f52,3,,,,,,suitcase,,,,,,0,44,44,25,1,3,0,,,,,,,,,,,,,,,,,,,,,,,,,,,,,,,,,,,,,,,,,,,,,,,,,,,,,,,,,,,,,,,,,,,,,,,,,,,
,,,,,,,,,,stimuli/images/PICTURE_208.png,THING,5dfb7cbd01423f8a774d893b,21/09/1951,2020-07-09_21h03.35.126,proactive,2020.1.2,Win32,60,5f073de81c76c3308c0e4fb3,5f0777f3c10cab3808bf3f52,3,,,,,,microphone,,,,,,0,45,45,47,1,5,0,,,,,,,,,,,,,,,,,,,,,,,,,,,,,,,,,,,,,,,,,,,,,,,,,,,,,,,,,,,,,,,,,,,,,,,,,,,
,,,,,,,,,,stimuli/images/PICTURE_208.png,MONTH,5dfb7cbd01423f8a774d893b,21/09/1951,2020-07-09_21h03.35.126,proactive,2020.1.2,Win32,60,5f073de81c76c3308c0e4fb3,5f0777f3c10cab3808bf3f52,3,,,,,,microphone,,,,,,0,46,46,53,1,6,0,,,,,,,,,,,,,,,,,,,,,,,,,,,,,,,,,,,,,,,,,,,,,,,,,,,,,,,,,,,,,,,,,,,,,,,,,,,
,,,,,,,,,,stimuli/images/PICTURE_449.png,THING,5dfb7cbd01423f8a774d893b,21/09/1951,2020-07-09_21h03.35.126,proactive,2020.1.2,Win32,60,5f073de81c76c3308c0e4fb3,5f0777f3c10cab3808bf3f52,3,,,,,,bench,,,,,,0,47,47,59,1,6,0,,,,,,,,,,,,,,,,,,,,,,,,,,,,,,,,,,,,,,,,,,,,,,,,,,,,,,,,,,,,,,,,,,,,,,,,,,,
,,,,,,,,,,stimuli/images/PICTURE_467.png,DEMON,5dfb7cbd01423f8a774d893b,21/09/1951,2020-07-09_21h03.35.126,proactive,2020.1.2,Win32,60,5f073de81c76c3308c0e4fb3,5f0777f3c10cab3808bf3f52,3,,,,,,peg,,,,,,0,48,48,23,1,3,0,,,,,,,,,,,,,,,,,,,,,,,,,,,,,,,,,,,,,,,,,,,,,,,,,,,,,,,,,,,,,,,,,,,,,,,,,,,
,,,,,,,,,,stimuli/images/PICTURE_285.png,ADVICE,5dfb7cbd01423f8a774d893b,21/09/1951,2020-07-09_21h03.35.126,proactive,2020.1.2,Win32,60,5f073de81c76c3308c0e4fb3,5f0777f3c10cab3808bf3f52,3,,,,,,carrot,,,,,,0,49,49,12,1,2,0,,,,,,,,,,,,,,,,,,,,,,,,,,,,,,,,,,,,,,,,,,,,,,,,,,,,,,,,,,,,,,,,,,,,,,,,,,,
,,,,,,,,,,stimuli/images/PICTURE_667.png,BATH,5dfb7cbd01423f8a774d893b,21/09/1951,2020-07-09_21h03.35.126,proactive,2020.1.2,Win32,60,5f073de81c76c3308c0e4fb3,5f0777f3c10cab3808bf3f52,3,,,,,,daisy,,,,,,0,50,50,4,1,1,0,,,,,,,,,,,,,,,,,,,,,,,,,,,,,,,,,,,,,,,,,,,,,,,,,,,,,,,,,,,,,,,,,,,,,,,,,,,
,,,,,,,,,,stimuli/images/PICTURE_302.png,FAMILY,5dfb7cbd01423f8a774d893b,21/09/1951,2020-07-09_21h03.35.126,proactive,2020.1.2,Win32,60,5f073de81c76c3308c0e4fb3,5f0777f3c10cab3808bf3f52,3,,,,,,taxi,,,,,,0,51,51,18,1,2,0,,,,,,,,,,,,,,,,,,,,,,,,,,,,,,,,,,,,,,,,,,,,,,,,,,,,,,,,,,,,,,,,,,,,,,,,,,,
,,,,,,,,,,stimuli/images/PICTURE_314.png,GODS,5dfb7cbd01423f8a774d893b,21/09/1951,2020-07-09_21h03.35.126,proactive,2020.1.2,Win32,60,5f073de81c76c3308c0e4fb3,5f0777f3c10cab3808bf3f52,3,,,,,,perfume,,,,,,0,52,52,11,1,2,0,,,,,,,,,,,,,,,,,,,,,,,,,,,,,,,,,,,,,,,,,,,,,,,,,,,,,,,,,,,,,,,,,,,,,,,,,,,
,,,,,,,,,,stimuli/images/PICTURE_123.png,ADVICE,5dfb7cbd01423f8a774d893b,21/09/1951,2020-07-09_21h03.35.126,proactive,2020.1.2,Win32,60,5f073de81c76c3308c0e4fb3,5f0777f3c10cab3808bf3f52,3,,,,,,dart,,,,,,0,53,53,40,1,5,0,,,,,,,,,,,,,,,,,,,,,,,,,,,,,,,,,,,,,,,,,,,,,,,,,,,,,,,,,,,,,,,,,,,,,,,,,,,
,,,,,,,,,,stimuli/images/PICTURE_491.png,ROOF,5dfb7cbd01423f8a774d893b,21/09/1951,2020-07-09_21h03.35.126,proactive,2020.1.2,Win32,60,5f073de81c76c3308c0e4fb3,5f0777f3c10cab3808bf3f52,3,,,,,,rug,,,,,,0,54,54,24,1,3,0,,,,,,,,,,,,,,,,,,,,,,,,,,,,,,,,,,,,,,,,,,,,,,,,,,,,,,,,,,,,,,,,,,,,,,,,,,,
,,,,,,,,,,stimuli/images/PICTURE_147.png,MOMENT,5dfb7cbd01423f8a774d893b,21/09/1951,2020-07-09_21h03.35.126,proactive,2020.1.2,Win32,60,5f073de81c76c3308c0e4fb3,5f0777f3c10cab3808bf3f52,3,,,,,,hanger,,,,,,0,55,55,51,1,6,0,,,,,,,,,,,,,,,,,,,,,,,,,,,,,,,,,,,,,,,,,,,,,,,,,,,,,,,,,,,,,,,,,,,,,,,,,,,
,,,,,,,,,,stimuli/images/PICTURE_308.png,ESTATE,5dfb7cbd01423f8a774d893b,21/09/1951,2020-07-09_21h03.35.126,proactive,2020.1.2,Win32,60,5f073de81c76c3308c0e4fb3,5f0777f3c10cab3808bf3f52,3,,,,,,dice,,,,,,0,56,56,46,1,5,0,,,,,,,,,,,,,,,,,,,,,,,,,,,,,,,,,,,,,,,,,,,,,,,,,,,,,,,,,,,,,,,,,,,,,,,,,,,
,,,,,,,,,,stimuli/images/PICTURE_744.png,SYSTEM,5dfb7cbd01423f8a774d893b,21/09/1951,2020-07-09_21h03.35.126,proactive,2020.1.2,Win32,60,5f073de81c76c3308c0e4fb3,5f0777f3c10cab3808bf3f52,3,,,,,,ring,,,,,,0,57,57,43,1,5,0,,,,,,,,,,,,,,,,,,,,,,,,,,,,,,,,,,,,,,,,,,,,,,,,,,,,,,,,,,,,,,,,,,,,,,,,,,,
,,,,,,,,,,stimuli/images/PICTURE_177.png,CARS,5dfb7cbd01423f8a774d893b,21/09/1951,2020-07-09_21h03.35.126,proactive,2020.1.2,Win32,60,5f073de81c76c3308c0e4fb3,5f0777f3c10cab3808bf3f52,3,,,,,,mushroom,,,,,,0,58,58,35,1,4,0,,,,,,,,,,,,,,,,,,,,,,,,,,,,,,,,,,,,,,,,,,,,,,,,,,,,,,,,,,,,,,,,,,,,,,,,,,,
,,ARTIST,15.015205,1,,,,,,stimuli/images/PICTURE_203.png,ARTIST,5dfb7cbd01423f8a774d893b,21/09/1951,2020-07-09_21h03.35.126,proactive,2020.1.2,Win32,60,5f073de81c76c3308c0e4fb3,5f0777f3c10cab3808bf3f52,3,,,,,,cap,,,,,,,,,,,3,0,0,0,0,26,1,,,,,,,,,,,,,,,,,,,,,,,,,,,,,,,,,,,,,,,,,,,,,,,,,,,,,,,,,,,,,,,,,,,,,,
,,?,0.000875,0,,,,,,stimuli/images/PICTURE_177.png,CARS,5dfb7cbd01423f8a774d893b,21/09/1951,2020-07-09_21h03.35.126,proactive,2020.1.2,Win32,60,5f073de81c76c3308c0e4fb3,5f0777f3c10cab3808bf3f52,3,,,,,,mushroom,,,,,,,,,,,4,0,0,1,1,35,1,,,,,,,,,,,,,,,,,,,,,,,,,,,,,,,,,,,,,,,,,,,,,,,,,,,,,,,,,,,,,,,,,,,,,,
,,?,0.00057,0,,,,,,stimuli/images/PICTURE_380.png,DEATH,5dfb7cbd01423f8a774d893b,21/09/1951,2020-07-09_21h03.35.126,proactive,2020.1.2,Win32,60,5f073de81c76c3308c0e4fb3,5f0777f3c10cab3808bf3f52,3,,,,,,gorilla,,,,,,,,,,,5,0,0,2,2,49,1,,,,,,,,,,,,,,,,,,,,,,,,,,,,,,,,,,,,,,,,,,,,,,,,,,,,,,,,,,,,,,,,,,,,,,
,,?,0.000495,0,,,,,,stimuli/images/PICTURE_339.png,PLENTY,5dfb7cbd01423f8a774d893b,21/09/1951,2020-07-09_21h03.35.126,proactive,2020.1.2,Win32,60,5f073de81c76c3308c0e4fb3,5f0777f3c10cab3808bf3f52,3,,,,,,backpack,,,,,,,,,,,1,0,0,3,3,0,1,,,,,,,,,,,,,,,,,,,,,,,,,,,,,,,,,,,,,,,,,,,,,,,,,,,,,,,,,,,,,,,,,,,,,,
,,?,0.000665,0,,,,,,stimuli/images/PICTURE_688.png,WOMEN,5dfb7cbd01423f8a774d893b,21/09/1951,2020-07-09_21h03.35.126,proactive,2020.1.2,Win32,60,5f073de81c76c3308c0e4fb3,5f0777f3c10cab3808bf3f52,3,,,,,,runner,,,,,,,,,,,2,0,0,4,4,14,1,,,,,,,,,,,,,,,,,,,,,,,,,,,,,,,,,,,,,,,,,,,,,,,,,,,,,,,,,,,,,,,,,,,,,,
,,?,0.00067,0,,,,,,stimuli/images/PICTURE_151.png,GIRL,5dfb7cbd01423f8a774d893b,21/09/1951,2020-07-09_21h03.35.126,proactive,2020.1.2,Win32,60,5f073de81c76c3308c0e4fb3,5f0777f3c10cab3808bf3f52,3,,,,,,tray,,,,,,,,,,,2,0,0,5,5,19,1,,,,,,,,,,,,,,,,,,,,,,,,,,,,,,,,,,,,,,,,,,,,,,,,,,,,,,,,,,,,,,,,,,,,,,
,,?,0.000675,0,,,,,,stimuli/images/PICTURE_654.png,VALLEY,5dfb7cbd01423f8a774d893b,21/09/1951,2020-07-09_21h03.35.126,proactive,2020.1.2,Win32,60,5f073de81c76c3308c0e4fb3,5f0777f3c10cab3808bf3f52,3,,,,,,pencil,,,,,,,,,,,1,0,0,6,6,1,1,,,,,,,,,,,,,,,,,,,,,,,,,,,,,,,,,,,,,,,,,,,,,,,,,,,,,,,,,,,,,,,,,,,,,,
,,?,0.00071,0,,,,,,stimuli/images/PICTURE_675.png,WEAPON,5dfb7cbd01423f8a774d893b,21/09/1951,2020-07-09_21h03.35.126,proactive,2020.1.2,Win32,60,5f073de81c76c3308c0e4fb3,5f0777f3c10cab3808bf3f52,3,,,,,,windmill,,,,,,,,,,,4,0,0,7,7,32,1,,,,,,,,,,,,,,,,,,,,,,,,,,,,,,,,,,,,,,,,,,,,,,,,,,,,,,,,,,,,,,,,,,,,,,
,,?,0.000885,0,,,,,,stimuli/images/PICTURE_744.png,SYSTEM,5dfb7cbd01423f8a774d893b,21/09/1951,2020-07-09_21h03.35.126,proactive,2020.1.2,Win32,60,5f073de81c76c3308c0e4fb3,5f0777f3c10cab3808bf3f52,3,,,,,,ring,,,,,,,,,,,5,0,0,8,8,43,1,,,,,,,,,,,,,,,,,,,,,,,,,,,,,,,,,,,,,,,,,,,,,,,,,,,,,,,,,,,,,,,,,,,,,,
,,?,0.000555,0,,,,,,stimuli/images/PICTURE_311.png,FRIEND,5dfb7cbd01423f8a774d893b,21/09/1951,2020-07-09_21h03.35.126,proactive,2020.1.2,Win32,60,5f073de81c76c3308c0e4fb3,5f0777f3c10cab3808bf3f52,3,,,,,,razor,,,,,,,,,,,4,0,0,9,9,34,1,,,,,,,,,,,,,,,,,,,,,,,,,,,,,,,,,,,,,,,,,,,,,,,,,,,,,,,,,,,,,,,,,,,,,,
,,?,0.00064,0,,,,,,stimuli/images/PICTURE_469.png,ARTIST,5dfb7cbd01423f8a774d893b,21/09/1951,2020-07-09_21h03.35.126,proactive,2020.1.2,Win32,60,5f073de81c76c3308c0e4fb3,5f0777f3c10cab3808bf3f52,3,,,,,,stool,,,,,,,,,,,1,0,0,10,10,6,1,,,,,,,,,,,,,,,,,,,,,,,,,,,,,,,,,,,,,,,,,,,,,,,,,,,,,,,,,,,,,,,,,,,,,,
,,?,0.00057,0,,,,,,stimuli/images/PICTURE_314.png,GODS,5dfb7cbd01423f8a774d893b,21/09/1951,2020-07-09_21h03.35.126,proactive,2020.1.2,Win32,60,5f073de81c76c3308c0e4fb3,5f0777f3c10cab3808bf3f52,3,,,,,,perfume,,,,,,,,,,,2,0,0,11,11,11,1,,,,,,,,,,,,,,,,,,,,,,,,,,,,,,,,,,,,,,,,,,,,,,,,,,,,,,,,,,,,,,,,,,,,,,
,,ROOF,15.003815,1,,,,,,stimuli/images/PICTURE_491.png,ROOF,5dfb7cbd01423f8a774d893b,21/09/1951,2020-07-09_21h03.35.126,proactive,2020.1.2,Win32,60,5f073de81c76c3308c0e4fb3,5f0777f3c10cab3808bf3f52,3,,,,,,rug,,,,,,,,,,,3,0,0,12,12,24,1,,,,,,,,,,,,,,,,,,,,,,,,,,,,,,,,,,,,,,,,,,,,,,,,,,,,,,,,,,,,,,,,,,,,,,
,,?,0.001185,0,,,,,,stimuli/images/PICTURE_233.png,WOMEN,5dfb7cbd01423f8a774d893b,21/09/1951,2020-07-09_21h03.35.126,proactive,2020.1.2,Win32,60,5f073de81c76c3308c0e4fb3,5f0777f3c10cab3808bf3f52,3,,,,,,salt,,,,,,,,,,,4,0,0,13,13,38,1,,,,,,,,,,,,,,,,,,,,,,,,,,,,,,,,,,,,,,,,,,,,,,,,,,,,,,,,,,,,,,,,,,,,,,
,,?,0.00115,0,,,,,,stimuli/images/PICTURE_380.png,PHOTO,5dfb7cbd01423f8a774d893b,21/09/1951,2020-07-09_21h03.35.126,proactive,2020.1.2,Win32,60,5f073de81c76c3308c0e4fb3,5f0777f3c10cab3808bf3f52,3,,,,,,gorilla,,,,,,,,,,,6,0,0,14,14,52,1,,,,,,,,,,,,,,,,,,,,,,,,,,,,,,,,,,,,,,,,,,,,,,,,,,,,,,,,,,,,,,,,,,,,,,
,,?,0.000525,0,,,,,,stimuli/images/PICTURE_692.png,MONTH,5dfb7cbd01423f8a774d893b,21/09/1951,2020-07-09_21h03.35.126,proactive,2020.1.2,Win32,60,5f073de81c76c3308c0e4fb3,5f0777f3c10cab3808bf3f52,3,,,,,,cherry,,,,,,,,,,,2,0,0,15,15,16,1,,,,,,,,,,,,,,,,,,,,,,,,,,,,,,,,,,,,,,,,,,,,,,,,,,,,,,,,,,,,,,,,,,,,,,
,,?,0.000495,0,,,,,,stimuli/images/PICTURE_308.png,ESTATE,5dfb7cbd01423f8a774d893b,21/09/1951,2020-07-09_21h03.35.126,proactive,2020.1.2,Win32,60,5f073de81c76c3308c0e4fb3,5f0777f3c10cab3808bf3f52,3,,,,,,dice,,,,,,,,,,,5,0,0,16,16,46,1,,,,,,,,,,,,,,,,,,,,,,,,,,,,,,,,,,,,,,,,,,,,,,,,,,,,,,,,,,,,,,,,,,,,,,
,,?,0.000685,0,,,,,,stimuli/images/PICTURE_677.png,MILE,5dfb7cbd01423f8a774d893b,21/09/1951,2020-07-09_21h03.35.126,proactive,2020.1.2,Win32,60,5f073de81c76c3308c0e4fb3,5f0777f3c10cab3808bf3f52,3,,,,,,map,,,,,,,,,,,4,0,0,17,17,30,1,,,,,,,,,,,,,,,,,,,,,,,,,,,,,,,,,,,,,,,,,,,,,,,,,,,,,,,,,,,,,,,,,,,,,,
,,?,0.0005,0,,,,,,stimuli/images/PICTURE_215.png,PLENTY,5dfb7cbd01423f8a774d893b,21/09/1951,2020-07-09_21h03.35.126,proactive,2020.1.2,Win32,60,5f073de81c76c3308c0e4fb3,5f0777f3c10cab3808bf3f52,3,,,,,,boot,,,,,,,,,,,4,0,0,18,18,37,1,,,,,,,,,,,,,,,,,,,,,,,,,,,,,,,,,,,,,,,,,,,,,,,,,,,,,,,,,,,,,,,,,,,,,,
,,?,0.000495,0,,,,,,stimuli/images/PICTURE_147.png,MOMENT,5dfb7cbd01423f8a774d893b,21/09/1951,2020-07-09_21h03.35.126,proactive,2020.1.2,Win32,60,5f073de81c76c3308c0e4fb3,5f0777f3c10cab3808bf3f52,3,,,,,,hanger,,,,,,,,,,,6,0,0,19,19,51,1,,,,,,,,,,,,,,,,,,,,,,,,,,,,,,,,,,,,,,,,,,,,,,,,,,,,,,,,,,,,,,,,,,,,,,
,,?,0.00054,0,,,,,,stimuli/images/PICTURE_470.png,CASINO,5dfb7cbd01423f8a774d893b,21/09/1951,2020-07-09_21h03.35.126,proactive,2020.1.2,Win32,60,5f073de81c76c3308c0e4fb3,5f0777f3c10cab3808bf3f52,3,,,,,,motorbike,,,,,,,,,,,4,0,0,20,20,36,1,,,,,,,,,,,,,,,,,,,,,,,,,,,,,,,,,,,,,,,,,,,,,,,,,,,,,,,,,,,,,,,,,,,,,,
,,DEMON,15.008345,1,,,,,,stimuli/images/PICTURE_467.png,DEMON,5dfb7cbd01423f8a774d893b,21/09/1951,2020-07-09_21h03.35.126,proactive,2020.1.2,Win32,60,5f073de81c76c3308c0e4fb3,5f0777f3c10cab3808bf3f52,3,,,,,,peg,,,,,,,,,,,3,0,0,21,21,23,1,,,,,,,,,,,,,,,,,,,,,,,,,,,,,,,,,,,,,,,,,,,,,,,,,,,,,,,,,,,,,,,,,,,,,,
,,IDEAS,15.00533,1,,,,,,stimuli/images/PICTURE_233.png,IDEAS,5dfb7cbd01423f8a774d893b,21/09/1951,2020-07-09_21h03.35.126,proactive,2020.1.2,Win32,60,5f073de81c76c3308c0e4fb3,5f0777f3c10cab3808bf3f52,3,,,,,,salt,,,,,,,,,,,3,0,0,22,22,28,1,,,,,,,,,,,,,,,,,,,,,,,,,,,,,,,,,,,,,,,,,,,,,,,,,,,,,,,,,,,,,,,,,,,,,,
,,?,0.00147,0,,,,,,stimuli/images/PICTURE_208.png,LOTS,5dfb7cbd01423f8a774d893b,21/09/1951,2020-07-09_21h03.35.126,proactive,2020.1.2,Win32,60,5f073de81c76c3308c0e4fb3,5f0777f3c10cab3808bf3f52,3,,,,,,microphone,,,,,,,,,,,2,0,0,23,23,10,1,,,,,,,,,,,,,,,,,,,,,,,,,,,,,,,,,,,,,,,,,,,,,,,,,,,,,,,,,,,,,,,,,,,,,,
,,?,0.001315,0,,,,,,stimuli/images/PICTURE_208.png,THING,5dfb7cbd01423f8a774d893b,21/09/1951,2020-07-09_21h03.35.126,proactive,2020.1.2,Win32,60,5f073de81c76c3308c0e4fb3,5f0777f3c10cab3808bf3f52,3,,,,,,microphone,,,,,,,,,,,5,0,0,24,24,47,1,,,,,,,,,,,,,,,,,,,,,,,,,,,,,,,,,,,,,,,,,,,,,,,,,,,,,,,,,,,,,,,,,,,,,,
,,?,0.001185,0,,,,,,stimuli/images/PICTURE_708.png,PENNY,5dfb7cbd01423f8a774d893b,21/09/1951,2020-07-09_21h03.35.126,proactive,2020.1.2,Win32,60,5f073de81c76c3308c0e4fb3,5f0777f3c10cab3808bf3f52,3,,,,,,monkey,,,,,,,,,,,4,0,0,25,25,31,1,,,,,,,,,,,,,,,,,,,,,,,,,,,,,,,,,,,,,,,,,,,,,,,,,,,,,,,,,,,,,,,,,,,,,,
,,?,0.001265,0,,,,,,stimuli/images/PICTURE_308.png,KIND,5dfb7cbd01423f8a774d893b,21/09/1951,2020-07-09_21h03.35.126,proactive,2020.1.2,Win32,60,5f073de81c76c3308c0e4fb3,5f0777f3c10cab3808bf3f52,3,,,,,,dice,,,,,,,,,,,6,0,0,26,26,54,1,,,,,,,,,,,,,,,,,,,,,,,,,,,,,,,,,,,,,,,,,,,,,,,,,,,,,,,,,,,,,,,,,,,,,,
,,?,0.000895,0,,,,,,stimuli/images/PICTURE_160.png,FEET,5dfb7cbd01423f8a774d893b,21/09/1951,2020-07-09_21h03.35.126,proactive,2020.1.2,Win32,60,5f073de81c76c3308c0e4fb3,5f0777f3c10cab3808bf3f52,3,,,,,,wheelbarrow,,,,,,,,,,,6,0,0,27,27,58,1,,,,,,,,,,,,,,,,,,,,,,,,,,,,,,,,,,,,,,,,,,,,,,,,,,,,,,,,,,,,,,,,,,,,,,
,,DUDE,15.01784,1,,,,,,stimuli/images/PICTURE_453.png,DUDE,5dfb7cbd01423f8a774d893b,21/09/1951,2020-07-09_21h03.35.126,proactive,2020.1.2,Win32,60,5f073de81c76c3308c0e4fb3,5f0777f3c10cab3808bf3f52,3,,,,,,scissors,,,,,,,,,,,3,0,0,28,28,27,1,,,,,,,,,,,,,,,,,,,,,,,,,,,,,,,,,,,,,,,,,,,,,,,,,,,,,,,,,,,,,,,,,,,,,,
,,?,0.000955,0,,,,,,stimuli/images/PICTURE_708.png,CLIENT,5dfb7cbd01423f8a774d893b,21/09/1951,2020-07-09_21h03.35.126,proactive,2020.1.2,Win32,60,5f073de81c76c3308c0e4fb3,5f0777f3c10cab3808bf3f52,3,,,,,,monkey,,,,,,,,,,,1,0,0,29,29,5,1,,,,,,,,,,,,,,,,,,,,,,,,,,,,,,,,,,,,,,,,,,,,,,,,,,,,,,,,,,,,,,,,,,,,,,
,,?,0.000975,0,,,,,,stimuli/images/PICTURE_208.png,MONTH,5dfb7cbd01423f8a774d893b,21/09/1951,2020-07-09_21h03.35.126,proactive,2020.1.2,Win32,60,5f073de81c76c3308c0e4fb3,5f0777f3c10cab3808bf3f52,3,,,,,,microphone,,,,,,,,,,,6,0,0,30,30,53,1,,,,,,,,,,,,,,,,,,,,,,,,,,,,,,,,,,,,,,,,,,,,,,,,,,,,,,,,,,,,,,,,,,,,,,
,,?,0.00074,0,,,,,,stimuli/images/PICTURE_160.png,LEADER,5dfb7cbd01423f8a774d893b,21/09/1951,2020-07-09_21h03.35.126,proactive,2020.1.2,Win32,60,5f073de81c76c3308c0e4fb3,5f0777f3c10cab3808bf3f52,3,,,,,,wheelbarrow,,,,,,,,,,,1,0,0,31,31,3,1,,,,,,,,,,,,,,,,,,,,,,,,,,,,,,,,,,,,,,,,,,,,,,,,,,,,,,,,,,,,,,,,,,,,,,
,,?,0.00058,0,,,,,,stimuli/images/PICTURE_285.png,ADVICE,5dfb7cbd01423f8a774d893b,21/09/1951,2020-07-09_21h03.35.126,proactive,2020.1.2,Win32,60,5f073de81c76c3308c0e4fb3,5f0777f3c10cab3808bf3f52,3,,,,,,carrot,,,,,,,,,,,2,0,0,32,32,12,1,,,,,,,,,,,,,,,,,,,,,,,,,,,,,,,,,,,,,,,,,,,,,,,,,,,,,,,,,,,,,,,,,,,,,,
,,?,0.000605,0,,,,,,stimuli/images/PICTURE_123.png,ADVICE,5dfb7cbd01423f8a774d893b,21/09/1951,2020-07-09_21h03.35.126,proactive,2020.1.2,Win32,60,5f073de81c76c3308c0e4fb3,5f0777f3c10cab3808bf3f52,3,,,,,,dart,,,,,,,,,,,5,0,0,33,33,40,1,,,,,,,,,,,,,,,,,,,,,,,,,,,,,,,,,,,,,,,,,,,,,,,,,,,,,,,,,,,,,,,,,,,,,,
,,AREA,15.01416,1,,,,,,stimuli/images/PICTURE_255.png,AREA,5dfb7cbd01423f8a774d893b,21/09/1951,2020-07-09_21h03.35.126,proactive,2020.1.2,Win32,60,5f073de81c76c3308c0e4fb3,5f0777f3c10cab3808bf3f52,3,,,,,,shovel,,,,,,,,,,,3,0,0,34,34,22,1,,,,,,,,,,,,,,,,,,,,,,,,,,,,,,,,,,,,,,,,,,,,,,,,,,,,,,,,,,,,,,,,,,,,,,
,,?,0.00139,0,,,,,,stimuli/images/PICTURE_32.png,JUNGLE,5dfb7cbd01423f8a774d893b,21/09/1951,2020-07-09_21h03.35.126,proactive,2020.1.2,Win32,60,5f073de81c76c3308c0e4fb3,5f0777f3c10cab3808bf3f52,3,,,,,,crown,,,,,,,,,,,5,0,0,35,35,45,1,,,,,,,,,,,,,,,,,,,,,,,,,,,,,,,,,,,,,,,,,,,,,,,,,,,,,,,,,,,,,,,,,,,,,,
,,?,0.00113,0,,,,,,stimuli/images/PICTURE_314.png,SAKE,5dfb7cbd01423f8a774d893b,21/09/1951,2020-07-09_21h03.35.126,proactive,2020.1.2,Win32,60,5f073de81c76c3308c0e4fb3,5f0777f3c10cab3808bf3f52,3,,,,,,perfume,,,,,,,,,,,1,0,0,36,36,7,1,,,,,,,,,,,,,,,,,,,,,,,,,,,,,,,,,,,,,,,,,,,,,,,,,,,,,,,,,,,,,,,,,,,,,,
,,?,0.00099,0,,,,,,stimuli/images/PICTURE_311.png,BEAUTY,5dfb7cbd01423f8a774d893b,21/09/1951,2020-07-09_21h03.35.126,proactive,2020.1.2,Win32,60,5f073de81c76c3308c0e4fb3,5f0777f3c10cab3808bf3f52,3,,,,,,razor,,,,,,,,,,,2,0,0,37,37,13,1,,,,,,,,,,,,,,,,,,,,,,,,,,,,,,,,,,,,,,,,,,,,,,,,,,,,,,,,,,,,,,,,,,,,,,
,,?,0.0012,0,,,,,,stimuli/images/PICTURE_356.png,DANGER,5dfb7cbd01423f8a774d893b,21/09/1951,2020-07-09_21h03.35.126,proactive,2020.1.2,Win32,60,5f073de81c76c3308c0e4fb3,5f0777f3c10cab3808bf3f52,3,,,,,,pawn,,,,,,,,,,,6,0,0,38,38,55,1,,,,,,,,,,,,,,,,,,,,,,,,,,,,,,,,,,,,,,,,,,,,,,,,,,,,,,,,,,,,,,,,,,,,,,
,,STYLE,15.009685,1,,,,,,stimuli/images/PICTURE_95.png,STYLE,5dfb7cbd01423f8a774d893b,21/09/1951,2020-07-09_21h03.35.126,proactive,2020.1.2,Win32,60,5f073de81c76c3308c0e4fb3,5f0777f3c10cab3808bf3f52,3,,,,,,suitcase,,,,,,,,,,,3,0,0,39,39,25,1,,,,,,,,,,,,,,,,,,,,,,,,,,,,,,,,,,,,,,,,,,,,,,,,,,,,,,,,,,,,,,,,,,,,,,
,,?,0.001075,0,,,,,,stimuli/images/PICTURE_688.png,CASINO,5dfb7cbd01423f8a774d893b,21/09/1951,2020-07-09_21h03.35.126,proactive,2020.1.2,Win32,60,5f073de81c76c3308c0e4fb3,5f0777f3c10cab3808bf3f52,3,,,,,,runner,,,,,,,,,,,1,0,0,40,40,2,1,,,,,,,,,,,,,,,,,,,,,,,,,,,,,,,,,,,,,,,,,,,,,,,,,,,,,,,,,,,,,,,,,,,,,,
,,?,0.000805,0,,,,,,stimuli/images/PICTURE_487.png,FLIGHT,5dfb7cbd01423f8a774d893b,21/09/1951,2020-07-09_21h03.35.126,proactive,2020.1.2,Win32,60,5f073de81c76c3308c0e4fb3,5f0777f3c10cab3808bf3f52,3,,,,,,basket,,,,,,,,,,,1,0,0,41,41,9,1,,,,,,,,,,,,,,,,,,,,,,,,,,,,,,,,,,,,,,,,,,,,,,,,,,,,,,,,,,,,,,,,,,,,,,
,,?,0.00074,0,,,,,,stimuli/images/PICTURE_667.png,BATH,5dfb7cbd01423f8a774d893b,21/09/1951,2020-07-09_21h03.35.126,proactive,2020.1.2,Win32,60,5f073de81c76c3308c0e4fb3,5f0777f3c10cab3808bf3f52,3,,,,,,daisy,,,,,,,,,,,1,0,0,42,42,4,1,,,,,,,,,,,,,,,,,,,,,,,,,,,,,,,,,,,,,,,,,,,,,,,,,,,,,,,,,,,,,,,,,,,,,,
,,?,0.00132,0,,,,,,stimuli/images/PICTURE_491.png,WRITER,5dfb7cbd01423f8a774d893b,21/09/1951,2020-07-09_21h03.35.126,proactive,2020.1.2,Win32,60,5f073de81c76c3308c0e4fb3,5f0777f3c10cab3808bf3f52,3,,,,,,rug,,,,,,,,,,,6,0,0,43,43,57,1,,,,,,,,,,,,,,,,,,,,,,,,,,,,,,,,,,,,,,,,,,,,,,,,,,,,,,,,,,,,,,,,,,,,,,
,,?,0.00103,0,,,,,,stimuli/images/PICTURE_453.png,PLENTY,5dfb7cbd01423f8a774d893b,21/09/1951,2020-07-09_21h03.35.126,proactive,2020.1.2,Win32,60,5f073de81c76c3308c0e4fb3,5f0777f3c10cab3808bf3f52,3,,,,,,scissors,,,,,,,,,,,6,0,0,44,44,56,1,,,,,,,,,,,,,,,,,,,,,,,,,,,,,,,,,,,,,,,,,,,,,,,,,,,,,,,,,,,,,,,,,,,,,,
,,?,0.001325,0,,,,,,stimuli/images/PICTURE_327.png,BEAUTY,5dfb7cbd01423f8a774d893b,21/09/1951,2020-07-09_21h03.35.126,proactive,2020.1.2,Win32,60,5f073de81c76c3308c0e4fb3,5f0777f3c10cab3808bf3f52,3,,,,,,helmet,,,,,,,,,,,5,0,0,45,45,48,1,,,,,,,,,,,,,,,,,,,,,,,,,,,,,,,,,,,,,,,,,,,,,,,,,,,,,,,,,,,,,,,,,,,,,,
,,YARD,15.00645,1,,,,,,stimuli/images/PICTURE_708.png,YARD,5dfb7cbd01423f8a774d893b,21/09/1951,2020-07-09_21h03.35.126,proactive,2020.1.2,Win32,60,5f073de81c76c3308c0e4fb3,5f0777f3c10cab3808bf3f52,3,,,,,,monkey,,,,,,,,,,,3,0,0,46,46,29,1,,,,,,,,,,,,,,,,,,,,,,,,,,,,,,,,,,,,,,,,,,,,,,,,,,,,,,,,,,,,,,,,,,,,,,
,,PHOTO,15.00518,1,,,,,,stimuli/images/PICTURE_509.png,PHOTO,5dfb7cbd01423f8a774d893b,21/09/1951,2020-07-09_21h03.35.126,proactive,2020.1.2,Win32,60,5f073de81c76c3308c0e4fb3,5f0777f3c10cab3808bf3f52,3,,,,,,telephone,,,,,,,,,,,3,0,0,47,47,21,1,,,,,,,,,,,,,,,,,,,,,,,,,,,,,,,,,,,,,,,,,,,,,,,,,,,,,,,,,,,,,,,,,,,,,,
,,?,0.00105,0,,,,,,stimuli/images/PICTURE_744.png,SAKE,5dfb7cbd01423f8a774d893b,21/09/1951,2020-07-09_21h03.35.126,proactive,2020.1.2,Win32,60,5f073de81c76c3308c0e4fb3,5f0777f3c10cab3808bf3f52,3,,,,,,ring,,,,,,,,,,,2,0,0,48,48,17,1,,,,,,,,,,,,,,,,,,,,,,,,,,,,,,,,,,,,,,,,,,,,,,,,,,,,,,,,,,,,,,,,,,,,,,
,,?,0.00061,0,,,,,,stimuli/images/PICTURE_248.png,DOZEN,5dfb7cbd01423f8a774d893b,21/09/1951,2020-07-09_21h03.35.126,proactive,2020.1.2,Win32,60,5f073de81c76c3308c0e4fb3,5f0777f3c10cab3808bf3f52,3,,,,,,cart,,,,,,,,,,,4,0,0,49,49,39,1,,,,,,,,,,,,,,,,,,,,,,,,,,,,,,,,,,,,,,,,,,,,,,,,,,,,,,,,,,,,,,,,,,,,,,
,,?,0.00061,0,,,,,,stimuli/images/PICTURE_68.png,MILE,5dfb7cbd01423f8a774d893b,21/09/1951,2020-07-09_21h03.35.126,proactive,2020.1.2,Win32,60,5f073de81c76c3308c0e4fb3,5f0777f3c10cab3808bf3f52,3,,,,,,candle,,,,,,,,,,,5,0,0,50,50,44,1,,,,,,,,,,,,,,,,,,,,,,,,,,,,,,,,,,,,,,,,,,,,,,,,,,,,,,,,,,,,,,,,,,,,,,
,,?,0.00092,0,,,,,,stimuli/images/PICTURE_302.png,FAMILY,5dfb7cbd01423f8a774d893b,21/09/1951,2020-07-09_21h03.35.126,proactive,2020.1.2,Win32,60,5f073de81c76c3308c0e4fb3,5f0777f3c10cab3808bf3f52,3,,,,,,taxi,,,,,,,,,,,2,0,0,51,51,18,1,,,,,,,,,,,,,,,,,,,,,,,,,,,,,,,,,,,,,,,,,,,,,,,,,,,,,,,,,,,,,,,,,,,,,,
,,?,0.00087,0,,,,,,stimuli/images/PICTURE_449.png,THING,5dfb7cbd01423f8a774d893b,21/09/1951,2020-07-09_21h03.35.126,proactive,2020.1.2,Win32,60,5f073de81c76c3308c0e4fb3,5f0777f3c10cab3808bf3f52,3,,,,,,bench,,,,,,,,,,,6,0,0,52,52,59,1,,,,,,,,,,,,,,,,,,,,,,,,,,,,,,,,,,,,,,,,,,,,,,,,,,,,,,,,,,,,,,,,,,,,,,
,,?,0.000745,0,,,,,,stimuli/images/PICTURE_123.png,ADVICE,5dfb7cbd01423f8a774d893b,21/09/1951,2020-07-09_21h03.35.126,proactive,2020.1.2,Win32,60,5f073de81c76c3308c0e4fb3,5f0777f3c10cab3808bf3f52,3,,,,,,dart,,,,,,,,,,,6,0,0,53,53,50,1,,,,,,,,,,,,,,,,,,,,,,,,,,,,,,,,,,,,,,,,,,,,,,,,,,,,,,,,,,,,,,,,,,,,,,
,,?,0.0006,0,,,,,,stimuli/images/PICTURE_488.png,STYLE,5dfb7cbd01423f8a774d893b,21/09/1951,2020-07-09_21h03.35.126,proactive,2020.1.2,Win32,60,5f073de81c76c3308c0e4fb3,5f0777f3c10cab3808bf3f52,3,,,,,,sun,,,,,,,,,,,4,0,0,54,54,33,1,,,,,,,,,,,,,,,,,,,,,,,,,,,,,,,,,,,,,,,,,,,,,,,,,,,,,,,,,,,,,,,,,,,,,,
,,SPEECH,15.008375,1,,,,,,stimuli/images/PICTURE_348.png,SPEECH,5dfb7cbd01423f8a774d893b,21/09/1951,2020-07-09_21h03.35.126,proactive,2020.1.2,Win32,60,5f073de81c76c3308c0e4fb3,5f0777f3c10cab3808bf3f52,3,,,,,,pepper,,,,,,,,,,,3,0,0,55,55,20,1,,,,,,,,,,,,,,,,,,,,,,,,,,,,,,,,,,,,,,,,,,,,,,,,,,,,,,,,,,,,,,,,,,,,,,
,,?,0.001375,0,,,,,,stimuli/images/PICTURE_85.png,THING,5dfb7cbd01423f8a774d893b,21/09/1951,2020-07-09_21h03.35.126,proactive,2020.1.2,Win32,60,5f073de81c76c3308c0e4fb3,5f0777f3c10cab3808bf3f52,3,,,,,,diamond,,,,,,,,,,,2,0,0,56,56,15,1,,,,,,,,,,,,,,,,,,,,,,,,,,,,,,,,,,,,,,,,,,,,,,,,,,,,,,,,,,,,,,,,,,,,,,
,,?,0.00125,0,,,,,,stimuli/images/PICTURE_504.png,BODY,5dfb7cbd01423f8a774d893b,21/09/1951,2020-07-09_21h03.35.126,proactive,2020.1.2,Win32,60,5f073de81c76c3308c0e4fb3,5f0777f3c10cab3808bf3f52,3,,,,,,wheel,,,,,,,,,,,1,0,0,57,57,8,1,,,,,,,,,,,,,,,,,,,,,,,,,,,,,,,,,,,,,,,,,,,,,,,,,,,,,,,,,,,,,,,,,,,,,,
,,?,0.000975,0,,,,,,stimuli/images/PICTURE_667.png,PLENTY,5dfb7cbd01423f8a774d893b,21/09/1951,2020-07-09_21h03.35.126,proactive,2020.1.2,Win32,60,5f073de81c76c3308c0e4fb3,5f0777f3c10cab3808bf3f52,3,,,,,,daisy,,,,,,,,,,,5,0,0,58,58,41,1,,,,,,,,,,,,,,,,,,,,,,,,,,,,,,,,,,,,,,,,,,,,,,,,,,,,,,,,,,,,,,,,,,,,,,
,,?,0.000935,0,,,,,,stimuli/images/PICTURE_469.png,LETTER,5dfb7cbd01423f8a774d893b,21/09/1951,2020-07-09_21h03.35.126,proactive,2020.1.2,Win32,60,5f073de81c76c3308c0e4fb3,5f0777f3c10cab3808bf3f52,3,,,,,,stool,,,,,,,,,,,5,0,0,59,59,42,1,,,,,,,,,,,,,,,,,,,,,,,,,,,,,,,,,,,,,,,,,,,,,,,,,,,,,,,,,,,,,,,,,,,,,,
,,,,,,,,,,,,5dfb7cbd01423f8a774d893b,21/09/1951,2020-07-09_21h03.35.126,proactive,2020.1.2,Win32,60,5f073de81c76c3308c0e4fb3,5f0777f3c10cab3808bf3f52,3,,,,,,,,,,,,,,,,,,,,,,,,0,1,1,0,1,stimuli/learn-block1.csv,,,,,,,,,,,,,,,,,,,,,,,,,,,,,,,,,,,,,,,,,,,,,,,,,,,,,,,,,,,,,,,,
,,,,,,,,,,stimuli/images/PICTURE_654.png,YEAR,5dfb7cbd01423f8a774d893b,21/09/1951,2020-07-09_21h03.35.126,proactive,2020.1.2,Win32,60,5f073de81c76c3308c0e4fb3,5f0777f3c10cab3808bf3f52,3,,,,,,pencil,,,,,,0,0,0,41,1,5,2,,,,,,,,,,,,,,,,,,,,,,,,,,,,,,,,,,,,,,,,,,,,,,,,,,,,,,,,,,,,,,,,,,,,,,,,,,,
,,,,,,,,,,stimuli/images/PICTURE_348.png,TOILET,5dfb7cbd01423f8a774d893b,21/09/1951,2020-07-09_21h03.35.126,proactive,2020.1.2,Win32,60,5f073de81c76c3308c0e4fb3,5f0777f3c10cab3808bf3f52,3,,,,,,pepper,,,,,,0,1,1,4,1,1,2,,,,,,,,,,,,,,,,,,,,,,,,,,,,,,,,,,,,,,,,,,,,,,,,,,,,,,,,,,,,,,,,,,,,,,,,,,,
,,,,,,,,,,stimuli/images/PICTURE_57.png,NATION,5dfb7cbd01423f8a774d893b,21/09/1951,2020-07-09_21h03.35.126,proactive,2020.1.2,Win32,60,5f073de81c76c3308c0e4fb3,5f0777f3c10cab3808bf3f52,3,,,,,,stamp,,,,,,0,2,2,21,1,3,2,,,,,,,,,,,,,,,,,,,,,,,,,,,,,,,,,,,,,,,,,,,,,,,,,,,,,,,,,,,,,,,,,,,,,,,,,,,
,,,,,,,,,,stimuli/images/PICTURE_285.png,WRITER,5dfb7cbd01423f8a774d893b,21/09/1951,2020-07-09_21h03.35.126,proactive,2020.1.2,Win32,60,5f073de81c76c3308c0e4fb3,5f0777f3c10cab3808bf3f52,3,,,,,,carrot,,,,,,0,3,3,6,1,1,2,,,,,,,,,,,,,,,,,,,,,,,,,,,,,,,,,,,,,,,,,,,,,,,,,,,,,,,,,,,,,,,,,,,,,,,,,,,
,,,,,,,,,,stimuli/images/PICTURE_403.png,FAMILY,5dfb7cbd01423f8a774d893b,21/09/1951,2020-07-09_21h03.35.126,proactive,2020.1.2,Win32,60,5f073de81c76c3308c0e4fb3,5f0777f3c10cab3808bf3f52,3,,,,,,cathedral,,,,,,0,4,4,9,1,1,2,,,,,,,,,,,,,,,,,,,,,,,,,,,,,,,,,,,,,,,,,,,,,,,,,,,,,,,,,,,,,,,,,,,,,,,,,,,
,,,,,,,,,,stimuli/images/PICTURE_677.png,PHOTO,5dfb7cbd01423f8a774d893b,21/09/1951,2020-07-09_21h03.35.126,proactive,2020.1.2,Win32,60,5f073de81c76c3308c0e4fb3,5f0777f3c10cab3808bf3f52,3,,,,,,map,,,,,,0,5,5,14,1,2,2,,,,,,,,,,,,,,,,,,,,,,,,,,,,,,,,,,,,,,,,,,,,,,,,,,,,,,,,,,,,,,,,,,,,,,,,,,,
,,,,,,,,,,stimuli/images/PICTURE_453.png,FAMILY,5dfb7cbd01423f8a774d893b,21/09/1951,2020-07-09_21h03.35.126,proactive,2020.1.2,Win32,60,5f073de81c76c3308c0e4fb3,5f0777f3c10cab3808bf3f52,3,,,,,,scissors,,,,,,0,6,6,48,1,5,2,,,,,,,,,,,,,,,,,,,,,,,,,,,,,,,,,,,,,,,,,,,,,,,,,,,,,,,,,,,,,,,,,,,,,,,,,,,
,,,,,,,,,,stimuli/images/PICTURE_405.png,JUNGLE,5dfb7cbd01423f8a774d893b,21/09/1951,2020-07-09_21h03.35.126,proactive,2020.1.2,Win32,60,5f073de81c76c3308c0e4fb3,5f0777f3c10cab3808bf3f52,3,,,,,,anchor,,,,,,0,7,7,13,1,2,2,,,,,,,,,,,,,,,,,,,,,,,,,,,,,,,,,,,,,,,,,,,,,,,,,,,,,,,,,,,,,,,,,,,,,,,,,,,
,,,,,,,,,,stimuli/images/PICTURE_667.png,GLASS,5dfb7cbd01423f8a774d893b,21/09/1951,2020-07-09_21h03.35.126,proactive,2020.1.2,Win32,60,5f073de81c76c3308c0e4fb3,5f0777f3c10cab3808bf3f52,3,,,,,,daisy,,,,,,0,8,8,27,1,3,2,,,,,,,,,,,,,,,,,,,,,,,,,,,,,,,,,,,,,,,,,,,,,,,,,,,,,,,,,,,,,,,,,,,,,,,,,,,
,,,,,,,,,,stimuli/images/PICTURE_470.png,MOMENT,5dfb7cbd01423f8a774d893b,21/09/1951,2020-07-09_21h03.35.126,proactive,2020.1.2,Win32,60,5f073de81c76c3308c0e4fb3,5f0777f3c10cab3808bf3f52,3,,,,,,motorbike,,,,,,0,9,9,40,1,5,2,,,,,,,,,,,,,,,,,,,,,,,,,,,,,,,,,,,,,,,,,,,,,,,,,,,,,,,,,,,,,,,,,,,,,,,,,,,
,,,,,,,,,,stimuli/images/PICTURE_160.png,HOTEL,5dfb7cbd01423f8a774d893b,21/09/1951,2020-07-09_21h03.35.126,proactive,2020.1.2,Win32,60,5f073de81c76c3308c0e4fb3,5f0777f3c10cab3808bf3f52,3,,,,,,wheelbarrow,,,,,,0,10,10,16,1,2,2,,,,,,,,,,,,,,,,,,,,,,,,,,,,,,,,,,,,,,,,,,,,,,,,,,,,,,,,,,,,,,,,,,,,,,,,,,,
,,,,,,,,,,stimuli/images/PICTURE_655.png,SALE,5dfb7cbd01423f8a774d893b,21/09/1951,2020-07-09_21h03.35.126,proactive,2020.1.2,Win32,60,5f073de81c76c3308c0e4fb3,5f0777f3c10cab3808bf3f52,3,,,,,,megaphone,,,,,,0,11,11,57,1,6,2,,,,,,,,,,,,,,,,,,,,,,,,,,,,,,,,,,,,,,,,,,,,,,,,,,,,,,,,,,,,,,,,,,,,,,,,,,,
,,,,,,,,,,stimuli/images/PICTURE_314.png,SPEECH,5dfb7cbd01423f8a774d893b,21/09/1951,2020-07-09_21h03.35.126,proactive,2020.1.2,Win32,60,5f073de81c76c3308c0e4fb3,5f0777f3c10cab3808bf3f52,3,,,,,,perfume,,,,,,0,12,12,35,1,4,2,,,,,,,,,,,,,,,,,,,,,,,,,,,,,,,,,,,,,,,,,,,,,,,,,,,,,,,,,,,,,,,,,,,,,,,,,,,
,,,,,,,,,,stimuli/images/PICTURE_208.png,SPIRIT,5dfb7cbd01423f8a774d893b,21/09/1951,2020-07-09_21h03.35.126,proactive,2020.1.2,Win32,60,5f073de81c76c3308c0e4fb3,5f0777f3c10cab3808bf3f52,3,,,,,,microphone,,,,,,0,13,13,28,1,3,2,,,,,,,,,,,,,,,,,,,,,,,,,,,,,,,,,,,,,,,,,,,,,,,,,,,,,,,,,,,,,,,,,,,,,,,,,,,
,,,,,,,,,,stimuli/images/PICTURE_18.png,RIVER,5dfb7cbd01423f8a774d893b,21/09/1951,2020-07-09_21h03.35.126,proactive,2020.1.2,Win32,60,5f073de81c76c3308c0e4fb3,5f0777f3c10cab3808bf3f52,3,,,,,,planet,,,,,,0,14,14,22,1,3,2,,,,,,,,,,,,,,,,,,,,,,,,,,,,,,,,,,,,,,,,,,,,,,,,,,,,,,,,,,,,,,,,,,,,,,,,,,,
,,,,,,,,,,stimuli/images/PICTURE_470.png,BEAUTY,5dfb7cbd01423f8a774d893b,21/09/1951,2020-07-09_21h03.35.126,proactive,2020.1.2,Win32,60,5f073de81c76c3308c0e4fb3,5f0777f3c10cab3808bf3f52,3,,,,,,motorbike,,,,,,0,15,15,26,1,3,2,,,,,,,,,,,,,,,,,,,,,,,,,,,,,,,,,,,,,,,,,,,,,,,,,,,,,,,,,,,,,,,,,,,,,,,,,,,
,,,,,,,,,,stimuli/images/PICTURE_285.png,PRINCE,5dfb7cbd01423f8a774d893b,21/09/1951,2020-07-09_21h03.35.126,proactive,2020.1.2,Win32,60,5f073de81c76c3308c0e4fb3,5f0777f3c10cab3808bf3f52,3,,,,,,carrot,,,,,,0,16,16,20,1,3,2,,,,,,,,,,,,,,,,,,,,,,,,,,,,,,,,,,,,,,,,,,,,,,,,,,,,,,,,,,,,,,,,,,,,,,,,,,,
,,,,,,,,,,stimuli/images/PICTURE_68.png,KIND,5dfb7cbd01423f8a774d893b,21/09/1951,2020-07-09_21h03.35.126,proactive,2020.1.2,Win32,60,5f073de81c76c3308c0e4fb3,5f0777f3c10cab3808bf3f52,3,,,,,,candle,,,,,,0,17,17,23,1,3,2,,,,,,,,,,,,,,,,,,,,,,,,,,,,,,,,,,,,,,,,,,,,,,,,,,,,,,,,,,,,,,,,,,,,,,,,,,,
,,,,,,,,,,stimuli/images/PICTURE_327.png,LEADER,5dfb7cbd01423f8a774d893b,21/09/1951,2020-07-09_21h03.35.126,proactive,2020.1.2,Win32,60,5f073de81c76c3308c0e4fb3,5f0777f3c10cab3808bf3f52,3,,,,,,helmet,,,,,,0,18,18,17,1,2,2,,,,,,,,,,,,,,,,,,,,,,,,,,,,,,,,,,,,,,,,,,,,,,,,,,,,,,,,,,,,,,,,,,,,,,,,,,,
,,,,,,,,,,stimuli/images/PICTURE_147.png,LEADER,5dfb7cbd01423f8a774d893b,21/09/1951,2020-07-09_21h03.35.126,proactive,2020.1.2,Win32,60,5f073de81c76c3308c0e4fb3,5f0777f3c10cab3808bf3f52,3,,,,,,hanger,,,,,,0,19,19,33,1,4,2,,,,,,,,,,,,,,,,,,,,,,,,,,,,,,,,,,,,,,,,,,,,,,,,,,,,,,,,,,,,,,,,,,,,,,,,,,,
,,,,,,,,,,stimuli/images/PICTURE_491.png,SERIES,5dfb7cbd01423f8a774d893b,21/09/1951,2020-07-09_21h03.35.126,proactive,2020.1.2,Win32,60,5f073de81c76c3308c0e4fb3,5f0777f3c10cab3808bf3f52,3,,,,,,rug,,,,,,0,20,20,39,1,4,2,,,,,,,,,,,,,,,,,,,,,,,,,,,,,,,,,,,,,,,,,,,,,,,,,,,,,,,,,,,,,,,,,,,,,,,,,,,
,,,,,,,,,,stimuli/images/PICTURE_297.png,BODY,5dfb7cbd01423f8a774d893b,21/09/1951,2020-07-09_21h03.35.126,proactive,2020.1.2,Win32,60,5f073de81c76c3308c0e4fb3,5f0777f3c10cab3808bf3f52,3,,,,,,aeroplane,,,,,,0,21,21,51,1,6,2,,,,,,,,,,,,,,,,,,,,,,,,,,,,,,,,,,,,,,,,,,,,,,,,,,,,,,,,,,,,,,,,,,,,,,,,,,,
,,,,,,,,,,stimuli/images/PICTURE_692.png,DUDE,5dfb7cbd01423f8a774d893b,21/09/1951,2020-07-09_21h03.35.126,proactive,2020.1.2,Win32,60,5f073de81c76c3308c0e4fb3,5f0777f3c10cab3808bf3f52,3,,,,,,cherry,,,,,,0,22,22,47,1,5,2,,,,,,,,,,,,,,,,,,,,,,,,,,,,,,,,,,,,,,,,,,,,,,,,,,,,,,,,,,,,,,,,,,,,,,,,,,,
,,,,,,,,,,stimuli/images/PICTURE_2.png,JUNGLE,5dfb7cbd01423f8a774d893b,21/09/1951,2020-07-09_21h03.35.126,proactive,2020.1.2,Win32,60,5f073de81c76c3308c0e4fb3,5f0777f3c10cab3808bf3f52,3,,,,,,tyre,,,,,,0,23,23,1,1,1,2,,,,,,,,,,,,,,,,,,,,,,,,,,,,,,,,,,,,,,,,,,,,,,,,,,,,,,,,,,,,,,,,,,,,,,,,,,,
,,,,,,,,,,stimuli/images/PICTURE_509.png,APPLE,5dfb7cbd01423f8a774d893b,21/09/1951,2020-07-09_21h03.35.126,proactive,2020.1.2,Win32,60,5f073de81c76c3308c0e4fb3,5f0777f3c10cab3808bf3f52,3,,,,,,telephone,,,,,,0,24,24,38,1,4,2,,,,,,,,,,,,,,,,,,,,,,,,,,,,,,,,,,,,,,,,,,,,,,,,,,,,,,,,,,,,,,,,,,,,,,,,,,,
,,,,,,,,,,stimuli/images/PICTURE_296.png,CLOCK,5dfb7cbd01423f8a774d893b,21/09/1951,2020-07-09_21h03.35.126,proactive,2020.1.2,Win32,60,5f073de81c76c3308c0e4fb3,5f0777f3c10cab3808bf3f52,3,,,,,,bolt,,,,,,0,25,25,18,1,2,2,,,,,,,,,,,,,,,,,,,,,,,,,,,,,,,,,,,,,,,,,,,,,,,,,,,,,,,,,,,,,,,,,,,,,,,,,,,
,,,,,,,,,,stimuli/images/PICTURE_509.png,MILLER,5dfb7cbd01423f8a774d893b,21/09/1951,2020-07-09_21h03.35.126,proactive,2020.1.2,Win32,60,5f073de81c76c3308c0e4fb3,5f0777f3c10cab3808bf3f52,3,,,,,,telephone,,,,,,0,26,26,49,1,5,2,,,,,,,,,,,,,,,,,,,,,,,,,,,,,,,,,,,,,,,,,,,,,,,,,,,,,,,,,,,,,,,,,,,,,,,,,,,
,,,,,,,,,,stimuli/images/PICTURE_215.png,LEADER,5dfb7cbd01423f8a774d893b,21/09/1951,2020-07-09_21h03.35.126,proactive,2020.1.2,Win32,60,5f073de81c76c3308c0e4fb3,5f0777f3c10cab3808bf3f52,3,,,,,,boot,,,,,,0,27,27,43,1,5,2,,,,,,,,,,,,,,,,,,,,,,,,,,,,,,,,,,,,,,,,,,,,,,,,,,,,,,,,,,,,,,,,,,,,,,,,,,,
,,,,,,,,,,stimuli/images/PICTURE_405.png,JUNGLE,5dfb7cbd01423f8a774d893b,21/09/1951,2020-07-09_21h03.35.126,proactive,2020.1.2,Win32,60,5f073de81c76c3308c0e4fb3,5f0777f3c10cab3808bf3f52,3,,,,,,anchor,,,,,,0,28,28,58,1,6,2,,,,,,,,,,,,,,,,,,,,,,,,,,,,,,,,,,,,,,,,,,,,,,,,,,,,,,,,,,,,,,,,,,,,,,,,,,,
,,,,,,,,,,stimuli/images/PICTURE_95.png,NIGHT,5dfb7cbd01423f8a774d893b,21/09/1951,2020-07-09_21h03.35.126,proactive,2020.1.2,Win32,60,5f073de81c76c3308c0e4fb3,5f0777f3c10cab3808bf3f52,3,,,,,,suitcase,,,,,,0,29,29,37,1,4,2,,,,,,,,,,,,,,,,,,,,,,,,,,,,,,,,,,,,,,,,,,,,,,,,,,,,,,,,,,,,,,,,,,,,,,,,,,,
,,,,,,,,,,stimuli/images/PICTURE_2.png,AREA,5dfb7cbd01423f8a774d893b,21/09/1951,2020-07-09_21h03.35.126,proactive,2020.1.2,Win32,60,5f073de81c76c3308c0e4fb3,5f0777f3c10cab3808bf3f52,3,,,,,,tyre,,,,,,0,30,30,32,1,4,2,,,,,,,,,,,,,,,,,,,,,,,,,,,,,,,,,,,,,,,,,,,,,,,,,,,,,,,,,,,,,,,,,,,,,,,,,,,
,,,,,,,,,,stimuli/images/PICTURE_215.png,BOYS,5dfb7cbd01423f8a774d893b,21/09/1951,2020-07-09_21h03.35.126,proactive,2020.1.2,Win32,60,5f073de81c76c3308c0e4fb3,5f0777f3c10cab3808bf3f52,3,,,,,,boot,,,,,,0,31,31,24,1,3,2,,,,,,,,,,,,,,,,,,,,,,,,,,,,,,,,,,,,,,,,,,,,,,,,,,,,,,,,,,,,,,,,,,,,,,,,,,,
,,,,,,,,,,stimuli/images/PICTURE_405.png,HOUSE,5dfb7cbd01423f8a774d893b,21/09/1951,2020-07-09_21h03.35.126,proactive,2020.1.2,Win32,60,5f073de81c76c3308c0e4fb3,5f0777f3c10cab3808bf3f52,3,,,,,,anchor,,,,,,0,32,32,2,1,1,2,,,,,,,,,,,,,,,,,,,,,,,,,,,,,,,,,,,,,,,,,,,,,,,,,,,,,,,,,,,,,,,,,,,,,,,,,,,
,,,,,,,,,,stimuli/images/PICTURE_564.png,PLENTY,5dfb7cbd01423f8a774d893b,21/09/1951,2020-07-09_21h03.35.126,proactive,2020.1.2,Win32,60,5f073de81c76c3308c0e4fb3,5f0777f3c10cab3808bf3f52,3,,,,,,spoon,,,,,,0,33,33,11,1,2,2,,,,,,,,,,,,,,,,,,,,,,,,,,,,,,,,,,,,,,,,,,,,,,,,,,,,,,,,,,,,,,,,,,,,,,,,,,,
,,,,,,,,,,stimuli/images/PICTURE_311.png,FLESH,5dfb7cbd01423f8a774d893b,21/09/1951,2020-07-09_21h03.35.126,proactive,2020.1.2,Win32,60,5f073de81c76c3308c0e4fb3,5f0777f3c10cab3808bf3f52,3,,,,,,razor,,,,,,0,34,34,3,1,1,2,,,,,,,,,,,,,,,,,,,,,,,,,,,,,,,,,,,,,,,,,,,,,,,,,,,,,,,,,,,,,,,,,,,,,,,,,,,
,,,,,,,,,,stimuli/images/PICTURE_93.png,GIRL,5dfb7cbd01423f8a774d893b,21/09/1951,2020-07-09_21h03.35.126,proactive,2020.1.2,Win32,60,5f073de81c76c3308c0e4fb3,5f0777f3c10cab3808bf3f52,3,,,,,,skateboard,,,,,,0,35,35,31,1,4,2,,,,,,,,,,,,,,,,,,,,,,,,,,,,,,,,,,,,,,,,,,,,,,,,,,,,,,,,,,,,,,,,,,,,,,,,,,,
,,,,,,,,,,stimuli/images/PICTURE_57.png,CASINO,5dfb7cbd01423f8a774d893b,21/09/1951,2020-07-09_21h03.35.126,proactive,2020.1.2,Win32,60,5f073de81c76c3308c0e4fb3,5f0777f3c10cab3808bf3f52,3,,,,,,stamp,,,,,,0,36,36,12,1,2,2,,,,,,,,,,,,,,,,,,,,,,,,,,,,,,,,,,,,,,,,,,,,,,,,,,,,,,,,,,,,,,,,,,,,,,,,,,,
,,,,,,,,,,stimuli/images/PICTURE_654.png,COPS,5dfb7cbd01423f8a774d893b,21/09/1951,2020-07-09_21h03.35.126,proactive,2020.1.2,Win32,60,5f073de81c76c3308c0e4fb3,5f0777f3c10cab3808bf3f52,3,,,,,,pencil,,,,,,0,37,37,10,1,2,2,,,,,,,,,,,,,,,,,,,,,,,,,,,,,,,,,,,,,,,,,,,,,,,,,,,,,,,,,,,,,,,,,,,,,,,,,,,
,,,,,,,,,,stimuli/images/PICTURE_177.png,HOUSE,5dfb7cbd01423f8a774d893b,21/09/1951,2020-07-09_21h03.35.126,proactive,2020.1.2,Win32,60,5f073de81c76c3308c0e4fb3,5f0777f3c10cab3808bf3f52,3,,,,,,mushroom,,,,,,0,38,38,25,1,3,2,,,,,,,,,,,,,,,,,,,,,,,,,,,,,,,,,,,,,,,,,,,,,,,,,,,,,,,,,,,,,,,,,,,,,,,,,,,
,,,,,,,,,,stimuli/images/PICTURE_2.png,YARD,5dfb7cbd01423f8a774d893b,21/09/1951,2020-07-09_21h03.35.126,proactive,2020.1.2,Win32,60,5f073de81c76c3308c0e4fb3,5f0777f3c10cab3808bf3f52,3,,,,,,tyre,,,,,,0,39,39,55,1,6,2,,,,,,,,,,,,,,,,,,,,,,,,,,,,,,,,,,,,,,,,,,,,,,,,,,,,,,,,,,,,,,,,,,,,,,,,,,,
,,,,,,,,,,stimuli/images/PICTURE_452.png,COPS,5dfb7cbd01423f8a774d893b,21/09/1951,2020-07-09_21h03.35.126,proactive,2020.1.2,Win32,60,5f073de81c76c3308c0e4fb3,5f0777f3c10cab3808bf3f52,3,,,,,,watch,,,,,,0,40,40,0,1,1,2,,,,,,,,,,,,,,,,,,,,,,,,,,,,,,,,,,,,,,,,,,,,,,,,,,,,,,,,,,,,,,,,,,,,,,,,,,,
,,,,,,,,,,stimuli/images/PICTURE_32.png,LETTER,5dfb7cbd01423f8a774d893b,21/09/1951,2020-07-09_21h03.35.126,proactive,2020.1.2,Win32,60,5f073de81c76c3308c0e4fb3,5f0777f3c10cab3808bf3f52,3,,,,,,crown,,,,,,0,41,41,56,1,6,2,,,,,,,,,,,,,,,,,,,,,,,,,,,,,,,,,,,,,,,,,,,,,,,,,,,,,,,,,,,,,,,,,,,,,,,,,,,
,,,,,,,,,,stimuli/images/PICTURE_504.png,HOUSE,5dfb7cbd01423f8a774d893b,21/09/1951,2020-07-09_21h03.35.126,proactive,2020.1.2,Win32,60,5f073de81c76c3308c0e4fb3,5f0777f3c10cab3808bf3f52,3,,,,,,wheel,,,,,,0,42,42,36,1,4,2,,,,,,,,,,,,,,,,,,,,,,,,,,,,,,,,,,,,,,,,,,,,,,,,,,,,,,,,,,,,,,,,,,,,,,,,,,,
,,,,,,,,,,stimuli/images/PICTURE_487.png,POLICY,5dfb7cbd01423f8a774d893b,21/09/1951,2020-07-09_21h03.35.126,proactive,2020.1.2,Win32,60,5f073de81c76c3308c0e4fb3,5f0777f3c10cab3808bf3f52,3,,,,,,basket,,,,,,0,43,43,34,1,4,2,,,,,,,,,,,,,,,,,,,,,,,,,,,,,,,,,,,,,,,,,,,,,,,,,,,,,,,,,,,,,,,,,,,,,,,,,,,
,,,,,,,,,,stimuli/images/PICTURE_141.png,CLIENT,5dfb7cbd01423f8a774d893b,21/09/1951,2020-07-09_21h03.35.126,proactive,2020.1.2,Win32,60,5f073de81c76c3308c0e4fb3,5f0777f3c10cab3808bf3f52,3,,,,,,sunflower,,,,,,0,44,44,30,1,4,2,,,,,,,,,,,,,,,,,,,,,,,,,,,,,,,,,,,,,,,,,,,,,,,,,,,,,,,,,,,,,,,,,,,,,,,,,,,
,,,,,,,,,,stimuli/images/PICTURE_255.png,PENNY,5dfb7cbd01423f8a774d893b,21/09/1951,2020-07-09_21h03.35.126,proactive,2020.1.2,Win32,60,5f073de81c76c3308c0e4fb3,5f0777f3c10cab3808bf3f52,3,,,,,,shovel,,,,,,0,45,45,19,1,2,2,,,,,,,,,,,,,,,,,,,,,,,,,,,,,,,,,,,,,,,,,,,,,,,,,,,,,,,,,,,,,,,,,,,,,,,,,,,
,,,,,,,,,,stimuli/images/PICTURE_509.png,BATH,5dfb7cbd01423f8a774d893b,21/09/1951,2020-07-09_21h03.35.126,proactive,2020.1.2,Win32,60,5f073de81c76c3308c0e4fb3,5f0777f3c10cab3808bf3f52,3,,,,,,telephone,,,,,,0,46,46,15,1,2,2,,,,,,,,,,,,,,,,,,,,,,,,,,,,,,,,,,,,,,,,,,,,,,,,,,,,,,,,,,,,,,,,,,,,,,,,,,,
,,,,,,,,,,stimuli/images/PICTURE_487.png,ROOF,5dfb7cbd01423f8a774d893b,21/09/1951,2020-07-09_21h03.35.126,proactive,2020.1.2,Win32,60,5f073de81c76c3308c0e4fb3,5f0777f3c10cab3808bf3f52,3,,,,,,basket,,,,,,0,47,47,50,1,6,2,,,,,,,,,,,,,,,,,,,,,,,,,,,,,,,,,,,,,,,,,,,,,,,,,,,,,,,,,,,,,,,,,,,,,,,,,,,
,,,,,,,,,,stimuli/images/PICTURE_708.png,VALLEY,5dfb7cbd01423f8a774d893b,21/09/1951,2020-07-09_21h03.35.126,proactive,2020.1.2,Win32,60,5f073de81c76c3308c0e4fb3,5f0777f3c10cab3808bf3f52,3,,,,,,monkey,,,,,,0,48,48,45,1,5,2,,,,,,,,,,,,,,,,,,,,,,,,,,,,,,,,,,,,,,,,,,,,,,,,,,,,,,,,,,,,,,,,,,,,,,,,,,,
,,,,,,,,,,stimuli/images/PICTURE_750.png,POLICY,5dfb7cbd01423f8a774d893b,21/09/1951,2020-07-09_21h03.35.126,proactive,2020.1.2,Win32,60,5f073de81c76c3308c0e4fb3,5f0777f3c10cab3808bf3f52,3,,,,,,kettle,,,,,,0,49,49,44,1,5,2,,,,,,,,,,,,,,,,,,,,,,,,,,,,,,,,,,,,,,,,,,,,,,,,,,,,,,,,,,,,,,,,,,,,,,,,,,,
,,,,,,,,,,stimuli/images/PICTURE_688.png,CLOCK,5dfb7cbd01423f8a774d893b,21/09/1951,2020-07-09_21h03.35.126,proactive,2020.1.2,Win32,60,5f073de81c76c3308c0e4fb3,5f0777f3c10cab3808bf3f52,3,,,,,,runner,,,,,,0,50,50,42,1,5,2,,,,,,,,,,,,,,,,,,,,,,,,,,,,,,,,,,,,,,,,,,,,,,,,,,,,,,,,,,,,,,,,,,,,,,,,,,,
,,,,,,,,,,stimuli/images/PICTURE_215.png,FOOD,5dfb7cbd01423f8a774d893b,21/09/1951,2020-07-09_21h03.35.126,proactive,2020.1.2,Win32,60,5f073de81c76c3308c0e4fb3,5f0777f3c10cab3808bf3f52,3,,,,,,boot,,,,,,0,51,51,5,1,1,2,,,,,,,,,,,,,,,,,,,,,,,,,,,,,,,,,,,,,,,,,,,,,,,,,,,,,,,,,,,,,,,,,,,,,,,,,,,
,,,,,,,,,,stimuli/images/PICTURE_509.png,SHOTS,5dfb7cbd01423f8a774d893b,21/09/1951,2020-07-09_21h03.35.126,proactive,2020.1.2,Win32,60,5f073de81c76c3308c0e4fb3,5f0777f3c10cab3808bf3f52,3,,,,,,telephone,,,,,,0,52,52,7,1,1,2,,,,,,,,,,,,,,,,,,,,,,,,,,,,,,,,,,,,,,,,,,,,,,,,,,,,,,,,,,,,,,,,,,,,,,,,,,,
,,,,,,,,,,stimuli/images/PICTURE_57.png,CANDY,5dfb7cbd01423f8a774d893b,21/09/1951,2020-07-09_21h03.35.126,proactive,2020.1.2,Win32,60,5f073de81c76c3308c0e4fb3,5f0777f3c10cab3808bf3f52,3,,,,,,stamp,,,,,,0,53,53,52,1,6,2,,,,,,,,,,,,,,,,,,,,,,,,,,,,,,,,,,,,,,,,,,,,,,,,,,,,,,,,,,,,,,,,,,,,,,,,,,,
,,,,,,,,,,stimuli/images/PICTURE_123.png,SALE,5dfb7cbd01423f8a774d893b,21/09/1951,2020-07-09_21h03.35.126,proactive,2020.1.2,Win32,60,5f073de81c76c3308c0e4fb3,5f0777f3c10cab3808bf3f52,3,,,,,,dart,,,,,,0,54,54,8,1,1,2,,,,,,,,,,,,,,,,,,,,,,,,,,,,,,,,,,,,,,,,,,,,,,,,,,,,,,,,,,,,,,,,,,,,,,,,,,,
,,,,,,,,,,stimuli/images/PICTURE_356.png,CANDY,5dfb7cbd01423f8a774d893b,21/09/1951,2020-07-09_21h03.35.126,proactive,2020.1.2,Win32,60,5f073de81c76c3308c0e4fb3,5f0777f3c10cab3808bf3f52,3,,,,,,pawn,,,,,,0,55,55,46,1,5,2,,,,,,,,,,,,,,,,,,,,,,,,,,,,,,,,,,,,,,,,,,,,,,,,,,,,,,,,,,,,,,,,,,,,,,,,,,,
,,,,,,,,,,stimuli/images/PICTURE_348.png,DUDE,5dfb7cbd01423f8a774d893b,21/09/1951,2020-07-09_21h03.35.126,proactive,2020.1.2,Win32,60,5f073de81c76c3308c0e4fb3,5f0777f3c10cab3808bf3f52,3,,,,,,pepper,,,,,,0,56,56,59,1,6,2,,,,,,,,,,,,,,,,,,,,,,,,,,,,,,,,,,,,,,,,,,,,,,,,,,,,,,,,,,,,,,,,,,,,,,,,,,,
,,,,,,,,,,stimuli/images/PICTURE_33.png,COPS,5dfb7cbd01423f8a774d893b,21/09/1951,2020-07-09_21h03.35.126,proactive,2020.1.2,Win32,60,5f073de81c76c3308c0e4fb3,5f0777f3c10cab3808bf3f52,3,,,,,,frame,,,,,,0,57,57,29,1,3,2,,,,,,,,,,,,,,,,,,,,,,,,,,,,,,,,,,,,,,,,,,,,,,,,,,,,,,,,,,,,,,,,,,,,,,,,,,,
,,,,,,,,,,stimuli/images/PICTURE_311.png,TOILET,5dfb7cbd01423f8a774d893b,21/09/1951,2020-07-09_21h03.35.126,proactive,2020.1.2,Win32,60,5f073de81c76c3308c0e4fb3,5f0777f3c10cab3808bf3f52,3,,,,,,razor,,,,,,0,58,58,54,1,6,2,,,,,,,,,,,,,,,,,,,,,,,,,,,,,,,,,,,,,,,,,,,,,,,,,,,,,,,,,,,,,,,,,,,,,,,,,,,
,,?,0.001615,0,,,,,,stimuli/images/PICTURE_509.png,MILLER,5dfb7cbd01423f8a774d893b,21/09/1951,2020-07-09_21h03.35.126,proactive,2020.1.2,Win32,60,5f073de81c76c3308c0e4fb3,5f0777f3c10cab3808bf3f52,3,,,,,,telephone,,,,,,,,,,,5,2,0,0,0,49,1,,,,,,,,,,,,,,,,,,,,,,,,,,,,,,,,,,,,,,,,,,,,,,,,,,,,,,,,,,,,,,,,,,,,,,
,,?,0.000535,0,,,,,,stimuli/images/PICTURE_147.png,LEADER,5dfb7cbd01423f8a774d893b,21/09/1951,2020-07-09_21h03.35.126,proactive,2020.1.2,Win32,60,5f073de81c76c3308c0e4fb3,5f0777f3c10cab3808bf3f52,3,,,,,,hanger,,,,,,,,,,,4,2,0,1,1,33,1,,,,,,,,,,,,,,,,,,,,,,,,,,,,,,,,,,,,,,,,,,,,,,,,,,,,,,,,,,,,,,,,,,,,,,
,,?,0.00052,0,,,,,,stimuli/images/PICTURE_677.png,FAMILY,5dfb7cbd01423f8a774d893b,21/09/1951,2020-07-09_21h03.35.126,proactive,2020.1.2,Win32,60,5f073de81c76c3308c0e4fb3,5f0777f3c10cab3808bf3f52,3,,,,,,map,,,,,,,,,,,6,2,0,2,2,53,1,,,,,,,,,,,,,,,,,,,,,,,,,,,,,,,,,,,,,,,,,,,,,,,,,,,,,,,,,,,,,,,,,,,,,,
,,?,0.000495,0,,,,,,stimuli/images/PICTURE_564.png,PLENTY,5dfb7cbd01423f8a774d893b,21/09/1951,2020-07-09_21h03.35.126,proactive,2020.1.2,Win32,60,5f073de81c76c3308c0e4fb3,5f0777f3c10cab3808bf3f52,3,,,,,,spoon,,,,,,,,,,,2,2,0,3,3,11,1,,,,,,,,,,,,,,,,,,,,,,,,,,,,,,,,,,,,,,,,,,,,,,,,,,,,,,,,,,,,,,,,,,,,,,
,,?,0.00069,0,,,,,,stimuli/images/PICTURE_95.png,NIGHT,5dfb7cbd01423f8a774d893b,21/09/1951,2020-07-09_21h03.35.126,proactive,2020.1.2,Win32,60,5f073de81c76c3308c0e4fb3,5f0777f3c10cab3808bf3f52,3,,,,,,suitcase,,,,,,,,,,,4,2,0,4,4,37,1,,,,,,,,,,,,,,,,,,,,,,,,,,,,,,,,,,,,,,,,,,,,,,,,,,,,,,,,,,,,,,,,,,,,,,
,,?,0.000495,0,,,,,,stimuli/images/PICTURE_655.png,SALE,5dfb7cbd01423f8a774d893b,21/09/1951,2020-07-09_21h03.35.126,proactive,2020.1.2,Win32,60,5f073de81c76c3308c0e4fb3,5f0777f3c10cab3808bf3f52,3,,,,,,megaphone,,,,,,,,,,,6,2,0,5,5,57,1,,,,,,,,,,,,,,,,,,,,,,,,,,,,,,,,,,,,,,,,,,,,,,,,,,,,,,,,,,,,,,,,,,,,,,
,,?,0.000575,0,,,,,,stimuli/images/PICTURE_688.png,CLOCK,5dfb7cbd01423f8a774d893b,21/09/1951,2020-07-09_21h03.35.126,proactive,2020.1.2,Win32,60,5f073de81c76c3308c0e4fb3,5f0777f3c10cab3808bf3f52,3,,,,,,runner,,,,,,,,,,,5,2,0,6,6,42,1,,,,,,,,,,,,,,,,,,,,,,,,,,,,,,,,,,,,,,,,,,,,,,,,,,,,,,,,,,,,,,,,,,,,,,
,,?,0.00049,0,,,,,,stimuli/images/PICTURE_403.png,FAMILY,5dfb7cbd01423f8a774d893b,21/09/1951,2020-07-09_21h03.35.126,proactive,2020.1.2,Win32,60,5f073de81c76c3308c0e4fb3,5f0777f3c10cab3808bf3f52,3,,,,,,cathedral,,,,,,,,,,,1,2,0,7,7,9,1,,,,,,,,,,,,,,,,,,,,,,,,,,,,,,,,,,,,,,,,,,,,,,,,,,,,,,,,,,,,,,,,,,,,,,
,,?,0.00049,0,,,,,,stimuli/images/PICTURE_123.png,SALE,5dfb7cbd01423f8a774d893b,21/09/1951,2020-07-09_21h03.35.126,proactive,2020.1.2,Win32,60,5f073de81c76c3308c0e4fb3,5f0777f3c10cab3808bf3f52,3,,,,,,dart,,,,,,,,,,,1,2,0,8,8,8,1,,,,,,,,,,,,,,,,,,,,,,,,,,,,,,,,,,,,,,,,,,,,,,,,,,,,,,,,,,,,,,,,,,,,,,
,,?,0.00049,0,,,,,,stimuli/images/PICTURE_93.png,GIRL,5dfb7cbd01423f8a774d893b,21/09/1951,2020-07-09_21h03.35.126,proactive,2020.1.2,Win32,60,5f073de81c76c3308c0e4fb3,5f0777f3c10cab3808bf3f52,3,,,,,,skateboard,,,,,,,,,,,4,2,0,9,9,31,1,,,,,,,,,,,,,,,,,,,,,,,,,,,,,,,,,,,,,,,,,,,,,,,,,,,,,,,,,,,,,,,,,,,,,,
,,?,0.000575,0,,,,,,stimuli/images/PICTURE_487.png,ROOF,5dfb7cbd01423f8a774d893b,21/09/1951,2020-07-09_21h03.35.126,proactive,2020.1.2,Win32,60,5f073de81c76c3308c0e4fb3,5f0777f3c10cab3808bf3f52,3,,,,,,basket,,,,,,,,,,,6,2,0,10,10,50,1,,,,,,,,,,,,,,,,,,,,,,,,,,,,,,,,,,,,,,,,,,,,,,,,,,,,,,,,,,,,,,,,,,,,,,
,,NATION,15.000275,1,,,,,,stimuli/images/PICTURE_57.png,NATION,5dfb7cbd01423f8a774d893b,21/09/1951,2020-07-09_21h03.35.126,proactive,2020.1.2,Win32,60,5f073de81c76c3308c0e4fb3,5f0777f3c10cab3808bf3f52,3,,,,,,stamp,,,,,,,,,,,3,2,0,11,11,21,1,,,,,,,,,,,,,,,,,,,,,,,,,,,,,,,,,,,,,,,,,,,,,,,,,,,,,,,,,,,,,,,,,,,,,,
,,?,0.00147,0,,,,,,stimuli/images/PICTURE_2.png,YARD,5dfb7cbd01423f8a774d893b,21/09/1951,2020-07-09_21h03.35.126,proactive,2020.1.2,Win32,60,5f073de81c76c3308c0e4fb3,5f0777f3c10cab3808bf3f52,3,,,,,,tyre,,,,,,,,,,,6,2,0,12,12,55,1,,,,,,,,,,,,,,,,,,,,,,,,,,,,,,,,,,,,,,,,,,,,,,,,,,,,,,,,,,,,,,,,,,,,,,
,,HOUSE,15.00062,1,,,,,,stimuli/images/PICTURE_177.png,HOUSE,5dfb7cbd01423f8a774d893b,21/09/1951,2020-07-09_21h03.35.126,proactive,2020.1.2,Win32,60,5f073de81c76c3308c0e4fb3,5f0777f3c10cab3808bf3f52,3,,,,,,mushroom,,,,,,,,,,,3,2,0,13,13,25,1,,,,,,,,,,,,,,,,,,,,,,,,,,,,,,,,,,,,,,,,,,,,,,,,,,,,,,,,,,,,,,,,,,,,,,
,,?,0.001205,0,,,,,,stimuli/images/PICTURE_504.png,HOUSE,5dfb7cbd01423f8a774d893b,21/09/1951,2020-07-09_21h03.35.126,proactive,2020.1.2,Win32,60,5f073de81c76c3308c0e4fb3,5f0777f3c10cab3808bf3f52,3,,,,,,wheel,,,,,,,,,,,4,2,0,14,14,36,1,,,,,,,,,,,,,,,,,,,,,,,,,,,,,,,,,,,,,,,,,,,,,,,,,,,,,,,,,,,,,,,,,,,,,,
,,?,0.00074,0,,,,,,stimuli/images/PICTURE_487.png,POLICY,5dfb7cbd01423f8a774d893b,21/09/1951,2020-07-09_21h03.35.126,proactive,2020.1.2,Win32,60,5f073de81c76c3308c0e4fb3,5f0777f3c10cab3808bf3f52,3,,,,,,basket,,,,,,,,,,,4,2,0,15,15,34,1,,,,,,,,,,,,,,,,,,,,,,,,,,,,,,,,,,,,,,,,,,,,,,,,,,,,,,,,,,,,,,,,,,,,,,
,,?,0.00056,0,,,,,,stimuli/images/PICTURE_311.png,TOILET,5dfb7cbd01423f8a774d893b,21/09/1951,2020-07-09_21h03.35.126,proactive,2020.1.2,Win32,60,5f073de81c76c3308c0e4fb3,5f0777f3c10cab3808bf3f52,3,,,,,,razor,,,,,,,,,,,6,2,0,16,16,54,1,,,,,,,,,,,,,,,,,,,,,,,,,,,,,,,,,,,,,,,,,,,,,,,,,,,,,,,,,,,,,,,,,,,,,,
