consent_key.keys,consent_key.rt,recalled,recalled_rt,recall_acc,example_recall.thisRepN,example_recall.thisTrialN,example_recall.thisN,example_recall.thisIndex,example_recall.ran,file,word,participant,please enter your date of birth (dd/mm/yyyy),date,expName,psychopyVersion,OS,frameRate,STUDY_ID,SESSION_ID,list,prac_learn_study_loop.thisRepN,prac_learn_study_loop.thisTrialN,prac_learn_study_loop.thisN,prac_learn_study_loop.thisIndex,prac_learn_study_loop.ran,image,prac_learn_test_loop.thisRepN,prac_learn_test_loop.thisTrialN,prac_learn_test_loop.thisN,prac_learn_test_loop.thisIndex,prac_learn_test_loop.ran,learn_study_loop.thisRepN,learn_study_loop.thisTrialN,learn_study_loop.thisN,learn_study_loop.thisIndex,learn_study_loop.ran,list_no,block_no,learn_test_loop.thisRepN,learn_test_loop.thisTrialN,learn_test_loop.thisN,learn_test_loop.thisIndex,learn_test_loop.ran,learn_blocks.thisRepN,learn_blocks.thisTrialN,learn_blocks.thisN,learn_blocks.thisIndex,learn_blocks.ran,block_csv,key_resp_13.keys,key_resp_13.rt,learn_blocks_loop.thisRepN,learn_blocks_loop.thisTrialN,learn_blocks_loop.thisN,learn_blocks_loop.thisIndex,learn_blocks_loop.ran,final_learn_test.thisRepN,final_learn_test.thisTrialN,final_learn_test.thisN,final_learn_test.thisIndex,final_learn_test.ran,prac_wm_test_loop.thisRepN,prac_wm_test_loop.thisTrialN,prac_wm_test_loop.thisN,prac_wm_test_loop.thisIndex,prac_wm_test_loop.ran,wm_recalled1,wm_recall_rt1,wm_probed1,wm_recall_acc1,wm_recalled2,wm_recall_rt2,wm_probed2,wm_recall_acc2,wm_recalled3,wm_recall_rt3,wm_probed3,wm_recall_acc3,wm_recalled4,wm_recall_rt4,wm_probed4,wm_recall_acc4,prac_wm_trial_loop.thisRepN,prac_wm_trial_loop.thisTrialN,prac_wm_trial_loop.thisN,prac_wm_trial_loop.thisIndex,prac_wm_trial_loop.ran,word1,image1,file1,item_type1,word2,image2,file2,item_type2,word4,image4,file4,item_type4,word3,image3,file3,item_type3,wm_test_loop.thisRepN,wm_test_loop.thisTrialN,wm_test_loop.thisN,wm_test_loop.thisIndex,wm_test_loop.ran,wm_trial_loop.thisRepN,wm_trial_loop.thisTrialN,wm_trial_loop.thisN,wm_trial_loop.thisIndex,wm_trial_loop.ran
y,26.27282,?,15.000985,0,0,0,0,0,1,stimuli/images/PICTURE_747.png,TOUGH,5e2872fffcdb020467d12799,27/05/1946,2020-07-09_21h09.53.795,proactive,2020.1.2,Win32,60,5f073de81c76c3308c0e4fb3,5f07792229c3d8392991e20a,4,,,,,,,,,,,,,,,,,,,,,,,,,,,,,,,,,,,,,,,,,,,,,,,,,,,,,,,,,,,,,,,,,,,,,,,,,,,,,,,,,,,,,,,,,,,,,
,,,,,,,,,,stimuli/images/PICTURE_697.png,KILLER,5e2872fffcdb020467d12799,27/05/1946,2020-07-09_21h09.53.795,proactive,2020.1.2,Win32,60,5f073de81c76c3308c0e4fb3,5f07792229c3d8392991e20a,4,0,0,0,4,1,peach,,,,,,,,,,,,,,,,,,,,,,,,,,,,,,,,,,,,,,,,,,,,,,,,,,,,,,,,,,,,,,,,,,,,,,,,,,,,,,,,,,,,,,,
,,,,,,,,,,stimuli/images/PICTURE_269.png,GENIUS,5e2872fffcdb020467d12799,27/05/1946,2020-07-09_21h09.53.795,proactive,2020.1.2,Win32,60,5f073de81c76c3308c0e4fb3,5f07792229c3d8392991e20a,4,0,1,1,0,1,chameleon,,,,,,,,,,,,,,,,,,,,,,,,,,,,,,,,,,,,,,,,,,,,,,,,,,,,,,,,,,,,,,,,,,,,,,,,,,,,,,,,,,,,,,,
,,,,,,,,,,stimuli/images/PICTURE_727.png,CELL,5e2872fffcdb020467d12799,27/05/1946,2020-07-09_21h09.53.795,proactive,2020.1.2,Win32,60,5f073de81c76c3308c0e4fb3,5f07792229c3d8392991e20a,4,0,2,2,1,1,hose,,,,,,,,,,,,,,,,,,,,,,,,,,,,,,,,,,,,,,,,,,,,,,,,,,,,,,,,,,,,,,,,,,,,,,,,,,,,,,,,,,,,,,,
,,,,,,,,,,stimuli/images/PICTURE_378.png,LOSS,5e2872fffcdb020467d12799,27/05/1946,2020-07-09_21h09.53.795,proactive,2020.1.2,Win32,60,5f073de81c76c3308c0e4fb3,5f07792229c3d8392991e20a,4,0,3,3,2,1,lobster,,,,,,,,,,,,,,,,,,,,,,,,,,,,,,,,,,,,,,,,,,,,,,,,,,,,,,,,,,,,,,,,,,,,,,,,,,,,,,,,,,,,,,,
,,?,15.01069,0,,,,,,stimuli/images/PICTURE_727.png,CELL,5e2872fffcdb020467d12799,27/05/1946,2020-07-09_21h09.53.795,proactive,2020.1.2,Win32,60,5f073de81c76c3308c0e4fb3,5f07792229c3d8392991e20a,4,,,,,,hose,0,0,0,1,1,,,,,,,,,,,,,,,,,,,,,,,,,,,,,,,,,,,,,,,,,,,,,,,,,,,,,,,,,,,,,,,,,,,,,,,,,,,,,,,,,,
,,YN,15.01258,0,,,,,,stimuli/images/PICTURE_378.png,LOSS,5e2872fffcdb020467d12799,27/05/1946,2020-07-09_21h09.53.795,proactive,2020.1.2,Win32,60,5f073de81c76c3308c0e4fb3,5f07792229c3d8392991e20a,4,,,,,,lobster,0,1,1,2,1,,,,,,,,,,,,,,,,,,,,,,,,,,,,,,,,,,,,,,,,,,,,,,,,,,,,,,,,,,,,,,,,,,,,,,,,,,,,,,,,,,
,,?,15.012455,0,,,,,,stimuli/images/PICTURE_269.png,GENIUS,5e2872fffcdb020467d12799,27/05/1946,2020-07-09_21h09.53.795,proactive,2020.1.2,Win32,60,5f073de81c76c3308c0e4fb3,5f07792229c3d8392991e20a,4,,,,,,chameleon,0,2,2,0,1,,,,,,,,,,,,,,,,,,,,,,,,,,,,,,,,,,,,,,,,,,,,,,,,,,,,,,,,,,,,,,,,,,,,,,,,,,,,,,,,,,
,,N,15.01168,0,,,,,,stimuli/images/PICTURE_697.png,KILLER,5e2872fffcdb020467d12799,27/05/1946,2020-07-09_21h09.53.795,proactive,2020.1.2,Win32,60,5f073de81c76c3308c0e4fb3,5f07792229c3d8392991e20a,4,,,,,,peach,0,3,3,4,1,,,,,,,,,,,,,,,,,,,,,,,,,,,,,,,,,,,,,,,,,,,,,,,,,,,,,,,,,,,,,,,,,,,,,,,,,,,,,,,,,,
,,Y,15.012665,0,,,,,,stimuli/images/PICTURE_658.png,DEVIL,5e2872fffcdb020467d12799,27/05/1946,2020-07-09_21h09.53.795,proactive,2020.1.2,Win32,60,5f073de81c76c3308c0e4fb3,5f07792229c3d8392991e20a,4,,,,,,crow,0,4,4,3,1,,,,,,,,,,,,,,,,,,,,,,,,,,,,,,,,,,,,,,,,,,,,,,,,,,,,,,,,,,,,,,,,,,,,,,,,,,,,,,,,,,
,,,,,,,,,,stimuli/images/PICTURE_654.png,COPS,5e2872fffcdb020467d12799,27/05/1946,2020-07-09_21h09.53.795,proactive,2020.1.2,Win32,60,5f073de81c76c3308c0e4fb3,5f07792229c3d8392991e20a,4,,,,,,pencil,,,,,,0,0,0,10,1,2,2,,,,,,,,,,,,,,,,,,,,,,,,,,,,,,,,,,,,,,,,,,,,,,,,,,,,,,,,,,,,,,,,,,,,,,,,,,,
,,,,,,,,,,stimuli/images/PICTURE_452.png,COPS,5e2872fffcdb020467d12799,27/05/1946,2020-07-09_21h09.53.795,proactive,2020.1.2,Win32,60,5f073de81c76c3308c0e4fb3,5f07792229c3d8392991e20a,4,,,,,,watch,,,,,,0,1,1,0,1,1,2,,,,,,,,,,,,,,,,,,,,,,,,,,,,,,,,,,,,,,,,,,,,,,,,,,,,,,,,,,,,,,,,,,,,,,,,,,,
,,,,,,,,,,stimuli/images/PICTURE_677.png,PHOTO,5e2872fffcdb020467d12799,27/05/1946,2020-07-09_21h09.53.795,proactive,2020.1.2,Win32,60,5f073de81c76c3308c0e4fb3,5f07792229c3d8392991e20a,4,,,,,,map,,,,,,0,2,2,14,1,2,2,,,,,,,,,,,,,,,,,,,,,,,,,,,,,,,,,,,,,,,,,,,,,,,,,,,,,,,,,,,,,,,,,,,,,,,,,,,
,,,,,,,,,,stimuli/images/PICTURE_57.png,CASINO,5e2872fffcdb020467d12799,27/05/1946,2020-07-09_21h09.53.795,proactive,2020.1.2,Win32,60,5f073de81c76c3308c0e4fb3,5f07792229c3d8392991e20a,4,,,,,,stamp,,,,,,0,3,3,12,1,2,2,,,,,,,,,,,,,,,,,,,,,,,,,,,,,,,,,,,,,,,,,,,,,,,,,,,,,,,,,,,,,,,,,,,,,,,,,,,
,,,,,,,,,,stimuli/images/PICTURE_177.png,HOUSE,5e2872fffcdb020467d12799,27/05/1946,2020-07-09_21h09.53.795,proactive,2020.1.2,Win32,60,5f073de81c76c3308c0e4fb3,5f07792229c3d8392991e20a,4,,,,,,mushroom,,,,,,0,4,4,25,1,3,2,,,,,,,,,,,,,,,,,,,,,,,,,,,,,,,,,,,,,,,,,,,,,,,,,,,,,,,,,,,,,,,,,,,,,,,,,,,
,,,,,,,,,,stimuli/images/PICTURE_403.png,FAMILY,5e2872fffcdb020467d12799,27/05/1946,2020-07-09_21h09.53.795,proactive,2020.1.2,Win32,60,5f073de81c76c3308c0e4fb3,5f07792229c3d8392991e20a,4,,,,,,cathedral,,,,,,0,5,5,9,1,1,2,,,,,,,,,,,,,,,,,,,,,,,,,,,,,,,,,,,,,,,,,,,,,,,,,,,,,,,,,,,,,,,,,,,,,,,,,,,
,,,,,,,,,,stimuli/images/PICTURE_57.png,CANDY,5e2872fffcdb020467d12799,27/05/1946,2020-07-09_21h09.53.795,proactive,2020.1.2,Win32,60,5f073de81c76c3308c0e4fb3,5f07792229c3d8392991e20a,4,,,,,,stamp,,,,,,0,6,6,52,1,6,2,,,,,,,,,,,,,,,,,,,,,,,,,,,,,,,,,,,,,,,,,,,,,,,,,,,,,,,,,,,,,,,,,,,,,,,,,,,
,,,,,,,,,,stimuli/images/PICTURE_123.png,SALE,5e2872fffcdb020467d12799,27/05/1946,2020-07-09_21h09.53.795,proactive,2020.1.2,Win32,60,5f073de81c76c3308c0e4fb3,5f07792229c3d8392991e20a,4,,,,,,dart,,,,,,0,7,7,8,1,1,2,,,,,,,,,,,,,,,,,,,,,,,,,,,,,,,,,,,,,,,,,,,,,,,,,,,,,,,,,,,,,,,,,,,,,,,,,,,
,,,,,,,,,,stimuli/images/PICTURE_255.png,PENNY,5e2872fffcdb020467d12799,27/05/1946,2020-07-09_21h09.53.795,proactive,2020.1.2,Win32,60,5f073de81c76c3308c0e4fb3,5f07792229c3d8392991e20a,4,,,,,,shovel,,,,,,0,8,8,19,1,2,2,,,,,,,,,,,,,,,,,,,,,,,,,,,,,,,,,,,,,,,,,,,,,,,,,,,,,,,,,,,,,,,,,,,,,,,,,,,
,,,,,,,,,,stimuli/images/PICTURE_677.png,FAMILY,5e2872fffcdb020467d12799,27/05/1946,2020-07-09_21h09.53.795,proactive,2020.1.2,Win32,60,5f073de81c76c3308c0e4fb3,5f07792229c3d8392991e20a,4,,,,,,map,,,,,,0,9,9,53,1,6,2,,,,,,,,,,,,,,,,,,,,,,,,,,,,,,,,,,,,,,,,,,,,,,,,,,,,,,,,,,,,,,,,,,,,,,,,,,,
,,,,,,,,,,stimuli/images/PICTURE_688.png,CLOCK,5e2872fffcdb020467d12799,27/05/1946,2020-07-09_21h09.53.795,proactive,2020.1.2,Win32,60,5f073de81c76c3308c0e4fb3,5f07792229c3d8392991e20a,4,,,,,,runner,,,,,,0,10,10,42,1,5,2,,,,,,,,,,,,,,,,,,,,,,,,,,,,,,,,,,,,,,,,,,,,,,,,,,,,,,,,,,,,,,,,,,,,,,,,,,,
,,,,,,,,,,stimuli/images/PICTURE_405.png,JUNGLE,5e2872fffcdb020467d12799,27/05/1946,2020-07-09_21h09.53.795,proactive,2020.1.2,Win32,60,5f073de81c76c3308c0e4fb3,5f07792229c3d8392991e20a,4,,,,,,anchor,,,,,,0,11,11,58,1,6,2,,,,,,,,,,,,,,,,,,,,,,,,,,,,,,,,,,,,,,,,,,,,,,,,,,,,,,,,,,,,,,,,,,,,,,,,,,,
,,,,,,,,,,stimuli/images/PICTURE_750.png,POLICY,5e2872fffcdb020467d12799,27/05/1946,2020-07-09_21h09.53.795,proactive,2020.1.2,Win32,60,5f073de81c76c3308c0e4fb3,5f07792229c3d8392991e20a,4,,,,,,kettle,,,,,,0,12,12,44,1,5,2,,,,,,,,,,,,,,,,,,,,,,,,,,,,,,,,,,,,,,,,,,,,,,,,,,,,,,,,,,,,,,,,,,,,,,,,,,,
,,,,,,,,,,stimuli/images/PICTURE_95.png,NIGHT,5e2872fffcdb020467d12799,27/05/1946,2020-07-09_21h09.53.795,proactive,2020.1.2,Win32,60,5f073de81c76c3308c0e4fb3,5f07792229c3d8392991e20a,4,,,,,,suitcase,,,,,,0,13,13,37,1,4,2,,,,,,,,,,,,,,,,,,,,,,,,,,,,,,,,,,,,,,,,,,,,,,,,,,,,,,,,,,,,,,,,,,,,,,,,,,,
,,,,,,,,,,stimuli/images/PICTURE_32.png,LETTER,5e2872fffcdb020467d12799,27/05/1946,2020-07-09_21h09.53.795,proactive,2020.1.2,Win32,60,5f073de81c76c3308c0e4fb3,5f07792229c3d8392991e20a,4,,,,,,crown,,,,,,0,14,14,56,1,6,2,,,,,,,,,,,,,,,,,,,,,,,,,,,,,,,,,,,,,,,,,,,,,,,,,,,,,,,,,,,,,,,,,,,,,,,,,,,
,,,,,,,,,,stimuli/images/PICTURE_296.png,CLOCK,5e2872fffcdb020467d12799,27/05/1946,2020-07-09_21h09.53.795,proactive,2020.1.2,Win32,60,5f073de81c76c3308c0e4fb3,5f07792229c3d8392991e20a,4,,,,,,bolt,,,,,,0,15,15,18,1,2,2,,,,,,,,,,,,,,,,,,,,,,,,,,,,,,,,,,,,,,,,,,,,,,,,,,,,,,,,,,,,,,,,,,,,,,,,,,,
,,,,,,,,,,stimuli/images/PICTURE_147.png,LEADER,5e2872fffcdb020467d12799,27/05/1946,2020-07-09_21h09.53.795,proactive,2020.1.2,Win32,60,5f073de81c76c3308c0e4fb3,5f07792229c3d8392991e20a,4,,,,,,hanger,,,,,,0,16,16,33,1,4,2,,,,,,,,,,,,,,,,,,,,,,,,,,,,,,,,,,,,,,,,,,,,,,,,,,,,,,,,,,,,,,,,,,,,,,,,,,,
,,,,,,,,,,stimuli/images/PICTURE_667.png,GLASS,5e2872fffcdb020467d12799,27/05/1946,2020-07-09_21h09.53.795,proactive,2020.1.2,Win32,60,5f073de81c76c3308c0e4fb3,5f07792229c3d8392991e20a,4,,,,,,daisy,,,,,,0,17,17,27,1,3,2,,,,,,,,,,,,,,,,,,,,,,,,,,,,,,,,,,,,,,,,,,,,,,,,,,,,,,,,,,,,,,,,,,,,,,,,,,,
,,,,,,,,,,stimuli/images/PICTURE_487.png,POLICY,5e2872fffcdb020467d12799,27/05/1946,2020-07-09_21h09.53.795,proactive,2020.1.2,Win32,60,5f073de81c76c3308c0e4fb3,5f07792229c3d8392991e20a,4,,,,,,basket,,,,,,0,18,18,34,1,4,2,,,,,,,,,,,,,,,,,,,,,,,,,,,,,,,,,,,,,,,,,,,,,,,,,,,,,,,,,,,,,,,,,,,,,,,,,,,
,,,,,,,,,,stimuli/images/PICTURE_356.png,CANDY,5e2872fffcdb020467d12799,27/05/1946,2020-07-09_21h09.53.795,proactive,2020.1.2,Win32,60,5f073de81c76c3308c0e4fb3,5f07792229c3d8392991e20a,4,,,,,,pawn,,,,,,0,19,19,46,1,5,2,,,,,,,,,,,,,,,,,,,,,,,,,,,,,,,,,,,,,,,,,,,,,,,,,,,,,,,,,,,,,,,,,,,,,,,,,,,
,,,,,,,,,,stimuli/images/PICTURE_708.png,VALLEY,5e2872fffcdb020467d12799,27/05/1946,2020-07-09_21h09.53.795,proactive,2020.1.2,Win32,60,5f073de81c76c3308c0e4fb3,5f07792229c3d8392991e20a,4,,,,,,monkey,,,,,,0,20,20,45,1,5,2,,,,,,,,,,,,,,,,,,,,,,,,,,,,,,,,,,,,,,,,,,,,,,,,,,,,,,,,,,,,,,,,,,,,,,,,,,,
,,,,,,,,,,stimuli/images/PICTURE_297.png,BODY,5e2872fffcdb020467d12799,27/05/1946,2020-07-09_21h09.53.795,proactive,2020.1.2,Win32,60,5f073de81c76c3308c0e4fb3,5f07792229c3d8392991e20a,4,,,,,,aeroplane,,,,,,0,21,21,51,1,6,2,,,,,,,,,,,,,,,,,,,,,,,,,,,,,,,,,,,,,,,,,,,,,,,,,,,,,,,,,,,,,,,,,,,,,,,,,,,
,,,,,,,,,,stimuli/images/PICTURE_311.png,TOILET,5e2872fffcdb020467d12799,27/05/1946,2020-07-09_21h09.53.795,proactive,2020.1.2,Win32,60,5f073de81c76c3308c0e4fb3,5f07792229c3d8392991e20a,4,,,,,,razor,,,,,,0,22,22,54,1,6,2,,,,,,,,,,,,,,,,,,,,,,,,,,,,,,,,,,,,,,,,,,,,,,,,,,,,,,,,,,,,,,,,,,,,,,,,,,,
,,,,,,,,,,stimuli/images/PICTURE_2.png,AREA,5e2872fffcdb020467d12799,27/05/1946,2020-07-09_21h09.53.795,proactive,2020.1.2,Win32,60,5f073de81c76c3308c0e4fb3,5f07792229c3d8392991e20a,4,,,,,,tyre,,,,,,0,23,23,32,1,4,2,,,,,,,,,,,,,,,,,,,,,,,,,,,,,,,,,,,,,,,,,,,,,,,,,,,,,,,,,,,,,,,,,,,,,,,,,,,
,,,,,,,,,,stimuli/images/PICTURE_215.png,LEADER,5e2872fffcdb020467d12799,27/05/1946,2020-07-09_21h09.53.795,proactive,2020.1.2,Win32,60,5f073de81c76c3308c0e4fb3,5f07792229c3d8392991e20a,4,,,,,,boot,,,,,,0,24,24,43,1,5,2,,,,,,,,,,,,,,,,,,,,,,,,,,,,,,,,,,,,,,,,,,,,,,,,,,,,,,,,,,,,,,,,,,,,,,,,,,,
,,,,,,,,,,stimuli/images/PICTURE_285.png,PRINCE,5e2872fffcdb020467d12799,27/05/1946,2020-07-09_21h09.53.795,proactive,2020.1.2,Win32,60,5f073de81c76c3308c0e4fb3,5f07792229c3d8392991e20a,4,,,,,,carrot,,,,,,0,25,25,20,1,3,2,,,,,,,,,,,,,,,,,,,,,,,,,,,,,,,,,,,,,,,,,,,,,,,,,,,,,,,,,,,,,,,,,,,,,,,,,,,
,,,,,,,,,,stimuli/images/PICTURE_491.png,SERIES,5e2872fffcdb020467d12799,27/05/1946,2020-07-09_21h09.53.795,proactive,2020.1.2,Win32,60,5f073de81c76c3308c0e4fb3,5f07792229c3d8392991e20a,4,,,,,,rug,,,,,,0,26,26,39,1,4,2,,,,,,,,,,,,,,,,,,,,,,,,,,,,,,,,,,,,,,,,,,,,,,,,,,,,,,,,,,,,,,,,,,,,,,,,,,,
,,,,,,,,,,stimuli/images/PICTURE_405.png,HOUSE,5e2872fffcdb020467d12799,27/05/1946,2020-07-09_21h09.53.795,proactive,2020.1.2,Win32,60,5f073de81c76c3308c0e4fb3,5f07792229c3d8392991e20a,4,,,,,,anchor,,,,,,0,27,27,2,1,1,2,,,,,,,,,,,,,,,,,,,,,,,,,,,,,,,,,,,,,,,,,,,,,,,,,,,,,,,,,,,,,,,,,,,,,,,,,,,
,,,,,,,,,,stimuli/images/PICTURE_509.png,MILLER,5e2872fffcdb020467d12799,27/05/1946,2020-07-09_21h09.53.795,proactive,2020.1.2,Win32,60,5f073de81c76c3308c0e4fb3,5f07792229c3d8392991e20a,4,,,,,,telephone,,,,,,0,28,28,49,1,5,2,,,,,,,,,,,,,,,,,,,,,,,,,,,,,,,,,,,,,,,,,,,,,,,,,,,,,,,,,,,,,,,,,,,,,,,,,,,
,,,,,,,,,,stimuli/images/PICTURE_141.png,CLIENT,5e2872fffcdb020467d12799,27/05/1946,2020-07-09_21h09.53.795,proactive,2020.1.2,Win32,60,5f073de81c76c3308c0e4fb3,5f07792229c3d8392991e20a,4,,,,,,sunflower,,,,,,0,29,29,30,1,4,2,,,,,,,,,,,,,,,,,,,,,,,,,,,,,,,,,,,,,,,,,,,,,,,,,,,,,,,,,,,,,,,,,,,,,,,,,,,
,,,,,,,,,,stimuli/images/PICTURE_18.png,RIVER,5e2872fffcdb020467d12799,27/05/1946,2020-07-09_21h09.53.795,proactive,2020.1.2,Win32,60,5f073de81c76c3308c0e4fb3,5f07792229c3d8392991e20a,4,,,,,,planet,,,,,,0,30,30,22,1,3,2,,,,,,,,,,,,,,,,,,,,,,,,,,,,,,,,,,,,,,,,,,,,,,,,,,,,,,,,,,,,,,,,,,,,,,,,,,,
,,,,,,,,,,stimuli/images/PICTURE_208.png,SPIRIT,5e2872fffcdb020467d12799,27/05/1946,2020-07-09_21h09.53.795,proactive,2020.1.2,Win32,60,5f073de81c76c3308c0e4fb3,5f07792229c3d8392991e20a,4,,,,,,microphone,,,,,,0,31,31,28,1,3,2,,,,,,,,,,,,,,,,,,,,,,,,,,,,,,,,,,,,,,,,,,,,,,,,,,,,,,,,,,,,,,,,,,,,,,,,,,,
,,,,,,,,,,stimuli/images/PICTURE_692.png,DUDE,5e2872fffcdb020467d12799,27/05/1946,2020-07-09_21h09.53.795,proactive,2020.1.2,Win32,60,5f073de81c76c3308c0e4fb3,5f07792229c3d8392991e20a,4,,,,,,cherry,,,,,,0,32,32,47,1,5,2,,,,,,,,,,,,,,,,,,,,,,,,,,,,,,,,,,,,,,,,,,,,,,,,,,,,,,,,,,,,,,,,,,,,,,,,,,,
,,,,,,,,,,stimuli/images/PICTURE_160.png,HOTEL,5e2872fffcdb020467d12799,27/05/1946,2020-07-09_21h09.53.795,proactive,2020.1.2,Win32,60,5f073de81c76c3308c0e4fb3,5f07792229c3d8392991e20a,4,,,,,,wheelbarrow,,,,,,0,33,33,16,1,2,2,,,,,,,,,,,,,,,,,,,,,,,,,,,,,,,,,,,,,,,,,,,,,,,,,,,,,,,,,,,,,,,,,,,,,,,,,,,
,,,,,,,,,,stimuli/images/PICTURE_215.png,BOYS,5e2872fffcdb020467d12799,27/05/1946,2020-07-09_21h09.53.795,proactive,2020.1.2,Win32,60,5f073de81c76c3308c0e4fb3,5f07792229c3d8392991e20a,4,,,,,,boot,,,,,,0,34,34,24,1,3,2,,,,,,,,,,,,,,,,,,,,,,,,,,,,,,,,,,,,,,,,,,,,,,,,,,,,,,,,,,,,,,,,,,,,,,,,,,,
,,,,,,,,,,stimuli/images/PICTURE_509.png,BATH,5e2872fffcdb020467d12799,27/05/1946,2020-07-09_21h09.53.795,proactive,2020.1.2,Win32,60,5f073de81c76c3308c0e4fb3,5f07792229c3d8392991e20a,4,,,,,,telephone,,,,,,0,35,35,15,1,2,2,,,,,,,,,,,,,,,,,,,,,,,,,,,,,,,,,,,,,,,,,,,,,,,,,,,,,,,,,,,,,,,,,,,,,,,,,,,
,,,,,,,,,,stimuli/images/PICTURE_311.png,FLESH,5e2872fffcdb020467d12799,27/05/1946,2020-07-09_21h09.53.795,proactive,2020.1.2,Win32,60,5f073de81c76c3308c0e4fb3,5f07792229c3d8392991e20a,4,,,,,,razor,,,,,,0,36,36,3,1,1,2,,,,,,,,,,,,,,,,,,,,,,,,,,,,,,,,,,,,,,,,,,,,,,,,,,,,,,,,,,,,,,,,,,,,,,,,,,,
,,,,,,,,,,stimuli/images/PICTURE_509.png,SHOTS,5e2872fffcdb020467d12799,27/05/1946,2020-07-09_21h09.53.795,proactive,2020.1.2,Win32,60,5f073de81c76c3308c0e4fb3,5f07792229c3d8392991e20a,4,,,,,,telephone,,,,,,0,37,37,7,1,1,2,,,,,,,,,,,,,,,,,,,,,,,,,,,,,,,,,,,,,,,,,,,,,,,,,,,,,,,,,,,,,,,,,,,,,,,,,,,
,,,,,,,,,,stimuli/images/PICTURE_2.png,YARD,5e2872fffcdb020467d12799,27/05/1946,2020-07-09_21h09.53.795,proactive,2020.1.2,Win32,60,5f073de81c76c3308c0e4fb3,5f07792229c3d8392991e20a,4,,,,,,tyre,,,,,,0,38,38,55,1,6,2,,,,,,,,,,,,,,,,,,,,,,,,,,,,,,,,,,,,,,,,,,,,,,,,,,,,,,,,,,,,,,,,,,,,,,,,,,,
,,,,,,,,,,stimuli/images/PICTURE_487.png,ROOF,5e2872fffcdb020467d12799,27/05/1946,2020-07-09_21h09.53.795,proactive,2020.1.2,Win32,60,5f073de81c76c3308c0e4fb3,5f07792229c3d8392991e20a,4,,,,,,basket,,,,,,0,39,39,50,1,6,2,,,,,,,,,,,,,,,,,,,,,,,,,,,,,,,,,,,,,,,,,,,,,,,,,,,,,,,,,,,,,,,,,,,,,,,,,,,
,,,,,,,,,,stimuli/images/PICTURE_327.png,LEADER,5e2872fffcdb020467d12799,27/05/1946,2020-07-09_21h09.53.795,proactive,2020.1.2,Win32,60,5f073de81c76c3308c0e4fb3,5f07792229c3d8392991e20a,4,,,,,,helmet,,,,,,0,40,40,17,1,2,2,,,,,,,,,,,,,,,,,,,,,,,,,,,,,,,,,,,,,,,,,,,,,,,,,,,,,,,,,,,,,,,,,,,,,,,,,,,
,,,,,,,,,,stimuli/images/PICTURE_348.png,DUDE,5e2872fffcdb020467d12799,27/05/1946,2020-07-09_21h09.53.795,proactive,2020.1.2,Win32,60,5f073de81c76c3308c0e4fb3,5f07792229c3d8392991e20a,4,,,,,,pepper,,,,,,0,41,41,59,1,6,2,,,,,,,,,,,,,,,,,,,,,,,,,,,,,,,,,,,,,,,,,,,,,,,,,,,,,,,,,,,,,,,,,,,,,,,,,,,
,,,,,,,,,,stimuli/images/PICTURE_470.png,MOMENT,5e2872fffcdb020467d12799,27/05/1946,2020-07-09_21h09.53.795,proactive,2020.1.2,Win32,60,5f073de81c76c3308c0e4fb3,5f07792229c3d8392991e20a,4,,,,,,motorbike,,,,,,0,42,42,40,1,5,2,,,,,,,,,,,,,,,,,,,,,,,,,,,,,,,,,,,,,,,,,,,,,,,,,,,,,,,,,,,,,,,,,,,,,,,,,,,
,,,,,,,,,,stimuli/images/PICTURE_348.png,TOILET,5e2872fffcdb020467d12799,27/05/1946,2020-07-09_21h09.53.795,proactive,2020.1.2,Win32,60,5f073de81c76c3308c0e4fb3,5f07792229c3d8392991e20a,4,,,,,,pepper,,,,,,0,43,43,4,1,1,2,,,,,,,,,,,,,,,,,,,,,,,,,,,,,,,,,,,,,,,,,,,,,,,,,,,,,,,,,,,,,,,,,,,,,,,,,,,
,,,,,,,,,,stimuli/images/PICTURE_285.png,WRITER,5e2872fffcdb020467d12799,27/05/1946,2020-07-09_21h09.53.795,proactive,2020.1.2,Win32,60,5f073de81c76c3308c0e4fb3,5f07792229c3d8392991e20a,4,,,,,,carrot,,,,,,0,44,44,6,1,1,2,,,,,,,,,,,,,,,,,,,,,,,,,,,,,,,,,,,,,,,,,,,,,,,,,,,,,,,,,,,,,,,,,,,,,,,,,,,
,,,,,,,,,,stimuli/images/PICTURE_93.png,GIRL,5e2872fffcdb020467d12799,27/05/1946,2020-07-09_21h09.53.795,proactive,2020.1.2,Win32,60,5f073de81c76c3308c0e4fb3,5f07792229c3d8392991e20a,4,,,,,,skateboard,,,,,,0,45,45,31,1,4,2,,,,,,,,,,,,,,,,,,,,,,,,,,,,,,,,,,,,,,,,,,,,,,,,,,,,,,,,,,,,,,,,,,,,,,,,,,,
,,,,,,,,,,stimuli/images/PICTURE_68.png,KIND,5e2872fffcdb020467d12799,27/05/1946,2020-07-09_21h09.53.795,proactive,2020.1.2,Win32,60,5f073de81c76c3308c0e4fb3,5f07792229c3d8392991e20a,4,,,,,,candle,,,,,,0,46,46,23,1,3,2,,,,,,,,,,,,,,,,,,,,,,,,,,,,,,,,,,,,,,,,,,,,,,,,,,,,,,,,,,,,,,,,,,,,,,,,,,,
,,,,,,,,,,stimuli/images/PICTURE_57.png,NATION,5e2872fffcdb020467d12799,27/05/1946,2020-07-09_21h09.53.795,proactive,2020.1.2,Win32,60,5f073de81c76c3308c0e4fb3,5f07792229c3d8392991e20a,4,,,,,,stamp,,,,,,0,47,47,21,1,3,2,,,,,,,,,,,,,,,,,,,,,,,,,,,,,,,,,,,,,,,,,,,,,,,,,,,,,,,,,,,,,,,,,,,,,,,,,,,
,,,,,,,,,,stimuli/images/PICTURE_2.png,JUNGLE,5e2872fffcdb020467d12799,27/05/1946,2020-07-09_21h09.53.795,proactive,2020.1.2,Win32,60,5f073de81c76c3308c0e4fb3,5f07792229c3d8392991e20a,4,,,,,,tyre,,,,,,0,48,48,1,1,1,2,,,,,,,,,,,,,,,,,,,,,,,,,,,,,,,,,,,,,,,,,,,,,,,,,,,,,,,,,,,,,,,,,,,,,,,,,,,
,,,,,,,,,,stimuli/images/PICTURE_470.png,BEAUTY,5e2872fffcdb020467d12799,27/05/1946,2020-07-09_21h09.53.795,proactive,2020.1.2,Win32,60,5f073de81c76c3308c0e4fb3,5f07792229c3d8392991e20a,4,,,,,,motorbike,,,,,,0,49,49,26,1,3,2,,,,,,,,,,,,,,,,,,,,,,,,,,,,,,,,,,,,,,,,,,,,,,,,,,,,,,,,,,,,,,,,,,,,,,,,,,,
,,,,,,,,,,stimuli/images/PICTURE_564.png,PLENTY,5e2872fffcdb020467d12799,27/05/1946,2020-07-09_21h09.53.795,proactive,2020.1.2,Win32,60,5f073de81c76c3308c0e4fb3,5f07792229c3d8392991e20a,4,,,,,,spoon,,,,,,0,50,50,11,1,2,2,,,,,,,,,,,,,,,,,,,,,,,,,,,,,,,,,,,,,,,,,,,,,,,,,,,,,,,,,,,,,,,,,,,,,,,,,,,
,,,,,,,,,,stimuli/images/PICTURE_504.png,HOUSE,5e2872fffcdb020467d12799,27/05/1946,2020-07-09_21h09.53.795,proactive,2020.1.2,Win32,60,5f073de81c76c3308c0e4fb3,5f07792229c3d8392991e20a,4,,,,,,wheel,,,,,,0,51,51,36,1,4,2,,,,,,,,,,,,,,,,,,,,,,,,,,,,,,,,,,,,,,,,,,,,,,,,,,,,,,,,,,,,,,,,,,,,,,,,,,,
,,,,,,,,,,stimuli/images/PICTURE_215.png,FOOD,5e2872fffcdb020467d12799,27/05/1946,2020-07-09_21h09.53.795,proactive,2020.1.2,Win32,60,5f073de81c76c3308c0e4fb3,5f07792229c3d8392991e20a,4,,,,,,boot,,,,,,0,52,52,5,1,1,2,,,,,,,,,,,,,,,,,,,,,,,,,,,,,,,,,,,,,,,,,,,,,,,,,,,,,,,,,,,,,,,,,,,,,,,,,,,
,,,,,,,,,,stimuli/images/PICTURE_314.png,SPEECH,5e2872fffcdb020467d12799,27/05/1946,2020-07-09_21h09.53.795,proactive,2020.1.2,Win32,60,5f073de81c76c3308c0e4fb3,5f07792229c3d8392991e20a,4,,,,,,perfume,,,,,,0,53,53,35,1,4,2,,,,,,,,,,,,,,,,,,,,,,,,,,,,,,,,,,,,,,,,,,,,,,,,,,,,,,,,,,,,,,,,,,,,,,,,,,,
,,,,,,,,,,stimuli/images/PICTURE_509.png,APPLE,5e2872fffcdb020467d12799,27/05/1946,2020-07-09_21h09.53.795,proactive,2020.1.2,Win32,60,5f073de81c76c3308c0e4fb3,5f07792229c3d8392991e20a,4,,,,,,telephone,,,,,,0,54,54,38,1,4,2,,,,,,,,,,,,,,,,,,,,,,,,,,,,,,,,,,,,,,,,,,,,,,,,,,,,,,,,,,,,,,,,,,,,,,,,,,,
,,,,,,,,,,stimuli/images/PICTURE_655.png,SALE,5e2872fffcdb020467d12799,27/05/1946,2020-07-09_21h09.53.795,proactive,2020.1.2,Win32,60,5f073de81c76c3308c0e4fb3,5f07792229c3d8392991e20a,4,,,,,,megaphone,,,,,,0,55,55,57,1,6,2,,,,,,,,,,,,,,,,,,,,,,,,,,,,,,,,,,,,,,,,,,,,,,,,,,,,,,,,,,,,,,,,,,,,,,,,,,,
,,,,,,,,,,stimuli/images/PICTURE_453.png,FAMILY,5e2872fffcdb020467d12799,27/05/1946,2020-07-09_21h09.53.795,proactive,2020.1.2,Win32,60,5f073de81c76c3308c0e4fb3,5f07792229c3d8392991e20a,4,,,,,,scissors,,,,,,0,56,56,48,1,5,2,,,,,,,,,,,,,,,,,,,,,,,,,,,,,,,,,,,,,,,,,,,,,,,,,,,,,,,,,,,,,,,,,,,,,,,,,,,
,,,,,,,,,,stimuli/images/PICTURE_33.png,COPS,5e2872fffcdb020467d12799,27/05/1946,2020-07-09_21h09.53.795,proactive,2020.1.2,Win32,60,5f073de81c76c3308c0e4fb3,5f07792229c3d8392991e20a,4,,,,,,frame,,,,,,0,57,57,29,1,3,2,,,,,,,,,,,,,,,,,,,,,,,,,,,,,,,,,,,,,,,,,,,,,,,,,,,,,,,,,,,,,,,,,,,,,,,,,,,
,,,,,,,,,,stimuli/images/PICTURE_654.png,YEAR,5e2872fffcdb020467d12799,27/05/1946,2020-07-09_21h09.53.795,proactive,2020.1.2,Win32,60,5f073de81c76c3308c0e4fb3,5f07792229c3d8392991e20a,4,,,,,,pencil,,,,,,0,58,58,41,1,5,2,,,,,,,,,,,,,,,,,,,,,,,,,,,,,,,,,,,,,,,,,,,,,,,,,,,,,,,,,,,,,,,,,,,,,,,,,,,
,,?,0.00107,0,,,,,,stimuli/images/PICTURE_57.png,CASINO,5e2872fffcdb020467d12799,27/05/1946,2020-07-09_21h09.53.795,proactive,2020.1.2,Win32,60,5f073de81c76c3308c0e4fb3,5f07792229c3d8392991e20a,4,,,,,,stamp,,,,,,,,,,,2,2,0,0,0,12,1,,,,,,,,,,,,,,,,,,,,,,,,,,,,,,,,,,,,,,,,,,,,,,,,,,,,,,,,,,,,,,,,,,,,,,
,,?,0.000825,0,,,,,,stimuli/images/PICTURE_285.png,WRITER,5e2872fffcdb020467d12799,27/05/1946,2020-07-09_21h09.53.795,proactive,2020.1.2,Win32,60,5f073de81c76c3308c0e4fb3,5f07792229c3d8392991e20a,4,,,,,,carrot,,,,,,,,,,,1,2,0,1,1,6,1,,,,,,,,,,,,,,,,,,,,,,,,,,,,,,,,,,,,,,,,,,,,,,,,,,,,,,,,,,,,,,,,,,,,,,
,,?,0.00094,0,,,,,,stimuli/images/PICTURE_470.png,BEAUTY,5e2872fffcdb020467d12799,27/05/1946,2020-07-09_21h09.53.795,proactive,2020.1.2,Win32,60,5f073de81c76c3308c0e4fb3,5f07792229c3d8392991e20a,4,,,,,,motorbike,,,,,,,,,,,3,2,0,2,2,26,1,,,,,,,,,,,,,,,,,,,,,,,,,,,,,,,,,,,,,,,,,,,,,,,,,,,,,,,,,,,,,,,,,,,,,,
,,?,0.001695,0,,,,,,stimuli/images/PICTURE_2.png,YARD,5e2872fffcdb020467d12799,27/05/1946,2020-07-09_21h09.53.795,proactive,2020.1.2,Win32,60,5f073de81c76c3308c0e4fb3,5f07792229c3d8392991e20a,4,,,,,,tyre,,,,,,,,,,,6,2,0,3,3,55,1,,,,,,,,,,,,,,,,,,,,,,,,,,,,,,,,,,,,,,,,,,,,,,,,,,,,,,,,,,,,,,,,,,,,,,
,,?,0.001025,0,,,,,,stimuli/images/PICTURE_123.png,SALE,5e2872fffcdb020467d12799,27/05/1946,2020-07-09_21h09.53.795,proactive,2020.1.2,Win32,60,5f073de81c76c3308c0e4fb3,5f07792229c3d8392991e20a,4,,,,,,dart,,,,,,,,,,,1,2,0,4,4,8,1,,,,,,,,,,,,,,,,,,,,,,,,,,,,,,,,,,,,,,,,,,,,,,,,,,,,,,,,,,,,,,,,,,,,,,
,,?,15.010815,0,,,,,,stimuli/images/PICTURE_141.png,CLIENT,5e2872fffcdb020467d12799,27/05/1946,2020-07-09_21h09.53.795,proactive,2020.1.2,Win32,60,5f073de81c76c3308c0e4fb3,5f07792229c3d8392991e20a,4,,,,,,sunflower,,,,,,,,,,,4,2,0,5,5,30,1,,,,,,,,,,,,,,,,,,,,,,,,,,,,,,,,,,,,,,,,,,,,,,,,,,,,,,,,,,,,,,,,,,,,,,
,,?,0.000905,0,,,,,,stimuli/images/PICTURE_688.png,CLOCK,5e2872fffcdb020467d12799,27/05/1946,2020-07-09_21h09.53.795,proactive,2020.1.2,Win32,60,5f073de81c76c3308c0e4fb3,5f07792229c3d8392991e20a,4,,,,,,runner,,,,,,,,,,,5,2,0,6,6,42,1,,,,,,,,,,,,,,,,,,,,,,,,,,,,,,,,,,,,,,,,,,,,,,,,,,,,,,,,,,,,,,,,,,,,,,
,,?,0.002985,0,,,,,,stimuli/images/PICTURE_509.png,MILLER,5e2872fffcdb020467d12799,27/05/1946,2020-07-09_21h09.53.795,proactive,2020.1.2,Win32,60,5f073de81c76c3308c0e4fb3,5f07792229c3d8392991e20a,4,,,,,,telephone,,,,,,,,,,,5,2,0,7,7,49,1,,,,,,,,,,,,,,,,,,,,,,,,,,,,,,,,,,,,,,,,,,,,,,,,,,,,,,,,,,,,,,,,,,,,,,
,,?,0.00076,0,,,,,,stimuli/images/PICTURE_356.png,CANDY,5e2872fffcdb020467d12799,27/05/1946,2020-07-09_21h09.53.795,proactive,2020.1.2,Win32,60,5f073de81c76c3308c0e4fb3,5f07792229c3d8392991e20a,4,,,,,,pawn,,,,,,,,,,,5,2,0,8,8,46,1,,,,,,,,,,,,,,,,,,,,,,,,,,,,,,,,,,,,,,,,,,,,,,,,,,,,,,,,,,,,,,,,,,,,,,
,,?,0.000815,0,,,,,,stimuli/images/PICTURE_177.png,HOUSE,5e2872fffcdb020467d12799,27/05/1946,2020-07-09_21h09.53.795,proactive,2020.1.2,Win32,60,5f073de81c76c3308c0e4fb3,5f07792229c3d8392991e20a,4,,,,,,mushroom,,,,,,,,,,,3,2,0,9,9,25,1,,,,,,,,,,,,,,,,,,,,,,,,,,,,,,,,,,,,,,,,,,,,,,,,,,,,,,,,,,,,,,,,,,,,,,
,,N,15.00147,0,,,,,,stimuli/images/PICTURE_314.png,SPEECH,5e2872fffcdb020467d12799,27/05/1946,2020-07-09_21h09.53.795,proactive,2020.1.2,Win32,60,5f073de81c76c3308c0e4fb3,5f07792229c3d8392991e20a,4,,,,,,perfume,,,,,,,,,,,4,2,0,10,10,35,1,,,,,,,,,,,,,,,,,,,,,,,,,,,,,,,,,,,,,,,,,,,,,,,,,,,,,,,,,,,,,,,,,,,,,,
,,?,0.00107,0,,,,,,stimuli/images/PICTURE_677.png,PHOTO,5e2872fffcdb020467d12799,27/05/1946,2020-07-09_21h09.53.795,proactive,2020.1.2,Win32,60,5f073de81c76c3308c0e4fb3,5f07792229c3d8392991e20a,4,,,,,,map,,,,,,,,,,,2,2,0,11,11,14,1,,,,,,,,,,,,,,,,,,,,,,,,,,,,,,,,,,,,,,,,,,,,,,,,,,,,,,,,,,,,,,,,,,,,,,
,,NY,15.0102,0,,,,,,stimuli/images/PICTURE_147.png,LEADER,5e2872fffcdb020467d12799,27/05/1946,2020-07-09_21h09.53.795,proactive,2020.1.2,Win32,60,5f073de81c76c3308c0e4fb3,5f07792229c3d8392991e20a,4,,,,,,hanger,,,,,,,,,,,4,2,0,12,12,33,1,,,,,,,,,,,,,,,,,,,,,,,,,,,,,,,,,,,,,,,,,,,,,,,,,,,,,,,,,,,,,,,,,,,,,,
,,?,0.00096,0,,,,,,stimuli/images/PICTURE_667.png,GLASS,5e2872fffcdb020467d12799,27/05/1946,2020-07-09_21h09.53.795,proactive,2020.1.2,Win32,60,5f073de81c76c3308c0e4fb3,5f07792229c3d8392991e20a,4,,,,,,daisy,,,,,,,,,,,3,2,0,13,13,27,1,,,,,,,,,,,,,,,,,,,,,,,,,,,,,,,,,,,,,,,,,,,,,,,,,,,,,,,,,,,,,,,,,,,,,,
,,?,0.00074,0,,,,,,stimuli/images/PICTURE_348.png,DUDE,5e2872fffcdb020467d12799,27/05/1946,2020-07-09_21h09.53.795,proactive,2020.1.2,Win32,60,5f073de81c76c3308c0e4fb3,5f07792229c3d8392991e20a,4,,,,,,pepper,,,,,,,,,,,6,2,0,14,14,59,1,,,,,,,,,,,,,,,,,,,,,,,,,,,,,,,,,,,,,,,,,,,,,,,,,,,,,,,,,,,,,,,,,,,,,,
,,?,0.00082,0,,,,,,stimuli/images/PICTURE_215.png,LEADER,5e2872fffcdb020467d12799,27/05/1946,2020-07-09_21h09.53.795,proactive,2020.1.2,Win32,60,5f073de81c76c3308c0e4fb3,5f07792229c3d8392991e20a,4,,,,,,boot,,,,,,,,,,,5,2,0,15,15,43,1,,,,,,,,,,,,,,,,,,,,,,,,,,,,,,,,,,,,,,,,,,,,,,,,,,,,,,,,,,,,,,,,,,,,,,
,,?,0.000755,0,,,,,,stimuli/images/PICTURE_311.png,FLESH,5e2872fffcdb020467d12799,27/05/1946,2020-07-09_21h09.53.795,proactive,2020.1.2,Win32,60,5f073de81c76c3308c0e4fb3,5f07792229c3d8392991e20a,4,,,,,,razor,,,,,,,,,,,1,2,0,16,16,3,1,,,,,,,,,,,,,,,,,,,,,,,,,,,,,,,,,,,,,,,,,,,,,,,,,,,,,,,,,,,,,,,,,,,,,,
,,?,0.000715,0,,,,,,stimuli/images/PICTURE_654.png,YEAR,5e2872fffcdb020467d12799,27/05/1946,2020-07-09_21h09.53.795,proactive,2020.1.2,Win32,60,5f073de81c76c3308c0e4fb3,5f07792229c3d8392991e20a,4,,,,,,pencil,,,,,,,,,,,5,2,0,17,17,41,1,,,,,,,,,,,,,,,,,,,,,,,,,,,,,,,,,,,,,,,,,,,,,,,,,,,,,,,,,,,,,,,,,,,,,,
,,?,0.00072,0,,,,,,stimuli/images/PICTURE_405.png,JUNGLE,5e2872fffcdb020467d12799,27/05/1946,2020-07-09_21h09.53.795,proactive,2020.1.2,Win32,60,5f073de81c76c3308c0e4fb3,5f07792229c3d8392991e20a,4,,,,,,anchor,,,,,,,,,,,6,2,0,18,18,58,1,,,,,,,,,,,,,,,,,,,,,,,,,,,,,,,,,,,,,,,,,,,,,,,,,,,,,,,,,,,,,,,,,,,,,,
,,?,0.000995,0,,,,,,stimuli/images/PICTURE_750.png,POLICY,5e2872fffcdb020467d12799,27/05/1946,2020-07-09_21h09.53.795,proactive,2020.1.2,Win32,60,5f073de81c76c3308c0e4fb3,5f07792229c3d8392991e20a,4,,,,,,kettle,,,,,,,,,,,5,2,0,19,19,44,1,,,,,,,,,,,,,,,,,,,,,,,,,,,,,,,,,,,,,,,,,,,,,,,,,,,,,,,,,,,,,,,,,,,,,,
,,?,0.000735,0,,,,,,stimuli/images/PICTURE_327.png,LEADER,5e2872fffcdb020467d12799,27/05/1946,2020-07-09_21h09.53.795,proactive,2020.1.2,Win32,60,5f073de81c76c3308c0e4fb3,5f07792229c3d8392991e20a,4,,,,,,helmet,,,,,,,,,,,2,2,0,20,20,17,1,,,,,,,,,,,,,,,,,,,,,,,,,,,,,,,,,,,,,,,,,,,,,,,,,,,,,,,,,,,,,,,,,,,,,,
,,?,0.000865,0,,,,,,stimuli/images/PICTURE_215.png,FOOD,5e2872fffcdb020467d12799,27/05/1946,2020-07-09_21h09.53.795,proactive,2020.1.2,Win32,60,5f073de81c76c3308c0e4fb3,5f07792229c3d8392991e20a,4,,,,,,boot,,,,,,,,,,,1,2,0,21,21,5,1,,,,,,,,,,,,,,,,,,,,,,,,,,,,,,,,,,,,,,,,,,,,,,,,,,,,,,,,,,,,,,,,,,,,,,
,,?,0.00077,0,,,,,,stimuli/images/PICTURE_453.png,FAMILY,5e2872fffcdb020467d12799,27/05/1946,2020-07-09_21h09.53.795,proactive,2020.1.2,Win32,60,5f073de81c76c3308c0e4fb3,5f07792229c3d8392991e20a,4,,,,,,scissors,,,,,,,,,,,5,2,0,22,22,48,1,,,,,,,,,,,,,,,,,,,,,,,,,,,,,,,,,,,,,,,,,,,,,,,,,,,,,,,,,,,,,,,,,,,,,,
,,N,15.00914,0,,,,,,stimuli/images/PICTURE_2.png,AREA,5e2872fffcdb020467d12799,27/05/1946,2020-07-09_21h09.53.795,proactive,2020.1.2,Win32,60,5f073de81c76c3308c0e4fb3,5f07792229c3d8392991e20a,4,,,,,,tyre,,,,,,,,,,,4,2,0,23,23,32,1,,,,,,,,,,,,,,,,,,,,,,,,,,,,,,,,,,,,,,,,,,,,,,,,,,,,,,,,,,,,,,,,,,,,,,
,,?,0.00096,0,,,,,,stimuli/images/PICTURE_655.png,SALE,5e2872fffcdb020467d12799,27/05/1946,2020-07-09_21h09.53.795,proactive,2020.1.2,Win32,60,5f073de81c76c3308c0e4fb3,5f07792229c3d8392991e20a,4,,,,,,megaphone,,,,,,,,,,,6,2,0,24,24,57,1,,,,,,,,,,,,,,,,,,,,,,,,,,,,,,,,,,,,,,,,,,,,,,,,,,,,,,,,,,,,,,,,,,,,,,
,,?,0.000765,0,,,,,,stimuli/images/PICTURE_285.png,PRINCE,5e2872fffcdb020467d12799,27/05/1946,2020-07-09_21h09.53.795,proactive,2020.1.2,Win32,60,5f073de81c76c3308c0e4fb3,5f07792229c3d8392991e20a,4,,,,,,carrot,,,,,,,,,,,3,2,0,25,25,20,1,,,,,,,,,,,,,,,,,,,,,,,,,,,,,,,,,,,,,,,,,,,,,,,,,,,,,,,,,,,,,,,,,,,,,,
,,?,0.00075,0,,,,,,stimuli/images/PICTURE_296.png,CLOCK,5e2872fffcdb020467d12799,27/05/1946,2020-07-09_21h09.53.795,proactive,2020.1.2,Win32,60,5f073de81c76c3308c0e4fb3,5f07792229c3d8392991e20a,4,,,,,,bolt,,,,,,,,,,,2,2,0,26,26,18,1,,,,,,,,,,,,,,,,,,,,,,,,,,,,,,,,,,,,,,,,,,,,,,,,,,,,,,,,,,,,,,,,,,,,,,
,,?,0.00073,0,,,,,,stimuli/images/PICTURE_487.png,ROOF,5e2872fffcdb020467d12799,27/05/1946,2020-07-09_21h09.53.795,proactive,2020.1.2,Win32,60,5f073de81c76c3308c0e4fb3,5f07792229c3d8392991e20a,4,,,,,,basket,,,,,,,,,,,6,2,0,27,27,50,1,,,,,,,,,,,,,,,,,,,,,,,,,,,,,,,,,,,,,,,,,,,,,,,,,,,,,,,,,,,,,,,,,,,,,,
,,?,0.00074,0,,,,,,stimuli/images/PICTURE_215.png,BOYS,5e2872fffcdb020467d12799,27/05/1946,2020-07-09_21h09.53.795,proactive,2020.1.2,Win32,60,5f073de81c76c3308c0e4fb3,5f07792229c3d8392991e20a,4,,,,,,boot,,,,,,,,,,,3,2,0,28,28,24,1,,,,,,,,,,,,,,,,,,,,,,,,,,,,,,,,,,,,,,,,,,,,,,,,,,,,,,,,,,,,,,,,,,,,,,
,,?,0.00074,0,,,,,,stimuli/images/PICTURE_708.png,VALLEY,5e2872fffcdb020467d12799,27/05/1946,2020-07-09_21h09.53.795,proactive,2020.1.2,Win32,60,5f073de81c76c3308c0e4fb3,5f07792229c3d8392991e20a,4,,,,,,monkey,,,,,,,,,,,5,2,0,29,29,45,1,,,,,,,,,,,,,,,,,,,,,,,,,,,,,,,,,,,,,,,,,,,,,,,,,,,,,,,,,,,,,,,,,,,,,,
,,?,0.000715,0,,,,,,stimuli/images/PICTURE_452.png,COPS,5e2872fffcdb020467d12799,27/05/1946,2020-07-09_21h09.53.795,proactive,2020.1.2,Win32,60,5f073de81c76c3308c0e4fb3,5f07792229c3d8392991e20a,4,,,,,,watch,,,,,,,,,,,1,2,0,30,30,0,1,,,,,,,,,,,,,,,,,,,,,,,,,,,,,,,,,,,,,,,,,,,,,,,,,,,,,,,,,,,,,,,,,,,,,,
,,Y,15.01635,0,,,,,,stimuli/images/PICTURE_487.png,POLICY,5e2872fffcdb020467d12799,27/05/1946,2020-07-09_21h09.53.795,proactive,2020.1.2,Win32,60,5f073de81c76c3308c0e4fb3,5f07792229c3d8392991e20a,4,,,,,,basket,,,,,,,,,,,4,2,0,31,31,34,1,,,,,,,,,,,,,,,,,,,,,,,,,,,,,,,,,,,,,,,,,,,,,,,,,,,,,,,,,,,,,,,,,,,,,,
,,?,0.000925,0,,,,,,stimuli/images/PICTURE_509.png,BATH,5e2872fffcdb020467d12799,27/05/1946,2020-07-09_21h09.53.795,proactive,2020.1.2,Win32,60,5f073de81c76c3308c0e4fb3,5f07792229c3d8392991e20a,4,,,,,,telephone,,,,,,,,,,,2,2,0,32,32,15,1,,,,,,,,,,,,,,,,,,,,,,,,,,,,,,,,,,,,,,,,,,,,,,,,,,,,,,,,,,,,,,,,,,,,,,
,,?,0.00077,0,,,,,,stimuli/images/PICTURE_405.png,JUNGLE,5e2872fffcdb020467d12799,27/05/1946,2020-07-09_21h09.53.795,proactive,2020.1.2,Win32,60,5f073de81c76c3308c0e4fb3,5f07792229c3d8392991e20a,4,,,,,,anchor,,,,,,,,,,,2,2,0,33,33,13,1,,,,,,,,,,,,,,,,,,,,,,,,,,,,,,,,,,,,,,,,,,,,,,,,,,,,,,,,,,,,,,,,,,,,,,
,,?,0.00078,0,,,,,,stimuli/images/PICTURE_208.png,SPIRIT,5e2872fffcdb020467d12799,27/05/1946,2020-07-09_21h09.53.795,proactive,2020.1.2,Win32,60,5f073de81c76c3308c0e4fb3,5f07792229c3d8392991e20a,4,,,,,,microphone,,,,,,,,,,,3,2,0,34,34,28,1,,,,,,,,,,,,,,,,,,,,,,,,,,,,,,,,,,,,,,,,,,,,,,,,,,,,,,,,,,,,,,,,,,,,,,
,,?,0.00071,0,,,,,,stimuli/images/PICTURE_297.png,BODY,5e2872fffcdb020467d12799,27/05/1946,2020-07-09_21h09.53.795,proactive,2020.1.2,Win32,60,5f073de81c76c3308c0e4fb3,5f07792229c3d8392991e20a,4,,,,,,aeroplane,,,,,,,,,,,6,2,0,35,35,51,1,,,,,,,,,,,,,,,,,,,,,,,,,,,,,,,,,,,,,,,,,,,,,,,,,,,,,,,,,,,,,,,,,,,,,,
,,?,0.001075,0,,,,,,stimuli/images/PICTURE_2.png,JUNGLE,5e2872fffcdb020467d12799,27/05/1946,2020-07-09_21h09.53.795,proactive,2020.1.2,Win32,60,5f073de81c76c3308c0e4fb3,5f07792229c3d8392991e20a,4,,,,,,tyre,,,,,,,,,,,1,2,0,36,36,1,1,,,,,,,,,,,,,,,,,,,,,,,,,,,,,,,,,,,,,,,,,,,,,,,,,,,,,,,,,,,,,,,,,,,,,,
,,Y,15.01548,0,,,,,,stimuli/images/PICTURE_509.png,APPLE,5e2872fffcdb020467d12799,27/05/1946,2020-07-09_21h09.53.795,proactive,2020.1.2,Win32,60,5f073de81c76c3308c0e4fb3,5f07792229c3d8392991e20a,4,,,,,,telephone,,,,,,,,,,,4,2,0,37,37,38,1,,,,,,,,,,,,,,,,,,,,,,,,,,,,,,,,,,,,,,,,,,,,,,,,,,,,,,,,,,,,,,,,,,,,,,
,,?,0.001175,0,,,,,,stimuli/images/PICTURE_32.png,LETTER,5e2872fffcdb020467d12799,27/05/1946,2020-07-09_21h09.53.795,proactive,2020.1.2,Win32,60,5f073de81c76c3308c0e4fb3,5f07792229c3d8392991e20a,4,,,,,,crown,,,,,,,,,,,6,2,0,38,38,56,1,,,,,,,,,,,,,,,,,,,,,,,,,,,,,,,,,,,,,,,,,,,,,,,,,,,,,,,,,,,,,,,,,,,,,,
,,?,0.00098,0,,,,,,stimuli/images/PICTURE_57.png,NATION,5e2872fffcdb020467d12799,27/05/1946,2020-07-09_21h09.53.795,proactive,2020.1.2,Win32,60,5f073de81c76c3308c0e4fb3,5f07792229c3d8392991e20a,4,,,,,,stamp,,,,,,,,,,,3,2,0,39,39,21,1,,,,,,,,,,,,,,,,,,,,,,,,,,,,,,,,,,,,,,,,,,,,,,,,,,,,,,,,,,,,,,,,,,,,,,
,,?,0.001095,0,,,,,,stimuli/images/PICTURE_348.png,TOILET,5e2872fffcdb020467d12799,27/05/1946,2020-07-09_21h09.53.795,proactive,2020.1.2,Win32,60,5f073de81c76c3308c0e4fb3,5f07792229c3d8392991e20a,4,,,,,,pepper,,,,,,,,,,,1,2,0,40,40,4,1,,,,,,,,,,,,,,,,,,,,,,,,,,,,,,,,,,,,,,,,,,,,,,,,,,,,,,,,,,,,,,,,,,,,,,
,,?,0.00094,0,,,,,,stimuli/images/PICTURE_68.png,KIND,5e2872fffcdb020467d12799,27/05/1946,2020-07-09_21h09.53.795,proactive,2020.1.2,Win32,60,5f073de81c76c3308c0e4fb3,5f07792229c3d8392991e20a,4,,,,,,candle,,,,,,,,,,,3,2,0,41,41,23,1,,,,,,,,,,,,,,,,,,,,,,,,,,,,,,,,,,,,,,,,,,,,,,,,,,,,,,,,,,,,,,,,,,,,,,
,,?,0.000905,0,,,,,,stimuli/images/PICTURE_160.png,HOTEL,5e2872fffcdb020467d12799,27/05/1946,2020-07-09_21h09.53.795,proactive,2020.1.2,Win32,60,5f073de81c76c3308c0e4fb3,5f07792229c3d8392991e20a,4,,,,,,wheelbarrow,,,,,,,,,,,2,2,0,42,42,16,1,,,,,,,,,,,,,,,,,,,,,,,,,,,,,,,,,,,,,,,,,,,,,,,,,,,,,,,,,,,,,,,,,,,,,,
,,?,0.00091,0,,,,,,stimuli/images/PICTURE_654.png,COPS,5e2872fffcdb020467d12799,27/05/1946,2020-07-09_21h09.53.795,proactive,2020.1.2,Win32,60,5f073de81c76c3308c0e4fb3,5f07792229c3d8392991e20a,4,,,,,,pencil,,,,,,,,,,,2,2,0,43,43,10,1,,,,,,,,,,,,,,,,,,,,,,,,,,,,,,,,,,,,,,,,,,,,,,,,,,,,,,,,,,,,,,,,,,,,,,
,,?,0.001505,0,,,,,,stimuli/images/PICTURE_403.png,FAMILY,5e2872fffcdb020467d12799,27/05/1946,2020-07-09_21h09.53.795,proactive,2020.1.2,Win32,60,5f073de81c76c3308c0e4fb3,5f07792229c3d8392991e20a,4,,,,,,cathedral,,,,,,,,,,,1,2,0,44,44,9,1,,,,,,,,,,,,,,,,,,,,,,,,,,,,,,,,,,,,,,,,,,,,,,,,,,,,,,,,,,,,,,,,,,,,,,
,,?,0.00112,0,,,,,,stimuli/images/PICTURE_57.png,CANDY,5e2872fffcdb020467d12799,27/05/1946,2020-07-09_21h09.53.795,proactive,2020.1.2,Win32,60,5f073de81c76c3308c0e4fb3,5f07792229c3d8392991e20a,4,,,,,,stamp,,,,,,,,,,,6,2,0,45,45,52,1,,,,,,,,,,,,,,,,,,,,,,,,,,,,,,,,,,,,,,,,,,,,,,,,,,,,,,,,,,,,,,,,,,,,,,
,,?,0.001035,0,,,,,,stimuli/images/PICTURE_509.png,SHOTS,5e2872fffcdb020467d12799,27/05/1946,2020-07-09_21h09.53.795,proactive,2020.1.2,Win32,60,5f073de81c76c3308c0e4fb3,5f07792229c3d8392991e20a,4,,,,,,telephone,,,,,,,,,,,1,2,0,46,46,7,1,,,,,,,,,,,,,,,,,,,,,,,,,,,,,,,,,,,,,,,,,,,,,,,,,,,,,,,,,,,,,,,,,,,,,,
,,?,0.000965,0,,,,,,stimuli/images/PICTURE_405.png,HOUSE,5e2872fffcdb020467d12799,27/05/1946,2020-07-09_21h09.53.795,proactive,2020.1.2,Win32,60,5f073de81c76c3308c0e4fb3,5f07792229c3d8392991e20a,4,,,,,,anchor,,,,,,,,,,,1,2,0,47,47,2,1,,,,,,,,,,,,,,,,,,,,,,,,,,,,,,,,,,,,,,,,,,,,,,,,,,,,,,,,,,,,,,,,,,,,,,
,,?,0.00088,0,,,,,,stimuli/images/PICTURE_18.png,RIVER,5e2872fffcdb020467d12799,27/05/1946,2020-07-09_21h09.53.795,proactive,2020.1.2,Win32,60,5f073de81c76c3308c0e4fb3,5f07792229c3d8392991e20a,4,,,,,,planet,,,,,,,,,,,3,2,0,48,48,22,1,,,,,,,,,,,,,,,,,,,,,,,,,,,,,,,,,,,,,,,,,,,,,,,,,,,,,,,,,,,,,,,,,,,,,,
,,?,0.00102,0,,,,,,stimuli/images/PICTURE_564.png,PLENTY,5e2872fffcdb020467d12799,27/05/1946,2020-07-09_21h09.53.795,proactive,2020.1.2,Win32,60,5f073de81c76c3308c0e4fb3,5f07792229c3d8392991e20a,4,,,,,,spoon,,,,,,,,,,,2,2,0,49,49,11,1,,,,,,,,,,,,,,,,,,,,,,,,,,,,,,,,,,,,,,,,,,,,,,,,,,,,,,,,,,,,,,,,,,,,,,
,,N,15.014795,0,,,,,,stimuli/images/PICTURE_95.png,NIGHT,5e2872fffcdb020467d12799,27/05/1946,2020-07-09_21h09.53.795,proactive,2020.1.2,Win32,60,5f073de81c76c3308c0e4fb3,5f07792229c3d8392991e20a,4,,,,,,suitcase,,,,,,,,,,,4,2,0,50,50,37,1,,,,,,,,,,,,,,,,,,,,,,,,,,,,,,,,,,,,,,,,,,,,,,,,,,,,,,,,,,,,,,,,,,,,,,
,,N,15.012215,0,,,,,,stimuli/images/PICTURE_93.png,GIRL,5e2872fffcdb020467d12799,27/05/1946,2020-07-09_21h09.53.795,proactive,2020.1.2,Win32,60,5f073de81c76c3308c0e4fb3,5f07792229c3d8392991e20a,4,,,,,,skateboard,,,,,,,,,,,4,2,0,51,51,31,1,,,,,,,,,,,,,,,,,,,,,,,,,,,,,,,,,,,,,,,,,,,,,,,,,,,,,,,,,,,,,,,,,,,,,,
,,?,0.000855,0,,,,,,stimuli/images/PICTURE_33.png,COPS,5e2872fffcdb020467d12799,27/05/1946,2020-07-09_21h09.53.795,proactive,2020.1.2,Win32,60,5f073de81c76c3308c0e4fb3,5f07792229c3d8392991e20a,4,,,,,,frame,,,,,,,,,,,3,2,0,52,52,29,1,,,,,,,,,,,,,,,,,,,,,,,,,,,,,,,,,,,,,,,,,,,,,,,,,,,,,,,,,,,,,,,,,,,,,,
,,?,0.000685,0,,,,,,stimuli/images/PICTURE_311.png,TOILET,5e2872fffcdb020467d12799,27/05/1946,2020-07-09_21h09.53.795,proactive,2020.1.2,Win32,60,5f073de81c76c3308c0e4fb3,5f07792229c3d8392991e20a,4,,,,,,razor,,,,,,,,,,,6,2,0,53,53,54,1,,,,,,,,,,,,,,,,,,,,,,,,,,,,,,,,,,,,,,,,,,,,,,,,,,,,,,,,,,,,,,,,,,,,,,
,,Y,15.008965,0,,,,,,stimuli/images/PICTURE_491.png,SERIES,5e2872fffcdb020467d12799,27/05/1946,2020-07-09_21h09.53.795,proactive,2020.1.2,Win32,60,5f073de81c76c3308c0e4fb3,5f07792229c3d8392991e20a,4,,,,,,rug,,,,,,,,,,,4,2,0,54,54,39,1,,,,,,,,,,,,,,,,,,,,,,,,,,,,,,,,,,,,,,,,,,,,,,,,,,,,,,,,,,,,,,,,,,,,,,
,,?,0.000975,0,,,,,,stimuli/images/PICTURE_255.png,PENNY,5e2872fffcdb020467d12799,27/05/1946,2020-07-09_21h09.53.795,proactive,2020.1.2,Win32,60,5f073de81c76c3308c0e4fb3,5f07792229c3d8392991e20a,4,,,,,,shovel,,,,,,,,,,,2,2,0,55,55,19,1,,,,,,,,,,,,,,,,,,,,,,,,,,,,,,,,,,,,,,,,,,,,,,,,,,,,,,,,,,,,,,,,,,,,,,
,,?,0.000905,0,,,,,,stimuli/images/PICTURE_470.png,MOMENT,5e2872fffcdb020467d12799,27/05/1946,2020-07-09_21h09.53.795,proactive,2020.1.2,Win32,60,5f073de81c76c3308c0e4fb3,5f07792229c3d8392991e20a,4,,,,,,motorbike,,,,,,,,,,,5,2,0,56,56,40,1,,,,,,,,,,,,,,,,,,,,,,,,,,,,,,,,,,,,,,,,,,,,,,,,,,,,,,,,,,,,,,,,,,,,,,
,,Y,15.008145,0,,,,,,stimuli/images/PICTURE_504.png,HOUSE,5e2872fffcdb020467d12799,27/05/1946,2020-07-09_21h09.53.795,proactive,2020.1.2,Win32,60,5f073de81c76c3308c0e4fb3,5f07792229c3d8392991e20a,4,,,,,,wheel,,,,,,,,,,,4,2,0,57,57,36,1,,,,,,,,,,,,,,,,,,,,,,,,,,,,,,,,,,,,,,,,,,,,,,,,,,,,,,,,,,,,,,,,,,,,,,
,,?,0.000925,0,,,,,,stimuli/images/PICTURE_677.png,FAMILY,5e2872fffcdb020467d12799,27/05/1946,2020-07-09_21h09.53.795,proactive,2020.1.2,Win32,60,5f073de81c76c3308c0e4fb3,5f07792229c3d8392991e20a,4,,,,,,map,,,,,,,,,,,6,2,0,58,58,53,1,,,,,,,,,,,,,,,,,,,,,,,,,,,,,,,,,,,,,,,,,,,,,,,,,,,,,,,,,,,,,,,,,,,,,,
,,?,0.003005,0,,,,,,stimuli/images/PICTURE_692.png,DUDE,5e2872fffcdb020467d12799,27/05/1946,2020-07-09_21h09.53.795,proactive,2020.1.2,Win32,60,5f073de81c76c3308c0e4fb3,5f07792229c3d8392991e20a,4,,,,,,cherry,,,,,,,,,,,5,2,0,59,59,47,1,,,,,,,,,,,,,,,,,,,,,,,,,,,,,,,,,,,,,,,,,,,,,,,,,,,,,,,,,,,,,,,,,,,,,,
,,,,,,,,,,,,5e2872fffcdb020467d12799,27/05/1946,2020-07-09_21h09.53.795,proactive,2020.1.2,Win32,60,5f073de81c76c3308c0e4fb3,5f07792229c3d8392991e20a,4,,,,,,,,,,,,,,,,,,,,,,,,0,0,0,2,1,stimuli/learn-block3.csv,,,,,,,,,,,,,,,,,,,,,,,,,,,,,,,,,,,,,,,,,,,,,,,,,,,,,,,,,,,,,,,,
,,,,,,,,,,stimuli/images/PICTURE_744.png,WEAPON,5e2872fffcdb020467d12799,27/05/1946,2020-07-09_21h09.53.795,proactive,2020.1.2,Win32,60,5f073de81c76c3308c0e4fb3,5f07792229c3d8392991e20a,4,,,,,,ring,,,,,,0,0,0,50,1,6,1,,,,,,,,,,,,,,,,,,,,,,,,,,,,,,,,,,,,,,,,,,,,,,,,,,,,,,,,,,,,,,,,,,,,,,,,,,,
,,,,,,,,,,stimuli/images/PICTURE_308.png,FAMILY,5e2872fffcdb020467d12799,27/05/1946,2020-07-09_21h09.53.795,proactive,2020.1.2,Win32,60,5f073de81c76c3308c0e4fb3,5f07792229c3d8392991e20a,4,,,,,,dice,,,,,,0,1,1,36,1,4,1,,,,,,,,,,,,,,,,,,,,,,,,,,,,,,,,,,,,,,,,,,,,,,,,,,,,,,,,,,,,,,,,,,,,,,,,,,,
,,,,,,,,,,stimuli/images/PICTURE_340.png,LETTER,5e2872fffcdb020467d12799,27/05/1946,2020-07-09_21h09.53.795,proactive,2020.1.2,Win32,60,5f073de81c76c3308c0e4fb3,5f07792229c3d8392991e20a,4,,,,,,mirror,,,,,,0,2,2,24,1,3,1,,,,,,,,,,,,,,,,,,,,,,,,,,,,,,,,,,,,,,,,,,,,,,,,,,,,,,,,,,,,,,,,,,,,,,,,,,,
,,,,,,,,,,stimuli/images/PICTURE_405.png,PLENTY,5e2872fffcdb020467d12799,27/05/1946,2020-07-09_21h09.53.795,proactive,2020.1.2,Win32,60,5f073de81c76c3308c0e4fb3,5f07792229c3d8392991e20a,4,,,,,,anchor,,,,,,0,3,3,23,1,3,1,,,,,,,,,,,,,,,,,,,,,,,,,,,,,,,,,,,,,,,,,,,,,,,,,,,,,,,,,,,,,,,,,,,,,,,,,,,
,,,,,,,,,,stimuli/images/PICTURE_383.png,SERIES,5e2872fffcdb020467d12799,27/05/1946,2020-07-09_21h09.53.795,proactive,2020.1.2,Win32,60,5f073de81c76c3308c0e4fb3,5f07792229c3d8392991e20a,4,,,,,,coin,,,,,,0,4,4,46,1,5,1,,,,,,,,,,,,,,,,,,,,,,,,,,,,,,,,,,,,,,,,,,,,,,,,,,,,,,,,,,,,,,,,,,,,,,,,,,,
,,,,,,,,,,stimuli/images/PICTURE_147.png,YEAR,5e2872fffcdb020467d12799,27/05/1946,2020-07-09_21h09.53.795,proactive,2020.1.2,Win32,60,5f073de81c76c3308c0e4fb3,5f07792229c3d8392991e20a,4,,,,,,hanger,,,,,,0,5,5,21,1,3,1,,,,,,,,,,,,,,,,,,,,,,,,,,,,,,,,,,,,,,,,,,,,,,,,,,,,,,,,,,,,,,,,,,,,,,,,,,,
,,,,,,,,,,stimuli/images/PICTURE_750.png,HOTEL,5e2872fffcdb020467d12799,27/05/1946,2020-07-09_21h09.53.795,proactive,2020.1.2,Win32,60,5f073de81c76c3308c0e4fb3,5f07792229c3d8392991e20a,4,,,,,,kettle,,,,,,0,6,6,27,1,3,1,,,,,,,,,,,,,,,,,,,,,,,,,,,,,,,,,,,,,,,,,,,,,,,,,,,,,,,,,,,,,,,,,,,,,,,,,,,
,,,,,,,,,,stimuli/images/PICTURE_491.png,GLASS,5e2872fffcdb020467d12799,27/05/1946,2020-07-09_21h09.53.795,proactive,2020.1.2,Win32,60,5f073de81c76c3308c0e4fb3,5f07792229c3d8392991e20a,4,,,,,,rug,,,,,,0,7,7,14,1,2,1,,,,,,,,,,,,,,,,,,,,,,,,,,,,,,,,,,,,,,,,,,,,,,,,,,,,,,,,,,,,,,,,,,,,,,,,,,,
,,,,,,,,,,stimuli/images/PICTURE_380.png,CANDY,5e2872fffcdb020467d12799,27/05/1946,2020-07-09_21h09.53.795,proactive,2020.1.2,Win32,60,5f073de81c76c3308c0e4fb3,5f07792229c3d8392991e20a,4,,,,,,gorilla,,,,,,0,8,8,0,1,1,1,,,,,,,,,,,,,,,,,,,,,,,,,,,,,,,,,,,,,,,,,,,,,,,,,,,,,,,,,,,,,,,,,,,,,,,,,,,
,,,,,,,,,,stimuli/images/PICTURE_285.png,LIFE,5e2872fffcdb020467d12799,27/05/1946,2020-07-09_21h09.53.795,proactive,2020.1.2,Win32,60,5f073de81c76c3308c0e4fb3,5f07792229c3d8392991e20a,4,,,,,,carrot,,,,,,0,9,9,33,1,4,1,,,,,,,,,,,,,,,,,,,,,,,,,,,,,,,,,,,,,,,,,,,,,,,,,,,,,,,,,,,,,,,,,,,,,,,,,,,
,,,,,,,,,,stimuli/images/PICTURE_383.png,WRITER,5e2872fffcdb020467d12799,27/05/1946,2020-07-09_21h09.53.795,proactive,2020.1.2,Win32,60,5f073de81c76c3308c0e4fb3,5f07792229c3d8392991e20a,4,,,,,,coin,,,,,,0,10,10,28,1,3,1,,,,,,,,,,,,,,,,,,,,,,,,,,,,,,,,,,,,,,,,,,,,,,,,,,,,,,,,,,,,,,,,,,,,,,,,,,,
,,,,,,,,,,stimuli/images/PICTURE_403.png,RIVER,5e2872fffcdb020467d12799,27/05/1946,2020-07-09_21h09.53.795,proactive,2020.1.2,Win32,60,5f073de81c76c3308c0e4fb3,5f07792229c3d8392991e20a,4,,,,,,cathedral,,,,,,0,11,11,40,1,5,1,,,,,,,,,,,,,,,,,,,,,,,,,,,,,,,,,,,,,,,,,,,,,,,,,,,,,,,,,,,,,,,,,,,,,,,,,,,
,,,,,,,,,,stimuli/images/PICTURE_708.png,RECORD,5e2872fffcdb020467d12799,27/05/1946,2020-07-09_21h09.53.795,proactive,2020.1.2,Win32,60,5f073de81c76c3308c0e4fb3,5f07792229c3d8392991e20a,4,,,,,,monkey,,,,,,0,12,12,58,1,6,1,,,,,,,,,,,,,,,,,,,,,,,,,,,,,,,,,,,,,,,,,,,,,,,,,,,,,,,,,,,,,,,,,,,,,,,,,,,
,,,,,,,,,,stimuli/images/PICTURE_504.png,ARTIST,5e2872fffcdb020467d12799,27/05/1946,2020-07-09_21h09.53.795,proactive,2020.1.2,Win32,60,5f073de81c76c3308c0e4fb3,5f07792229c3d8392991e20a,4,,,,,,wheel,,,,,,0,13,13,49,1,5,1,,,,,,,,,,,,,,,,,,,,,,,,,,,,,,,,,,,,,,,,,,,,,,,,,,,,,,,,,,,,,,,,,,,,,,,,,,,
,,,,,,,,,,stimuli/images/PICTURE_504.png,COPS,5e2872fffcdb020467d12799,27/05/1946,2020-07-09_21h09.53.795,proactive,2020.1.2,Win32,60,5f073de81c76c3308c0e4fb3,5f07792229c3d8392991e20a,4,,,,,,wheel,,,,,,0,14,14,52,1,6,1,,,,,,,,,,,,,,,,,,,,,,,,,,,,,,,,,,,,,,,,,,,,,,,,,,,,,,,,,,,,,,,,,,,,,,,,,,,
,,,,,,,,,,stimuli/images/PICTURE_297.png,RIVER,5e2872fffcdb020467d12799,27/05/1946,2020-07-09_21h09.53.795,proactive,2020.1.2,Win32,60,5f073de81c76c3308c0e4fb3,5f07792229c3d8392991e20a,4,,,,,,aeroplane,,,,,,0,15,15,39,1,4,1,,,,,,,,,,,,,,,,,,,,,,,,,,,,,,,,,,,,,,,,,,,,,,,,,,,,,,,,,,,,,,,,,,,,,,,,,,,
,,,,,,,,,,stimuli/images/PICTURE_95.png,HONEY,5e2872fffcdb020467d12799,27/05/1946,2020-07-09_21h09.53.795,proactive,2020.1.2,Win32,60,5f073de81c76c3308c0e4fb3,5f07792229c3d8392991e20a,4,,,,,,suitcase,,,,,,0,16,16,44,1,5,1,,,,,,,,,,,,,,,,,,,,,,,,,,,,,,,,,,,,,,,,,,,,,,,,,,,,,,,,,,,,,,,,,,,,,,,,,,,
,,,,,,,,,,stimuli/images/PICTURE_32.png,PILLS,5e2872fffcdb020467d12799,27/05/1946,2020-07-09_21h09.53.795,proactive,2020.1.2,Win32,60,5f073de81c76c3308c0e4fb3,5f07792229c3d8392991e20a,4,,,,,,crown,,,,,,0,17,17,18,1,2,1,,,,,,,,,,,,,,,,,,,,,,,,,,,,,,,,,,,,,,,,,,,,,,,,,,,,,,,,,,,,,,,,,,,,,,,,,,,
,,,,,,,,,,stimuli/images/PICTURE_677.png,APPLE,5e2872fffcdb020467d12799,27/05/1946,2020-07-09_21h09.53.795,proactive,2020.1.2,Win32,60,5f073de81c76c3308c0e4fb3,5f07792229c3d8392991e20a,4,,,,,,map,,,,,,0,18,18,43,1,5,1,,,,,,,,,,,,,,,,,,,,,,,,,,,,,,,,,,,,,,,,,,,,,,,,,,,,,,,,,,,,,,,,,,,,,,,,,,,
,,,,,,,,,,stimuli/images/PICTURE_504.png,YEAR,5e2872fffcdb020467d12799,27/05/1946,2020-07-09_21h09.53.795,proactive,2020.1.2,Win32,60,5f073de81c76c3308c0e4fb3,5f07792229c3d8392991e20a,4,,,,,,wheel,,,,,,0,19,19,13,1,2,1,,,,,,,,,,,,,,,,,,,,,,,,,,,,,,,,,,,,,,,,,,,,,,,,,,,,,,,,,,,,,,,,,,,,,,,,,,,
,,,,,,,,,,stimuli/images/PICTURE_467.png,POLICY,5e2872fffcdb020467d12799,27/05/1946,2020-07-09_21h09.53.795,proactive,2020.1.2,Win32,60,5f073de81c76c3308c0e4fb3,5f07792229c3d8392991e20a,4,,,,,,peg,,,,,,0,20,20,53,1,6,1,,,,,,,,,,,,,,,,,,,,,,,,,,,,,,,,,,,,,,,,,,,,,,,,,,,,,,,,,,,,,,,,,,,,,,,,,,,
,,,,,,,,,,stimuli/images/PICTURE_208.png,SYSTEM,5e2872fffcdb020467d12799,27/05/1946,2020-07-09_21h09.53.795,proactive,2020.1.2,Win32,60,5f073de81c76c3308c0e4fb3,5f07792229c3d8392991e20a,4,,,,,,microphone,,,,,,0,21,21,32,1,4,1,,,,,,,,,,,,,,,,,,,,,,,,,,,,,,,,,,,,,,,,,,,,,,,,,,,,,,,,,,,,,,,,,,,,,,,,,,,
,,,,,,,,,,stimuli/images/PICTURE_95.png,MILLER,5e2872fffcdb020467d12799,27/05/1946,2020-07-09_21h09.53.795,proactive,2020.1.2,Win32,60,5f073de81c76c3308c0e4fb3,5f07792229c3d8392991e20a,4,,,,,,suitcase,,,,,,0,22,22,56,1,6,1,,,,,,,,,,,,,,,,,,,,,,,,,,,,,,,,,,,,,,,,,,,,,,,,,,,,,,,,,,,,,,,,,,,,,,,,,,,
,,,,,,,,,,stimuli/images/PICTURE_339.png,CLIENT,5e2872fffcdb020467d12799,27/05/1946,2020-07-09_21h09.53.795,proactive,2020.1.2,Win32,60,5f073de81c76c3308c0e4fb3,5f07792229c3d8392991e20a,4,,,,,,backpack,,,,,,0,23,23,11,1,2,1,,,,,,,,,,,,,,,,,,,,,,,,,,,,,,,,,,,,,,,,,,,,,,,,,,,,,,,,,,,,,,,,,,,,,,,,,,,
,,,,,,,,,,stimuli/images/PICTURE_68.png,MILE,5e2872fffcdb020467d12799,27/05/1946,2020-07-09_21h09.53.795,proactive,2020.1.2,Win32,60,5f073de81c76c3308c0e4fb3,5f07792229c3d8392991e20a,4,,,,,,candle,,,,,,0,24,24,51,1,6,1,,,,,,,,,,,,,,,,,,,,,,,,,,,,,,,,,,,,,,,,,,,,,,,,,,,,,,,,,,,,,,,,,,,,,,,,,,,
,,,,,,,,,,stimuli/images/PICTURE_403.png,TOILET,5e2872fffcdb020467d12799,27/05/1946,2020-07-09_21h09.53.795,proactive,2020.1.2,Win32,60,5f073de81c76c3308c0e4fb3,5f07792229c3d8392991e20a,4,,,,,,cathedral,,,,,,0,25,25,25,1,3,1,,,,,,,,,,,,,,,,,,,,,,,,,,,,,,,,,,,,,,,,,,,,,,,,,,,,,,,,,,,,,,,,,,,,,,,,,,,
,,,,,,,,,,stimuli/images/PICTURE_403.png,WRITER,5e2872fffcdb020467d12799,27/05/1946,2020-07-09_21h09.53.795,proactive,2020.1.2,Win32,60,5f073de81c76c3308c0e4fb3,5f07792229c3d8392991e20a,4,,,,,,cathedral,,,,,,0,26,26,31,1,4,1,,,,,,,,,,,,,,,,,,,,,,,,,,,,,,,,,,,,,,,,,,,,,,,,,,,,,,,,,,,,,,,,,,,,,,,,,,,
,,,,,,,,,,stimuli/images/PICTURE_177.png,WRITER,5e2872fffcdb020467d12799,27/05/1946,2020-07-09_21h09.53.795,proactive,2020.1.2,Win32,60,5f073de81c76c3308c0e4fb3,5f07792229c3d8392991e20a,4,,,,,,mushroom,,,,,,0,27,27,41,1,5,1,,,,,,,,,,,,,,,,,,,,,,,,,,,,,,,,,,,,,,,,,,,,,,,,,,,,,,,,,,,,,,,,,,,,,,,,,,,
,,,,,,,,,,stimuli/images/PICTURE_203.png,GODS,5e2872fffcdb020467d12799,27/05/1946,2020-07-09_21h09.53.795,proactive,2020.1.2,Win32,60,5f073de81c76c3308c0e4fb3,5f07792229c3d8392991e20a,4,,,,,,cap,,,,,,0,28,28,30,1,4,1,,,,,,,,,,,,,,,,,,,,,,,,,,,,,,,,,,,,,,,,,,,,,,,,,,,,,,,,,,,,,,,,,,,,,,,,,,,
,,,,,,,,,,stimuli/images/PICTURE_469.png,AGENT,5e2872fffcdb020467d12799,27/05/1946,2020-07-09_21h09.53.795,proactive,2020.1.2,Win32,60,5f073de81c76c3308c0e4fb3,5f07792229c3d8392991e20a,4,,,,,,stool,,,,,,0,29,29,16,1,2,1,,,,,,,,,,,,,,,,,,,,,,,,,,,,,,,,,,,,,,,,,,,,,,,,,,,,,,,,,,,,,,,,,,,,,,,,,,,
,,,,,,,,,,stimuli/images/PICTURE_95.png,BOYS,5e2872fffcdb020467d12799,27/05/1946,2020-07-09_21h09.53.795,proactive,2020.1.2,Win32,60,5f073de81c76c3308c0e4fb3,5f07792229c3d8392991e20a,4,,,,,,suitcase,,,,,,0,30,30,1,1,1,1,,,,,,,,,,,,,,,,,,,,,,,,,,,,,,,,,,,,,,,,,,,,,,,,,,,,,,,,,,,,,,,,,,,,,,,,,,,
,,,,,,,,,,stimuli/images/PICTURE_340.png,VALLEY,5e2872fffcdb020467d12799,27/05/1946,2020-07-09_21h09.53.795,proactive,2020.1.2,Win32,60,5f073de81c76c3308c0e4fb3,5f07792229c3d8392991e20a,4,,,,,,mirror,,,,,,0,31,31,54,1,6,1,,,,,,,,,,,,,,,,,,,,,,,,,,,,,,,,,,,,,,,,,,,,,,,,,,,,,,,,,,,,,,,,,,,,,,,,,,,
,,,,,,,,,,stimuli/images/PICTURE_564.png,BATH,5e2872fffcdb020467d12799,27/05/1946,2020-07-09_21h09.53.795,proactive,2020.1.2,Win32,60,5f073de81c76c3308c0e4fb3,5f07792229c3d8392991e20a,4,,,,,,spoon,,,,,,0,32,32,26,1,3,1,,,,,,,,,,,,,,,,,,,,,,,,,,,,,,,,,,,,,,,,,,,,,,,,,,,,,,,,,,,,,,,,,,,,,,,,,,,
,,,,,,,,,,stimuli/images/PICTURE_487.png,GIRL,5e2872fffcdb020467d12799,27/05/1946,2020-07-09_21h09.53.795,proactive,2020.1.2,Win32,60,5f073de81c76c3308c0e4fb3,5f07792229c3d8392991e20a,4,,,,,,basket,,,,,,0,33,33,45,1,5,1,,,,,,,,,,,,,,,,,,,,,,,,,,,,,,,,,,,,,,,,,,,,,,,,,,,,,,,,,,,,,,,,,,,,,,,,,,,
,,,,,,,,,,stimuli/images/PICTURE_57.png,MOMENT,5e2872fffcdb020467d12799,27/05/1946,2020-07-09_21h09.53.795,proactive,2020.1.2,Win32,60,5f073de81c76c3308c0e4fb3,5f07792229c3d8392991e20a,4,,,,,,stamp,,,,,,0,34,34,37,1,4,1,,,,,,,,,,,,,,,,,,,,,,,,,,,,,,,,,,,,,,,,,,,,,,,,,,,,,,,,,,,,,,,,,,,,,,,,,,,
,,,,,,,,,,stimuli/images/PICTURE_380.png,HONEY,5e2872fffcdb020467d12799,27/05/1946,2020-07-09_21h09.53.795,proactive,2020.1.2,Win32,60,5f073de81c76c3308c0e4fb3,5f07792229c3d8392991e20a,4,,,,,,gorilla,,,,,,0,35,35,19,1,2,1,,,,,,,,,,,,,,,,,,,,,,,,,,,,,,,,,,,,,,,,,,,,,,,,,,,,,,,,,,,,,,,,,,,,,,,,,,,
,,,,,,,,,,stimuli/images/PICTURE_327.png,SERIES,5e2872fffcdb020467d12799,27/05/1946,2020-07-09_21h09.53.795,proactive,2020.1.2,Win32,60,5f073de81c76c3308c0e4fb3,5f07792229c3d8392991e20a,4,,,,,,helmet,,,,,,0,36,36,3,1,1,1,,,,,,,,,,,,,,,,,,,,,,,,,,,,,,,,,,,,,,,,,,,,,,,,,,,,,,,,,,,,,,,,,,,,,,,,,,,
,,,,,,,,,,stimuli/images/PICTURE_108.png,POLICY,5e2872fffcdb020467d12799,27/05/1946,2020-07-09_21h09.53.795,proactive,2020.1.2,Win32,60,5f073de81c76c3308c0e4fb3,5f07792229c3d8392991e20a,4,,,,,,calendar,,,,,,0,37,37,22,1,3,1,,,,,,,,,,,,,,,,,,,,,,,,,,,,,,,,,,,,,,,,,,,,,,,,,,,,,,,,,,,,,,,,,,,,,,,,,,,
,,,,,,,,,,stimuli/images/PICTURE_296.png,LIFE,5e2872fffcdb020467d12799,27/05/1946,2020-07-09_21h09.53.795,proactive,2020.1.2,Win32,60,5f073de81c76c3308c0e4fb3,5f07792229c3d8392991e20a,4,,,,,,bolt,,,,,,0,38,38,57,1,6,1,,,,,,,,,,,,,,,,,,,,,,,,,,,,,,,,,,,,,,,,,,,,,,,,,,,,,,,,,,,,,,,,,,,,,,,,,,,
,,,,,,,,,,stimuli/images/PICTURE_296.png,LOTS,5e2872fffcdb020467d12799,27/05/1946,2020-07-09_21h09.53.795,proactive,2020.1.2,Win32,60,5f073de81c76c3308c0e4fb3,5f07792229c3d8392991e20a,4,,,,,,bolt,,,,,,0,39,39,9,1,1,1,,,,,,,,,,,,,,,,,,,,,,,,,,,,,,,,,,,,,,,,,,,,,,,,,,,,,,,,,,,,,,,,,,,,,,,,,,,
,,,,,,,,,,stimuli/images/PICTURE_654.png,MONTH,5e2872fffcdb020467d12799,27/05/1946,2020-07-09_21h09.53.795,proactive,2020.1.2,Win32,60,5f073de81c76c3308c0e4fb3,5f07792229c3d8392991e20a,4,,,,,,pencil,,,,,,0,40,40,29,1,3,1,,,,,,,,,,,,,,,,,,,,,,,,,,,,,,,,,,,,,,,,,,,,,,,,,,,,,,,,,,,,,,,,,,,,,,,,,,,
,,,,,,,,,,stimuli/images/PICTURE_33.png,FRIEND,5e2872fffcdb020467d12799,27/05/1946,2020-07-09_21h09.53.795,proactive,2020.1.2,Win32,60,5f073de81c76c3308c0e4fb3,5f07792229c3d8392991e20a,4,,,,,,frame,,,,,,0,41,41,8,1,1,1,,,,,,,,,,,,,,,,,,,,,,,,,,,,,,,,,,,,,,,,,,,,,,,,,,,,,,,,,,,,,,,,,,,,,,,,,,,
,,,,,,,,,,stimuli/images/PICTURE_68.png,ROOF,5e2872fffcdb020467d12799,27/05/1946,2020-07-09_21h09.53.795,proactive,2020.1.2,Win32,60,5f073de81c76c3308c0e4fb3,5f07792229c3d8392991e20a,4,,,,,,candle,,,,,,0,42,42,38,1,4,1,,,,,,,,,,,,,,,,,,,,,,,,,,,,,,,,,,,,,,,,,,,,,,,,,,,,,,,,,,,,,,,,,,,,,,,,,,,
,,,,,,,,,,stimuli/images/PICTURE_42.png,BOYS,5e2872fffcdb020467d12799,27/05/1946,2020-07-09_21h09.53.795,proactive,2020.1.2,Win32,60,5f073de81c76c3308c0e4fb3,5f07792229c3d8392991e20a,4,,,,,,pear,,,,,,0,43,43,55,1,6,1,,,,,,,,,,,,,,,,,,,,,,,,,,,,,,,,,,,,,,,,,,,,,,,,,,,,,,,,,,,,,,,,,,,,,,,,,,,
,,,,,,,,,,stimuli/images/PICTURE_675.png,SALE,5e2872fffcdb020467d12799,27/05/1946,2020-07-09_21h09.53.795,proactive,2020.1.2,Win32,60,5f073de81c76c3308c0e4fb3,5f07792229c3d8392991e20a,4,,,,,,windmill,,,,,,0,44,44,47,1,5,1,,,,,,,,,,,,,,,,,,,,,,,,,,,,,,,,,,,,,,,,,,,,,,,,,,,,,,,,,,,,,,,,,,,,,,,,,,,
,,,,,,,,,,stimuli/images/PICTURE_2.png,FLIGHT,5e2872fffcdb020467d12799,27/05/1946,2020-07-09_21h09.53.795,proactive,2020.1.2,Win32,60,5f073de81c76c3308c0e4fb3,5f07792229c3d8392991e20a,4,,,,,,tyre,,,,,,0,45,45,15,1,2,1,,,,,,,,,,,,,,,,,,,,,,,,,,,,,,,,,,,,,,,,,,,,,,,,,,,,,,,,,,,,,,,,,,,,,,,,,,,
,,,,,,,,,,stimuli/images/PICTURE_449.png,DUDE,5e2872fffcdb020467d12799,27/05/1946,2020-07-09_21h09.53.795,proactive,2020.1.2,Win32,60,5f073de81c76c3308c0e4fb3,5f07792229c3d8392991e20a,4,,,,,,bench,,,,,,0,46,46,17,1,2,1,,,,,,,,,,,,,,,,,,,,,,,,,,,,,,,,,,,,,,,,,,,,,,,,,,,,,,,,,,,,,,,,,,,,,,,,,,,
,,,,,,,,,,stimuli/images/PICTURE_685.png,PENNY,5e2872fffcdb020467d12799,27/05/1946,2020-07-09_21h09.53.795,proactive,2020.1.2,Win32,60,5f073de81c76c3308c0e4fb3,5f07792229c3d8392991e20a,4,,,,,,goose,,,,,,0,47,47,4,1,1,1,,,,,,,,,,,,,,,,,,,,,,,,,,,,,,,,,,,,,,,,,,,,,,,,,,,,,,,,,,,,,,,,,,,,,,,,,,,
,,,,,,,,,,stimuli/images/PICTURE_85.png,NATION,5e2872fffcdb020467d12799,27/05/1946,2020-07-09_21h09.53.795,proactive,2020.1.2,Win32,60,5f073de81c76c3308c0e4fb3,5f07792229c3d8392991e20a,4,,,,,,diamond,,,,,,0,48,48,5,1,1,1,,,,,,,,,,,,,,,,,,,,,,,,,,,,,,,,,,,,,,,,,,,,,,,,,,,,,,,,,,,,,,,,,,,,,,,,,,,
,,,,,,,,,,stimuli/images/PICTURE_405.png,YEAR,5e2872fffcdb020467d12799,27/05/1946,2020-07-09_21h09.53.795,proactive,2020.1.2,Win32,60,5f073de81c76c3308c0e4fb3,5f07792229c3d8392991e20a,4,,,,,,anchor,,,,,,0,49,49,34,1,4,1,,,,,,,,,,,,,,,,,,,,,,,,,,,,,,,,,,,,,,,,,,,,,,,,,,,,,,,,,,,,,,,,,,,,,,,,,,,
,,,,,,,,,,stimuli/images/PICTURE_32.png,KIND,5e2872fffcdb020467d12799,27/05/1946,2020-07-09_21h09.53.795,proactive,2020.1.2,Win32,60,5f073de81c76c3308c0e4fb3,5f07792229c3d8392991e20a,4,,,,,,crown,,,,,,0,50,50,35,1,4,1,,,,,,,,,,,,,,,,,,,,,,,,,,,,,,,,,,,,,,,,,,,,,,,,,,,,,,,,,,,,,,,,,,,,,,,,,,,
,,,,,,,,,,stimuli/images/PICTURE_233.png,LOTS,5e2872fffcdb020467d12799,27/05/1946,2020-07-09_21h09.53.795,proactive,2020.1.2,Win32,60,5f073de81c76c3308c0e4fb3,5f07792229c3d8392991e20a,4,,,,,,salt,,,,,,0,51,51,42,1,5,1,,,,,,,,,,,,,,,,,,,,,,,,,,,,,,,,,,,,,,,,,,,,,,,,,,,,,,,,,,,,,,,,,,,,,,,,,,,
,,,,,,,,,,stimuli/images/PICTURE_491.png,RIVER,5e2872fffcdb020467d12799,27/05/1946,2020-07-09_21h09.53.795,proactive,2020.1.2,Win32,60,5f073de81c76c3308c0e4fb3,5f07792229c3d8392991e20a,4,,,,,,rug,,,,,,0,52,52,6,1,1,1,,,,,,,,,,,,,,,,,,,,,,,,,,,,,,,,,,,,,,,,,,,,,,,,,,,,,,,,,,,,,,,,,,,,,,,,,,,
,,,,,,,,,,stimuli/images/PICTURE_203.png,NIGHT,5e2872fffcdb020467d12799,27/05/1946,2020-07-09_21h09.53.795,proactive,2020.1.2,Win32,60,5f073de81c76c3308c0e4fb3,5f07792229c3d8392991e20a,4,,,,,,cap,,,,,,0,53,53,2,1,1,1,,,,,,,,,,,,,,,,,,,,,,,,,,,,,,,,,,,,,,,,,,,,,,,,,,,,,,,,,,,,,,,,,,,,,,,,,,,
,,,,,,,,,,stimuli/images/PICTURE_655.png,TOILET,5e2872fffcdb020467d12799,27/05/1946,2020-07-09_21h09.53.795,proactive,2020.1.2,Win32,60,5f073de81c76c3308c0e4fb3,5f07792229c3d8392991e20a,4,,,,,,megaphone,,,,,,0,54,54,12,1,2,1,,,,,,,,,,,,,,,,,,,,,,,,,,,,,,,,,,,,,,,,,,,,,,,,,,,,,,,,,,,,,,,,,,,,,,,,,,,
,,,,,,,,,,stimuli/images/PICTURE_108.png,FLIGHT,5e2872fffcdb020467d12799,27/05/1946,2020-07-09_21h09.53.795,proactive,2020.1.2,Win32,60,5f073de81c76c3308c0e4fb3,5f07792229c3d8392991e20a,4,,,,,,calendar,,,,,,0,55,55,59,1,6,1,,,,,,,,,,,,,,,,,,,,,,,,,,,,,,,,,,,,,,,,,,,,,,,,,,,,,,,,,,,,,,,,,,,,,,,,,,,
,,,,,,,,,,stimuli/images/PICTURE_85.png,TOILET,5e2872fffcdb020467d12799,27/05/1946,2020-07-09_21h09.53.795,proactive,2020.1.2,Win32,60,5f073de81c76c3308c0e4fb3,5f07792229c3d8392991e20a,4,,,,,,diamond,,,,,,0,56,56,48,1,5,1,,,,,,,,,,,,,,,,,,,,,,,,,,,,,,,,,,,,,,,,,,,,,,,,,,,,,,,,,,,,,,,,,,,,,,,,,,,
,,,,,,,,,,stimuli/images/PICTURE_667.png,RIVER,5e2872fffcdb020467d12799,27/05/1946,2020-07-09_21h09.53.795,proactive,2020.1.2,Win32,60,5f073de81c76c3308c0e4fb3,5f07792229c3d8392991e20a,4,,,,,,daisy,,,,,,0,57,57,10,1,2,1,,,,,,,,,,,,,,,,,,,,,,,,,,,,,,,,,,,,,,,,,,,,,,,,,,,,,,,,,,,,,,,,,,,,,,,,,,,
,,,,,,,,,,stimuli/images/PICTURE_327.png,CASINO,5e2872fffcdb020467d12799,27/05/1946,2020-07-09_21h09.53.795,proactive,2020.1.2,Win32,60,5f073de81c76c3308c0e4fb3,5f07792229c3d8392991e20a,4,,,,,,helmet,,,,,,0,58,58,20,1,3,1,,,,,,,,,,,,,,,,,,,,,,,,,,,,,,,,,,,,,,,,,,,,,,,,,,,,,,,,,,,,,,,,,,,,,,,,,,,
,,?,0.000895,0,,,,,,stimuli/images/PICTURE_296.png,LIFE,5e2872fffcdb020467d12799,27/05/1946,2020-07-09_21h09.53.795,proactive,2020.1.2,Win32,60,5f073de81c76c3308c0e4fb3,5f07792229c3d8392991e20a,4,,,,,,bolt,,,,,,,,,,,6,1,0,0,0,57,1,,,,,,,,,,,,,,,,,,,,,,,,,,,,,,,,,,,,,,,,,,,,,,,,,,,,,,,,,,,,,,,,,,,,,,
,,?,0.00279,0,,,,,,stimuli/images/PICTURE_504.png,YEAR,5e2872fffcdb020467d12799,27/05/1946,2020-07-09_21h09.53.795,proactive,2020.1.2,Win32,60,5f073de81c76c3308c0e4fb3,5f07792229c3d8392991e20a,4,,,,,,wheel,,,,,,,,,,,2,1,0,1,1,13,1,,,,,,,,,,,,,,,,,,,,,,,,,,,,,,,,,,,,,,,,,,,,,,,,,,,,,,,,,,,,,,,,,,,,,,
,,?,0.000755,0,,,,,,stimuli/images/PICTURE_147.png,YEAR,5e2872fffcdb020467d12799,27/05/1946,2020-07-09_21h09.53.795,proactive,2020.1.2,Win32,60,5f073de81c76c3308c0e4fb3,5f07792229c3d8392991e20a,4,,,,,,hanger,,,,,,,,,,,3,1,0,2,2,21,1,,,,,,,,,,,,,,,,,,,,,,,,,,,,,,,,,,,,,,,,,,,,,,,,,,,,,,,,,,,,,,,,,,,,,,
,,?,0.000725,0,,,,,,stimuli/images/PICTURE_108.png,FLIGHT,5e2872fffcdb020467d12799,27/05/1946,2020-07-09_21h09.53.795,proactive,2020.1.2,Win32,60,5f073de81c76c3308c0e4fb3,5f07792229c3d8392991e20a,4,,,,,,calendar,,,,,,,,,,,6,1,0,3,3,59,1,,,,,,,,,,,,,,,,,,,,,,,,,,,,,,,,,,,,,,,,,,,,,,,,,,,,,,,,,,,,,,,,,,,,,,
,,?,0.001085,0,,,,,,stimuli/images/PICTURE_85.png,NATION,5e2872fffcdb020467d12799,27/05/1946,2020-07-09_21h09.53.795,proactive,2020.1.2,Win32,60,5f073de81c76c3308c0e4fb3,5f07792229c3d8392991e20a,4,,,,,,diamond,,,,,,,,,,,1,1,0,4,4,5,1,,,,,,,,,,,,,,,,,,,,,,,,,,,,,,,,,,,,,,,,,,,,,,,,,,,,,,,,,,,,,,,,,,,,,,
,,?,0.00079,0,,,,,,stimuli/images/PICTURE_383.png,SERIES,5e2872fffcdb020467d12799,27/05/1946,2020-07-09_21h09.53.795,proactive,2020.1.2,Win32,60,5f073de81c76c3308c0e4fb3,5f07792229c3d8392991e20a,4,,,,,,coin,,,,,,,,,,,5,1,0,5,5,46,1,,,,,,,,,,,,,,,,,,,,,,,,,,,,,,,,,,,,,,,,,,,,,,,,,,,,,,,,,,,,,,,,,,,,,,
,,?,0.00075,0,,,,,,stimuli/images/PICTURE_233.png,LOTS,5e2872fffcdb020467d12799,27/05/1946,2020-07-09_21h09.53.795,proactive,2020.1.2,Win32,60,5f073de81c76c3308c0e4fb3,5f07792229c3d8392991e20a,4,,,,,,salt,,,,,,,,,,,5,1,0,6,6,42,1,,,,,,,,,,,,,,,,,,,,,,,,,,,,,,,,,,,,,,,,,,,,,,,,,,,,,,,,,,,,,,,,,,,,,,
,,?,0.000765,0,,,,,,stimuli/images/PICTURE_677.png,APPLE,5e2872fffcdb020467d12799,27/05/1946,2020-07-09_21h09.53.795,proactive,2020.1.2,Win32,60,5f073de81c76c3308c0e4fb3,5f07792229c3d8392991e20a,4,,,,,,map,,,,,,,,,,,5,1,0,7,7,43,1,,,,,,,,,,,,,,,,,,,,,,,,,,,,,,,,,,,,,,,,,,,,,,,,,,,,,,,,,,,,,,,,,,,,,,
,,?,15.00591,0,,,,,,stimuli/images/PICTURE_57.png,MOMENT,5e2872fffcdb020467d12799,27/05/1946,2020-07-09_21h09.53.795,proactive,2020.1.2,Win32,60,5f073de81c76c3308c0e4fb3,5f07792229c3d8392991e20a,4,,,,,,stamp,,,,,,,,,,,4,1,0,8,8,37,1,,,,,,,,,,,,,,,,,,,,,,,,,,,,,,,,,,,,,,,,,,,,,,,,,,,,,,,,,,,,,,,,,,,,,,
,,?,0.00095,0,,,,,,stimuli/images/PICTURE_177.png,WRITER,5e2872fffcdb020467d12799,27/05/1946,2020-07-09_21h09.53.795,proactive,2020.1.2,Win32,60,5f073de81c76c3308c0e4fb3,5f07792229c3d8392991e20a,4,,,,,,mushroom,,,,,,,,,,,5,1,0,9,9,41,1,,,,,,,,,,,,,,,,,,,,,,,,,,,,,,,,,,,,,,,,,,,,,,,,,,,,,,,,,,,,,,,,,,,,,,
,,Y,15.010025,0,,,,,,stimuli/images/PICTURE_32.png,KIND,5e2872fffcdb020467d12799,27/05/1946,2020-07-09_21h09.53.795,proactive,2020.1.2,Win32,60,5f073de81c76c3308c0e4fb3,5f07792229c3d8392991e20a,4,,,,,,crown,,,,,,,,,,,4,1,0,10,10,35,1,,,,,,,,,,,,,,,,,,,,,,,,,,,,,,,,,,,,,,,,,,,,,,,,,,,,,,,,,,,,,,,,,,,,,,
,,?,0.00102,0,,,,,,stimuli/images/PICTURE_339.png,CLIENT,5e2872fffcdb020467d12799,27/05/1946,2020-07-09_21h09.53.795,proactive,2020.1.2,Win32,60,5f073de81c76c3308c0e4fb3,5f07792229c3d8392991e20a,4,,,,,,backpack,,,,,,,,,,,2,1,0,11,11,11,1,,,,,,,,,,,,,,,,,,,,,,,,,,,,,,,,,,,,,,,,,,,,,,,,,,,,,,,,,,,,,,,,,,,,,,
,,?,0.000745,0,,,,,,stimuli/images/PICTURE_403.png,RIVER,5e2872fffcdb020467d12799,27/05/1946,2020-07-09_21h09.53.795,proactive,2020.1.2,Win32,60,5f073de81c76c3308c0e4fb3,5f07792229c3d8392991e20a,4,,,,,,cathedral,,,,,,,,,,,5,1,0,12,12,40,1,,,,,,,,,,,,,,,,,,,,,,,,,,,,,,,,,,,,,,,,,,,,,,,,,,,,,,,,,,,,,,,,,,,,,,
,,Y,15.00855,0,,,,,,stimuli/images/PICTURE_297.png,RIVER,5e2872fffcdb020467d12799,27/05/1946,2020-07-09_21h09.53.795,proactive,2020.1.2,Win32,60,5f073de81c76c3308c0e4fb3,5f07792229c3d8392991e20a,4,,,,,,aeroplane,,,,,,,,,,,4,1,0,13,13,39,1,,,,,,,,,,,,,,,,,,,,,,,,,,,,,,,,,,,,,,,,,,,,,,,,,,,,,,,,,,,,,,,,,,,,,,
,,N,15.01249,0,,,,,,stimuli/images/PICTURE_308.png,FAMILY,5e2872fffcdb020467d12799,27/05/1946,2020-07-09_21h09.53.795,proactive,2020.1.2,Win32,60,5f073de81c76c3308c0e4fb3,5f07792229c3d8392991e20a,4,,,,,,dice,,,,,,,,,,,4,1,0,14,14,36,1,,,,,,,,,,,,,,,,,,,,,,,,,,,,,,,,,,,,,,,,,,,,,,,,,,,,,,,,,,,,,,,,,,,,,,
,,?,0.000875,0,,,,,,stimuli/images/PICTURE_564.png,BATH,5e2872fffcdb020467d12799,27/05/1946,2020-07-09_21h09.53.795,proactive,2020.1.2,Win32,60,5f073de81c76c3308c0e4fb3,5f07792229c3d8392991e20a,4,,,,,,spoon,,,,,,,,,,,3,1,0,15,15,26,1,,,,,,,,,,,,,,,,,,,,,,,,,,,,,,,,,,,,,,,,,,,,,,,,,,,,,,,,,,,,,,,,,,,,,,
,,?,0.00073,0,,,,,,stimuli/images/PICTURE_708.png,RECORD,5e2872fffcdb020467d12799,27/05/1946,2020-07-09_21h09.53.795,proactive,2020.1.2,Win32,60,5f073de81c76c3308c0e4fb3,5f07792229c3d8392991e20a,4,,,,,,monkey,,,,,,,,,,,6,1,0,16,16,58,1,,,,,,,,,,,,,,,,,,,,,,,,,,,,,,,,,,,,,,,,,,,,,,,,,,,,,,,,,,,,,,,,,,,,,,
,,?,0.000995,0,,,,,,stimuli/images/PICTURE_108.png,POLICY,5e2872fffcdb020467d12799,27/05/1946,2020-07-09_21h09.53.795,proactive,2020.1.2,Win32,60,5f073de81c76c3308c0e4fb3,5f07792229c3d8392991e20a,4,,,,,,calendar,,,,,,,,,,,3,1,0,17,17,22,1,,,,,,,,,,,,,,,,,,,,,,,,,,,,,,,,,,,,,,,,,,,,,,,,,,,,,,,,,,,,,,,,,,,,,,
,,?,0.00078,0,,,,,,stimuli/images/PICTURE_469.png,AGENT,5e2872fffcdb020467d12799,27/05/1946,2020-07-09_21h09.53.795,proactive,2020.1.2,Win32,60,5f073de81c76c3308c0e4fb3,5f07792229c3d8392991e20a,4,,,,,,stool,,,,,,,,,,,2,1,0,18,18,16,1,,,,,,,,,,,,,,,,,,,,,,,,,,,,,,,,,,,,,,,,,,,,,,,,,,,,,,,,,,,,,,,,,,,,,,
,,?,0.000755,0,,,,,,stimuli/images/PICTURE_32.png,PILLS,5e2872fffcdb020467d12799,27/05/1946,2020-07-09_21h09.53.795,proactive,2020.1.2,Win32,60,5f073de81c76c3308c0e4fb3,5f07792229c3d8392991e20a,4,,,,,,crown,,,,,,,,,,,2,1,0,19,19,18,1,,,,,,,,,,,,,,,,,,,,,,,,,,,,,,,,,,,,,,,,,,,,,,,,,,,,,,,,,,,,,,,,,,,,,,
,,N,15.001545,0,,,,,,stimuli/images/PICTURE_203.png,GODS,5e2872fffcdb020467d12799,27/05/1946,2020-07-09_21h09.53.795,proactive,2020.1.2,Win32,60,5f073de81c76c3308c0e4fb3,5f07792229c3d8392991e20a,4,,,,,,cap,,,,,,,,,,,4,1,0,20,20,30,1,,,,,,,,,,,,,,,,,,,,,,,,,,,,,,,,,,,,,,,,,,,,,,,,,,,,,,,,,,,,,,,,,,,,,,
,,?,0.001125,0,,,,,,stimuli/images/PICTURE_33.png,FRIEND,5e2872fffcdb020467d12799,27/05/1946,2020-07-09_21h09.53.795,proactive,2020.1.2,Win32,60,5f073de81c76c3308c0e4fb3,5f07792229c3d8392991e20a,4,,,,,,frame,,,,,,,,,,,1,1,0,21,21,8,1,,,,,,,,,,,,,,,,,,,,,,,,,,,,,,,,,,,,,,,,,,,,,,,,,,,,,,,,,,,,,,,,,,,,,,
,,?,0.00101,0,,,,,,stimuli/images/PICTURE_491.png,RIVER,5e2872fffcdb020467d12799,27/05/1946,2020-07-09_21h09.53.795,proactive,2020.1.2,Win32,60,5f073de81c76c3308c0e4fb3,5f07792229c3d8392991e20a,4,,,,,,rug,,,,,,,,,,,1,1,0,22,22,6,1,,,,,,,,,,,,,,,,,,,,,,,,,,,,,,,,,,,,,,,,,,,,,,,,,,,,,,,,,,,,,,,,,,,,,,
,,?,0.000985,0,,,,,,stimuli/images/PICTURE_675.png,SALE,5e2872fffcdb020467d12799,27/05/1946,2020-07-09_21h09.53.795,proactive,2020.1.2,Win32,60,5f073de81c76c3308c0e4fb3,5f07792229c3d8392991e20a,4,,,,,,windmill,,,,,,,,,,,5,1,0,23,23,47,1,,,,,,,,,,,,,,,,,,,,,,,,,,,,,,,,,,,,,,,,,,,,,,,,,,,,,,,,,,,,,,,,,,,,,,
,,N,15.002855,0,,,,,,stimuli/images/PICTURE_208.png,SYSTEM,5e2872fffcdb020467d12799,27/05/1946,2020-07-09_21h09.53.795,proactive,2020.1.2,Win32,60,5f073de81c76c3308c0e4fb3,5f07792229c3d8392991e20a,4,,,,,,microphone,,,,,,,,,,,4,1,0,24,24,32,1,,,,,,,,,,,,,,,,,,,,,,,,,,,,,,,,,,,,,,,,,,,,,,,,,,,,,,,,,,,,,,,,,,,,,,
,,?,0.00101,0,,,,,,stimuli/images/PICTURE_403.png,TOILET,5e2872fffcdb020467d12799,27/05/1946,2020-07-09_21h09.53.795,proactive,2020.1.2,Win32,60,5f073de81c76c3308c0e4fb3,5f07792229c3d8392991e20a,4,,,,,,cathedral,,,,,,,,,,,3,1,0,25,25,25,1,,,,,,,,,,,,,,,,,,,,,,,,,,,,,,,,,,,,,,,,,,,,,,,,,,,,,,,,,,,,,,,,,,,,,,
,,?,0.00077,0,,,,,,stimuli/images/PICTURE_383.png,WRITER,5e2872fffcdb020467d12799,27/05/1946,2020-07-09_21h09.53.795,proactive,2020.1.2,Win32,60,5f073de81c76c3308c0e4fb3,5f07792229c3d8392991e20a,4,,,,,,coin,,,,,,,,,,,3,1,0,26,26,28,1,,,,,,,,,,,,,,,,,,,,,,,,,,,,,,,,,,,,,,,,,,,,,,,,,,,,,,,,,,,,,,,,,,,,,,
,,Y,15.008295,0,,,,,,stimuli/images/PICTURE_403.png,WRITER,5e2872fffcdb020467d12799,27/05/1946,2020-07-09_21h09.53.795,proactive,2020.1.2,Win32,60,5f073de81c76c3308c0e4fb3,5f07792229c3d8392991e20a,4,,,,,,cathedral,,,,,,,,,,,4,1,0,27,27,31,1,,,,,,,,,,,,,,,,,,,,,,,,,,,,,,,,,,,,,,,,,,,,,,,,,,,,,,,,,,,,,,,,,,,,,,
,,?,0.001,0,,,,,,stimuli/images/PICTURE_655.png,TOILET,5e2872fffcdb020467d12799,27/05/1946,2020-07-09_21h09.53.795,proactive,2020.1.2,Win32,60,5f073de81c76c3308c0e4fb3,5f07792229c3d8392991e20a,4,,,,,,megaphone,,,,,,,,,,,2,1,0,28,28,12,1,,,,,,,,,,,,,,,,,,,,,,,,,,,,,,,,,,,,,,,,,,,,,,,,,,,,,,,,,,,,,,,,,,,,,,
,,?,0.00092,0,,,,,,stimuli/images/PICTURE_449.png,DUDE,5e2872fffcdb020467d12799,27/05/1946,2020-07-09_21h09.53.795,proactive,2020.1.2,Win32,60,5f073de81c76c3308c0e4fb3,5f07792229c3d8392991e20a,4,,,,,,bench,,,,,,,,,,,2,1,0,29,29,17,1,,,,,,,,,,,,,,,,,,,,,,,,,,,,,,,,,,,,,,,,,,,,,,,,,,,,,,,,,,,,,,,,,,,,,,
,,?,0.000755,0,,,,,,stimuli/images/PICTURE_327.png,SERIES,5e2872fffcdb020467d12799,27/05/1946,2020-07-09_21h09.53.795,proactive,2020.1.2,Win32,60,5f073de81c76c3308c0e4fb3,5f07792229c3d8392991e20a,4,,,,,,helmet,,,,,,,,,,,1,1,0,30,30,3,1,,,,,,,,,,,,,,,,,,,,,,,,,,,,,,,,,,,,,,,,,,,,,,,,,,,,,,,,,,,,,,,,,,,,,,
,,Y,15.006315,0,,,,,,stimuli/images/PICTURE_405.png,YEAR,5e2872fffcdb020467d12799,27/05/1946,2020-07-09_21h09.53.795,proactive,2020.1.2,Win32,60,5f073de81c76c3308c0e4fb3,5f07792229c3d8392991e20a,4,,,,,,anchor,,,,,,,,,,,4,1,0,31,31,34,1,,,,,,,,,,,,,,,,,,,,,,,,,,,,,,,,,,,,,,,,,,,,,,,,,,,,,,,,,,,,,,,,,,,,,,
,,?,0.00094,0,,,,,,stimuli/images/PICTURE_654.png,MONTH,5e2872fffcdb020467d12799,27/05/1946,2020-07-09_21h09.53.795,proactive,2020.1.2,Win32,60,5f073de81c76c3308c0e4fb3,5f07792229c3d8392991e20a,4,,,,,,pencil,,,,,,,,,,,3,1,0,32,32,29,1,,,,,,,,,,,,,,,,,,,,,,,,,,,,,,,,,,,,,,,,,,,,,,,,,,,,,,,,,,,,,,,,,,,,,,
,,Y,15.01016,0,,,,,,stimuli/images/PICTURE_68.png,ROOF,5e2872fffcdb020467d12799,27/05/1946,2020-07-09_21h09.53.795,proactive,2020.1.2,Win32,60,5f073de81c76c3308c0e4fb3,5f07792229c3d8392991e20a,4,,,,,,candle,,,,,,,,,,,4,1,0,33,33,38,1,,,,,,,,,,,,,,,,,,,,,,,,,,,,,,,,,,,,,,,,,,,,,,,,,,,,,,,,,,,,,,,,,,,,,,
,,?,0.00092,0,,,,,,stimuli/images/PICTURE_487.png,GIRL,5e2872fffcdb020467d12799,27/05/1946,2020-07-09_21h09.53.795,proactive,2020.1.2,Win32,60,5f073de81c76c3308c0e4fb3,5f07792229c3d8392991e20a,4,,,,,,basket,,,,,,,,,,,5,1,0,34,34,45,1,,,,,,,,,,,,,,,,,,,,,,,,,,,,,,,,,,,,,,,,,,,,,,,,,,,,,,,,,,,,,,,,,,,,,,
,,?,0.000785,0,,,,,,stimuli/images/PICTURE_685.png,PENNY,5e2872fffcdb020467d12799,27/05/1946,2020-07-09_21h09.53.795,proactive,2020.1.2,Win32,60,5f073de81c76c3308c0e4fb3,5f07792229c3d8392991e20a,4,,,,,,goose,,,,,,,,,,,1,1,0,35,35,4,1,,,,,,,,,,,,,,,,,,,,,,,,,,,,,,,,,,,,,,,,,,,,,,,,,,,,,,,,,,,,,,,,,,,,,,
,,?,0.0007,0,,,,,,stimuli/images/PICTURE_296.png,LOTS,5e2872fffcdb020467d12799,27/05/1946,2020-07-09_21h09.53.795,proactive,2020.1.2,Win32,60,5f073de81c76c3308c0e4fb3,5f07792229c3d8392991e20a,4,,,,,,bolt,,,,,,,,,,,1,1,0,36,36,9,1,,,,,,,,,,,,,,,,,,,,,,,,,,,,,,,,,,,,,,,,,,,,,,,,,,,,,,,,,,,,,,,,,,,,,,
,,?,0.000855,0,,,,,,stimuli/images/PICTURE_95.png,MILLER,5e2872fffcdb020467d12799,27/05/1946,2020-07-09_21h09.53.795,proactive,2020.1.2,Win32,60,5f073de81c76c3308c0e4fb3,5f07792229c3d8392991e20a,4,,,,,,suitcase,,,,,,,,,,,6,1,0,37,37,56,1,,,,,,,,,,,,,,,,,,,,,,,,,,,,,,,,,,,,,,,,,,,,,,,,,,,,,,,,,,,,,,,,,,,,,,
,,?,0.000775,0,,,,,,stimuli/images/PICTURE_744.png,WEAPON,5e2872fffcdb020467d12799,27/05/1946,2020-07-09_21h09.53.795,proactive,2020.1.2,Win32,60,5f073de81c76c3308c0e4fb3,5f07792229c3d8392991e20a,4,,,,,,ring,,,,,,,,,,,6,1,0,38,38,50,1,,,,,,,,,,,,,,,,,,,,,,,,,,,,,,,,,,,,,,,,,,,,,,,,,,,,,,,,,,,,,,,,,,,,,,
,,?,0.0008,0,,,,,,stimuli/images/PICTURE_667.png,RIVER,5e2872fffcdb020467d12799,27/05/1946,2020-07-09_21h09.53.795,proactive,2020.1.2,Win32,60,5f073de81c76c3308c0e4fb3,5f07792229c3d8392991e20a,4,,,,,,daisy,,,,,,,,,,,2,1,0,39,39,10,1,,,,,,,,,,,,,,,,,,,,,,,,,,,,,,,,,,,,,,,,,,,,,,,,,,,,,,,,,,,,,,,,,,,,,,
,,?,0.00074,0,,,,,,stimuli/images/PICTURE_504.png,ARTIST,5e2872fffcdb020467d12799,27/05/1946,2020-07-09_21h09.53.795,proactive,2020.1.2,Win32,60,5f073de81c76c3308c0e4fb3,5f07792229c3d8392991e20a,4,,,,,,wheel,,,,,,,,,,,5,1,0,40,40,49,1,,,,,,,,,,,,,,,,,,,,,,,,,,,,,,,,,,,,,,,,,,,,,,,,,,,,,,,,,,,,,,,,,,,,,,
,,?,0.000745,0,,,,,,stimuli/images/PICTURE_147.png,WOMEN,5e2872fffcdb020467d12799,27/05/1946,2020-07-09_21h09.53.795,proactive,2020.1.2,Win32,60,5f073de81c76c3308c0e4fb3,5f07792229c3d8392991e20a,4,,,,,,hanger,,,,,,,,,,,1,1,0,41,41,7,1,,,,,,,,,,,,,,,,,,,,,,,,,,,,,,,,,,,,,,,,,,,,,,,,,,,,,,,,,,,,,,,,,,,,,,
,,?,0.00078,0,,,,,,stimuli/images/PICTURE_95.png,BOYS,5e2872fffcdb020467d12799,27/05/1946,2020-07-09_21h09.53.795,proactive,2020.1.2,Win32,60,5f073de81c76c3308c0e4fb3,5f07792229c3d8392991e20a,4,,,,,,suitcase,,,,,,,,,,,1,1,0,42,42,1,1,,,,,,,,,,,,,,,,,,,,,,,,,,,,,,,,,,,,,,,,,,,,,,,,,,,,,,,,,,,,,,,,,,,,,,
,,?,0.000725,0,,,,,,stimuli/images/PICTURE_504.png,COPS,5e2872fffcdb020467d12799,27/05/1946,2020-07-09_21h09.53.795,proactive,2020.1.2,Win32,60,5f073de81c76c3308c0e4fb3,5f07792229c3d8392991e20a,4,,,,,,wheel,,,,,,,,,,,6,1,0,43,43,52,1,,,,,,,,,,,,,,,,,,,,,,,,,,,,,,,,,,,,,,,,,,,,,,,,,,,,,,,,,,,,,,,,,,,,,,
,,Y,15.00853,0,,,,,,stimuli/images/PICTURE_285.png,LIFE,5e2872fffcdb020467d12799,27/05/1946,2020-07-09_21h09.53.795,proactive,2020.1.2,Win32,60,5f073de81c76c3308c0e4fb3,5f07792229c3d8392991e20a,4,,,,,,carrot,,,,,,,,,,,4,1,0,44,44,33,1,,,,,,,,,,,,,,,,,,,,,,,,,,,,,,,,,,,,,,,,,,,,,,,,,,,,,,,,,,,,,,,,,,,,,,
,,?,0.000875,0,,,,,,stimuli/images/PICTURE_340.png,LETTER,5e2872fffcdb020467d12799,27/05/1946,2020-07-09_21h09.53.795,proactive,2020.1.2,Win32,60,5f073de81c76c3308c0e4fb3,5f07792229c3d8392991e20a,4,,,,,,mirror,,,,,,,,,,,3,1,0,45,45,24,1,,,,,,,,,,,,,,,,,,,,,,,,,,,,,,,,,,,,,,,,,,,,,,,,,,,,,,,,,,,,,,,,,,,,,,
,,?,0.000705,0,,,,,,stimuli/images/PICTURE_2.png,FLIGHT,5e2872fffcdb020467d12799,27/05/1946,2020-07-09_21h09.53.795,proactive,2020.1.2,Win32,60,5f073de81c76c3308c0e4fb3,5f07792229c3d8392991e20a,4,,,,,,tyre,,,,,,,,,,,2,1,0,46,46,15,1,,,,,,,,,,,,,,,,,,,,,,,,,,,,,,,,,,,,,,,,,,,,,,,,,,,,,,,,,,,,,,,,,,,,,,
,,?,0.000715,0,,,,,,stimuli/images/PICTURE_380.png,CANDY,5e2872fffcdb020467d12799,27/05/1946,2020-07-09_21h09.53.795,proactive,2020.1.2,Win32,60,5f073de81c76c3308c0e4fb3,5f07792229c3d8392991e20a,4,,,,,,gorilla,,,,,,,,,,,1,1,0,47,47,0,1,,,,,,,,,,,,,,,,,,,,,,,,,,,,,,,,,,,,,,,,,,,,,,,,,,,,,,,,,,,,,,,,,,,,,,
,,?,0.00069,0,,,,,,stimuli/images/PICTURE_68.png,MILE,5e2872fffcdb020467d12799,27/05/1946,2020-07-09_21h09.53.795,proactive,2020.1.2,Win32,60,5f073de81c76c3308c0e4fb3,5f07792229c3d8392991e20a,4,,,,,,candle,,,,,,,,,,,6,1,0,48,48,51,1,,,,,,,,,,,,,,,,,,,,,,,,,,,,,,,,,,,,,,,,,,,,,,,,,,,,,,,,,,,,,,,,,,,,,,
,,?,0.00323,0,,,,,,stimuli/images/PICTURE_95.png,HONEY,5e2872fffcdb020467d12799,27/05/1946,2020-07-09_21h09.53.795,proactive,2020.1.2,Win32,60,5f073de81c76c3308c0e4fb3,5f07792229c3d8392991e20a,4,,,,,,suitcase,,,,,,,,,,,5,1,0,49,49,44,1,,,,,,,,,,,,,,,,,,,,,,,,,,,,,,,,,,,,,,,,,,,,,,,,,,,,,,,,,,,,,,,,,,,,,,
,,?,0.000785,0,,,,,,stimuli/images/PICTURE_467.png,POLICY,5e2872fffcdb020467d12799,27/05/1946,2020-07-09_21h09.53.795,proactive,2020.1.2,Win32,60,5f073de81c76c3308c0e4fb3,5f07792229c3d8392991e20a,4,,,,,,peg,,,,,,,,,,,6,1,0,50,50,53,1,,,,,,,,,,,,,,,,,,,,,,,,,,,,,,,,,,,,,,,,,,,,,,,,,,,,,,,,,,,,,,,,,,,,,,
,,?,0.001435,0,,,,,,stimuli/images/PICTURE_380.png,HONEY,5e2872fffcdb020467d12799,27/05/1946,2020-07-09_21h09.53.795,proactive,2020.1.2,Win32,60,5f073de81c76c3308c0e4fb3,5f07792229c3d8392991e20a,4,,,,,,gorilla,,,,,,,,,,,2,1,0,51,51,19,1,,,,,,,,,,,,,,,,,,,,,,,,,,,,,,,,,,,,,,,,,,,,,,,,,,,,,,,,,,,,,,,,,,,,,,
,,?,0.000875,0,,,,,,stimuli/images/PICTURE_42.png,BOYS,5e2872fffcdb020467d12799,27/05/1946,2020-07-09_21h09.53.795,proactive,2020.1.2,Win32,60,5f073de81c76c3308c0e4fb3,5f07792229c3d8392991e20a,4,,,,,,pear,,,,,,,,,,,6,1,0,52,52,55,1,,,,,,,,,,,,,,,,,,,,,,,,,,,,,,,,,,,,,,,,,,,,,,,,,,,,,,,,,,,,,,,,,,,,,,
,,?,0.00073,0,,,,,,stimuli/images/PICTURE_405.png,PLENTY,5e2872fffcdb020467d12799,27/05/1946,2020-07-09_21h09.53.795,proactive,2020.1.2,Win32,60,5f073de81c76c3308c0e4fb3,5f07792229c3d8392991e20a,4,,,,,,anchor,,,,,,,,,,,3,1,0,53,53,23,1,,,,,,,,,,,,,,,,,,,,,,,,,,,,,,,,,,,,,,,,,,,,,,,,,,,,,,,,,,,,,,,,,,,,,,
,,?,0.00089,0,,,,,,stimuli/images/PICTURE_491.png,GLASS,5e2872fffcdb020467d12799,27/05/1946,2020-07-09_21h09.53.795,proactive,2020.1.2,Win32,60,5f073de81c76c3308c0e4fb3,5f07792229c3d8392991e20a,4,,,,,,rug,,,,,,,,,,,2,1,0,54,54,14,1,,,,,,,,,,,,,,,,,,,,,,,,,,,,,,,,,,,,,,,,,,,,,,,,,,,,,,,,,,,,,,,,,,,,,,
,,?,0.00073,0,,,,,,stimuli/images/PICTURE_340.png,VALLEY,5e2872fffcdb020467d12799,27/05/1946,2020-07-09_21h09.53.795,proactive,2020.1.2,Win32,60,5f073de81c76c3308c0e4fb3,5f07792229c3d8392991e20a,4,,,,,,mirror,,,,,,,,,,,6,1,0,55,55,54,1,,,,,,,,,,,,,,,,,,,,,,,,,,,,,,,,,,,,,,,,,,,,,,,,,,,,,,,,,,,,,,,,,,,,,,
,,?,0.000745,0,,,,,,stimuli/images/PICTURE_750.png,HOTEL,5e2872fffcdb020467d12799,27/05/1946,2020-07-09_21h09.53.795,proactive,2020.1.2,Win32,60,5f073de81c76c3308c0e4fb3,5f07792229c3d8392991e20a,4,,,,,,kettle,,,,,,,,,,,3,1,0,56,56,27,1,,,,,,,,,,,,,,,,,,,,,,,,,,,,,,,,,,,,,,,,,,,,,,,,,,,,,,,,,,,,,,,,,,,,,,
,,?,0.000725,0,,,,,,stimuli/images/PICTURE_203.png,NIGHT,5e2872fffcdb020467d12799,27/05/1946,2020-07-09_21h09.53.795,proactive,2020.1.2,Win32,60,5f073de81c76c3308c0e4fb3,5f07792229c3d8392991e20a,4,,,,,,cap,,,,,,,,,,,1,1,0,57,57,2,1,,,,,,,,,,,,,,,,,,,,,,,,,,,,,,,,,,,,,,,,,,,,,,,,,,,,,,,,,,,,,,,,,,,,,,
,,?,0.00094,0,,,,,,stimuli/images/PICTURE_85.png,TOILET,5e2872fffcdb020467d12799,27/05/1946,2020-07-09_21h09.53.795,proactive,2020.1.2,Win32,60,5f073de81c76c3308c0e4fb3,5f07792229c3d8392991e20a,4,,,,,,diamond,,,,,,,,,,,5,1,0,58,58,48,1,,,,,,,,,,,,,,,,,,,,,,,,,,,,,,,,,,,,,,,,,,,,,,,,,,,,,,,,,,,,,,,,,,,,,,
,,?,0.000965,0,,,,,,stimuli/images/PICTURE_327.png,CASINO,5e2872fffcdb020467d12799,27/05/1946,2020-07-09_21h09.53.795,proactive,2020.1.2,Win32,60,5f073de81c76c3308c0e4fb3,5f07792229c3d8392991e20a,4,,,,,,helmet,,,,,,,,,,,3,1,0,59,59,20,1,,,,,,,,,,,,,,,,,,,,,,,,,,,,,,,,,,,,,,,,,,,,,,,,,,,,,,,,,,,,,,,,,,,,,,
,,,,,,,,,,,,5e2872fffcdb020467d12799,27/05/1946,2020-07-09_21h09.53.795,proactive,2020.1.2,Win32,60,5f073de81c76c3308c0e4fb3,5f07792229c3d8392991e20a,4,,,,,,,,,,,,,,,,,,,,,,,,0,1,1,1,1,stimuli/learn-block2.csv,,,,,,,,,,,,,,,,,,,,,,,,,,,,,,,,,,,,,,,,,,,,,,,,,,,,,,,,,,,,,,,,
,,,,,,,,,,stimuli/images/PICTURE_285.png,ADVICE,5e2872fffcdb020467d12799,27/05/1946,2020-07-09_21h09.53.795,proactive,2020.1.2,Win32,60,5f073de81c76c3308c0e4fb3,5f07792229c3d8392991e20a,4,,,,,,carrot,,,,,,0,0,0,12,1,2,0,,,,,,,,,,,,,,,,,,,,,,,,,,,,,,,,,,,,,,,,,,,,,,,,,,,,,,,,,,,,,,,,,,,,,,,,,,,
,,,,,,,,,,stimuli/images/PICTURE_327.png,BEAUTY,5e2872fffcdb020467d12799,27/05/1946,2020-07-09_21h09.53.795,proactive,2020.1.2,Win32,60,5f073de81c76c3308c0e4fb3,5f07792229c3d8392991e20a,4,,,,,,helmet,,,,,,0,1,1,48,1,5,0,,,,,,,,,,,,,,,,,,,,,,,,,,,,,,,,,,,,,,,,,,,,,,,,,,,,,,,,,,,,,,,,,,,,,,,,,,,
,,,,,,,,,,stimuli/images/PICTURE_356.png,DANGER,5e2872fffcdb020467d12799,27/05/1946,2020-07-09_21h09.53.795,proactive,2020.1.2,Win32,60,5f073de81c76c3308c0e4fb3,5f07792229c3d8392991e20a,4,,,,,,pawn,,,,,,0,2,2,55,1,6,0,,,,,,,,,,,,,,,,,,,,,,,,,,,,,,,,,,,,,,,,,,,,,,,,,,,,,,,,,,,,,,,,,,,,,,,,,,,
,,,,,,,,,,stimuli/images/PICTURE_302.png,FAMILY,5e2872fffcdb020467d12799,27/05/1946,2020-07-09_21h09.53.795,proactive,2020.1.2,Win32,60,5f073de81c76c3308c0e4fb3,5f07792229c3d8392991e20a,4,,,,,,taxi,,,,,,0,3,3,18,1,2,0,,,,,,,,,,,,,,,,,,,,,,,,,,,,,,,,,,,,,,,,,,,,,,,,,,,,,,,,,,,,,,,,,,,,,,,,,,,
,,,,,,,,,,stimuli/images/PICTURE_380.png,DEATH,5e2872fffcdb020467d12799,27/05/1946,2020-07-09_21h09.53.795,proactive,2020.1.2,Win32,60,5f073de81c76c3308c0e4fb3,5f07792229c3d8392991e20a,4,,,,,,gorilla,,,,,,0,4,4,49,1,5,0,,,,,,,,,,,,,,,,,,,,,,,,,,,,,,,,,,,,,,,,,,,,,,,,,,,,,,,,,,,,,,,,,,,,,,,,,,,
,,,,,,,,,,stimuli/images/PICTURE_215.png,PLENTY,5e2872fffcdb020467d12799,27/05/1946,2020-07-09_21h09.53.795,proactive,2020.1.2,Win32,60,5f073de81c76c3308c0e4fb3,5f07792229c3d8392991e20a,4,,,,,,boot,,,,,,0,5,5,37,1,4,0,,,,,,,,,,,,,,,,,,,,,,,,,,,,,,,,,,,,,,,,,,,,,,,,,,,,,,,,,,,,,,,,,,,,,,,,,,,
,,,,,,,,,,stimuli/images/PICTURE_509.png,PHOTO,5e2872fffcdb020467d12799,27/05/1946,2020-07-09_21h09.53.795,proactive,2020.1.2,Win32,60,5f073de81c76c3308c0e4fb3,5f07792229c3d8392991e20a,4,,,,,,telephone,,,,,,0,6,6,21,1,3,0,,,,,,,,,,,,,,,,,,,,,,,,,,,,,,,,,,,,,,,,,,,,,,,,,,,,,,,,,,,,,,,,,,,,,,,,,,,
,,,,,,,,,,stimuli/images/PICTURE_208.png,LOTS,5e2872fffcdb020467d12799,27/05/1946,2020-07-09_21h09.53.795,proactive,2020.1.2,Win32,60,5f073de81c76c3308c0e4fb3,5f07792229c3d8392991e20a,4,,,,,,microphone,,,,,,0,7,7,10,1,2,0,,,,,,,,,,,,,,,,,,,,,,,,,,,,,,,,,,,,,,,,,,,,,,,,,,,,,,,,,,,,,,,,,,,,,,,,,,,
,,,,,,,,,,stimuli/images/PICTURE_160.png,LEADER,5e2872fffcdb020467d12799,27/05/1946,2020-07-09_21h09.53.795,proactive,2020.1.2,Win32,60,5f073de81c76c3308c0e4fb3,5f07792229c3d8392991e20a,4,,,,,,wheelbarrow,,,,,,0,8,8,3,1,1,0,,,,,,,,,,,,,,,,,,,,,,,,,,,,,,,,,,,,,,,,,,,,,,,,,,,,,,,,,,,,,,,,,,,,,,,,,,,
,,,,,,,,,,stimuli/images/PICTURE_85.png,THING,5e2872fffcdb020467d12799,27/05/1946,2020-07-09_21h09.53.795,proactive,2020.1.2,Win32,60,5f073de81c76c3308c0e4fb3,5f07792229c3d8392991e20a,4,,,,,,diamond,,,,,,0,9,9,15,1,2,0,,,,,,,,,,,,,,,,,,,,,,,,,,,,,,,,,,,,,,,,,,,,,,,,,,,,,,,,,,,,,,,,,,,,,,,,,,,
,,,,,,,,,,stimuli/images/PICTURE_488.png,STYLE,5e2872fffcdb020467d12799,27/05/1946,2020-07-09_21h09.53.795,proactive,2020.1.2,Win32,60,5f073de81c76c3308c0e4fb3,5f07792229c3d8392991e20a,4,,,,,,sun,,,,,,0,10,10,33,1,4,0,,,,,,,,,,,,,,,,,,,,,,,,,,,,,,,,,,,,,,,,,,,,,,,,,,,,,,,,,,,,,,,,,,,,,,,,,,,
,,,,,,,,,,stimuli/images/PICTURE_311.png,FRIEND,5e2872fffcdb020467d12799,27/05/1946,2020-07-09_21h09.53.795,proactive,2020.1.2,Win32,60,5f073de81c76c3308c0e4fb3,5f07792229c3d8392991e20a,4,,,,,,razor,,,,,,0,11,11,34,1,4,0,,,,,,,,,,,,,,,,,,,,,,,,,,,,,,,,,,,,,,,,,,,,,,,,,,,,,,,,,,,,,,,,,,,,,,,,,,,
,,,,,,,,,,stimuli/images/PICTURE_32.png,JUNGLE,5e2872fffcdb020467d12799,27/05/1946,2020-07-09_21h09.53.795,proactive,2020.1.2,Win32,60,5f073de81c76c3308c0e4fb3,5f07792229c3d8392991e20a,4,,,,,,crown,,,,,,0,12,12,45,1,5,0,,,,,,,,,,,,,,,,,,,,,,,,,,,,,,,,,,,,,,,,,,,,,,,,,,,,,,,,,,,,,,,,,,,,,,,,,,,
,,,,,,,,,,stimuli/images/PICTURE_449.png,THING,5e2872fffcdb020467d12799,27/05/1946,2020-07-09_21h09.53.795,proactive,2020.1.2,Win32,60,5f073de81c76c3308c0e4fb3,5f07792229c3d8392991e20a,4,,,,,,bench,,,,,,0,13,13,59,1,6,0,,,,,,,,,,,,,,,,,,,,,,,,,,,,,,,,,,,,,,,,,,,,,,,,,,,,,,,,,,,,,,,,,,,,,,,,,,,
,,,,,,,,,,stimuli/images/PICTURE_667.png,PLENTY,5e2872fffcdb020467d12799,27/05/1946,2020-07-09_21h09.53.795,proactive,2020.1.2,Win32,60,5f073de81c76c3308c0e4fb3,5f07792229c3d8392991e20a,4,,,,,,daisy,,,,,,0,14,14,41,1,5,0,,,,,,,,,,,,,,,,,,,,,,,,,,,,,,,,,,,,,,,,,,,,,,,,,,,,,,,,,,,,,,,,,,,,,,,,,,,
,,,,,,,,,,stimuli/images/PICTURE_469.png,LETTER,5e2872fffcdb020467d12799,27/05/1946,2020-07-09_21h09.53.795,proactive,2020.1.2,Win32,60,5f073de81c76c3308c0e4fb3,5f07792229c3d8392991e20a,4,,,,,,stool,,,,,,0,15,15,42,1,5,0,,,,,,,,,,,,,,,,,,,,,,,,,,,,,,,,,,,,,,,,,,,,,,,,,,,,,,,,,,,,,,,,,,,,,,,,,,,
,,,,,,,,,,stimuli/images/PICTURE_308.png,ESTATE,5e2872fffcdb020467d12799,27/05/1946,2020-07-09_21h09.53.795,proactive,2020.1.2,Win32,60,5f073de81c76c3308c0e4fb3,5f07792229c3d8392991e20a,4,,,,,,dice,,,,,,0,16,16,46,1,5,0,,,,,,,,,,,,,,,,,,,,,,,,,,,,,,,,,,,,,,,,,,,,,,,,,,,,,,,,,,,,,,,,,,,,,,,,,,,
,,,,,,,,,,stimuli/images/PICTURE_654.png,VALLEY,5e2872fffcdb020467d12799,27/05/1946,2020-07-09_21h09.53.795,proactive,2020.1.2,Win32,60,5f073de81c76c3308c0e4fb3,5f07792229c3d8392991e20a,4,,,,,,pencil,,,,,,0,17,17,1,1,1,0,,,,,,,,,,,,,,,,,,,,,,,,,,,,,,,,,,,,,,,,,,,,,,,,,,,,,,,,,,,,,,,,,,,,,,,,,,,
,,,,,,,,,,stimuli/images/PICTURE_233.png,IDEAS,5e2872fffcdb020467d12799,27/05/1946,2020-07-09_21h09.53.795,proactive,2020.1.2,Win32,60,5f073de81c76c3308c0e4fb3,5f07792229c3d8392991e20a,4,,,,,,salt,,,,,,0,18,18,28,1,3,0,,,,,,,,,,,,,,,,,,,,,,,,,,,,,,,,,,,,,,,,,,,,,,,,,,,,,,,,,,,,,,,,,,,,,,,,,,,
,,,,,,,,,,stimuli/images/PICTURE_688.png,CASINO,5e2872fffcdb020467d12799,27/05/1946,2020-07-09_21h09.53.795,proactive,2020.1.2,Win32,60,5f073de81c76c3308c0e4fb3,5f07792229c3d8392991e20a,4,,,,,,runner,,,,,,0,19,19,2,1,1,0,,,,,,,,,,,,,,,,,,,,,,,,,,,,,,,,,,,,,,,,,,,,,,,,,,,,,,,,,,,,,,,,,,,,,,,,,,,
,,,,,,,,,,stimuli/images/PICTURE_208.png,MONTH,5e2872fffcdb020467d12799,27/05/1946,2020-07-09_21h09.53.795,proactive,2020.1.2,Win32,60,5f073de81c76c3308c0e4fb3,5f07792229c3d8392991e20a,4,,,,,,microphone,,,,,,0,20,20,53,1,6,0,,,,,,,,,,,,,,,,,,,,,,,,,,,,,,,,,,,,,,,,,,,,,,,,,,,,,,,,,,,,,,,,,,,,,,,,,,,
,,,,,,,,,,stimuli/images/PICTURE_708.png,CLIENT,5e2872fffcdb020467d12799,27/05/1946,2020-07-09_21h09.53.795,proactive,2020.1.2,Win32,60,5f073de81c76c3308c0e4fb3,5f07792229c3d8392991e20a,4,,,,,,monkey,,,,,,0,21,21,5,1,1,0,,,,,,,,,,,,,,,,,,,,,,,,,,,,,,,,,,,,,,,,,,,,,,,,,,,,,,,,,,,,,,,,,,,,,,,,,,,
,,,,,,,,,,stimuli/images/PICTURE_151.png,GIRL,5e2872fffcdb020467d12799,27/05/1946,2020-07-09_21h09.53.795,proactive,2020.1.2,Win32,60,5f073de81c76c3308c0e4fb3,5f07792229c3d8392991e20a,4,,,,,,tray,,,,,,0,22,22,19,1,2,0,,,,,,,,,,,,,,,,,,,,,,,,,,,,,,,,,,,,,,,,,,,,,,,,,,,,,,,,,,,,,,,,,,,,,,,,,,,
,,,,,,,,,,stimuli/images/PICTURE_348.png,SPEECH,5e2872fffcdb020467d12799,27/05/1946,2020-07-09_21h09.53.795,proactive,2020.1.2,Win32,60,5f073de81c76c3308c0e4fb3,5f07792229c3d8392991e20a,4,,,,,,pepper,,,,,,0,23,23,20,1,3,0,,,,,,,,,,,,,,,,,,,,,,,,,,,,,,,,,,,,,,,,,,,,,,,,,,,,,,,,,,,,,,,,,,,,,,,,,,,
,,,,,,,,,,stimuli/images/PICTURE_123.png,ADVICE,5e2872fffcdb020467d12799,27/05/1946,2020-07-09_21h09.53.795,proactive,2020.1.2,Win32,60,5f073de81c76c3308c0e4fb3,5f07792229c3d8392991e20a,4,,,,,,dart,,,,,,0,24,24,50,1,6,0,,,,,,,,,,,,,,,,,,,,,,,,,,,,,,,,,,,,,,,,,,,,,,,,,,,,,,,,,,,,,,,,,,,,,,,,,,,
,,,,,,,,,,stimuli/images/PICTURE_339.png,PLENTY,5e2872fffcdb020467d12799,27/05/1946,2020-07-09_21h09.53.795,proactive,2020.1.2,Win32,60,5f073de81c76c3308c0e4fb3,5f07792229c3d8392991e20a,4,,,,,,backpack,,,,,,0,25,25,0,1,1,0,,,,,,,,,,,,,,,,,,,,,,,,,,,,,,,,,,,,,,,,,,,,,,,,,,,,,,,,,,,,,,,,,,,,,,,,,,,
,,,,,,,,,,stimuli/images/PICTURE_708.png,YARD,5e2872fffcdb020467d12799,27/05/1946,2020-07-09_21h09.53.795,proactive,2020.1.2,Win32,60,5f073de81c76c3308c0e4fb3,5f07792229c3d8392991e20a,4,,,,,,monkey,,,,,,0,26,26,29,1,3,0,,,,,,,,,,,,,,,,,,,,,,,,,,,,,,,,,,,,,,,,,,,,,,,,,,,,,,,,,,,,,,,,,,,,,,,,,,,
,,,,,,,,,,stimuli/images/PICTURE_95.png,STYLE,5e2872fffcdb020467d12799,27/05/1946,2020-07-09_21h09.53.795,proactive,2020.1.2,Win32,60,5f073de81c76c3308c0e4fb3,5f07792229c3d8392991e20a,4,,,,,,suitcase,,,,,,0,27,27,25,1,3,0,,,,,,,,,,,,,,,,,,,,,,,,,,,,,,,,,,,,,,,,,,,,,,,,,,,,,,,,,,,,,,,,,,,,,,,,,,,
,,,,,,,,,,stimuli/images/PICTURE_160.png,FEET,5e2872fffcdb020467d12799,27/05/1946,2020-07-09_21h09.53.795,proactive,2020.1.2,Win32,60,5f073de81c76c3308c0e4fb3,5f07792229c3d8392991e20a,4,,,,,,wheelbarrow,,,,,,0,28,28,58,1,6,0,,,,,,,,,,,,,,,,,,,,,,,,,,,,,,,,,,,,,,,,,,,,,,,,,,,,,,,,,,,,,,,,,,,,,,,,,,,
,,,,,,,,,,stimuli/images/PICTURE_692.png,MONTH,5e2872fffcdb020467d12799,27/05/1946,2020-07-09_21h09.53.795,proactive,2020.1.2,Win32,60,5f073de81c76c3308c0e4fb3,5f07792229c3d8392991e20a,4,,,,,,cherry,,,,,,0,29,29,16,1,2,0,,,,,,,,,,,,,,,,,,,,,,,,,,,,,,,,,,,,,,,,,,,,,,,,,,,,,,,,,,,,,,,,,,,,,,,,,,,
,,,,,,,,,,stimuli/images/PICTURE_708.png,PENNY,5e2872fffcdb020467d12799,27/05/1946,2020-07-09_21h09.53.795,proactive,2020.1.2,Win32,60,5f073de81c76c3308c0e4fb3,5f07792229c3d8392991e20a,4,,,,,,monkey,,,,,,0,30,30,31,1,4,0,,,,,,,,,,,,,,,,,,,,,,,,,,,,,,,,,,,,,,,,,,,,,,,,,,,,,,,,,,,,,,,,,,,,,,,,,,,
,,,,,,,,,,stimuli/images/PICTURE_470.png,CASINO,5e2872fffcdb020467d12799,27/05/1946,2020-07-09_21h09.53.795,proactive,2020.1.2,Win32,60,5f073de81c76c3308c0e4fb3,5f07792229c3d8392991e20a,4,,,,,,motorbike,,,,,,0,31,31,36,1,4,0,,,,,,,,,,,,,,,,,,,,,,,,,,,,,,,,,,,,,,,,,,,,,,,,,,,,,,,,,,,,,,,,,,,,,,,,,,,
,,,,,,,,,,stimuli/images/PICTURE_380.png,PHOTO,5e2872fffcdb020467d12799,27/05/1946,2020-07-09_21h09.53.795,proactive,2020.1.2,Win32,60,5f073de81c76c3308c0e4fb3,5f07792229c3d8392991e20a,4,,,,,,gorilla,,,,,,0,32,32,52,1,6,0,,,,,,,,,,,,,,,,,,,,,,,,,,,,,,,,,,,,,,,,,,,,,,,,,,,,,,,,,,,,,,,,,,,,,,,,,,,
,,,,,,,,,,stimuli/images/PICTURE_177.png,CARS,5e2872fffcdb020467d12799,27/05/1946,2020-07-09_21h09.53.795,proactive,2020.1.2,Win32,60,5f073de81c76c3308c0e4fb3,5f07792229c3d8392991e20a,4,,,,,,mushroom,,,,,,0,33,33,35,1,4,0,,,,,,,,,,,,,,,,,,,,,,,,,,,,,,,,,,,,,,,,,,,,,,,,,,,,,,,,,,,,,,,,,,,,,,,,,,,
,,,,,,,,,,stimuli/images/PICTURE_491.png,WRITER,5e2872fffcdb020467d12799,27/05/1946,2020-07-09_21h09.53.795,proactive,2020.1.2,Win32,60,5f073de81c76c3308c0e4fb3,5f07792229c3d8392991e20a,4,,,,,,rug,,,,,,0,34,34,57,1,6,0,,,,,,,,,,,,,,,,,,,,,,,,,,,,,,,,,,,,,,,,,,,,,,,,,,,,,,,,,,,,,,,,,,,,,,,,,,,
,,,,,,,,,,stimuli/images/PICTURE_453.png,PLENTY,5e2872fffcdb020467d12799,27/05/1946,2020-07-09_21h09.53.795,proactive,2020.1.2,Win32,60,5f073de81c76c3308c0e4fb3,5f07792229c3d8392991e20a,4,,,,,,scissors,,,,,,0,35,35,56,1,6,0,,,,,,,,,,,,,,,,,,,,,,,,,,,,,,,,,,,,,,,,,,,,,,,,,,,,,,,,,,,,,,,,,,,,,,,,,,,
,,,,,,,,,,stimuli/images/PICTURE_308.png,KIND,5e2872fffcdb020467d12799,27/05/1946,2020-07-09_21h09.53.795,proactive,2020.1.2,Win32,60,5f073de81c76c3308c0e4fb3,5f07792229c3d8392991e20a,4,,,,,,dice,,,,,,0,36,36,54,1,6,0,,,,,,,,,,,,,,,,,,,,,,,,,,,,,,,,,,,,,,,,,,,,,,,,,,,,,,,,,,,,,,,,,,,,,,,,,,,
,,,,,,,,,,stimuli/images/PICTURE_667.png,BATH,5e2872fffcdb020467d12799,27/05/1946,2020-07-09_21h09.53.795,proactive,2020.1.2,Win32,60,5f073de81c76c3308c0e4fb3,5f07792229c3d8392991e20a,4,,,,,,daisy,,,,,,0,37,37,4,1,1,0,,,,,,,,,,,,,,,,,,,,,,,,,,,,,,,,,,,,,,,,,,,,,,,,,,,,,,,,,,,,,,,,,,,,,,,,,,,
,,,,,,,,,,stimuli/images/PICTURE_255.png,AREA,5e2872fffcdb020467d12799,27/05/1946,2020-07-09_21h09.53.795,proactive,2020.1.2,Win32,60,5f073de81c76c3308c0e4fb3,5f07792229c3d8392991e20a,4,,,,,,shovel,,,,,,0,38,38,22,1,3,0,,,,,,,,,,,,,,,,,,,,,,,,,,,,,,,,,,,,,,,,,,,,,,,,,,,,,,,,,,,,,,,,,,,,,,,,,,,
,,,,,,,,,,stimuli/images/PICTURE_469.png,ARTIST,5e2872fffcdb020467d12799,27/05/1946,2020-07-09_21h09.53.795,proactive,2020.1.2,Win32,60,5f073de81c76c3308c0e4fb3,5f07792229c3d8392991e20a,4,,,,,,stool,,,,,,0,39,39,6,1,1,0,,,,,,,,,,,,,,,,,,,,,,,,,,,,,,,,,,,,,,,,,,,,,,,,,,,,,,,,,,,,,,,,,,,,,,,,,,,
,,,,,,,,,,stimuli/images/PICTURE_123.png,ADVICE,5e2872fffcdb020467d12799,27/05/1946,2020-07-09_21h09.53.795,proactive,2020.1.2,Win32,60,5f073de81c76c3308c0e4fb3,5f07792229c3d8392991e20a,4,,,,,,dart,,,,,,0,40,40,40,1,5,0,,,,,,,,,,,,,,,,,,,,,,,,,,,,,,,,,,,,,,,,,,,,,,,,,,,,,,,,,,,,,,,,,,,,,,,,,,,
,,,,,,,,,,stimuli/images/PICTURE_314.png,GODS,5e2872fffcdb020467d12799,27/05/1946,2020-07-09_21h09.53.795,proactive,2020.1.2,Win32,60,5f073de81c76c3308c0e4fb3,5f07792229c3d8392991e20a,4,,,,,,perfume,,,,,,0,41,41,11,1,2,0,,,,,,,,,,,,,,,,,,,,,,,,,,,,,,,,,,,,,,,,,,,,,,,,,,,,,,,,,,,,,,,,,,,,,,,,,,,
,,,,,,,,,,stimuli/images/PICTURE_688.png,WOMEN,5e2872fffcdb020467d12799,27/05/1946,2020-07-09_21h09.53.795,proactive,2020.1.2,Win32,60,5f073de81c76c3308c0e4fb3,5f07792229c3d8392991e20a,4,,,,,,runner,,,,,,0,42,42,14,1,2,0,,,,,,,,,,,,,,,,,,,,,,,,,,,,,,,,,,,,,,,,,,,,,,,,,,,,,,,,,,,,,,,,,,,,,,,,,,,
,,,,,,,,,,stimuli/images/PICTURE_487.png,FLIGHT,5e2872fffcdb020467d12799,27/05/1946,2020-07-09_21h09.53.795,proactive,2020.1.2,Win32,60,5f073de81c76c3308c0e4fb3,5f07792229c3d8392991e20a,4,,,,,,basket,,,,,,0,43,43,9,1,1,0,,,,,,,,,,,,,,,,,,,,,,,,,,,,,,,,,,,,,,,,,,,,,,,,,,,,,,,,,,,,,,,,,,,,,,,,,,,
,,,,,,,,,,stimuli/images/PICTURE_314.png,SAKE,5e2872fffcdb020467d12799,27/05/1946,2020-07-09_21h09.53.795,proactive,2020.1.2,Win32,60,5f073de81c76c3308c0e4fb3,5f07792229c3d8392991e20a,4,,,,,,perfume,,,,,,0,44,44,7,1,1,0,,,,,,,,,,,,,,,,,,,,,,,,,,,,,,,,,,,,,,,,,,,,,,,,,,,,,,,,,,,,,,,,,,,,,,,,,,,
,,,,,,,,,,stimuli/images/PICTURE_68.png,MILE,5e2872fffcdb020467d12799,27/05/1946,2020-07-09_21h09.53.795,proactive,2020.1.2,Win32,60,5f073de81c76c3308c0e4fb3,5f07792229c3d8392991e20a,4,,,,,,candle,,,,,,0,45,45,44,1,5,0,,,,,,,,,,,,,,,,,,,,,,,,,,,,,,,,,,,,,,,,,,,,,,,,,,,,,,,,,,,,,,,,,,,,,,,,,,,
,,,,,,,,,,stimuli/images/PICTURE_504.png,BODY,5e2872fffcdb020467d12799,27/05/1946,2020-07-09_21h09.53.795,proactive,2020.1.2,Win32,60,5f073de81c76c3308c0e4fb3,5f07792229c3d8392991e20a,4,,,,,,wheel,,,,,,0,46,46,8,1,1,0,,,,,,,,,,,,,,,,,,,,,,,,,,,,,,,,,,,,,,,,,,,,,,,,,,,,,,,,,,,,,,,,,,,,,,,,,,,
,,,,,,,,,,stimuli/images/PICTURE_203.png,ARTIST,5e2872fffcdb020467d12799,27/05/1946,2020-07-09_21h09.53.795,proactive,2020.1.2,Win32,60,5f073de81c76c3308c0e4fb3,5f07792229c3d8392991e20a,4,,,,,,cap,,,,,,0,47,47,26,1,3,0,,,,,,,,,,,,,,,,,,,,,,,,,,,,,,,,,,,,,,,,,,,,,,,,,,,,,,,,,,,,,,,,,,,,,,,,,,,
,,,,,,,,,,stimuli/images/PICTURE_208.png,THING,5e2872fffcdb020467d12799,27/05/1946,2020-07-09_21h09.53.795,proactive,2020.1.2,Win32,60,5f073de81c76c3308c0e4fb3,5f07792229c3d8392991e20a,4,,,,,,microphone,,,,,,0,48,48,47,1,5,0,,,,,,,,,,,,,,,,,,,,,,,,,,,,,,,,,,,,,,,,,,,,,,,,,,,,,,,,,,,,,,,,,,,,,,,,,,,
,,,,,,,,,,stimuli/images/PICTURE_491.png,ROOF,5e2872fffcdb020467d12799,27/05/1946,2020-07-09_21h09.53.795,proactive,2020.1.2,Win32,60,5f073de81c76c3308c0e4fb3,5f07792229c3d8392991e20a,4,,,,,,rug,,,,,,0,49,49,24,1,3,0,,,,,,,,,,,,,,,,,,,,,,,,,,,,,,,,,,,,,,,,,,,,,,,,,,,,,,,,,,,,,,,,,,,,,,,,,,,
,,,,,,,,,,stimuli/images/PICTURE_744.png,SYSTEM,5e2872fffcdb020467d12799,27/05/1946,2020-07-09_21h09.53.795,proactive,2020.1.2,Win32,60,5f073de81c76c3308c0e4fb3,5f07792229c3d8392991e20a,4,,,,,,ring,,,,,,0,50,50,43,1,5,0,,,,,,,,,,,,,,,,,,,,,,,,,,,,,,,,,,,,,,,,,,,,,,,,,,,,,,,,,,,,,,,,,,,,,,,,,,,
,,,,,,,,,,stimuli/images/PICTURE_147.png,MOMENT,5e2872fffcdb020467d12799,27/05/1946,2020-07-09_21h09.53.795,proactive,2020.1.2,Win32,60,5f073de81c76c3308c0e4fb3,5f07792229c3d8392991e20a,4,,,,,,hanger,,,,,,0,51,51,51,1,6,0,,,,,,,,,,,,,,,,,,,,,,,,,,,,,,,,,,,,,,,,,,,,,,,,,,,,,,,,,,,,,,,,,,,,,,,,,,,
,,,,,,,,,,stimuli/images/PICTURE_744.png,SAKE,5e2872fffcdb020467d12799,27/05/1946,2020-07-09_21h09.53.795,proactive,2020.1.2,Win32,60,5f073de81c76c3308c0e4fb3,5f07792229c3d8392991e20a,4,,,,,,ring,,,,,,0,52,52,17,1,2,0,,,,,,,,,,,,,,,,,,,,,,,,,,,,,,,,,,,,,,,,,,,,,,,,,,,,,,,,,,,,,,,,,,,,,,,,,,,
,,,,,,,,,,stimuli/images/PICTURE_248.png,DOZEN,5e2872fffcdb020467d12799,27/05/1946,2020-07-09_21h09.53.795,proactive,2020.1.2,Win32,60,5f073de81c76c3308c0e4fb3,5f07792229c3d8392991e20a,4,,,,,,cart,,,,,,0,53,53,39,1,4,0,,,,,,,,,,,,,,,,,,,,,,,,,,,,,,,,,,,,,,,,,,,,,,,,,,,,,,,,,,,,,,,,,,,,,,,,,,,
,,,,,,,,,,stimuli/images/PICTURE_677.png,MILE,5e2872fffcdb020467d12799,27/05/1946,2020-07-09_21h09.53.795,proactive,2020.1.2,Win32,60,5f073de81c76c3308c0e4fb3,5f07792229c3d8392991e20a,4,,,,,,map,,,,,,0,54,54,30,1,4,0,,,,,,,,,,,,,,,,,,,,,,,,,,,,,,,,,,,,,,,,,,,,,,,,,,,,,,,,,,,,,,,,,,,,,,,,,,,
,,,,,,,,,,stimuli/images/PICTURE_675.png,WEAPON,5e2872fffcdb020467d12799,27/05/1946,2020-07-09_21h09.53.795,proactive,2020.1.2,Win32,60,5f073de81c76c3308c0e4fb3,5f07792229c3d8392991e20a,4,,,,,,windmill,,,,,,0,55,55,32,1,4,0,,,,,,,,,,,,,,,,,,,,,,,,,,,,,,,,,,,,,,,,,,,,,,,,,,,,,,,,,,,,,,,,,,,,,,,,,,,
,,,,,,,,,,stimuli/images/PICTURE_453.png,DUDE,5e2872fffcdb020467d12799,27/05/1946,2020-07-09_21h09.53.795,proactive,2020.1.2,Win32,60,5f073de81c76c3308c0e4fb3,5f07792229c3d8392991e20a,4,,,,,,scissors,,,,,,0,56,56,27,1,3,0,,,,,,,,,,,,,,,,,,,,,,,,,,,,,,,,,,,,,,,,,,,,,,,,,,,,,,,,,,,,,,,,,,,,,,,,,,,
,,,,,,,,,,stimuli/images/PICTURE_467.png,DEMON,5e2872fffcdb020467d12799,27/05/1946,2020-07-09_21h09.53.795,proactive,2020.1.2,Win32,60,5f073de81c76c3308c0e4fb3,5f07792229c3d8392991e20a,4,,,,,,peg,,,,,,0,57,57,23,1,3,0,,,,,,,,,,,,,,,,,,,,,,,,,,,,,,,,,,,,,,,,,,,,,,,,,,,,,,,,,,,,,,,,,,,,,,,,,,,
,,,,,,,,,,stimuli/images/PICTURE_311.png,BEAUTY,5e2872fffcdb020467d12799,27/05/1946,2020-07-09_21h09.53.795,proactive,2020.1.2,Win32,60,5f073de81c76c3308c0e4fb3,5f07792229c3d8392991e20a,4,,,,,,razor,,,,,,0,58,58,13,1,2,0,,,,,,,,,,,,,,,,,,,,,,,,,,,,,,,,,,,,,,,,,,,,,,,,,,,,,,,,,,,,,,,,,,,,,,,,,,,
,,?,0.00128,0,,,,,,stimuli/images/PICTURE_123.png,ADVICE,5e2872fffcdb020467d12799,27/05/1946,2020-07-09_21h09.53.795,proactive,2020.1.2,Win32,60,5f073de81c76c3308c0e4fb3,5f07792229c3d8392991e20a,4,,,,,,dart,,,,,,,,,,,6,0,0,0,0,50,1,,,,,,,,,,,,,,,,,,,,,,,,,,,,,,,,,,,,,,,,,,,,,,,,,,,,,,,,,,,,,,,,,,,,,,
,,?,0.00106,0,,,,,,stimuli/images/PICTURE_208.png,LOTS,5e2872fffcdb020467d12799,27/05/1946,2020-07-09_21h09.53.795,proactive,2020.1.2,Win32,60,5f073de81c76c3308c0e4fb3,5f07792229c3d8392991e20a,4,,,,,,microphone,,,,,,,,,,,2,0,0,1,1,10,1,,,,,,,,,,,,,,,,,,,,,,,,,,,,,,,,,,,,,,,,,,,,,,,,,,,,,,,,,,,,,,,,,,,,,,
,,?,0.00115,0,,,,,,stimuli/images/PICTURE_339.png,PLENTY,5e2872fffcdb020467d12799,27/05/1946,2020-07-09_21h09.53.795,proactive,2020.1.2,Win32,60,5f073de81c76c3308c0e4fb3,5f07792229c3d8392991e20a,4,,,,,,backpack,,,,,,,,,,,1,0,0,2,2,0,1,,,,,,,,,,,,,,,,,,,,,,,,,,,,,,,,,,,,,,,,,,,,,,,,,,,,,,,,,,,,,,,,,,,,,,
,,?,0.000715,0,,,,,,stimuli/images/PICTURE_667.png,PLENTY,5e2872fffcdb020467d12799,27/05/1946,2020-07-09_21h09.53.795,proactive,2020.1.2,Win32,60,5f073de81c76c3308c0e4fb3,5f07792229c3d8392991e20a,4,,,,,,daisy,,,,,,,,,,,5,0,0,3,3,41,1,,,,,,,,,,,,,,,,,,,,,,,,,,,,,,,,,,,,,,,,,,,,,,,,,,,,,,,,,,,,,,,,,,,,,,
,,Y,15.01003,0,,,,,,stimuli/images/PICTURE_677.png,MILE,5e2872fffcdb020467d12799,27/05/1946,2020-07-09_21h09.53.795,proactive,2020.1.2,Win32,60,5f073de81c76c3308c0e4fb3,5f07792229c3d8392991e20a,4,,,,,,map,,,,,,,,,,,4,0,0,4,4,30,1,,,,,,,,,,,,,,,,,,,,,,,,,,,,,,,,,,,,,,,,,,,,,,,,,,,,,,,,,,,,,,,,,,,,,,
,,?,0.000915,0,,,,,,stimuli/images/PICTURE_744.png,SYSTEM,5e2872fffcdb020467d12799,27/05/1946,2020-07-09_21h09.53.795,proactive,2020.1.2,Win32,60,5f073de81c76c3308c0e4fb3,5f07792229c3d8392991e20a,4,,,,,,ring,,,,,,,,,,,5,0,0,5,5,43,1,,,,,,,,,,,,,,,,,,,,,,,,,,,,,,,,,,,,,,,,,,,,,,,,,,,,,,,,,,,,,,,,,,,,,,
,,N,15.0108,0,,,,,,stimuli/images/PICTURE_311.png,FRIEND,5e2872fffcdb020467d12799,27/05/1946,2020-07-09_21h09.53.795,proactive,2020.1.2,Win32,60,5f073de81c76c3308c0e4fb3,5f07792229c3d8392991e20a,4,,,,,,razor,,,,,,,,,,,4,0,0,6,6,34,1,,,,,,,,,,,,,,,,,,,,,,,,,,,,,,,,,,,,,,,,,,,,,,,,,,,,,,,,,,,,,,,,,,,,,,
,,?,0.00095,0,,,,,,stimuli/images/PICTURE_467.png,DEMON,5e2872fffcdb020467d12799,27/05/1946,2020-07-09_21h09.53.795,proactive,2020.1.2,Win32,60,5f073de81c76c3308c0e4fb3,5f07792229c3d8392991e20a,4,,,,,,peg,,,,,,,,,,,3,0,0,7,7,23,1,,,,,,,,,,,,,,,,,,,,,,,,,,,,,,,,,,,,,,,,,,,,,,,,,,,,,,,,,,,,,,,,,,,,,,
,,?,0.000755,0,,,,,,stimuli/images/PICTURE_487.png,FLIGHT,5e2872fffcdb020467d12799,27/05/1946,2020-07-09_21h09.53.795,proactive,2020.1.2,Win32,60,5f073de81c76c3308c0e4fb3,5f07792229c3d8392991e20a,4,,,,,,basket,,,,,,,,,,,1,0,0,8,8,9,1,,,,,,,,,,,,,,,,,,,,,,,,,,,,,,,,,,,,,,,,,,,,,,,,,,,,,,,,,,,,,,,,,,,,,,
,,?,0.00071,0,,,,,,stimuli/images/PICTURE_380.png,PHOTO,5e2872fffcdb020467d12799,27/05/1946,2020-07-09_21h09.53.795,proactive,2020.1.2,Win32,60,5f073de81c76c3308c0e4fb3,5f07792229c3d8392991e20a,4,,,,,,gorilla,,,,,,,,,,,6,0,0,9,9,52,1,,,,,,,,,,,,,,,,,,,,,,,,,,,,,,,,,,,,,,,,,,,,,,,,,,,,,,,,,,,,,,,,,,,,,,
,,?,0.00069,0,,,,,,stimuli/images/PICTURE_208.png,MONTH,5e2872fffcdb020467d12799,27/05/1946,2020-07-09_21h09.53.795,proactive,2020.1.2,Win32,60,5f073de81c76c3308c0e4fb3,5f07792229c3d8392991e20a,4,,,,,,microphone,,,,,,,,,,,6,0,0,10,10,53,1,,,,,,,,,,,,,,,,,,,,,,,,,,,,,,,,,,,,,,,,,,,,,,,,,,,,,,,,,,,,,,,,,,,,,,
,,?,0.000805,0,,,,,,stimuli/images/PICTURE_356.png,DANGER,5e2872fffcdb020467d12799,27/05/1946,2020-07-09_21h09.53.795,proactive,2020.1.2,Win32,60,5f073de81c76c3308c0e4fb3,5f07792229c3d8392991e20a,4,,,,,,pawn,,,,,,,,,,,6,0,0,11,11,55,1,,,,,,,,,,,,,,,,,,,,,,,,,,,,,,,,,,,,,,,,,,,,,,,,,,,,,,,,,,,,,,,,,,,,,,
,,?,0.00071,0,,,,,,stimuli/images/PICTURE_233.png,IDEAS,5e2872fffcdb020467d12799,27/05/1946,2020-07-09_21h09.53.795,proactive,2020.1.2,Win32,60,5f073de81c76c3308c0e4fb3,5f07792229c3d8392991e20a,4,,,,,,salt,,,,,,,,,,,3,0,0,12,12,28,1,,,,,,,,,,,,,,,,,,,,,,,,,,,,,,,,,,,,,,,,,,,,,,,,,,,,,,,,,,,,,,,,,,,,,,
,,?,0.00073,0,,,,,,stimuli/images/PICTURE_688.png,CASINO,5e2872fffcdb020467d12799,27/05/1946,2020-07-09_21h09.53.795,proactive,2020.1.2,Win32,60,5f073de81c76c3308c0e4fb3,5f07792229c3d8392991e20a,4,,,,,,runner,,,,,,,,,,,1,0,0,13,13,2,1,,,,,,,,,,,,,,,,,,,,,,,,,,,,,,,,,,,,,,,,,,,,,,,,,,,,,,,,,,,,,,,,,,,,,,
,,Y,15.01519,0,,,,,,stimuli/images/PICTURE_248.png,DOZEN,5e2872fffcdb020467d12799,27/05/1946,2020-07-09_21h09.53.795,proactive,2020.1.2,Win32,60,5f073de81c76c3308c0e4fb3,5f07792229c3d8392991e20a,4,,,,,,cart,,,,,,,,,,,4,0,0,14,14,39,1,,,,,,,,,,,,,,,,,,,,,,,,,,,,,,,,,,,,,,,,,,,,,,,,,,,,,,,,,,,,,,,,,,,,,,
,,?,0.00096,0,,,,,,stimuli/images/PICTURE_348.png,SPEECH,5e2872fffcdb020467d12799,27/05/1946,2020-07-09_21h09.53.795,proactive,2020.1.2,Win32,60,5f073de81c76c3308c0e4fb3,5f07792229c3d8392991e20a,4,,,,,,pepper,,,,,,,,,,,3,0,0,15,15,20,1,,,,,,,,,,,,,,,,,,,,,,,,,,,,,,,,,,,,,,,,,,,,,,,,,,,,,,,,,,,,,,,,,,,,,,
,,?,0.00074,0,,,,,,stimuli/images/PICTURE_504.png,BODY,5e2872fffcdb020467d12799,27/05/1946,2020-07-09_21h09.53.795,proactive,2020.1.2,Win32,60,5f073de81c76c3308c0e4fb3,5f07792229c3d8392991e20a,4,,,,,,wheel,,,,,,,,,,,1,0,0,16,16,8,1,,,,,,,,,,,,,,,,,,,,,,,,,,,,,,,,,,,,,,,,,,,,,,,,,,,,,,,,,,,,,,,,,,,,,,
,,?,0.00074,0,,,,,,stimuli/images/PICTURE_95.png,STYLE,5e2872fffcdb020467d12799,27/05/1946,2020-07-09_21h09.53.795,proactive,2020.1.2,Win32,60,5f073de81c76c3308c0e4fb3,5f07792229c3d8392991e20a,4,,,,,,suitcase,,,,,,,,,,,3,0,0,17,17,25,1,,,,,,,,,,,,,,,,,,,,,,,,,,,,,,,,,,,,,,,,,,,,,,,,,,,,,,,,,,,,,,,,,,,,,,
