consent_key.keys,consent_key.rt,recalled,recalled_rt,recall_acc,example_recall.thisRepN,example_recall.thisTrialN,example_recall.thisN,example_recall.thisIndex,example_recall.ran,file,word,participant,please enter your date of birth (dd/mm/yyyy),date,expName,psychopyVersion,OS,frameRate,STUDY_ID,SESSION_ID,list,prac_learn_study_loop.thisRepN,prac_learn_study_loop.thisTrialN,prac_learn_study_loop.thisN,prac_learn_study_loop.thisIndex,prac_learn_study_loop.ran,image,prac_learn_test_loop.thisRepN,prac_learn_test_loop.thisTrialN,prac_learn_test_loop.thisN,prac_learn_test_loop.thisIndex,prac_learn_test_loop.ran,learn_study_loop.thisRepN,learn_study_loop.thisTrialN,learn_study_loop.thisN,learn_study_loop.thisIndex,learn_study_loop.ran,list_no,block_no,learn_test_loop.thisRepN,learn_test_loop.thisTrialN,learn_test_loop.thisN,learn_test_loop.thisIndex,learn_test_loop.ran,learn_blocks.thisRepN,learn_blocks.thisTrialN,learn_blocks.thisN,learn_blocks.thisIndex,learn_blocks.ran,block_csv,key_resp_13.keys,key_resp_13.rt,learn_blocks_loop.thisRepN,learn_blocks_loop.thisTrialN,learn_blocks_loop.thisN,learn_blocks_loop.thisIndex,learn_blocks_loop.ran,final_learn_test.thisRepN,final_learn_test.thisTrialN,final_learn_test.thisN,final_learn_test.thisIndex,final_learn_test.ran,prac_wm_test_loop.thisRepN,prac_wm_test_loop.thisTrialN,prac_wm_test_loop.thisN,prac_wm_test_loop.thisIndex,prac_wm_test_loop.ran,wm_recalled1,wm_recall_rt1,wm_probed1,wm_recall_acc1,wm_recalled2,wm_recall_rt2,wm_probed2,wm_recall_acc2,wm_recalled3,wm_recall_rt3,wm_probed3,wm_recall_acc3,wm_recalled4,wm_recall_rt4,wm_probed4,wm_recall_acc4,prac_wm_trial_loop.thisRepN,prac_wm_trial_loop.thisTrialN,prac_wm_trial_loop.thisN,prac_wm_trial_loop.thisIndex,prac_wm_trial_loop.ran,word1,image1,file1,item_type1,word2,image2,file2,item_type2,word4,image4,file4,item_type4,word3,image3,file3,item_type3,wm_test_loop.thisRepN,wm_test_loop.thisTrialN,wm_test_loop.thisN,wm_test_loop.thisIndex,wm_test_loop.ran,wm_trial_loop.thisRepN,wm_trial_loop.thisTrialN,wm_trial_loop.thisN,wm_trial_loop.thisIndex,wm_trial_loop.ran
y,12.539,TUB,4.055,0,0,0,0,0,1,stimuli/images/PICTURE_747.png,TOUGH,5e4cd31b485acc129e20fbdd,26/12/1989,2020-07-08_11h06.54.879,proactive,2020.1.2,Win32,60,5f035e5afe130c270d6ae6dd,5f05e0d5859dcb0b41b88d73,5,,,,,,,,,,,,,,,,,,,,,,,,,,,,,,,,,,,,,,,,,,,,,,,,,,,,,,,,,,,,,,,,,,,,,,,,,,,,,,,,,,,,,,,,,,,,,
,,,,,,,,,,stimuli/images/PICTURE_727.png,CELL,5e4cd31b485acc129e20fbdd,26/12/1989,2020-07-08_11h06.54.879,proactive,2020.1.2,Win32,60,5f035e5afe130c270d6ae6dd,5f05e0d5859dcb0b41b88d73,5,0,0,0,1,1,hose,,,,,,,,,,,,,,,,,,,,,,,,,,,,,,,,,,,,,,,,,,,,,,,,,,,,,,,,,,,,,,,,,,,,,,,,,,,,,,,,,,,,,,,
,,,,,,,,,,stimuli/images/PICTURE_378.png,LOSS,5e4cd31b485acc129e20fbdd,26/12/1989,2020-07-08_11h06.54.879,proactive,2020.1.2,Win32,60,5f035e5afe130c270d6ae6dd,5f05e0d5859dcb0b41b88d73,5,0,1,1,2,1,lobster,,,,,,,,,,,,,,,,,,,,,,,,,,,,,,,,,,,,,,,,,,,,,,,,,,,,,,,,,,,,,,,,,,,,,,,,,,,,,,,,,,,,,,,
,,,,,,,,,,stimuli/images/PICTURE_658.png,DEVIL,5e4cd31b485acc129e20fbdd,26/12/1989,2020-07-08_11h06.54.879,proactive,2020.1.2,Win32,60,5f035e5afe130c270d6ae6dd,5f05e0d5859dcb0b41b88d73,5,0,2,2,3,1,crow,,,,,,,,,,,,,,,,,,,,,,,,,,,,,,,,,,,,,,,,,,,,,,,,,,,,,,,,,,,,,,,,,,,,,,,,,,,,,,,,,,,,,,,
,,,,,,,,,,stimuli/images/PICTURE_269.png,GENIUS,5e4cd31b485acc129e20fbdd,26/12/1989,2020-07-08_11h06.54.879,proactive,2020.1.2,Win32,60,5f035e5afe130c270d6ae6dd,5f05e0d5859dcb0b41b88d73,5,0,3,3,0,1,chameleon,,,,,,,,,,,,,,,,,,,,,,,,,,,,,,,,,,,,,,,,,,,,,,,,,,,,,,,,,,,,,,,,,,,,,,,,,,,,,,,,,,,,,,,
,,GENIUS,6.427,1,,,,,,stimuli/images/PICTURE_269.png,GENIUS,5e4cd31b485acc129e20fbdd,26/12/1989,2020-07-08_11h06.54.879,proactive,2020.1.2,Win32,60,5f035e5afe130c270d6ae6dd,5f05e0d5859dcb0b41b88d73,5,,,,,,chameleon,0,0,0,0,1,,,,,,,,,,,,,,,,,,,,,,,,,,,,,,,,,,,,,,,,,,,,,,,,,,,,,,,,,,,,,,,,,,,,,,,,,,,,,,,,,,
,,DEVIL,1.493,1,,,,,,stimuli/images/PICTURE_658.png,DEVIL,5e4cd31b485acc129e20fbdd,26/12/1989,2020-07-08_11h06.54.879,proactive,2020.1.2,Win32,60,5f035e5afe130c270d6ae6dd,5f05e0d5859dcb0b41b88d73,5,,,,,,crow,0,1,1,3,1,,,,,,,,,,,,,,,,,,,,,,,,,,,,,,,,,,,,,,,,,,,,,,,,,,,,,,,,,,,,,,,,,,,,,,,,,,,,,,,,,,
,,CELL,0.98,1,,,,,,stimuli/images/PICTURE_727.png,CELL,5e4cd31b485acc129e20fbdd,26/12/1989,2020-07-08_11h06.54.879,proactive,2020.1.2,Win32,60,5f035e5afe130c270d6ae6dd,5f05e0d5859dcb0b41b88d73,5,,,,,,hose,0,2,2,1,1,,,,,,,,,,,,,,,,,,,,,,,,,,,,,,,,,,,,,,,,,,,,,,,,,,,,,,,,,,,,,,,,,,,,,,,,,,,,,,,,,,
,,KILLER,1.497,1,,,,,,stimuli/images/PICTURE_697.png,KILLER,5e4cd31b485acc129e20fbdd,26/12/1989,2020-07-08_11h06.54.879,proactive,2020.1.2,Win32,60,5f035e5afe130c270d6ae6dd,5f05e0d5859dcb0b41b88d73,5,,,,,,peach,0,3,3,4,1,,,,,,,,,,,,,,,,,,,,,,,,,,,,,,,,,,,,,,,,,,,,,,,,,,,,,,,,,,,,,,,,,,,,,,,,,,,,,,,,,,
,,LOSS,1.266,1,,,,,,stimuli/images/PICTURE_378.png,LOSS,5e4cd31b485acc129e20fbdd,26/12/1989,2020-07-08_11h06.54.879,proactive,2020.1.2,Win32,60,5f035e5afe130c270d6ae6dd,5f05e0d5859dcb0b41b88d73,5,,,,,,lobster,0,4,4,2,1,,,,,,,,,,,,,,,,,,,,,,,,,,,,,,,,,,,,,,,,,,,,,,,,,,,,,,,,,,,,,,,,,,,,,,,,,,,,,,,,,,
,,,,,,,,,,stimuli/images/PICTURE_308.png,KIND,5e4cd31b485acc129e20fbdd,26/12/1989,2020-07-08_11h06.54.879,proactive,2020.1.2,Win32,60,5f035e5afe130c270d6ae6dd,5f05e0d5859dcb0b41b88d73,5,,,,,,dice,,,,,,0,0,0,54,1,6,0,,,,,,,,,,,,,,,,,,,,,,,,,,,,,,,,,,,,,,,,,,,,,,,,,,,,,,,,,,,,,,,,,,,,,,,,,,,
,,,,,,,,,,stimuli/images/PICTURE_469.png,ARTIST,5e4cd31b485acc129e20fbdd,26/12/1989,2020-07-08_11h06.54.879,proactive,2020.1.2,Win32,60,5f035e5afe130c270d6ae6dd,5f05e0d5859dcb0b41b88d73,5,,,,,,stool,,,,,,0,1,1,6,1,1,0,,,,,,,,,,,,,,,,,,,,,,,,,,,,,,,,,,,,,,,,,,,,,,,,,,,,,,,,,,,,,,,,,,,,,,,,,,,
,,,,,,,,,,stimuli/images/PICTURE_491.png,WRITER,5e4cd31b485acc129e20fbdd,26/12/1989,2020-07-08_11h06.54.879,proactive,2020.1.2,Win32,60,5f035e5afe130c270d6ae6dd,5f05e0d5859dcb0b41b88d73,5,,,,,,rug,,,,,,0,2,2,57,1,6,0,,,,,,,,,,,,,,,,,,,,,,,,,,,,,,,,,,,,,,,,,,,,,,,,,,,,,,,,,,,,,,,,,,,,,,,,,,,
,,,,,,,,,,stimuli/images/PICTURE_667.png,PLENTY,5e4cd31b485acc129e20fbdd,26/12/1989,2020-07-08_11h06.54.879,proactive,2020.1.2,Win32,60,5f035e5afe130c270d6ae6dd,5f05e0d5859dcb0b41b88d73,5,,,,,,daisy,,,,,,0,3,3,41,1,5,0,,,,,,,,,,,,,,,,,,,,,,,,,,,,,,,,,,,,,,,,,,,,,,,,,,,,,,,,,,,,,,,,,,,,,,,,,,,
,,,,,,,,,,stimuli/images/PICTURE_215.png,PLENTY,5e4cd31b485acc129e20fbdd,26/12/1989,2020-07-08_11h06.54.879,proactive,2020.1.2,Win32,60,5f035e5afe130c270d6ae6dd,5f05e0d5859dcb0b41b88d73,5,,,,,,boot,,,,,,0,4,4,37,1,4,0,,,,,,,,,,,,,,,,,,,,,,,,,,,,,,,,,,,,,,,,,,,,,,,,,,,,,,,,,,,,,,,,,,,,,,,,,,,
,,,,,,,,,,stimuli/images/PICTURE_688.png,WOMEN,5e4cd31b485acc129e20fbdd,26/12/1989,2020-07-08_11h06.54.879,proactive,2020.1.2,Win32,60,5f035e5afe130c270d6ae6dd,5f05e0d5859dcb0b41b88d73,5,,,,,,runner,,,,,,0,5,5,14,1,2,0,,,,,,,,,,,,,,,,,,,,,,,,,,,,,,,,,,,,,,,,,,,,,,,,,,,,,,,,,,,,,,,,,,,,,,,,,,,
,,,,,,,,,,stimuli/images/PICTURE_308.png,ESTATE,5e4cd31b485acc129e20fbdd,26/12/1989,2020-07-08_11h06.54.879,proactive,2020.1.2,Win32,60,5f035e5afe130c270d6ae6dd,5f05e0d5859dcb0b41b88d73,5,,,,,,dice,,,,,,0,6,6,46,1,5,0,,,,,,,,,,,,,,,,,,,,,,,,,,,,,,,,,,,,,,,,,,,,,,,,,,,,,,,,,,,,,,,,,,,,,,,,,,,
,,,,,,,,,,stimuli/images/PICTURE_449.png,THING,5e4cd31b485acc129e20fbdd,26/12/1989,2020-07-08_11h06.54.879,proactive,2020.1.2,Win32,60,5f035e5afe130c270d6ae6dd,5f05e0d5859dcb0b41b88d73,5,,,,,,bench,,,,,,0,7,7,59,1,6,0,,,,,,,,,,,,,,,,,,,,,,,,,,,,,,,,,,,,,,,,,,,,,,,,,,,,,,,,,,,,,,,,,,,,,,,,,,,
,,,,,,,,,,stimuli/images/PICTURE_203.png,ARTIST,5e4cd31b485acc129e20fbdd,26/12/1989,2020-07-08_11h06.54.879,proactive,2020.1.2,Win32,60,5f035e5afe130c270d6ae6dd,5f05e0d5859dcb0b41b88d73,5,,,,,,cap,,,,,,0,8,8,26,1,3,0,,,,,,,,,,,,,,,,,,,,,,,,,,,,,,,,,,,,,,,,,,,,,,,,,,,,,,,,,,,,,,,,,,,,,,,,,,,
,,,,,,,,,,stimuli/images/PICTURE_314.png,SAKE,5e4cd31b485acc129e20fbdd,26/12/1989,2020-07-08_11h06.54.879,proactive,2020.1.2,Win32,60,5f035e5afe130c270d6ae6dd,5f05e0d5859dcb0b41b88d73,5,,,,,,perfume,,,,,,0,9,9,7,1,1,0,,,,,,,,,,,,,,,,,,,,,,,,,,,,,,,,,,,,,,,,,,,,,,,,,,,,,,,,,,,,,,,,,,,,,,,,,,,
,,,,,,,,,,stimuli/images/PICTURE_311.png,FRIEND,5e4cd31b485acc129e20fbdd,26/12/1989,2020-07-08_11h06.54.879,proactive,2020.1.2,Win32,60,5f035e5afe130c270d6ae6dd,5f05e0d5859dcb0b41b88d73,5,,,,,,razor,,,,,,0,10,10,34,1,4,0,,,,,,,,,,,,,,,,,,,,,,,,,,,,,,,,,,,,,,,,,,,,,,,,,,,,,,,,,,,,,,,,,,,,,,,,,,,
,,,,,,,,,,stimuli/images/PICTURE_467.png,DEMON,5e4cd31b485acc129e20fbdd,26/12/1989,2020-07-08_11h06.54.879,proactive,2020.1.2,Win32,60,5f035e5afe130c270d6ae6dd,5f05e0d5859dcb0b41b88d73,5,,,,,,peg,,,,,,0,11,11,23,1,3,0,,,,,,,,,,,,,,,,,,,,,,,,,,,,,,,,,,,,,,,,,,,,,,,,,,,,,,,,,,,,,,,,,,,,,,,,,,,
,,,,,,,,,,stimuli/images/PICTURE_68.png,MILE,5e4cd31b485acc129e20fbdd,26/12/1989,2020-07-08_11h06.54.879,proactive,2020.1.2,Win32,60,5f035e5afe130c270d6ae6dd,5f05e0d5859dcb0b41b88d73,5,,,,,,candle,,,,,,0,12,12,44,1,5,0,,,,,,,,,,,,,,,,,,,,,,,,,,,,,,,,,,,,,,,,,,,,,,,,,,,,,,,,,,,,,,,,,,,,,,,,,,,
,,,,,,,,,,stimuli/images/PICTURE_692.png,MONTH,5e4cd31b485acc129e20fbdd,26/12/1989,2020-07-08_11h06.54.879,proactive,2020.1.2,Win32,60,5f035e5afe130c270d6ae6dd,5f05e0d5859dcb0b41b88d73,5,,,,,,cherry,,,,,,0,13,13,16,1,2,0,,,,,,,,,,,,,,,,,,,,,,,,,,,,,,,,,,,,,,,,,,,,,,,,,,,,,,,,,,,,,,,,,,,,,,,,,,,
,,,,,,,,,,stimuli/images/PICTURE_123.png,ADVICE,5e4cd31b485acc129e20fbdd,26/12/1989,2020-07-08_11h06.54.879,proactive,2020.1.2,Win32,60,5f035e5afe130c270d6ae6dd,5f05e0d5859dcb0b41b88d73,5,,,,,,dart,,,,,,0,14,14,50,1,6,0,,,,,,,,,,,,,,,,,,,,,,,,,,,,,,,,,,,,,,,,,,,,,,,,,,,,,,,,,,,,,,,,,,,,,,,,,,,
,,,,,,,,,,stimuli/images/PICTURE_453.png,DUDE,5e4cd31b485acc129e20fbdd,26/12/1989,2020-07-08_11h06.54.879,proactive,2020.1.2,Win32,60,5f035e5afe130c270d6ae6dd,5f05e0d5859dcb0b41b88d73,5,,,,,,scissors,,,,,,0,15,15,27,1,3,0,,,,,,,,,,,,,,,,,,,,,,,,,,,,,,,,,,,,,,,,,,,,,,,,,,,,,,,,,,,,,,,,,,,,,,,,,,,
,,,,,,,,,,stimuli/images/PICTURE_708.png,YARD,5e4cd31b485acc129e20fbdd,26/12/1989,2020-07-08_11h06.54.879,proactive,2020.1.2,Win32,60,5f035e5afe130c270d6ae6dd,5f05e0d5859dcb0b41b88d73,5,,,,,,monkey,,,,,,0,16,16,29,1,3,0,,,,,,,,,,,,,,,,,,,,,,,,,,,,,,,,,,,,,,,,,,,,,,,,,,,,,,,,,,,,,,,,,,,,,,,,,,,
,,,,,,,,,,stimuli/images/PICTURE_744.png,SAKE,5e4cd31b485acc129e20fbdd,26/12/1989,2020-07-08_11h06.54.879,proactive,2020.1.2,Win32,60,5f035e5afe130c270d6ae6dd,5f05e0d5859dcb0b41b88d73,5,,,,,,ring,,,,,,0,17,17,17,1,2,0,,,,,,,,,,,,,,,,,,,,,,,,,,,,,,,,,,,,,,,,,,,,,,,,,,,,,,,,,,,,,,,,,,,,,,,,,,,
,,,,,,,,,,stimuli/images/PICTURE_688.png,CASINO,5e4cd31b485acc129e20fbdd,26/12/1989,2020-07-08_11h06.54.879,proactive,2020.1.2,Win32,60,5f035e5afe130c270d6ae6dd,5f05e0d5859dcb0b41b88d73,5,,,,,,runner,,,,,,0,18,18,2,1,1,0,,,,,,,,,,,,,,,,,,,,,,,,,,,,,,,,,,,,,,,,,,,,,,,,,,,,,,,,,,,,,,,,,,,,,,,,,,,
,,,,,,,,,,stimuli/images/PICTURE_677.png,MILE,5e4cd31b485acc129e20fbdd,26/12/1989,2020-07-08_11h06.54.879,proactive,2020.1.2,Win32,60,5f035e5afe130c270d6ae6dd,5f05e0d5859dcb0b41b88d73,5,,,,,,map,,,,,,0,19,19,30,1,4,0,,,,,,,,,,,,,,,,,,,,,,,,,,,,,,,,,,,,,,,,,,,,,,,,,,,,,,,,,,,,,,,,,,,,,,,,,,,
,,,,,,,,,,stimuli/images/PICTURE_95.png,STYLE,5e4cd31b485acc129e20fbdd,26/12/1989,2020-07-08_11h06.54.879,proactive,2020.1.2,Win32,60,5f035e5afe130c270d6ae6dd,5f05e0d5859dcb0b41b88d73,5,,,,,,suitcase,,,,,,0,20,20,25,1,3,0,,,,,,,,,,,,,,,,,,,,,,,,,,,,,,,,,,,,,,,,,,,,,,,,,,,,,,,,,,,,,,,,,,,,,,,,,,,
,,,,,,,,,,stimuli/images/PICTURE_667.png,BATH,5e4cd31b485acc129e20fbdd,26/12/1989,2020-07-08_11h06.54.879,proactive,2020.1.2,Win32,60,5f035e5afe130c270d6ae6dd,5f05e0d5859dcb0b41b88d73,5,,,,,,daisy,,,,,,0,21,21,4,1,1,0,,,,,,,,,,,,,,,,,,,,,,,,,,,,,,,,,,,,,,,,,,,,,,,,,,,,,,,,,,,,,,,,,,,,,,,,,,,
,,,,,,,,,,stimuli/images/PICTURE_708.png,PENNY,5e4cd31b485acc129e20fbdd,26/12/1989,2020-07-08_11h06.54.879,proactive,2020.1.2,Win32,60,5f035e5afe130c270d6ae6dd,5f05e0d5859dcb0b41b88d73,5,,,,,,monkey,,,,,,0,22,22,31,1,4,0,,,,,,,,,,,,,,,,,,,,,,,,,,,,,,,,,,,,,,,,,,,,,,,,,,,,,,,,,,,,,,,,,,,,,,,,,,,
,,,,,,,,,,stimuli/images/PICTURE_469.png,LETTER,5e4cd31b485acc129e20fbdd,26/12/1989,2020-07-08_11h06.54.879,proactive,2020.1.2,Win32,60,5f035e5afe130c270d6ae6dd,5f05e0d5859dcb0b41b88d73,5,,,,,,stool,,,,,,0,23,23,42,1,5,0,,,,,,,,,,,,,,,,,,,,,,,,,,,,,,,,,,,,,,,,,,,,,,,,,,,,,,,,,,,,,,,,,,,,,,,,,,,
,,,,,,,,,,stimuli/images/PICTURE_233.png,IDEAS,5e4cd31b485acc129e20fbdd,26/12/1989,2020-07-08_11h06.54.879,proactive,2020.1.2,Win32,60,5f035e5afe130c270d6ae6dd,5f05e0d5859dcb0b41b88d73,5,,,,,,salt,,,,,,0,24,24,28,1,3,0,,,,,,,,,,,,,,,,,,,,,,,,,,,,,,,,,,,,,,,,,,,,,,,,,,,,,,,,,,,,,,,,,,,,,,,,,,,
,,,,,,,,,,stimuli/images/PICTURE_248.png,DOZEN,5e4cd31b485acc129e20fbdd,26/12/1989,2020-07-08_11h06.54.879,proactive,2020.1.2,Win32,60,5f035e5afe130c270d6ae6dd,5f05e0d5859dcb0b41b88d73,5,,,,,,cart,,,,,,0,25,25,39,1,4,0,,,,,,,,,,,,,,,,,,,,,,,,,,,,,,,,,,,,,,,,,,,,,,,,,,,,,,,,,,,,,,,,,,,,,,,,,,,
,,,,,,,,,,stimuli/images/PICTURE_744.png,SYSTEM,5e4cd31b485acc129e20fbdd,26/12/1989,2020-07-08_11h06.54.879,proactive,2020.1.2,Win32,60,5f035e5afe130c270d6ae6dd,5f05e0d5859dcb0b41b88d73,5,,,,,,ring,,,,,,0,26,26,43,1,5,0,,,,,,,,,,,,,,,,,,,,,,,,,,,,,,,,,,,,,,,,,,,,,,,,,,,,,,,,,,,,,,,,,,,,,,,,,,,
,,,,,,,,,,stimuli/images/PICTURE_348.png,SPEECH,5e4cd31b485acc129e20fbdd,26/12/1989,2020-07-08_11h06.54.879,proactive,2020.1.2,Win32,60,5f035e5afe130c270d6ae6dd,5f05e0d5859dcb0b41b88d73,5,,,,,,pepper,,,,,,0,27,27,20,1,3,0,,,,,,,,,,,,,,,,,,,,,,,,,,,,,,,,,,,,,,,,,,,,,,,,,,,,,,,,,,,,,,,,,,,,,,,,,,,
,,,,,,,,,,stimuli/images/PICTURE_708.png,CLIENT,5e4cd31b485acc129e20fbdd,26/12/1989,2020-07-08_11h06.54.879,proactive,2020.1.2,Win32,60,5f035e5afe130c270d6ae6dd,5f05e0d5859dcb0b41b88d73,5,,,,,,monkey,,,,,,0,28,28,5,1,1,0,,,,,,,,,,,,,,,,,,,,,,,,,,,,,,,,,,,,,,,,,,,,,,,,,,,,,,,,,,,,,,,,,,,,,,,,,,,
,,,,,,,,,,stimuli/images/PICTURE_453.png,PLENTY,5e4cd31b485acc129e20fbdd,26/12/1989,2020-07-08_11h06.54.879,proactive,2020.1.2,Win32,60,5f035e5afe130c270d6ae6dd,5f05e0d5859dcb0b41b88d73,5,,,,,,scissors,,,,,,0,29,29,56,1,6,0,,,,,,,,,,,,,,,,,,,,,,,,,,,,,,,,,,,,,,,,,,,,,,,,,,,,,,,,,,,,,,,,,,,,,,,,,,,
,,,,,,,,,,stimuli/images/PICTURE_208.png,LOTS,5e4cd31b485acc129e20fbdd,26/12/1989,2020-07-08_11h06.54.879,proactive,2020.1.2,Win32,60,5f035e5afe130c270d6ae6dd,5f05e0d5859dcb0b41b88d73,5,,,,,,microphone,,,,,,0,30,30,10,1,2,0,,,,,,,,,,,,,,,,,,,,,,,,,,,,,,,,,,,,,,,,,,,,,,,,,,,,,,,,,,,,,,,,,,,,,,,,,,,
,,,,,,,,,,stimuli/images/PICTURE_339.png,PLENTY,5e4cd31b485acc129e20fbdd,26/12/1989,2020-07-08_11h06.54.879,proactive,2020.1.2,Win32,60,5f035e5afe130c270d6ae6dd,5f05e0d5859dcb0b41b88d73,5,,,,,,backpack,,,,,,0,31,31,0,1,1,0,,,,,,,,,,,,,,,,,,,,,,,,,,,,,,,,,,,,,,,,,,,,,,,,,,,,,,,,,,,,,,,,,,,,,,,,,,,
,,,,,,,,,,stimuli/images/PICTURE_327.png,BEAUTY,5e4cd31b485acc129e20fbdd,26/12/1989,2020-07-08_11h06.54.879,proactive,2020.1.2,Win32,60,5f035e5afe130c270d6ae6dd,5f05e0d5859dcb0b41b88d73,5,,,,,,helmet,,,,,,0,32,32,48,1,5,0,,,,,,,,,,,,,,,,,,,,,,,,,,,,,,,,,,,,,,,,,,,,,,,,,,,,,,,,,,,,,,,,,,,,,,,,,,,
,,,,,,,,,,stimuli/images/PICTURE_85.png,THING,5e4cd31b485acc129e20fbdd,26/12/1989,2020-07-08_11h06.54.879,proactive,2020.1.2,Win32,60,5f035e5afe130c270d6ae6dd,5f05e0d5859dcb0b41b88d73,5,,,,,,diamond,,,,,,0,33,33,15,1,2,0,,,,,,,,,,,,,,,,,,,,,,,,,,,,,,,,,,,,,,,,,,,,,,,,,,,,,,,,,,,,,,,,,,,,,,,,,,,
,,,,,,,,,,stimuli/images/PICTURE_491.png,ROOF,5e4cd31b485acc129e20fbdd,26/12/1989,2020-07-08_11h06.54.879,proactive,2020.1.2,Win32,60,5f035e5afe130c270d6ae6dd,5f05e0d5859dcb0b41b88d73,5,,,,,,rug,,,,,,0,34,34,24,1,3,0,,,,,,,,,,,,,,,,,,,,,,,,,,,,,,,,,,,,,,,,,,,,,,,,,,,,,,,,,,,,,,,,,,,,,,,,,,,
,,,,,,,,,,stimuli/images/PICTURE_470.png,CASINO,5e4cd31b485acc129e20fbdd,26/12/1989,2020-07-08_11h06.54.879,proactive,2020.1.2,Win32,60,5f035e5afe130c270d6ae6dd,5f05e0d5859dcb0b41b88d73,5,,,,,,motorbike,,,,,,0,35,35,36,1,4,0,,,,,,,,,,,,,,,,,,,,,,,,,,,,,,,,,,,,,,,,,,,,,,,,,,,,,,,,,,,,,,,,,,,,,,,,,,,
,,,,,,,,,,stimuli/images/PICTURE_177.png,CARS,5e4cd31b485acc129e20fbdd,26/12/1989,2020-07-08_11h06.54.879,proactive,2020.1.2,Win32,60,5f035e5afe130c270d6ae6dd,5f05e0d5859dcb0b41b88d73,5,,,,,,mushroom,,,,,,0,36,36,35,1,4,0,,,,,,,,,,,,,,,,,,,,,,,,,,,,,,,,,,,,,,,,,,,,,,,,,,,,,,,,,,,,,,,,,,,,,,,,,,,
,,,,,,,,,,stimuli/images/PICTURE_151.png,GIRL,5e4cd31b485acc129e20fbdd,26/12/1989,2020-07-08_11h06.54.879,proactive,2020.1.2,Win32,60,5f035e5afe130c270d6ae6dd,5f05e0d5859dcb0b41b88d73,5,,,,,,tray,,,,,,0,37,37,19,1,2,0,,,,,,,,,,,,,,,,,,,,,,,,,,,,,,,,,,,,,,,,,,,,,,,,,,,,,,,,,,,,,,,,,,,,,,,,,,,
,,,,,,,,,,stimuli/images/PICTURE_147.png,MOMENT,5e4cd31b485acc129e20fbdd,26/12/1989,2020-07-08_11h06.54.879,proactive,2020.1.2,Win32,60,5f035e5afe130c270d6ae6dd,5f05e0d5859dcb0b41b88d73,5,,,,,,hanger,,,,,,0,38,38,51,1,6,0,,,,,,,,,,,,,,,,,,,,,,,,,,,,,,,,,,,,,,,,,,,,,,,,,,,,,,,,,,,,,,,,,,,,,,,,,,,
,,,,,,,,,,stimuli/images/PICTURE_356.png,DANGER,5e4cd31b485acc129e20fbdd,26/12/1989,2020-07-08_11h06.54.879,proactive,2020.1.2,Win32,60,5f035e5afe130c270d6ae6dd,5f05e0d5859dcb0b41b88d73,5,,,,,,pawn,,,,,,0,39,39,55,1,6,0,,,,,,,,,,,,,,,,,,,,,,,,,,,,,,,,,,,,,,,,,,,,,,,,,,,,,,,,,,,,,,,,,,,,,,,,,,,
,,,,,,,,,,stimuli/images/PICTURE_123.png,ADVICE,5e4cd31b485acc129e20fbdd,26/12/1989,2020-07-08_11h06.54.879,proactive,2020.1.2,Win32,60,5f035e5afe130c270d6ae6dd,5f05e0d5859dcb0b41b88d73,5,,,,,,dart,,,,,,0,40,40,40,1,5,0,,,,,,,,,,,,,,,,,,,,,,,,,,,,,,,,,,,,,,,,,,,,,,,,,,,,,,,,,,,,,,,,,,,,,,,,,,,
,,,,,,,,,,stimuli/images/PICTURE_302.png,FAMILY,5e4cd31b485acc129e20fbdd,26/12/1989,2020-07-08_11h06.54.879,proactive,2020.1.2,Win32,60,5f035e5afe130c270d6ae6dd,5f05e0d5859dcb0b41b88d73,5,,,,,,taxi,,,,,,0,41,41,18,1,2,0,,,,,,,,,,,,,,,,,,,,,,,,,,,,,,,,,,,,,,,,,,,,,,,,,,,,,,,,,,,,,,,,,,,,,,,,,,,
,,,,,,,,,,stimuli/images/PICTURE_675.png,WEAPON,5e4cd31b485acc129e20fbdd,26/12/1989,2020-07-08_11h06.54.879,proactive,2020.1.2,Win32,60,5f035e5afe130c270d6ae6dd,5f05e0d5859dcb0b41b88d73,5,,,,,,windmill,,,,,,0,42,42,32,1,4,0,,,,,,,,,,,,,,,,,,,,,,,,,,,,,,,,,,,,,,,,,,,,,,,,,,,,,,,,,,,,,,,,,,,,,,,,,,,
,,,,,,,,,,stimuli/images/PICTURE_654.png,VALLEY,5e4cd31b485acc129e20fbdd,26/12/1989,2020-07-08_11h06.54.879,proactive,2020.1.2,Win32,60,5f035e5afe130c270d6ae6dd,5f05e0d5859dcb0b41b88d73,5,,,,,,pencil,,,,,,0,43,43,1,1,1,0,,,,,,,,,,,,,,,,,,,,,,,,,,,,,,,,,,,,,,,,,,,,,,,,,,,,,,,,,,,,,,,,,,,,,,,,,,,
,,,,,,,,,,stimuli/images/PICTURE_160.png,LEADER,5e4cd31b485acc129e20fbdd,26/12/1989,2020-07-08_11h06.54.879,proactive,2020.1.2,Win32,60,5f035e5afe130c270d6ae6dd,5f05e0d5859dcb0b41b88d73,5,,,,,,wheelbarrow,,,,,,0,44,44,3,1,1,0,,,,,,,,,,,,,,,,,,,,,,,,,,,,,,,,,,,,,,,,,,,,,,,,,,,,,,,,,,,,,,,,,,,,,,,,,,,
,,,,,,,,,,stimuli/images/PICTURE_380.png,PHOTO,5e4cd31b485acc129e20fbdd,26/12/1989,2020-07-08_11h06.54.879,proactive,2020.1.2,Win32,60,5f035e5afe130c270d6ae6dd,5f05e0d5859dcb0b41b88d73,5,,,,,,gorilla,,,,,,0,45,45,52,1,6,0,,,,,,,,,,,,,,,,,,,,,,,,,,,,,,,,,,,,,,,,,,,,,,,,,,,,,,,,,,,,,,,,,,,,,,,,,,,
,,,,,,,,,,stimuli/images/PICTURE_233.png,WOMEN,5e4cd31b485acc129e20fbdd,26/12/1989,2020-07-08_11h06.54.879,proactive,2020.1.2,Win32,60,5f035e5afe130c270d6ae6dd,5f05e0d5859dcb0b41b88d73,5,,,,,,salt,,,,,,0,46,46,38,1,4,0,,,,,,,,,,,,,,,,,,,,,,,,,,,,,,,,,,,,,,,,,,,,,,,,,,,,,,,,,,,,,,,,,,,,,,,,,,,
,,,,,,,,,,stimuli/images/PICTURE_504.png,BODY,5e4cd31b485acc129e20fbdd,26/12/1989,2020-07-08_11h06.54.879,proactive,2020.1.2,Win32,60,5f035e5afe130c270d6ae6dd,5f05e0d5859dcb0b41b88d73,5,,,,,,wheel,,,,,,0,47,47,8,1,1,0,,,,,,,,,,,,,,,,,,,,,,,,,,,,,,,,,,,,,,,,,,,,,,,,,,,,,,,,,,,,,,,,,,,,,,,,,,,
,,,,,,,,,,stimuli/images/PICTURE_311.png,BEAUTY,5e4cd31b485acc129e20fbdd,26/12/1989,2020-07-08_11h06.54.879,proactive,2020.1.2,Win32,60,5f035e5afe130c270d6ae6dd,5f05e0d5859dcb0b41b88d73,5,,,,,,razor,,,,,,0,48,48,13,1,2,0,,,,,,,,,,,,,,,,,,,,,,,,,,,,,,,,,,,,,,,,,,,,,,,,,,,,,,,,,,,,,,,,,,,,,,,,,,,
,,,,,,,,,,stimuli/images/PICTURE_208.png,THING,5e4cd31b485acc129e20fbdd,26/12/1989,2020-07-08_11h06.54.879,proactive,2020.1.2,Win32,60,5f035e5afe130c270d6ae6dd,5f05e0d5859dcb0b41b88d73,5,,,,,,microphone,,,,,,0,49,49,47,1,5,0,,,,,,,,,,,,,,,,,,,,,,,,,,,,,,,,,,,,,,,,,,,,,,,,,,,,,,,,,,,,,,,,,,,,,,,,,,,
,,,,,,,,,,stimuli/images/PICTURE_488.png,STYLE,5e4cd31b485acc129e20fbdd,26/12/1989,2020-07-08_11h06.54.879,proactive,2020.1.2,Win32,60,5f035e5afe130c270d6ae6dd,5f05e0d5859dcb0b41b88d73,5,,,,,,sun,,,,,,0,50,50,33,1,4,0,,,,,,,,,,,,,,,,,,,,,,,,,,,,,,,,,,,,,,,,,,,,,,,,,,,,,,,,,,,,,,,,,,,,,,,,,,,
,,,,,,,,,,stimuli/images/PICTURE_285.png,ADVICE,5e4cd31b485acc129e20fbdd,26/12/1989,2020-07-08_11h06.54.879,proactive,2020.1.2,Win32,60,5f035e5afe130c270d6ae6dd,5f05e0d5859dcb0b41b88d73,5,,,,,,carrot,,,,,,0,51,51,12,1,2,0,,,,,,,,,,,,,,,,,,,,,,,,,,,,,,,,,,,,,,,,,,,,,,,,,,,,,,,,,,,,,,,,,,,,,,,,,,,
,,,,,,,,,,stimuli/images/PICTURE_509.png,PHOTO,5e4cd31b485acc129e20fbdd,26/12/1989,2020-07-08_11h06.54.879,proactive,2020.1.2,Win32,60,5f035e5afe130c270d6ae6dd,5f05e0d5859dcb0b41b88d73,5,,,,,,telephone,,,,,,0,52,52,21,1,3,0,,,,,,,,,,,,,,,,,,,,,,,,,,,,,,,,,,,,,,,,,,,,,,,,,,,,,,,,,,,,,,,,,,,,,,,,,,,
,,,,,,,,,,stimuli/images/PICTURE_380.png,DEATH,5e4cd31b485acc129e20fbdd,26/12/1989,2020-07-08_11h06.54.879,proactive,2020.1.2,Win32,60,5f035e5afe130c270d6ae6dd,5f05e0d5859dcb0b41b88d73,5,,,,,,gorilla,,,,,,0,53,53,49,1,5,0,,,,,,,,,,,,,,,,,,,,,,,,,,,,,,,,,,,,,,,,,,,,,,,,,,,,,,,,,,,,,,,,,,,,,,,,,,,
,,,,,,,,,,stimuli/images/PICTURE_160.png,FEET,5e4cd31b485acc129e20fbdd,26/12/1989,2020-07-08_11h06.54.879,proactive,2020.1.2,Win32,60,5f035e5afe130c270d6ae6dd,5f05e0d5859dcb0b41b88d73,5,,,,,,wheelbarrow,,,,,,0,54,54,58,1,6,0,,,,,,,,,,,,,,,,,,,,,,,,,,,,,,,,,,,,,,,,,,,,,,,,,,,,,,,,,,,,,,,,,,,,,,,,,,,
,,,,,,,,,,stimuli/images/PICTURE_32.png,JUNGLE,5e4cd31b485acc129e20fbdd,26/12/1989,2020-07-08_11h06.54.879,proactive,2020.1.2,Win32,60,5f035e5afe130c270d6ae6dd,5f05e0d5859dcb0b41b88d73,5,,,,,,crown,,,,,,0,55,55,45,1,5,0,,,,,,,,,,,,,,,,,,,,,,,,,,,,,,,,,,,,,,,,,,,,,,,,,,,,,,,,,,,,,,,,,,,,,,,,,,,
,,,,,,,,,,stimuli/images/PICTURE_255.png,AREA,5e4cd31b485acc129e20fbdd,26/12/1989,2020-07-08_11h06.54.879,proactive,2020.1.2,Win32,60,5f035e5afe130c270d6ae6dd,5f05e0d5859dcb0b41b88d73,5,,,,,,shovel,,,,,,0,56,56,22,1,3,0,,,,,,,,,,,,,,,,,,,,,,,,,,,,,,,,,,,,,,,,,,,,,,,,,,,,,,,,,,,,,,,,,,,,,,,,,,,
,,,,,,,,,,stimuli/images/PICTURE_208.png,MONTH,5e4cd31b485acc129e20fbdd,26/12/1989,2020-07-08_11h06.54.879,proactive,2020.1.2,Win32,60,5f035e5afe130c270d6ae6dd,5f05e0d5859dcb0b41b88d73,5,,,,,,microphone,,,,,,0,57,57,53,1,6,0,,,,,,,,,,,,,,,,,,,,,,,,,,,,,,,,,,,,,,,,,,,,,,,,,,,,,,,,,,,,,,,,,,,,,,,,,,,
,,,,,,,,,,stimuli/images/PICTURE_487.png,FLIGHT,5e4cd31b485acc129e20fbdd,26/12/1989,2020-07-08_11h06.54.879,proactive,2020.1.2,Win32,60,5f035e5afe130c270d6ae6dd,5f05e0d5859dcb0b41b88d73,5,,,,,,basket,,,,,,0,58,58,9,1,1,0,,,,,,,,,,,,,,,,,,,,,,,,,,,,,,,,,,,,,,,,,,,,,,,,,,,,,,,,,,,,,,,,,,,,,,,,,,,
,,?,0.001,0,,,,,,stimuli/images/PICTURE_380.png,PHOTO,5e4cd31b485acc129e20fbdd,26/12/1989,2020-07-08_11h06.54.879,proactive,2020.1.2,Win32,60,5f035e5afe130c270d6ae6dd,5f05e0d5859dcb0b41b88d73,5,,,,,,gorilla,,,,,,,,,,,6,0,0,0,0,52,1,,,,,,,,,,,,,,,,,,,,,,,,,,,,,,,,,,,,,,,,,,,,,,,,,,,,,,,,,,,,,,,,,,,,,,
,,ADVICE,3.057,1,,,,,,stimuli/images/PICTURE_123.png,ADVICE,5e4cd31b485acc129e20fbdd,26/12/1989,2020-07-08_11h06.54.879,proactive,2020.1.2,Win32,60,5f035e5afe130c270d6ae6dd,5f05e0d5859dcb0b41b88d73,5,,,,,,dart,,,,,,,,,,,5,0,0,1,1,40,1,,,,,,,,,,,,,,,,,,,,,,,,,,,,,,,,,,,,,,,,,,,,,,,,,,,,,,,,,,,,,,,,,,,,,,
,,?,0.002,0,,,,,,stimuli/images/PICTURE_470.png,CASINO,5e4cd31b485acc129e20fbdd,26/12/1989,2020-07-08_11h06.54.879,proactive,2020.1.2,Win32,60,5f035e5afe130c270d6ae6dd,5f05e0d5859dcb0b41b88d73,5,,,,,,motorbike,,,,,,,,,,,4,0,0,2,2,36,1,,,,,,,,,,,,,,,,,,,,,,,,,,,,,,,,,,,,,,,,,,,,,,,,,,,,,,,,,,,,,,,,,,,,,,
,,?,0.001,0,,,,,,stimuli/images/PICTURE_708.png,CLIENT,5e4cd31b485acc129e20fbdd,26/12/1989,2020-07-08_11h06.54.879,proactive,2020.1.2,Win32,60,5f035e5afe130c270d6ae6dd,5f05e0d5859dcb0b41b88d73,5,,,,,,monkey,,,,,,,,,,,1,0,0,3,3,5,1,,,,,,,,,,,,,,,,,,,,,,,,,,,,,,,,,,,,,,,,,,,,,,,,,,,,,,,,,,,,,,,,,,,,,,
,,?,0.001,0,,,,,,stimuli/images/PICTURE_491.png,ROOF,5e4cd31b485acc129e20fbdd,26/12/1989,2020-07-08_11h06.54.879,proactive,2020.1.2,Win32,60,5f035e5afe130c270d6ae6dd,5f05e0d5859dcb0b41b88d73,5,,,,,,rug,,,,,,,,,,,3,0,0,4,4,24,1,,,,,,,,,,,,,,,,,,,,,,,,,,,,,,,,,,,,,,,,,,,,,,,,,,,,,,,,,,,,,,,,,,,,,,
,,?,0.001,0,,,,,,stimuli/images/PICTURE_311.png,BEAUTY,5e4cd31b485acc129e20fbdd,26/12/1989,2020-07-08_11h06.54.879,proactive,2020.1.2,Win32,60,5f035e5afe130c270d6ae6dd,5f05e0d5859dcb0b41b88d73,5,,,,,,razor,,,,,,,,,,,2,0,0,5,5,13,1,,,,,,,,,,,,,,,,,,,,,,,,,,,,,,,,,,,,,,,,,,,,,,,,,,,,,,,,,,,,,,,,,,,,,,
,,?,0.001,0,,,,,,stimuli/images/PICTURE_208.png,LOTS,5e4cd31b485acc129e20fbdd,26/12/1989,2020-07-08_11h06.54.879,proactive,2020.1.2,Win32,60,5f035e5afe130c270d6ae6dd,5f05e0d5859dcb0b41b88d73,5,,,,,,microphone,,,,,,,,,,,2,0,0,6,6,10,1,,,,,,,,,,,,,,,,,,,,,,,,,,,,,,,,,,,,,,,,,,,,,,,,,,,,,,,,,,,,,,,,,,,,,,
,,ESTATE,1.705,1,,,,,,stimuli/images/PICTURE_308.png,ESTATE,5e4cd31b485acc129e20fbdd,26/12/1989,2020-07-08_11h06.54.879,proactive,2020.1.2,Win32,60,5f035e5afe130c270d6ae6dd,5f05e0d5859dcb0b41b88d73,5,,,,,,dice,,,,,,,,,,,5,0,0,7,7,46,1,,,,,,,,,,,,,,,,,,,,,,,,,,,,,,,,,,,,,,,,,,,,,,,,,,,,,,,,,,,,,,,,,,,,,,
,,?,0.002,0,,,,,,stimuli/images/PICTURE_160.png,FEET,5e4cd31b485acc129e20fbdd,26/12/1989,2020-07-08_11h06.54.879,proactive,2020.1.2,Win32,60,5f035e5afe130c270d6ae6dd,5f05e0d5859dcb0b41b88d73,5,,,,,,wheelbarrow,,,,,,,,,,,6,0,0,8,8,58,1,,,,,,,,,,,,,,,,,,,,,,,,,,,,,,,,,,,,,,,,,,,,,,,,,,,,,,,,,,,,,,,,,,,,,,
,,?,0.002,0,,,,,,stimuli/images/PICTURE_314.png,SAKE,5e4cd31b485acc129e20fbdd,26/12/1989,2020-07-08_11h06.54.879,proactive,2020.1.2,Win32,60,5f035e5afe130c270d6ae6dd,5f05e0d5859dcb0b41b88d73,5,,,,,,perfume,,,,,,,,,,,1,0,0,9,9,7,1,,,,,,,,,,,,,,,,,,,,,,,,,,,,,,,,,,,,,,,,,,,,,,,,,,,,,,,,,,,,,,,,,,,,,,
,,?,0.001,0,,,,,,stimuli/images/PICTURE_255.png,AREA,5e4cd31b485acc129e20fbdd,26/12/1989,2020-07-08_11h06.54.879,proactive,2020.1.2,Win32,60,5f035e5afe130c270d6ae6dd,5f05e0d5859dcb0b41b88d73,5,,,,,,shovel,,,,,,,,,,,3,0,0,10,10,22,1,,,,,,,,,,,,,,,,,,,,,,,,,,,,,,,,,,,,,,,,,,,,,,,,,,,,,,,,,,,,,,,,,,,,,,
,,BEAUTY,1.893,1,,,,,,stimuli/images/PICTURE_327.png,BEAUTY,5e4cd31b485acc129e20fbdd,26/12/1989,2020-07-08_11h06.54.879,proactive,2020.1.2,Win32,60,5f035e5afe130c270d6ae6dd,5f05e0d5859dcb0b41b88d73,5,,,,,,helmet,,,,,,,,,,,5,0,0,11,11,48,1,,,,,,,,,,,,,,,,,,,,,,,,,,,,,,,,,,,,,,,,,,,,,,,,,,,,,,,,,,,,,,,,,,,,,,
,,?,0.003,0,,,,,,stimuli/images/PICTURE_160.png,LEADER,5e4cd31b485acc129e20fbdd,26/12/1989,2020-07-08_11h06.54.879,proactive,2020.1.2,Win32,60,5f035e5afe130c270d6ae6dd,5f05e0d5859dcb0b41b88d73,5,,,,,,wheelbarrow,,,,,,,,,,,1,0,0,12,12,3,1,,,,,,,,,,,,,,,,,,,,,,,,,,,,,,,,,,,,,,,,,,,,,,,,,,,,,,,,,,,,,,,,,,,,,,
,,?,0,0,,,,,,stimuli/images/PICTURE_744.png,SAKE,5e4cd31b485acc129e20fbdd,26/12/1989,2020-07-08_11h06.54.879,proactive,2020.1.2,Win32,60,5f035e5afe130c270d6ae6dd,5f05e0d5859dcb0b41b88d73,5,,,,,,ring,,,,,,,,,,,2,0,0,13,13,17,1,,,,,,,,,,,,,,,,,,,,,,,,,,,,,,,,,,,,,,,,,,,,,,,,,,,,,,,,,,,,,,,,,,,,,,
,,?,0.002,0,,,,,,stimuli/images/PICTURE_708.png,PENNY,5e4cd31b485acc129e20fbdd,26/12/1989,2020-07-08_11h06.54.879,proactive,2020.1.2,Win32,60,5f035e5afe130c270d6ae6dd,5f05e0d5859dcb0b41b88d73,5,,,,,,monkey,,,,,,,,,,,4,0,0,14,14,31,1,,,,,,,,,,,,,,,,,,,,,,,,,,,,,,,,,,,,,,,,,,,,,,,,,,,,,,,,,,,,,,,,,,,,,,
,,?,0.001,0,,,,,,stimuli/images/PICTURE_677.png,MILE,5e4cd31b485acc129e20fbdd,26/12/1989,2020-07-08_11h06.54.879,proactive,2020.1.2,Win32,60,5f035e5afe130c270d6ae6dd,5f05e0d5859dcb0b41b88d73,5,,,,,,map,,,,,,,,,,,4,0,0,15,15,30,1,,,,,,,,,,,,,,,,,,,,,,,,,,,,,,,,,,,,,,,,,,,,,,,,,,,,,,,,,,,,,,,,,,,,,,
,,?,0.001,0,,,,,,stimuli/images/PICTURE_151.png,GIRL,5e4cd31b485acc129e20fbdd,26/12/1989,2020-07-08_11h06.54.879,proactive,2020.1.2,Win32,60,5f035e5afe130c270d6ae6dd,5f05e0d5859dcb0b41b88d73,5,,,,,,tray,,,,,,,,,,,2,0,0,16,16,19,1,,,,,,,,,,,,,,,,,,,,,,,,,,,,,,,,,,,,,,,,,,,,,,,,,,,,,,,,,,,,,,,,,,,,,,
,,?,0.001,0,,,,,,stimuli/images/PICTURE_177.png,CARS,5e4cd31b485acc129e20fbdd,26/12/1989,2020-07-08_11h06.54.879,proactive,2020.1.2,Win32,60,5f035e5afe130c270d6ae6dd,5f05e0d5859dcb0b41b88d73,5,,,,,,mushroom,,,,,,,,,,,4,0,0,17,17,35,1,,,,,,,,,,,,,,,,,,,,,,,,,,,,,,,,,,,,,,,,,,,,,,,,,,,,,,,,,,,,,,,,,,,,,,
,,DEATH,3.619,1,,,,,,stimuli/images/PICTURE_380.png,DEATH,5e4cd31b485acc129e20fbdd,26/12/1989,2020-07-08_11h06.54.879,proactive,2020.1.2,Win32,60,5f035e5afe130c270d6ae6dd,5f05e0d5859dcb0b41b88d73,5,,,,,,gorilla,,,,,,,,,,,5,0,0,18,18,49,1,,,,,,,,,,,,,,,,,,,,,,,,,,,,,,,,,,,,,,,,,,,,,,,,,,,,,,,,,,,,,,,,,,,,,,
,,?,0.002,0,,,,,,stimuli/images/PICTURE_85.png,THING,5e4cd31b485acc129e20fbdd,26/12/1989,2020-07-08_11h06.54.879,proactive,2020.1.2,Win32,60,5f035e5afe130c270d6ae6dd,5f05e0d5859dcb0b41b88d73,5,,,,,,diamond,,,,,,,,,,,2,0,0,19,19,15,1,,,,,,,,,,,,,,,,,,,,,,,,,,,,,,,,,,,,,,,,,,,,,,,,,,,,,,,,,,,,,,,,,,,,,,
,,?,0,0,,,,,,stimuli/images/PICTURE_147.png,MOMENT,5e4cd31b485acc129e20fbdd,26/12/1989,2020-07-08_11h06.54.879,proactive,2020.1.2,Win32,60,5f035e5afe130c270d6ae6dd,5f05e0d5859dcb0b41b88d73,5,,,,,,hanger,,,,,,,,,,,6,0,0,20,20,51,1,,,,,,,,,,,,,,,,,,,,,,,,,,,,,,,,,,,,,,,,,,,,,,,,,,,,,,,,,,,,,,,,,,,,,,
,,?,0.001,0,,,,,,stimuli/images/PICTURE_285.png,ADVICE,5e4cd31b485acc129e20fbdd,26/12/1989,2020-07-08_11h06.54.879,proactive,2020.1.2,Win32,60,5f035e5afe130c270d6ae6dd,5f05e0d5859dcb0b41b88d73,5,,,,,,carrot,,,,,,,,,,,2,0,0,21,21,12,1,,,,,,,,,,,,,,,,,,,,,,,,,,,,,,,,,,,,,,,,,,,,,,,,,,,,,,,,,,,,,,,,,,,,,,
,,?,0.001,0,,,,,,stimuli/images/PICTURE_123.png,ADVICE,5e4cd31b485acc129e20fbdd,26/12/1989,2020-07-08_11h06.54.879,proactive,2020.1.2,Win32,60,5f035e5afe130c270d6ae6dd,5f05e0d5859dcb0b41b88d73,5,,,,,,dart,,,,,,,,,,,6,0,0,22,22,50,1,,,,,,,,,,,,,,,,,,,,,,,,,,,,,,,,,,,,,,,,,,,,,,,,,,,,,,,,,,,,,,,,,,,,,,
,,?,0.001,0,,,,,,stimuli/images/PICTURE_453.png,DUDE,5e4cd31b485acc129e20fbdd,26/12/1989,2020-07-08_11h06.54.879,proactive,2020.1.2,Win32,60,5f035e5afe130c270d6ae6dd,5f05e0d5859dcb0b41b88d73,5,,,,,,scissors,,,,,,,,,,,3,0,0,23,23,27,1,,,,,,,,,,,,,,,,,,,,,,,,,,,,,,,,,,,,,,,,,,,,,,,,,,,,,,,,,,,,,,,,,,,,,,
,,?,0.002,0,,,,,,stimuli/images/PICTURE_356.png,DANGER,5e4cd31b485acc129e20fbdd,26/12/1989,2020-07-08_11h06.54.879,proactive,2020.1.2,Win32,60,5f035e5afe130c270d6ae6dd,5f05e0d5859dcb0b41b88d73,5,,,,,,pawn,,,,,,,,,,,6,0,0,24,24,55,1,,,,,,,,,,,,,,,,,,,,,,,,,,,,,,,,,,,,,,,,,,,,,,,,,,,,,,,,,,,,,,,,,,,,,,
,,PLENTY,1.91,1,,,,,,stimuli/images/PICTURE_667.png,PLENTY,5e4cd31b485acc129e20fbdd,26/12/1989,2020-07-08_11h06.54.879,proactive,2020.1.2,Win32,60,5f035e5afe130c270d6ae6dd,5f05e0d5859dcb0b41b88d73,5,,,,,,daisy,,,,,,,,,,,5,0,0,25,25,41,1,,,,,,,,,,,,,,,,,,,,,,,,,,,,,,,,,,,,,,,,,,,,,,,,,,,,,,,,,,,,,,,,,,,,,,
,,?,0.002,0,,,,,,stimuli/images/PICTURE_449.png,THING,5e4cd31b485acc129e20fbdd,26/12/1989,2020-07-08_11h06.54.879,proactive,2020.1.2,Win32,60,5f035e5afe130c270d6ae6dd,5f05e0d5859dcb0b41b88d73,5,,,,,,bench,,,,,,,,,,,6,0,0,26,26,59,1,,,,,,,,,,,,,,,,,,,,,,,,,,,,,,,,,,,,,,,,,,,,,,,,,,,,,,,,,,,,,,,,,,,,,,
,,?,0.001,0,,,,,,stimuli/images/PICTURE_688.png,WOMEN,5e4cd31b485acc129e20fbdd,26/12/1989,2020-07-08_11h06.54.879,proactive,2020.1.2,Win32,60,5f035e5afe130c270d6ae6dd,5f05e0d5859dcb0b41b88d73,5,,,,,,runner,,,,,,,,,,,2,0,0,27,27,14,1,,,,,,,,,,,,,,,,,,,,,,,,,,,,,,,,,,,,,,,,,,,,,,,,,,,,,,,,,,,,,,,,,,,,,,
,,?,0.001,0,,,,,,stimuli/images/PICTURE_215.png,PLENTY,5e4cd31b485acc129e20fbdd,26/12/1989,2020-07-08_11h06.54.879,proactive,2020.1.2,Win32,60,5f035e5afe130c270d6ae6dd,5f05e0d5859dcb0b41b88d73,5,,,,,,boot,,,,,,,,,,,4,0,0,28,28,37,1,,,,,,,,,,,,,,,,,,,,,,,,,,,,,,,,,,,,,,,,,,,,,,,,,,,,,,,,,,,,,,,,,,,,,,
,,?,0,0,,,,,,stimuli/images/PICTURE_688.png,CASINO,5e4cd31b485acc129e20fbdd,26/12/1989,2020-07-08_11h06.54.879,proactive,2020.1.2,Win32,60,5f035e5afe130c270d6ae6dd,5f05e0d5859dcb0b41b88d73,5,,,,,,runner,,,,,,,,,,,1,0,0,29,29,2,1,,,,,,,,,,,,,,,,,,,,,,,,,,,,,,,,,,,,,,,,,,,,,,,,,,,,,,,,,,,,,,,,,,,,,,
,,?,0.002,0,,,,,,stimuli/images/PICTURE_509.png,PHOTO,5e4cd31b485acc129e20fbdd,26/12/1989,2020-07-08_11h06.54.879,proactive,2020.1.2,Win32,60,5f035e5afe130c270d6ae6dd,5f05e0d5859dcb0b41b88d73,5,,,,,,telephone,,,,,,,,,,,3,0,0,30,30,21,1,,,,,,,,,,,,,,,,,,,,,,,,,,,,,,,,,,,,,,,,,,,,,,,,,,,,,,,,,,,,,,,,,,,,,,
,,?,0.002,0,,,,,,stimuli/images/PICTURE_469.png,ARTIST,5e4cd31b485acc129e20fbdd,26/12/1989,2020-07-08_11h06.54.879,proactive,2020.1.2,Win32,60,5f035e5afe130c270d6ae6dd,5f05e0d5859dcb0b41b88d73,5,,,,,,stool,,,,,,,,,,,1,0,0,31,31,6,1,,,,,,,,,,,,,,,,,,,,,,,,,,,,,,,,,,,,,,,,,,,,,,,,,,,,,,,,,,,,,,,,,,,,,,
,,THING,1.396,1,,,,,,stimuli/images/PICTURE_208.png,THING,5e4cd31b485acc129e20fbdd,26/12/1989,2020-07-08_11h06.54.879,proactive,2020.1.2,Win32,60,5f035e5afe130c270d6ae6dd,5f05e0d5859dcb0b41b88d73,5,,,,,,microphone,,,,,,,,,,,5,0,0,32,32,47,1,,,,,,,,,,,,,,,,,,,,,,,,,,,,,,,,,,,,,,,,,,,,,,,,,,,,,,,,,,,,,,,,,,,,,,
,,?,0.001,0,,,,,,stimuli/images/PICTURE_339.png,PLENTY,5e4cd31b485acc129e20fbdd,26/12/1989,2020-07-08_11h06.54.879,proactive,2020.1.2,Win32,60,5f035e5afe130c270d6ae6dd,5f05e0d5859dcb0b41b88d73,5,,,,,,backpack,,,,,,,,,,,1,0,0,33,33,0,1,,,,,,,,,,,,,,,,,,,,,,,,,,,,,,,,,,,,,,,,,,,,,,,,,,,,,,,,,,,,,,,,,,,,,,
,,?,0.001,0,,,,,,stimuli/images/PICTURE_302.png,FAMILY,5e4cd31b485acc129e20fbdd,26/12/1989,2020-07-08_11h06.54.879,proactive,2020.1.2,Win32,60,5f035e5afe130c270d6ae6dd,5f05e0d5859dcb0b41b88d73,5,,,,,,taxi,,,,,,,,,,,2,0,0,34,34,18,1,,,,,,,,,,,,,,,,,,,,,,,,,,,,,,,,,,,,,,,,,,,,,,,,,,,,,,,,,,,,,,,,,,,,,,
,,?,0.001,0,,,,,,stimuli/images/PICTURE_504.png,BODY,5e4cd31b485acc129e20fbdd,26/12/1989,2020-07-08_11h06.54.879,proactive,2020.1.2,Win32,60,5f035e5afe130c270d6ae6dd,5f05e0d5859dcb0b41b88d73,5,,,,,,wheel,,,,,,,,,,,1,0,0,35,35,8,1,,,,,,,,,,,,,,,,,,,,,,,,,,,,,,,,,,,,,,,,,,,,,,,,,,,,,,,,,,,,,,,,,,,,,,
,,?,0,0,,,,,,stimuli/images/PICTURE_308.png,KIND,5e4cd31b485acc129e20fbdd,26/12/1989,2020-07-08_11h06.54.879,proactive,2020.1.2,Win32,60,5f035e5afe130c270d6ae6dd,5f05e0d5859dcb0b41b88d73,5,,,,,,dice,,,,,,,,,,,6,0,0,36,36,54,1,,,,,,,,,,,,,,,,,,,,,,,,,,,,,,,,,,,,,,,,,,,,,,,,,,,,,,,,,,,,,,,,,,,,,,
,,?,0.001,0,,,,,,stimuli/images/PICTURE_487.png,FLIGHT,5e4cd31b485acc129e20fbdd,26/12/1989,2020-07-08_11h06.54.879,proactive,2020.1.2,Win32,60,5f035e5afe130c270d6ae6dd,5f05e0d5859dcb0b41b88d73,5,,,,,,basket,,,,,,,,,,,1,0,0,37,37,9,1,,,,,,,,,,,,,,,,,,,,,,,,,,,,,,,,,,,,,,,,,,,,,,,,,,,,,,,,,,,,,,,,,,,,,,
,,?,0.01,0,,,,,,stimuli/images/PICTURE_654.png,VALLEY,5e4cd31b485acc129e20fbdd,26/12/1989,2020-07-08_11h06.54.879,proactive,2020.1.2,Win32,60,5f035e5afe130c270d6ae6dd,5f05e0d5859dcb0b41b88d73,5,,,,,,pencil,,,,,,,,,,,1,0,0,38,38,1,1,,,,,,,,,,,,,,,,,,,,,,,,,,,,,,,,,,,,,,,,,,,,,,,,,,,,,,,,,,,,,,,,,,,,,,
,,?,0.002,0,,,,,,stimuli/images/PICTURE_208.png,MONTH,5e4cd31b485acc129e20fbdd,26/12/1989,2020-07-08_11h06.54.879,proactive,2020.1.2,Win32,60,5f035e5afe130c270d6ae6dd,5f05e0d5859dcb0b41b88d73,5,,,,,,microphone,,,,,,,,,,,6,0,0,39,39,53,1,,,,,,,,,,,,,,,,,,,,,,,,,,,,,,,,,,,,,,,,,,,,,,,,,,,,,,,,,,,,,,,,,,,,,,
,,?,0,0,,,,,,stimuli/images/PICTURE_675.png,WEAPON,5e4cd31b485acc129e20fbdd,26/12/1989,2020-07-08_11h06.54.879,proactive,2020.1.2,Win32,60,5f035e5afe130c270d6ae6dd,5f05e0d5859dcb0b41b88d73,5,,,,,,windmill,,,,,,,,,,,4,0,0,40,40,32,1,,,,,,,,,,,,,,,,,,,,,,,,,,,,,,,,,,,,,,,,,,,,,,,,,,,,,,,,,,,,,,,,,,,,,,
,,?,0.001,0,,,,,,stimuli/images/PICTURE_311.png,FRIEND,5e4cd31b485acc129e20fbdd,26/12/1989,2020-07-08_11h06.54.879,proactive,2020.1.2,Win32,60,5f035e5afe130c270d6ae6dd,5f05e0d5859dcb0b41b88d73,5,,,,,,razor,,,,,,,,,,,4,0,0,41,41,34,1,,,,,,,,,,,,,,,,,,,,,,,,,,,,,,,,,,,,,,,,,,,,,,,,,,,,,,,,,,,,,,,,,,,,,,
,,MILE,1.865,1,,,,,,stimuli/images/PICTURE_68.png,MILE,5e4cd31b485acc129e20fbdd,26/12/1989,2020-07-08_11h06.54.879,proactive,2020.1.2,Win32,60,5f035e5afe130c270d6ae6dd,5f05e0d5859dcb0b41b88d73,5,,,,,,candle,,,,,,,,,,,5,0,0,42,42,44,1,,,,,,,,,,,,,,,,,,,,,,,,,,,,,,,,,,,,,,,,,,,,,,,,,,,,,,,,,,,,,,,,,,,,,,
,,?,0.003,0,,,,,,stimuli/images/PICTURE_314.png,GODS,5e4cd31b485acc129e20fbdd,26/12/1989,2020-07-08_11h06.54.879,proactive,2020.1.2,Win32,60,5f035e5afe130c270d6ae6dd,5f05e0d5859dcb0b41b88d73,5,,,,,,perfume,,,,,,,,,,,2,0,0,43,43,11,1,,,,,,,,,,,,,,,,,,,,,,,,,,,,,,,,,,,,,,,,,,,,,,,,,,,,,,,,,,,,,,,,,,,,,,
,,?,0.002,0,,,,,,stimuli/images/PICTURE_667.png,BATH,5e4cd31b485acc129e20fbdd,26/12/1989,2020-07-08_11h06.54.879,proactive,2020.1.2,Win32,60,5f035e5afe130c270d6ae6dd,5f05e0d5859dcb0b41b88d73,5,,,,,,daisy,,,,,,,,,,,1,0,0,44,44,4,1,,,,,,,,,,,,,,,,,,,,,,,,,,,,,,,,,,,,,,,,,,,,,,,,,,,,,,,,,,,,,,,,,,,,,,
,,?,0.001,0,,,,,,stimuli/images/PICTURE_708.png,YARD,5e4cd31b485acc129e20fbdd,26/12/1989,2020-07-08_11h06.54.879,proactive,2020.1.2,Win32,60,5f035e5afe130c270d6ae6dd,5f05e0d5859dcb0b41b88d73,5,,,,,,monkey,,,,,,,,,,,3,0,0,45,45,29,1,,,,,,,,,,,,,,,,,,,,,,,,,,,,,,,,,,,,,,,,,,,,,,,,,,,,,,,,,,,,,,,,,,,,,,
,,?,0.002,0,,,,,,stimuli/images/PICTURE_248.png,DOZEN,5e4cd31b485acc129e20fbdd,26/12/1989,2020-07-08_11h06.54.879,proactive,2020.1.2,Win32,60,5f035e5afe130c270d6ae6dd,5f05e0d5859dcb0b41b88d73,5,,,,,,cart,,,,,,,,,,,4,0,0,46,46,39,1,,,,,,,,,,,,,,,,,,,,,,,,,,,,,,,,,,,,,,,,,,,,,,,,,,,,,,,,,,,,,,,,,,,,,,
,,JUNGLE,1.603,1,,,,,,stimuli/images/PICTURE_32.png,JUNGLE,5e4cd31b485acc129e20fbdd,26/12/1989,2020-07-08_11h06.54.879,proactive,2020.1.2,Win32,60,5f035e5afe130c270d6ae6dd,5f05e0d5859dcb0b41b88d73,5,,,,,,crown,,,,,,,,,,,5,0,0,47,47,45,1,,,,,,,,,,,,,,,,,,,,,,,,,,,,,,,,,,,,,,,,,,,,,,,,,,,,,,,,,,,,,,,,,,,,,,
,,?,0.002,0,,,,,,stimuli/images/PICTURE_453.png,PLENTY,5e4cd31b485acc129e20fbdd,26/12/1989,2020-07-08_11h06.54.879,proactive,2020.1.2,Win32,60,5f035e5afe130c270d6ae6dd,5f05e0d5859dcb0b41b88d73,5,,,,,,scissors,,,,,,,,,,,6,0,0,48,48,56,1,,,,,,,,,,,,,,,,,,,,,,,,,,,,,,,,,,,,,,,,,,,,,,,,,,,,,,,,,,,,,,,,,,,,,,
,,?,0.001,0,,,,,,stimuli/images/PICTURE_233.png,IDEAS,5e4cd31b485acc129e20fbdd,26/12/1989,2020-07-08_11h06.54.879,proactive,2020.1.2,Win32,60,5f035e5afe130c270d6ae6dd,5f05e0d5859dcb0b41b88d73,5,,,,,,salt,,,,,,,,,,,3,0,0,49,49,28,1,,,,,,,,,,,,,,,,,,,,,,,,,,,,,,,,,,,,,,,,,,,,,,,,,,,,,,,,,,,,,,,,,,,,,,
,,?,0,0,,,,,,stimuli/images/PICTURE_233.png,WOMEN,5e4cd31b485acc129e20fbdd,26/12/1989,2020-07-08_11h06.54.879,proactive,2020.1.2,Win32,60,5f035e5afe130c270d6ae6dd,5f05e0d5859dcb0b41b88d73,5,,,,,,salt,,,,,,,,,,,4,0,0,50,50,38,1,,,,,,,,,,,,,,,,,,,,,,,,,,,,,,,,,,,,,,,,,,,,,,,,,,,,,,,,,,,,,,,,,,,,,,
,,?,0,0,,,,,,stimuli/images/PICTURE_488.png,STYLE,5e4cd31b485acc129e20fbdd,26/12/1989,2020-07-08_11h06.54.879,proactive,2020.1.2,Win32,60,5f035e5afe130c270d6ae6dd,5f05e0d5859dcb0b41b88d73,5,,,,,,sun,,,,,,,,,,,4,0,0,51,51,33,1,,,,,,,,,,,,,,,,,,,,,,,,,,,,,,,,,,,,,,,,,,,,,,,,,,,,,,,,,,,,,,,,,,,,,,
,,?,0.002,0,,,,,,stimuli/images/PICTURE_692.png,MONTH,5e4cd31b485acc129e20fbdd,26/12/1989,2020-07-08_11h06.54.879,proactive,2020.1.2,Win32,60,5f035e5afe130c270d6ae6dd,5f05e0d5859dcb0b41b88d73,5,,,,,,cherry,,,,,,,,,,,2,0,0,52,52,16,1,,,,,,,,,,,,,,,,,,,,,,,,,,,,,,,,,,,,,,,,,,,,,,,,,,,,,,,,,,,,,,,,,,,,,,
,,?,0.002,0,,,,,,stimuli/images/PICTURE_467.png,DEMON,5e4cd31b485acc129e20fbdd,26/12/1989,2020-07-08_11h06.54.879,proactive,2020.1.2,Win32,60,5f035e5afe130c270d6ae6dd,5f05e0d5859dcb0b41b88d73,5,,,,,,peg,,,,,,,,,,,3,0,0,53,53,23,1,,,,,,,,,,,,,,,,,,,,,,,,,,,,,,,,,,,,,,,,,,,,,,,,,,,,,,,,,,,,,,,,,,,,,,
,,SYSTEM,5.755,1,,,,,,stimuli/images/PICTURE_744.png,SYSTEM,5e4cd31b485acc129e20fbdd,26/12/1989,2020-07-08_11h06.54.879,proactive,2020.1.2,Win32,60,5f035e5afe130c270d6ae6dd,5f05e0d5859dcb0b41b88d73,5,,,,,,ring,,,,,,,,,,,5,0,0,54,54,43,1,,,,,,,,,,,,,,,,,,,,,,,,,,,,,,,,,,,,,,,,,,,,,,,,,,,,,,,,,,,,,,,,,,,,,,
,,?,0.001,0,,,,,,stimuli/images/PICTURE_491.png,WRITER,5e4cd31b485acc129e20fbdd,26/12/1989,2020-07-08_11h06.54.879,proactive,2020.1.2,Win32,60,5f035e5afe130c270d6ae6dd,5f05e0d5859dcb0b41b88d73,5,,,,,,rug,,,,,,,,,,,6,0,0,55,55,57,1,,,,,,,,,,,,,,,,,,,,,,,,,,,,,,,,,,,,,,,,,,,,,,,,,,,,,,,,,,,,,,,,,,,,,,
,,?,0.001,0,,,,,,stimuli/images/PICTURE_95.png,STYLE,5e4cd31b485acc129e20fbdd,26/12/1989,2020-07-08_11h06.54.879,proactive,2020.1.2,Win32,60,5f035e5afe130c270d6ae6dd,5f05e0d5859dcb0b41b88d73,5,,,,,,suitcase,,,,,,,,,,,3,0,0,56,56,25,1,,,,,,,,,,,,,,,,,,,,,,,,,,,,,,,,,,,,,,,,,,,,,,,,,,,,,,,,,,,,,,,,,,,,,,
,,?,0.001,0,,,,,,stimuli/images/PICTURE_348.png,SPEECH,5e4cd31b485acc129e20fbdd,26/12/1989,2020-07-08_11h06.54.879,proactive,2020.1.2,Win32,60,5f035e5afe130c270d6ae6dd,5f05e0d5859dcb0b41b88d73,5,,,,,,pepper,,,,,,,,,,,3,0,0,57,57,20,1,,,,,,,,,,,,,,,,,,,,,,,,,,,,,,,,,,,,,,,,,,,,,,,,,,,,,,,,,,,,,,,,,,,,,,
,,LETTER,2.711,1,,,,,,stimuli/images/PICTURE_469.png,LETTER,5e4cd31b485acc129e20fbdd,26/12/1989,2020-07-08_11h06.54.879,proactive,2020.1.2,Win32,60,5f035e5afe130c270d6ae6dd,5f05e0d5859dcb0b41b88d73,5,,,,,,stool,,,,,,,,,,,5,0,0,58,58,42,1,,,,,,,,,,,,,,,,,,,,,,,,,,,,,,,,,,,,,,,,,,,,,,,,,,,,,,,,,,,,,,,,,,,,,,
,,?,0.002,0,,,,,,stimuli/images/PICTURE_203.png,ARTIST,5e4cd31b485acc129e20fbdd,26/12/1989,2020-07-08_11h06.54.879,proactive,2020.1.2,Win32,60,5f035e5afe130c270d6ae6dd,5f05e0d5859dcb0b41b88d73,5,,,,,,cap,,,,,,,,,,,3,0,0,59,59,26,1,,,,,,,,,,,,,,,,,,,,,,,,,,,,,,,,,,,,,,,,,,,,,,,,,,,,,,,,,,,,,,,,,,,,,,
,,,,,,,,,,,,5e4cd31b485acc129e20fbdd,26/12/1989,2020-07-08_11h06.54.879,proactive,2020.1.2,Win32,60,5f035e5afe130c270d6ae6dd,5f05e0d5859dcb0b41b88d73,5,,,,,,,,,,,,,,,,,,,,,,,,0,0,0,0,1,stimuli/learn-block1.csv,,,,,,,,,,,,,,,,,,,,,,,,,,,,,,,,,,,,,,,,,,,,,,,,,,,,,,,,,,,,,,,,
,,,,,,,,,,stimuli/images/PICTURE_177.png,HOUSE,5e4cd31b485acc129e20fbdd,26/12/1989,2020-07-08_11h06.54.879,proactive,2020.1.2,Win32,60,5f035e5afe130c270d6ae6dd,5f05e0d5859dcb0b41b88d73,5,,,,,,mushroom,,,,,,0,0,0,25,1,3,2,,,,,,,,,,,,,,,,,,,,,,,,,,,,,,,,,,,,,,,,,,,,,,,,,,,,,,,,,,,,,,,,,,,,,,,,,,,
,,,,,,,,,,stimuli/images/PICTURE_509.png,SHOTS,5e4cd31b485acc129e20fbdd,26/12/1989,2020-07-08_11h06.54.879,proactive,2020.1.2,Win32,60,5f035e5afe130c270d6ae6dd,5f05e0d5859dcb0b41b88d73,5,,,,,,telephone,,,,,,0,1,1,7,1,1,2,,,,,,,,,,,,,,,,,,,,,,,,,,,,,,,,,,,,,,,,,,,,,,,,,,,,,,,,,,,,,,,,,,,,,,,,,,,
,,,,,,,,,,stimuli/images/PICTURE_667.png,GLASS,5e4cd31b485acc129e20fbdd,26/12/1989,2020-07-08_11h06.54.879,proactive,2020.1.2,Win32,60,5f035e5afe130c270d6ae6dd,5f05e0d5859dcb0b41b88d73,5,,,,,,daisy,,,,,,0,2,2,27,1,3,2,,,,,,,,,,,,,,,,,,,,,,,,,,,,,,,,,,,,,,,,,,,,,,,,,,,,,,,,,,,,,,,,,,,,,,,,,,,
,,,,,,,,,,stimuli/images/PICTURE_405.png,HOUSE,5e4cd31b485acc129e20fbdd,26/12/1989,2020-07-08_11h06.54.879,proactive,2020.1.2,Win32,60,5f035e5afe130c270d6ae6dd,5f05e0d5859dcb0b41b88d73,5,,,,,,anchor,,,,,,0,3,3,2,1,1,2,,,,,,,,,,,,,,,,,,,,,,,,,,,,,,,,,,,,,,,,,,,,,,,,,,,,,,,,,,,,,,,,,,,,,,,,,,,
,,,,,,,,,,stimuli/images/PICTURE_692.png,DUDE,5e4cd31b485acc129e20fbdd,26/12/1989,2020-07-08_11h06.54.879,proactive,2020.1.2,Win32,60,5f035e5afe130c270d6ae6dd,5f05e0d5859dcb0b41b88d73,5,,,,,,cherry,,,,,,0,4,4,47,1,5,2,,,,,,,,,,,,,,,,,,,,,,,,,,,,,,,,,,,,,,,,,,,,,,,,,,,,,,,,,,,,,,,,,,,,,,,,,,,
,,,,,,,,,,stimuli/images/PICTURE_405.png,JUNGLE,5e4cd31b485acc129e20fbdd,26/12/1989,2020-07-08_11h06.54.879,proactive,2020.1.2,Win32,60,5f035e5afe130c270d6ae6dd,5f05e0d5859dcb0b41b88d73,5,,,,,,anchor,,,,,,0,5,5,13,1,2,2,,,,,,,,,,,,,,,,,,,,,,,,,,,,,,,,,,,,,,,,,,,,,,,,,,,,,,,,,,,,,,,,,,,,,,,,,,,
,,,,,,,,,,stimuli/images/PICTURE_314.png,SPEECH,5e4cd31b485acc129e20fbdd,26/12/1989,2020-07-08_11h06.54.879,proactive,2020.1.2,Win32,60,5f035e5afe130c270d6ae6dd,5f05e0d5859dcb0b41b88d73,5,,,,,,perfume,,,,,,0,6,6,35,1,4,2,,,,,,,,,,,,,,,,,,,,,,,,,,,,,,,,,,,,,,,,,,,,,,,,,,,,,,,,,,,,,,,,,,,,,,,,,,,
,,,,,,,,,,stimuli/images/PICTURE_57.png,NATION,5e4cd31b485acc129e20fbdd,26/12/1989,2020-07-08_11h06.54.879,proactive,2020.1.2,Win32,60,5f035e5afe130c270d6ae6dd,5f05e0d5859dcb0b41b88d73,5,,,,,,stamp,,,,,,0,7,7,21,1,3,2,,,,,,,,,,,,,,,,,,,,,,,,,,,,,,,,,,,,,,,,,,,,,,,,,,,,,,,,,,,,,,,,,,,,,,,,,,,
,,,,,,,,,,stimuli/images/PICTURE_68.png,KIND,5e4cd31b485acc129e20fbdd,26/12/1989,2020-07-08_11h06.54.879,proactive,2020.1.2,Win32,60,5f035e5afe130c270d6ae6dd,5f05e0d5859dcb0b41b88d73,5,,,,,,candle,,,,,,0,8,8,23,1,3,2,,,,,,,,,,,,,,,,,,,,,,,,,,,,,,,,,,,,,,,,,,,,,,,,,,,,,,,,,,,,,,,,,,,,,,,,,,,
,,,,,,,,,,stimuli/images/PICTURE_470.png,BEAUTY,5e4cd31b485acc129e20fbdd,26/12/1989,2020-07-08_11h06.54.879,proactive,2020.1.2,Win32,60,5f035e5afe130c270d6ae6dd,5f05e0d5859dcb0b41b88d73,5,,,,,,motorbike,,,,,,0,9,9,26,1,3,2,,,,,,,,,,,,,,,,,,,,,,,,,,,,,,,,,,,,,,,,,,,,,,,,,,,,,,,,,,,,,,,,,,,,,,,,,,,
,,,,,,,,,,stimuli/images/PICTURE_255.png,PENNY,5e4cd31b485acc129e20fbdd,26/12/1989,2020-07-08_11h06.54.879,proactive,2020.1.2,Win32,60,5f035e5afe130c270d6ae6dd,5f05e0d5859dcb0b41b88d73,5,,,,,,shovel,,,,,,0,10,10,19,1,2,2,,,,,,,,,,,,,,,,,,,,,,,,,,,,,,,,,,,,,,,,,,,,,,,,,,,,,,,,,,,,,,,,,,,,,,,,,,,
,,,,,,,,,,stimuli/images/PICTURE_95.png,NIGHT,5e4cd31b485acc129e20fbdd,26/12/1989,2020-07-08_11h06.54.879,proactive,2020.1.2,Win32,60,5f035e5afe130c270d6ae6dd,5f05e0d5859dcb0b41b88d73,5,,,,,,suitcase,,,,,,0,11,11,37,1,4,2,,,,,,,,,,,,,,,,,,,,,,,,,,,,,,,,,,,,,,,,,,,,,,,,,,,,,,,,,,,,,,,,,,,,,,,,,,,
,,,,,,,,,,stimuli/images/PICTURE_509.png,APPLE,5e4cd31b485acc129e20fbdd,26/12/1989,2020-07-08_11h06.54.879,proactive,2020.1.2,Win32,60,5f035e5afe130c270d6ae6dd,5f05e0d5859dcb0b41b88d73,5,,,,,,telephone,,,,,,0,12,12,38,1,4,2,,,,,,,,,,,,,,,,,,,,,,,,,,,,,,,,,,,,,,,,,,,,,,,,,,,,,,,,,,,,,,,,,,,,,,,,,,,
,,,,,,,,,,stimuli/images/PICTURE_215.png,FOOD,5e4cd31b485acc129e20fbdd,26/12/1989,2020-07-08_11h06.54.879,proactive,2020.1.2,Win32,60,5f035e5afe130c270d6ae6dd,5f05e0d5859dcb0b41b88d73,5,,,,,,boot,,,,,,0,13,13,5,1,1,2,,,,,,,,,,,,,,,,,,,,,,,,,,,,,,,,,,,,,,,,,,,,,,,,,,,,,,,,,,,,,,,,,,,,,,,,,,,
,,,,,,,,,,stimuli/images/PICTURE_18.png,RIVER,5e4cd31b485acc129e20fbdd,26/12/1989,2020-07-08_11h06.54.879,proactive,2020.1.2,Win32,60,5f035e5afe130c270d6ae6dd,5f05e0d5859dcb0b41b88d73,5,,,,,,planet,,,,,,0,14,14,22,1,3,2,,,,,,,,,,,,,,,,,,,,,,,,,,,,,,,,,,,,,,,,,,,,,,,,,,,,,,,,,,,,,,,,,,,,,,,,,,,
,,,,,,,,,,stimuli/images/PICTURE_403.png,FAMILY,5e4cd31b485acc129e20fbdd,26/12/1989,2020-07-08_11h06.54.879,proactive,2020.1.2,Win32,60,5f035e5afe130c270d6ae6dd,5f05e0d5859dcb0b41b88d73,5,,,,,,cathedral,,,,,,0,15,15,9,1,1,2,,,,,,,,,,,,,,,,,,,,,,,,,,,,,,,,,,,,,,,,,,,,,,,,,,,,,,,,,,,,,,,,,,,,,,,,,,,
,,,,,,,,,,stimuli/images/PICTURE_311.png,TOILET,5e4cd31b485acc129e20fbdd,26/12/1989,2020-07-08_11h06.54.879,proactive,2020.1.2,Win32,60,5f035e5afe130c270d6ae6dd,5f05e0d5859dcb0b41b88d73,5,,,,,,razor,,,,,,0,16,16,54,1,6,2,,,,,,,,,,,,,,,,,,,,,,,,,,,,,,,,,,,,,,,,,,,,,,,,,,,,,,,,,,,,,,,,,,,,,,,,,,,
,,,,,,,,,,stimuli/images/PICTURE_491.png,SERIES,5e4cd31b485acc129e20fbdd,26/12/1989,2020-07-08_11h06.54.879,proactive,2020.1.2,Win32,60,5f035e5afe130c270d6ae6dd,5f05e0d5859dcb0b41b88d73,5,,,,,,rug,,,,,,0,17,17,39,1,4,2,,,,,,,,,,,,,,,,,,,,,,,,,,,,,,,,,,,,,,,,,,,,,,,,,,,,,,,,,,,,,,,,,,,,,,,,,,,
,,,,,,,,,,stimuli/images/PICTURE_2.png,YARD,5e4cd31b485acc129e20fbdd,26/12/1989,2020-07-08_11h06.54.879,proactive,2020.1.2,Win32,60,5f035e5afe130c270d6ae6dd,5f05e0d5859dcb0b41b88d73,5,,,,,,tyre,,,,,,0,18,18,55,1,6,2,,,,,,,,,,,,,,,,,,,,,,,,,,,,,,,,,,,,,,,,,,,,,,,,,,,,,,,,,,,,,,,,,,,,,,,,,,,
,,,,,,,,,,stimuli/images/PICTURE_453.png,FAMILY,5e4cd31b485acc129e20fbdd,26/12/1989,2020-07-08_11h06.54.879,proactive,2020.1.2,Win32,60,5f035e5afe130c270d6ae6dd,5f05e0d5859dcb0b41b88d73,5,,,,,,scissors,,,,,,0,19,19,48,1,5,2,,,,,,,,,,,,,,,,,,,,,,,,,,,,,,,,,,,,,,,,,,,,,,,,,,,,,,,,,,,,,,,,,,,,,,,,,,,
,,,,,,,,,,stimuli/images/PICTURE_564.png,PLENTY,5e4cd31b485acc129e20fbdd,26/12/1989,2020-07-08_11h06.54.879,proactive,2020.1.2,Win32,60,5f035e5afe130c270d6ae6dd,5f05e0d5859dcb0b41b88d73,5,,,,,,spoon,,,,,,0,20,20,11,1,2,2,,,,,,,,,,,,,,,,,,,,,,,,,,,,,,,,,,,,,,,,,,,,,,,,,,,,,,,,,,,,,,,,,,,,,,,,,,,
,,,,,,,,,,stimuli/images/PICTURE_348.png,TOILET,5e4cd31b485acc129e20fbdd,26/12/1989,2020-07-08_11h06.54.879,proactive,2020.1.2,Win32,60,5f035e5afe130c270d6ae6dd,5f05e0d5859dcb0b41b88d73,5,,,,,,pepper,,,,,,0,21,21,4,1,1,2,,,,,,,,,,,,,,,,,,,,,,,,,,,,,,,,,,,,,,,,,,,,,,,,,,,,,,,,,,,,,,,,,,,,,,,,,,,
,,,,,,,,,,stimuli/images/PICTURE_654.png,COPS,5e4cd31b485acc129e20fbdd,26/12/1989,2020-07-08_11h06.54.879,proactive,2020.1.2,Win32,60,5f035e5afe130c270d6ae6dd,5f05e0d5859dcb0b41b88d73,5,,,,,,pencil,,,,,,0,22,22,10,1,2,2,,,,,,,,,,,,,,,,,,,,,,,,,,,,,,,,,,,,,,,,,,,,,,,,,,,,,,,,,,,,,,,,,,,,,,,,,,,
,,,,,,,,,,stimuli/images/PICTURE_297.png,BODY,5e4cd31b485acc129e20fbdd,26/12/1989,2020-07-08_11h06.54.879,proactive,2020.1.2,Win32,60,5f035e5afe130c270d6ae6dd,5f05e0d5859dcb0b41b88d73,5,,,,,,aeroplane,,,,,,0,23,23,51,1,6,2,,,,,,,,,,,,,,,,,,,,,,,,,,,,,,,,,,,,,,,,,,,,,,,,,,,,,,,,,,,,,,,,,,,,,,,,,,,
,,,,,,,,,,stimuli/images/PICTURE_33.png,COPS,5e4cd31b485acc129e20fbdd,26/12/1989,2020-07-08_11h06.54.879,proactive,2020.1.2,Win32,60,5f035e5afe130c270d6ae6dd,5f05e0d5859dcb0b41b88d73,5,,,,,,frame,,,,,,0,24,24,29,1,3,2,,,,,,,,,,,,,,,,,,,,,,,,,,,,,,,,,,,,,,,,,,,,,,,,,,,,,,,,,,,,,,,,,,,,,,,,,,,
,,,,,,,,,,stimuli/images/PICTURE_356.png,CANDY,5e4cd31b485acc129e20fbdd,26/12/1989,2020-07-08_11h06.54.879,proactive,2020.1.2,Win32,60,5f035e5afe130c270d6ae6dd,5f05e0d5859dcb0b41b88d73,5,,,,,,pawn,,,,,,0,25,25,46,1,5,2,,,,,,,,,,,,,,,,,,,,,,,,,,,,,,,,,,,,,,,,,,,,,,,,,,,,,,,,,,,,,,,,,,,,,,,,,,,
,,,,,,,,,,stimuli/images/PICTURE_160.png,HOTEL,5e4cd31b485acc129e20fbdd,26/12/1989,2020-07-08_11h06.54.879,proactive,2020.1.2,Win32,60,5f035e5afe130c270d6ae6dd,5f05e0d5859dcb0b41b88d73,5,,,,,,wheelbarrow,,,,,,0,26,26,16,1,2,2,,,,,,,,,,,,,,,,,,,,,,,,,,,,,,,,,,,,,,,,,,,,,,,,,,,,,,,,,,,,,,,,,,,,,,,,,,,
,,,,,,,,,,stimuli/images/PICTURE_208.png,SPIRIT,5e4cd31b485acc129e20fbdd,26/12/1989,2020-07-08_11h06.54.879,proactive,2020.1.2,Win32,60,5f035e5afe130c270d6ae6dd,5f05e0d5859dcb0b41b88d73,5,,,,,,microphone,,,,,,0,27,27,28,1,3,2,,,,,,,,,,,,,,,,,,,,,,,,,,,,,,,,,,,,,,,,,,,,,,,,,,,,,,,,,,,,,,,,,,,,,,,,,,,
,,,,,,,,,,stimuli/images/PICTURE_509.png,BATH,5e4cd31b485acc129e20fbdd,26/12/1989,2020-07-08_11h06.54.879,proactive,2020.1.2,Win32,60,5f035e5afe130c270d6ae6dd,5f05e0d5859dcb0b41b88d73,5,,,,,,telephone,,,,,,0,28,28,15,1,2,2,,,,,,,,,,,,,,,,,,,,,,,,,,,,,,,,,,,,,,,,,,,,,,,,,,,,,,,,,,,,,,,,,,,,,,,,,,,
,,,,,,,,,,stimuli/images/PICTURE_504.png,HOUSE,5e4cd31b485acc129e20fbdd,26/12/1989,2020-07-08_11h06.54.879,proactive,2020.1.2,Win32,60,5f035e5afe130c270d6ae6dd,5f05e0d5859dcb0b41b88d73,5,,,,,,wheel,,,,,,0,29,29,36,1,4,2,,,,,,,,,,,,,,,,,,,,,,,,,,,,,,,,,,,,,,,,,,,,,,,,,,,,,,,,,,,,,,,,,,,,,,,,,,,
,,,,,,,,,,stimuli/images/PICTURE_2.png,AREA,5e4cd31b485acc129e20fbdd,26/12/1989,2020-07-08_11h06.54.879,proactive,2020.1.2,Win32,60,5f035e5afe130c270d6ae6dd,5f05e0d5859dcb0b41b88d73,5,,,,,,tyre,,,,,,0,30,30,32,1,4,2,,,,,,,,,,,,,,,,,,,,,,,,,,,,,,,,,,,,,,,,,,,,,,,,,,,,,,,,,,,,,,,,,,,,,,,,,,,
,,,,,,,,,,stimuli/images/PICTURE_285.png,PRINCE,5e4cd31b485acc129e20fbdd,26/12/1989,2020-07-08_11h06.54.879,proactive,2020.1.2,Win32,60,5f035e5afe130c270d6ae6dd,5f05e0d5859dcb0b41b88d73,5,,,,,,carrot,,,,,,0,31,31,20,1,3,2,,,,,,,,,,,,,,,,,,,,,,,,,,,,,,,,,,,,,,,,,,,,,,,,,,,,,,,,,,,,,,,,,,,,,,,,,,,
,,,,,,,,,,stimuli/images/PICTURE_296.png,CLOCK,5e4cd31b485acc129e20fbdd,26/12/1989,2020-07-08_11h06.54.879,proactive,2020.1.2,Win32,60,5f035e5afe130c270d6ae6dd,5f05e0d5859dcb0b41b88d73,5,,,,,,bolt,,,,,,0,32,32,18,1,2,2,,,,,,,,,,,,,,,,,,,,,,,,,,,,,,,,,,,,,,,,,,,,,,,,,,,,,,,,,,,,,,,,,,,,,,,,,,,
,,,,,,,,,,stimuli/images/PICTURE_487.png,ROOF,5e4cd31b485acc129e20fbdd,26/12/1989,2020-07-08_11h06.54.879,proactive,2020.1.2,Win32,60,5f035e5afe130c270d6ae6dd,5f05e0d5859dcb0b41b88d73,5,,,,,,basket,,,,,,0,33,33,50,1,6,2,,,,,,,,,,,,,,,,,,,,,,,,,,,,,,,,,,,,,,,,,,,,,,,,,,,,,,,,,,,,,,,,,,,,,,,,,,,
,,,,,,,,,,stimuli/images/PICTURE_215.png,BOYS,5e4cd31b485acc129e20fbdd,26/12/1989,2020-07-08_11h06.54.879,proactive,2020.1.2,Win32,60,5f035e5afe130c270d6ae6dd,5f05e0d5859dcb0b41b88d73,5,,,,,,boot,,,,,,0,34,34,24,1,3,2,,,,,,,,,,,,,,,,,,,,,,,,,,,,,,,,,,,,,,,,,,,,,,,,,,,,,,,,,,,,,,,,,,,,,,,,,,,
,,,,,,,,,,stimuli/images/PICTURE_677.png,PHOTO,5e4cd31b485acc129e20fbdd,26/12/1989,2020-07-08_11h06.54.879,proactive,2020.1.2,Win32,60,5f035e5afe130c270d6ae6dd,5f05e0d5859dcb0b41b88d73,5,,,,,,map,,,,,,0,35,35,14,1,2,2,,,,,,,,,,,,,,,,,,,,,,,,,,,,,,,,,,,,,,,,,,,,,,,,,,,,,,,,,,,,,,,,,,,,,,,,,,,
,,,,,,,,,,stimuli/images/PICTURE_470.png,MOMENT,5e4cd31b485acc129e20fbdd,26/12/1989,2020-07-08_11h06.54.879,proactive,2020.1.2,Win32,60,5f035e5afe130c270d6ae6dd,5f05e0d5859dcb0b41b88d73,5,,,,,,motorbike,,,,,,0,36,36,40,1,5,2,,,,,,,,,,,,,,,,,,,,,,,,,,,,,,,,,,,,,,,,,,,,,,,,,,,,,,,,,,,,,,,,,,,,,,,,,,,
,,,,,,,,,,stimuli/images/PICTURE_311.png,FLESH,5e4cd31b485acc129e20fbdd,26/12/1989,2020-07-08_11h06.54.879,proactive,2020.1.2,Win32,60,5f035e5afe130c270d6ae6dd,5f05e0d5859dcb0b41b88d73,5,,,,,,razor,,,,,,0,37,37,3,1,1,2,,,,,,,,,,,,,,,,,,,,,,,,,,,,,,,,,,,,,,,,,,,,,,,,,,,,,,,,,,,,,,,,,,,,,,,,,,,
,,,,,,,,,,stimuli/images/PICTURE_2.png,JUNGLE,5e4cd31b485acc129e20fbdd,26/12/1989,2020-07-08_11h06.54.879,proactive,2020.1.2,Win32,60,5f035e5afe130c270d6ae6dd,5f05e0d5859dcb0b41b88d73,5,,,,,,tyre,,,,,,0,38,38,1,1,1,2,,,,,,,,,,,,,,,,,,,,,,,,,,,,,,,,,,,,,,,,,,,,,,,,,,,,,,,,,,,,,,,,,,,,,,,,,,,
,,,,,,,,,,stimuli/images/PICTURE_215.png,LEADER,5e4cd31b485acc129e20fbdd,26/12/1989,2020-07-08_11h06.54.879,proactive,2020.1.2,Win32,60,5f035e5afe130c270d6ae6dd,5f05e0d5859dcb0b41b88d73,5,,,,,,boot,,,,,,0,39,39,43,1,5,2,,,,,,,,,,,,,,,,,,,,,,,,,,,,,,,,,,,,,,,,,,,,,,,,,,,,,,,,,,,,,,,,,,,,,,,,,,,
,,,,,,,,,,stimuli/images/PICTURE_93.png,GIRL,5e4cd31b485acc129e20fbdd,26/12/1989,2020-07-08_11h06.54.879,proactive,2020.1.2,Win32,60,5f035e5afe130c270d6ae6dd,5f05e0d5859dcb0b41b88d73,5,,,,,,skateboard,,,,,,0,40,40,31,1,4,2,,,,,,,,,,,,,,,,,,,,,,,,,,,,,,,,,,,,,,,,,,,,,,,,,,,,,,,,,,,,,,,,,,,,,,,,,,,
,,,,,,,,,,stimuli/images/PICTURE_750.png,POLICY,5e4cd31b485acc129e20fbdd,26/12/1989,2020-07-08_11h06.54.879,proactive,2020.1.2,Win32,60,5f035e5afe130c270d6ae6dd,5f05e0d5859dcb0b41b88d73,5,,,,,,kettle,,,,,,0,41,41,44,1,5,2,,,,,,,,,,,,,,,,,,,,,,,,,,,,,,,,,,,,,,,,,,,,,,,,,,,,,,,,,,,,,,,,,,,,,,,,,,,
,,,,,,,,,,stimuli/images/PICTURE_285.png,WRITER,5e4cd31b485acc129e20fbdd,26/12/1989,2020-07-08_11h06.54.879,proactive,2020.1.2,Win32,60,5f035e5afe130c270d6ae6dd,5f05e0d5859dcb0b41b88d73,5,,,,,,carrot,,,,,,0,42,42,6,1,1,2,,,,,,,,,,,,,,,,,,,,,,,,,,,,,,,,,,,,,,,,,,,,,,,,,,,,,,,,,,,,,,,,,,,,,,,,,,,
,,,,,,,,,,stimuli/images/PICTURE_32.png,LETTER,5e4cd31b485acc129e20fbdd,26/12/1989,2020-07-08_11h06.54.879,proactive,2020.1.2,Win32,60,5f035e5afe130c270d6ae6dd,5f05e0d5859dcb0b41b88d73,5,,,,,,crown,,,,,,0,43,43,56,1,6,2,,,,,,,,,,,,,,,,,,,,,,,,,,,,,,,,,,,,,,,,,,,,,,,,,,,,,,,,,,,,,,,,,,,,,,,,,,,
,,,,,,,,,,stimuli/images/PICTURE_688.png,CLOCK,5e4cd31b485acc129e20fbdd,26/12/1989,2020-07-08_11h06.54.879,proactive,2020.1.2,Win32,60,5f035e5afe130c270d6ae6dd,5f05e0d5859dcb0b41b88d73,5,,,,,,runner,,,,,,0,44,44,42,1,5,2,,,,,,,,,,,,,,,,,,,,,,,,,,,,,,,,,,,,,,,,,,,,,,,,,,,,,,,,,,,,,,,,,,,,,,,,,,,
,,,,,,,,,,stimuli/images/PICTURE_509.png,MILLER,5e4cd31b485acc129e20fbdd,26/12/1989,2020-07-08_11h06.54.879,proactive,2020.1.2,Win32,60,5f035e5afe130c270d6ae6dd,5f05e0d5859dcb0b41b88d73,5,,,,,,telephone,,,,,,0,45,45,49,1,5,2,,,,,,,,,,,,,,,,,,,,,,,,,,,,,,,,,,,,,,,,,,,,,,,,,,,,,,,,,,,,,,,,,,,,,,,,,,,
,,,,,,,,,,stimuli/images/PICTURE_57.png,CANDY,5e4cd31b485acc129e20fbdd,26/12/1989,2020-07-08_11h06.54.879,proactive,2020.1.2,Win32,60,5f035e5afe130c270d6ae6dd,5f05e0d5859dcb0b41b88d73,5,,,,,,stamp,,,,,,0,46,46,52,1,6,2,,,,,,,,,,,,,,,,,,,,,,,,,,,,,,,,,,,,,,,,,,,,,,,,,,,,,,,,,,,,,,,,,,,,,,,,,,,
,,,,,,,,,,stimuli/images/PICTURE_348.png,DUDE,5e4cd31b485acc129e20fbdd,26/12/1989,2020-07-08_11h06.54.879,proactive,2020.1.2,Win32,60,5f035e5afe130c270d6ae6dd,5f05e0d5859dcb0b41b88d73,5,,,,,,pepper,,,,,,0,47,47,59,1,6,2,,,,,,,,,,,,,,,,,,,,,,,,,,,,,,,,,,,,,,,,,,,,,,,,,,,,,,,,,,,,,,,,,,,,,,,,,,,
,,,,,,,,,,stimuli/images/PICTURE_57.png,CASINO,5e4cd31b485acc129e20fbdd,26/12/1989,2020-07-08_11h06.54.879,proactive,2020.1.2,Win32,60,5f035e5afe130c270d6ae6dd,5f05e0d5859dcb0b41b88d73,5,,,,,,stamp,,,,,,0,48,48,12,1,2,2,,,,,,,,,,,,,,,,,,,,,,,,,,,,,,,,,,,,,,,,,,,,,,,,,,,,,,,,,,,,,,,,,,,,,,,,,,,
,,,,,,,,,,stimuli/images/PICTURE_708.png,VALLEY,5e4cd31b485acc129e20fbdd,26/12/1989,2020-07-08_11h06.54.879,proactive,2020.1.2,Win32,60,5f035e5afe130c270d6ae6dd,5f05e0d5859dcb0b41b88d73,5,,,,,,monkey,,,,,,0,49,49,45,1,5,2,,,,,,,,,,,,,,,,,,,,,,,,,,,,,,,,,,,,,,,,,,,,,,,,,,,,,,,,,,,,,,,,,,,,,,,,,,,
,,,,,,,,,,stimuli/images/PICTURE_655.png,SALE,5e4cd31b485acc129e20fbdd,26/12/1989,2020-07-08_11h06.54.879,proactive,2020.1.2,Win32,60,5f035e5afe130c270d6ae6dd,5f05e0d5859dcb0b41b88d73,5,,,,,,megaphone,,,,,,0,50,50,57,1,6,2,,,,,,,,,,,,,,,,,,,,,,,,,,,,,,,,,,,,,,,,,,,,,,,,,,,,,,,,,,,,,,,,,,,,,,,,,,,
,,,,,,,,,,stimuli/images/PICTURE_147.png,LEADER,5e4cd31b485acc129e20fbdd,26/12/1989,2020-07-08_11h06.54.879,proactive,2020.1.2,Win32,60,5f035e5afe130c270d6ae6dd,5f05e0d5859dcb0b41b88d73,5,,,,,,hanger,,,,,,0,51,51,33,1,4,2,,,,,,,,,,,,,,,,,,,,,,,,,,,,,,,,,,,,,,,,,,,,,,,,,,,,,,,,,,,,,,,,,,,,,,,,,,,
,,,,,,,,,,stimuli/images/PICTURE_141.png,CLIENT,5e4cd31b485acc129e20fbdd,26/12/1989,2020-07-08_11h06.54.879,proactive,2020.1.2,Win32,60,5f035e5afe130c270d6ae6dd,5f05e0d5859dcb0b41b88d73,5,,,,,,sunflower,,,,,,0,52,52,30,1,4,2,,,,,,,,,,,,,,,,,,,,,,,,,,,,,,,,,,,,,,,,,,,,,,,,,,,,,,,,,,,,,,,,,,,,,,,,,,,
,,,,,,,,,,stimuli/images/PICTURE_487.png,POLICY,5e4cd31b485acc129e20fbdd,26/12/1989,2020-07-08_11h06.54.879,proactive,2020.1.2,Win32,60,5f035e5afe130c270d6ae6dd,5f05e0d5859dcb0b41b88d73,5,,,,,,basket,,,,,,0,53,53,34,1,4,2,,,,,,,,,,,,,,,,,,,,,,,,,,,,,,,,,,,,,,,,,,,,,,,,,,,,,,,,,,,,,,,,,,,,,,,,,,,
,,,,,,,,,,stimuli/images/PICTURE_677.png,FAMILY,5e4cd31b485acc129e20fbdd,26/12/1989,2020-07-08_11h06.54.879,proactive,2020.1.2,Win32,60,5f035e5afe130c270d6ae6dd,5f05e0d5859dcb0b41b88d73,5,,,,,,map,,,,,,0,54,54,53,1,6,2,,,,,,,,,,,,,,,,,,,,,,,,,,,,,,,,,,,,,,,,,,,,,,,,,,,,,,,,,,,,,,,,,,,,,,,,,,,
,,,,,,,,,,stimuli/images/PICTURE_405.png,JUNGLE,5e4cd31b485acc129e20fbdd,26/12/1989,2020-07-08_11h06.54.879,proactive,2020.1.2,Win32,60,5f035e5afe130c270d6ae6dd,5f05e0d5859dcb0b41b88d73,5,,,,,,anchor,,,,,,0,55,55,58,1,6,2,,,,,,,,,,,,,,,,,,,,,,,,,,,,,,,,,,,,,,,,,,,,,,,,,,,,,,,,,,,,,,,,,,,,,,,,,,,
,,,,,,,,,,stimuli/images/PICTURE_123.png,SALE,5e4cd31b485acc129e20fbdd,26/12/1989,2020-07-08_11h06.54.879,proactive,2020.1.2,Win32,60,5f035e5afe130c270d6ae6dd,5f05e0d5859dcb0b41b88d73,5,,,,,,dart,,,,,,0,56,56,8,1,1,2,,,,,,,,,,,,,,,,,,,,,,,,,,,,,,,,,,,,,,,,,,,,,,,,,,,,,,,,,,,,,,,,,,,,,,,,,,,
,,,,,,,,,,stimuli/images/PICTURE_654.png,YEAR,5e4cd31b485acc129e20fbdd,26/12/1989,2020-07-08_11h06.54.879,proactive,2020.1.2,Win32,60,5f035e5afe130c270d6ae6dd,5f05e0d5859dcb0b41b88d73,5,,,,,,pencil,,,,,,0,57,57,41,1,5,2,,,,,,,,,,,,,,,,,,,,,,,,,,,,,,,,,,,,,,,,,,,,,,,,,,,,,,,,,,,,,,,,,,,,,,,,,,,
,,,,,,,,,,stimuli/images/PICTURE_327.png,LEADER,5e4cd31b485acc129e20fbdd,26/12/1989,2020-07-08_11h06.54.879,proactive,2020.1.2,Win32,60,5f035e5afe130c270d6ae6dd,5f05e0d5859dcb0b41b88d73,5,,,,,,helmet,,,,,,0,58,58,17,1,2,2,,,,,,,,,,,,,,,,,,,,,,,,,,,,,,,,,,,,,,,,,,,,,,,,,,,,,,,,,,,,,,,,,,,,,,,,,,,
,,?,0.001,0,,,,,,stimuli/images/PICTURE_285.png,PRINCE,5e4cd31b485acc129e20fbdd,26/12/1989,2020-07-08_11h06.54.879,proactive,2020.1.2,Win32,60,5f035e5afe130c270d6ae6dd,5f05e0d5859dcb0b41b88d73,5,,,,,,carrot,,,,,,,,,,,3,2,0,0,0,20,1,,,,,,,,,,,,,,,,,,,,,,,,,,,,,,,,,,,,,,,,,,,,,,,,,,,,,,,,,,,,,,,,,,,,,,
,,?,0,0,,,,,,stimuli/images/PICTURE_311.png,TOILET,5e4cd31b485acc129e20fbdd,26/12/1989,2020-07-08_11h06.54.879,proactive,2020.1.2,Win32,60,5f035e5afe130c270d6ae6dd,5f05e0d5859dcb0b41b88d73,5,,,,,,razor,,,,,,,,,,,6,2,0,1,1,54,1,,,,,,,,,,,,,,,,,,,,,,,,,,,,,,,,,,,,,,,,,,,,,,,,,,,,,,,,,,,,,,,,,,,,,,
,,?,0,0,,,,,,stimuli/images/PICTURE_177.png,HOUSE,5e4cd31b485acc129e20fbdd,26/12/1989,2020-07-08_11h06.54.879,proactive,2020.1.2,Win32,60,5f035e5afe130c270d6ae6dd,5f05e0d5859dcb0b41b88d73,5,,,,,,mushroom,,,,,,,,,,,3,2,0,2,2,25,1,,,,,,,,,,,,,,,,,,,,,,,,,,,,,,,,,,,,,,,,,,,,,,,,,,,,,,,,,,,,,,,,,,,,,,
,,?,0.001,0,,,,,,stimuli/images/PICTURE_667.png,GLASS,5e4cd31b485acc129e20fbdd,26/12/1989,2020-07-08_11h06.54.879,proactive,2020.1.2,Win32,60,5f035e5afe130c270d6ae6dd,5f05e0d5859dcb0b41b88d73,5,,,,,,daisy,,,,,,,,,,,3,2,0,3,3,27,1,,,,,,,,,,,,,,,,,,,,,,,,,,,,,,,,,,,,,,,,,,,,,,,,,,,,,,,,,,,,,,,,,,,,,,
,,?,0,0,,,,,,stimuli/images/PICTURE_509.png,BATH,5e4cd31b485acc129e20fbdd,26/12/1989,2020-07-08_11h06.54.879,proactive,2020.1.2,Win32,60,5f035e5afe130c270d6ae6dd,5f05e0d5859dcb0b41b88d73,5,,,,,,telephone,,,,,,,,,,,2,2,0,4,4,15,1,,,,,,,,,,,,,,,,,,,,,,,,,,,,,,,,,,,,,,,,,,,,,,,,,,,,,,,,,,,,,,,,,,,,,,
,,?,0.001,0,,,,,,stimuli/images/PICTURE_470.png,BEAUTY,5e4cd31b485acc129e20fbdd,26/12/1989,2020-07-08_11h06.54.879,proactive,2020.1.2,Win32,60,5f035e5afe130c270d6ae6dd,5f05e0d5859dcb0b41b88d73,5,,,,,,motorbike,,,,,,,,,,,3,2,0,5,5,26,1,,,,,,,,,,,,,,,,,,,,,,,,,,,,,,,,,,,,,,,,,,,,,,,,,,,,,,,,,,,,,,,,,,,,,,
,,?,0.001,0,,,,,,stimuli/images/PICTURE_296.png,CLOCK,5e4cd31b485acc129e20fbdd,26/12/1989,2020-07-08_11h06.54.879,proactive,2020.1.2,Win32,60,5f035e5afe130c270d6ae6dd,5f05e0d5859dcb0b41b88d73,5,,,,,,bolt,,,,,,,,,,,2,2,0,6,6,18,1,,,,,,,,,,,,,,,,,,,,,,,,,,,,,,,,,,,,,,,,,,,,,,,,,,,,,,,,,,,,,,,,,,,,,,
,,PLENTY,9.178,0,,,,,,stimuli/images/PICTURE_356.png,CANDY,5e4cd31b485acc129e20fbdd,26/12/1989,2020-07-08_11h06.54.879,proactive,2020.1.2,Win32,60,5f035e5afe130c270d6ae6dd,5f05e0d5859dcb0b41b88d73,5,,,,,,pawn,,,,,,,,,,,5,2,0,7,7,46,1,,,,,,,,,,,,,,,,,,,,,,,,,,,,,,,,,,,,,,,,,,,,,,,,,,,,,,,,,,,,,,,,,,,,,,
,,VALLEY,4.847,1,,,,,,stimuli/images/PICTURE_708.png,VALLEY,5e4cd31b485acc129e20fbdd,26/12/1989,2020-07-08_11h06.54.879,proactive,2020.1.2,Win32,60,5f035e5afe130c270d6ae6dd,5f05e0d5859dcb0b41b88d73,5,,,,,,monkey,,,,,,,,,,,5,2,0,8,8,45,1,,,,,,,,,,,,,,,,,,,,,,,,,,,,,,,,,,,,,,,,,,,,,,,,,,,,,,,,,,,,,,,,,,,,,,
,,?,0.002,0,,,,,,stimuli/images/PICTURE_491.png,SERIES,5e4cd31b485acc129e20fbdd,26/12/1989,2020-07-08_11h06.54.879,proactive,2020.1.2,Win32,60,5f035e5afe130c270d6ae6dd,5f05e0d5859dcb0b41b88d73,5,,,,,,rug,,,,,,,,,,,4,2,0,9,9,39,1,,,,,,,,,,,,,,,,,,,,,,,,,,,,,,,,,,,,,,,,,,,,,,,,,,,,,,,,,,,,,,,,,,,,,,
,,?,0,0,,,,,,stimuli/images/PICTURE_208.png,SPIRIT,5e4cd31b485acc129e20fbdd,26/12/1989,2020-07-08_11h06.54.879,proactive,2020.1.2,Win32,60,5f035e5afe130c270d6ae6dd,5f05e0d5859dcb0b41b88d73,5,,,,,,microphone,,,,,,,,,,,3,2,0,10,10,28,1,,,,,,,,,,,,,,,,,,,,,,,,,,,,,,,,,,,,,,,,,,,,,,,,,,,,,,,,,,,,,,,,,,,,,,
,,?,0.001,0,,,,,,stimuli/images/PICTURE_311.png,FLESH,5e4cd31b485acc129e20fbdd,26/12/1989,2020-07-08_11h06.54.879,proactive,2020.1.2,Win32,60,5f035e5afe130c270d6ae6dd,5f05e0d5859dcb0b41b88d73,5,,,,,,razor,,,,,,,,,,,1,2,0,11,11,3,1,,,,,,,,,,,,,,,,,,,,,,,,,,,,,,,,,,,,,,,,,,,,,,,,,,,,,,,,,,,,,,,,,,,,,,
,,?,0.001,0,,,,,,stimuli/images/PICTURE_141.png,CLIENT,5e4cd31b485acc129e20fbdd,26/12/1989,2020-07-08_11h06.54.879,proactive,2020.1.2,Win32,60,5f035e5afe130c270d6ae6dd,5f05e0d5859dcb0b41b88d73,5,,,,,,sunflower,,,,,,,,,,,4,2,0,12,12,30,1,,,,,,,,,,,,,,,,,,,,,,,,,,,,,,,,,,,,,,,,,,,,,,,,,,,,,,,,,,,,,,,,,,,,,,
,,?,0,0,,,,,,stimuli/images/PICTURE_405.png,JUNGLE,5e4cd31b485acc129e20fbdd,26/12/1989,2020-07-08_11h06.54.879,proactive,2020.1.2,Win32,60,5f035e5afe130c270d6ae6dd,5f05e0d5859dcb0b41b88d73,5,,,,,,anchor,,,,,,,,,,,6,2,0,13,13,58,1,,,,,,,,,,,,,,,,,,,,,,,,,,,,,,,,,,,,,,,,,,,,,,,,,,,,,,,,,,,,,,,,,,,,,,
,,DUDE,1.539,1,,,,,,stimuli/images/PICTURE_692.png,DUDE,5e4cd31b485acc129e20fbdd,26/12/1989,2020-07-08_11h06.54.879,proactive,2020.1.2,Win32,60,5f035e5afe130c270d6ae6dd,5f05e0d5859dcb0b41b88d73,5,,,,,,cherry,,,,,,,,,,,5,2,0,14,14,47,1,,,,,,,,,,,,,,,,,,,,,,,,,,,,,,,,,,,,,,,,,,,,,,,,,,,,,,,,,,,,,,,,,,,,,,
,,?,0.002,0,,,,,,stimuli/images/PICTURE_504.png,HOUSE,5e4cd31b485acc129e20fbdd,26/12/1989,2020-07-08_11h06.54.879,proactive,2020.1.2,Win32,60,5f035e5afe130c270d6ae6dd,5f05e0d5859dcb0b41b88d73,5,,,,,,wheel,,,,,,,,,,,4,2,0,15,15,36,1,,,,,,,,,,,,,,,,,,,,,,,,,,,,,,,,,,,,,,,,,,,,,,,,,,,,,,,,,,,,,,,,,,,,,,
,,?,0.001,0,,,,,,stimuli/images/PICTURE_405.png,JUNGLE,5e4cd31b485acc129e20fbdd,26/12/1989,2020-07-08_11h06.54.879,proactive,2020.1.2,Win32,60,5f035e5afe130c270d6ae6dd,5f05e0d5859dcb0b41b88d73,5,,,,,,anchor,,,,,,,,,,,2,2,0,16,16,13,1,,,,,,,,,,,,,,,,,,,,,,,,,,,,,,,,,,,,,,,,,,,,,,,,,,,,,,,,,,,,,,,,,,,,,,
,,?,0.001,0,,,,,,stimuli/images/PICTURE_327.png,LEADER,5e4cd31b485acc129e20fbdd,26/12/1989,2020-07-08_11h06.54.879,proactive,2020.1.2,Win32,60,5f035e5afe130c270d6ae6dd,5f05e0d5859dcb0b41b88d73,5,,,,,,helmet,,,,,,,,,,,2,2,0,17,17,17,1,,,,,,,,,,,,,,,,,,,,,,,,,,,,,,,,,,,,,,,,,,,,,,,,,,,,,,,,,,,,,,,,,,,,,,
,,?,0,0,,,,,,stimuli/images/PICTURE_68.png,KIND,5e4cd31b485acc129e20fbdd,26/12/1989,2020-07-08_11h06.54.879,proactive,2020.1.2,Win32,60,5f035e5afe130c270d6ae6dd,5f05e0d5859dcb0b41b88d73,5,,,,,,candle,,,,,,,,,,,3,2,0,18,18,23,1,,,,,,,,,,,,,,,,,,,,,,,,,,,,,,,,,,,,,,,,,,,,,,,,,,,,,,,,,,,,,,,,,,,,,,
,,?,0.002,0,,,,,,stimuli/images/PICTURE_95.png,NIGHT,5e4cd31b485acc129e20fbdd,26/12/1989,2020-07-08_11h06.54.879,proactive,2020.1.2,Win32,60,5f035e5afe130c270d6ae6dd,5f05e0d5859dcb0b41b88d73,5,,,,,,suitcase,,,,,,,,,,,4,2,0,19,19,37,1,,,,,,,,,,,,,,,,,,,,,,,,,,,,,,,,,,,,,,,,,,,,,,,,,,,,,,,,,,,,,,,,,,,,,,
,,?,0.001,0,,,,,,stimuli/images/PICTURE_285.png,WRITER,5e4cd31b485acc129e20fbdd,26/12/1989,2020-07-08_11h06.54.879,proactive,2020.1.2,Win32,60,5f035e5afe130c270d6ae6dd,5f05e0d5859dcb0b41b88d73,5,,,,,,carrot,,,,,,,,,,,1,2,0,20,20,6,1,,,,,,,,,,,,,,,,,,,,,,,,,,,,,,,,,,,,,,,,,,,,,,,,,,,,,,,,,,,,,,,,,,,,,,
,,?,0.001,0,,,,,,stimuli/images/PICTURE_160.png,HOTEL,5e4cd31b485acc129e20fbdd,26/12/1989,2020-07-08_11h06.54.879,proactive,2020.1.2,Win32,60,5f035e5afe130c270d6ae6dd,5f05e0d5859dcb0b41b88d73,5,,,,,,wheelbarrow,,,,,,,,,,,2,2,0,21,21,16,1,,,,,,,,,,,,,,,,,,,,,,,,,,,,,,,,,,,,,,,,,,,,,,,,,,,,,,,,,,,,,,,,,,,,,,
,,?,0.001,0,,,,,,stimuli/images/PICTURE_215.png,BOYS,5e4cd31b485acc129e20fbdd,26/12/1989,2020-07-08_11h06.54.879,proactive,2020.1.2,Win32,60,5f035e5afe130c270d6ae6dd,5f05e0d5859dcb0b41b88d73,5,,,,,,boot,,,,,,,,,,,3,2,0,22,22,24,1,,,,,,,,,,,,,,,,,,,,,,,,,,,,,,,,,,,,,,,,,,,,,,,,,,,,,,,,,,,,,,,,,,,,,,
,,?,0.001,0,,,,,,stimuli/images/PICTURE_677.png,PHOTO,5e4cd31b485acc129e20fbdd,26/12/1989,2020-07-08_11h06.54.879,proactive,2020.1.2,Win32,60,5f035e5afe130c270d6ae6dd,5f05e0d5859dcb0b41b88d73,5,,,,,,map,,,,,,,,,,,2,2,0,23,23,14,1,,,,,,,,,,,,,,,,,,,,,,,,,,,,,,,,,,,,,,,,,,,,,,,,,,,,,,,,,,,,,,,,,,,,,,
,,?,10.012,0,,,,,,stimuli/images/PICTURE_470.png,MOMENT,5e4cd31b485acc129e20fbdd,26/12/1989,2020-07-08_11h06.54.879,proactive,2020.1.2,Win32,60,5f035e5afe130c270d6ae6dd,5f05e0d5859dcb0b41b88d73,5,,,,,,motorbike,,,,,,,,,,,5,2,0,24,24,40,1,,,,,,,,,,,,,,,,,,,,,,,,,,,,,,,,,,,,,,,,,,,,,,,,,,,,,,,,,,,,,,,,,,,,,,
,,MILLER,2.231,1,,,,,,stimuli/images/PICTURE_509.png,MILLER,5e4cd31b485acc129e20fbdd,26/12/1989,2020-07-08_11h06.54.879,proactive,2020.1.2,Win32,60,5f035e5afe130c270d6ae6dd,5f05e0d5859dcb0b41b88d73,5,,,,,,telephone,,,,,,,,,,,5,2,0,25,25,49,1,,,,,,,,,,,,,,,,,,,,,,,,,,,,,,,,,,,,,,,,,,,,,,,,,,,,,,,,,,,,,,,,,,,,,,
,,?,0.002,0,,,,,,stimuli/images/PICTURE_255.png,PENNY,5e4cd31b485acc129e20fbdd,26/12/1989,2020-07-08_11h06.54.879,proactive,2020.1.2,Win32,60,5f035e5afe130c270d6ae6dd,5f05e0d5859dcb0b41b88d73,5,,,,,,shovel,,,,,,,,,,,2,2,0,26,26,19,1,,,,,,,,,,,,,,,,,,,,,,,,,,,,,,,,,,,,,,,,,,,,,,,,,,,,,,,,,,,,,,,,,,,,,,
,,?,0.001,0,,,,,,stimuli/images/PICTURE_18.png,RIVER,5e4cd31b485acc129e20fbdd,26/12/1989,2020-07-08_11h06.54.879,proactive,2020.1.2,Win32,60,5f035e5afe130c270d6ae6dd,5f05e0d5859dcb0b41b88d73,5,,,,,,planet,,,,,,,,,,,3,2,0,27,27,22,1,,,,,,,,,,,,,,,,,,,,,,,,,,,,,,,,,,,,,,,,,,,,,,,,,,,,,,,,,,,,,,,,,,,,,,
,,?,0.002,0,,,,,,stimuli/images/PICTURE_487.png,POLICY,5e4cd31b485acc129e20fbdd,26/12/1989,2020-07-08_11h06.54.879,proactive,2020.1.2,Win32,60,5f035e5afe130c270d6ae6dd,5f05e0d5859dcb0b41b88d73,5,,,,,,basket,,,,,,,,,,,4,2,0,28,28,34,1,,,,,,,,,,,,,,,,,,,,,,,,,,,,,,,,,,,,,,,,,,,,,,,,,,,,,,,,,,,,,,,,,,,,,,
,,?,0.001,0,,,,,,stimuli/images/PICTURE_32.png,LETTER,5e4cd31b485acc129e20fbdd,26/12/1989,2020-07-08_11h06.54.879,proactive,2020.1.2,Win32,60,5f035e5afe130c270d6ae6dd,5f05e0d5859dcb0b41b88d73,5,,,,,,crown,,,,,,,,,,,6,2,0,29,29,56,1,,,,,,,,,,,,,,,,,,,,,,,,,,,,,,,,,,,,,,,,,,,,,,,,,,,,,,,,,,,,,,,,,,,,,,
,,POLICY,2.357,1,,,,,,stimuli/images/PICTURE_750.png,POLICY,5e4cd31b485acc129e20fbdd,26/12/1989,2020-07-08_11h06.54.879,proactive,2020.1.2,Win32,60,5f035e5afe130c270d6ae6dd,5f05e0d5859dcb0b41b88d73,5,,,,,,kettle,,,,,,,,,,,5,2,0,30,30,44,1,,,,,,,,,,,,,,,,,,,,,,,,,,,,,,,,,,,,,,,,,,,,,,,,,,,,,,,,,,,,,,,,,,,,,,
,,?,0.002,0,,,,,,stimuli/images/PICTURE_123.png,SALE,5e4cd31b485acc129e20fbdd,26/12/1989,2020-07-08_11h06.54.879,proactive,2020.1.2,Win32,60,5f035e5afe130c270d6ae6dd,5f05e0d5859dcb0b41b88d73,5,,,,,,dart,,,,,,,,,,,1,2,0,31,31,8,1,,,,,,,,,,,,,,,,,,,,,,,,,,,,,,,,,,,,,,,,,,,,,,,,,,,,,,,,,,,,,,,,,,,,,,
,,?,0.001,0,,,,,,stimuli/images/PICTURE_403.png,FAMILY,5e4cd31b485acc129e20fbdd,26/12/1989,2020-07-08_11h06.54.879,proactive,2020.1.2,Win32,60,5f035e5afe130c270d6ae6dd,5f05e0d5859dcb0b41b88d73,5,,,,,,cathedral,,,,,,,,,,,1,2,0,32,32,9,1,,,,,,,,,,,,,,,,,,,,,,,,,,,,,,,,,,,,,,,,,,,,,,,,,,,,,,,,,,,,,,,,,,,,,,
,,?,0,0,,,,,,stimuli/images/PICTURE_677.png,FAMILY,5e4cd31b485acc129e20fbdd,26/12/1989,2020-07-08_11h06.54.879,proactive,2020.1.2,Win32,60,5f035e5afe130c270d6ae6dd,5f05e0d5859dcb0b41b88d73,5,,,,,,map,,,,,,,,,,,6,2,0,33,33,53,1,,,,,,,,,,,,,,,,,,,,,,,,,,,,,,,,,,,,,,,,,,,,,,,,,,,,,,,,,,,,,,,,,,,,,,
,,?,0,0,,,,,,stimuli/images/PICTURE_147.png,LEADER,5e4cd31b485acc129e20fbdd,26/12/1989,2020-07-08_11h06.54.879,proactive,2020.1.2,Win32,60,5f035e5afe130c270d6ae6dd,5f05e0d5859dcb0b41b88d73,5,,,,,,hanger,,,,,,,,,,,4,2,0,34,34,33,1,,,,,,,,,,,,,,,,,,,,,,,,,,,,,,,,,,,,,,,,,,,,,,,,,,,,,,,,,,,,,,,,,,,,,,
,,?,0.001,0,,,,,,stimuli/images/PICTURE_487.png,ROOF,5e4cd31b485acc129e20fbdd,26/12/1989,2020-07-08_11h06.54.879,proactive,2020.1.2,Win32,60,5f035e5afe130c270d6ae6dd,5f05e0d5859dcb0b41b88d73,5,,,,,,basket,,,,,,,,,,,6,2,0,35,35,50,1,,,,,,,,,,,,,,,,,,,,,,,,,,,,,,,,,,,,,,,,,,,,,,,,,,,,,,,,,,,,,,,,,,,,,,
,,LEADER,2.056,1,,,,,,stimuli/images/PICTURE_215.png,LEADER,5e4cd31b485acc129e20fbdd,26/12/1989,2020-07-08_11h06.54.879,proactive,2020.1.2,Win32,60,5f035e5afe130c270d6ae6dd,5f05e0d5859dcb0b41b88d73,5,,,,,,boot,,,,,,,,,,,5,2,0,36,36,43,1,,,,,,,,,,,,,,,,,,,,,,,,,,,,,,,,,,,,,,,,,,,,,,,,,,,,,,,,,,,,,,,,,,,,,,
,,FAMILY,1.949,1,,,,,,stimuli/images/PICTURE_453.png,FAMILY,5e4cd31b485acc129e20fbdd,26/12/1989,2020-07-08_11h06.54.879,proactive,2020.1.2,Win32,60,5f035e5afe130c270d6ae6dd,5f05e0d5859dcb0b41b88d73,5,,,,,,scissors,,,,,,,,,,,5,2,0,37,37,48,1,,,,,,,,,,,,,,,,,,,,,,,,,,,,,,,,,,,,,,,,,,,,,,,,,,,,,,,,,,,,,,,,,,,,,,
,,?,0,0,,,,,,stimuli/images/PICTURE_655.png,SALE,5e4cd31b485acc129e20fbdd,26/12/1989,2020-07-08_11h06.54.879,proactive,2020.1.2,Win32,60,5f035e5afe130c270d6ae6dd,5f05e0d5859dcb0b41b88d73,5,,,,,,megaphone,,,,,,,,,,,6,2,0,38,38,57,1,,,,,,,,,,,,,,,,,,,,,,,,,,,,,,,,,,,,,,,,,,,,,,,,,,,,,,,,,,,,,,,,,,,,,,
,,?,0.001,0,,,,,,stimuli/images/PICTURE_57.png,NATION,5e4cd31b485acc129e20fbdd,26/12/1989,2020-07-08_11h06.54.879,proactive,2020.1.2,Win32,60,5f035e5afe130c270d6ae6dd,5f05e0d5859dcb0b41b88d73,5,,,,,,stamp,,,,,,,,,,,3,2,0,39,39,21,1,,,,,,,,,,,,,,,,,,,,,,,,,,,,,,,,,,,,,,,,,,,,,,,,,,,,,,,,,,,,,,,,,,,,,,
,,YEAR,2.21,1,,,,,,stimuli/images/PICTURE_654.png,YEAR,5e4cd31b485acc129e20fbdd,26/12/1989,2020-07-08_11h06.54.879,proactive,2020.1.2,Win32,60,5f035e5afe130c270d6ae6dd,5f05e0d5859dcb0b41b88d73,5,,,,,,pencil,,,,,,,,,,,5,2,0,40,40,41,1,,,,,,,,,,,,,,,,,,,,,,,,,,,,,,,,,,,,,,,,,,,,,,,,,,,,,,,,,,,,,,,,,,,,,,
,,?,0.001,0,,,,,,stimuli/images/PICTURE_2.png,AREA,5e4cd31b485acc129e20fbdd,26/12/1989,2020-07-08_11h06.54.879,proactive,2020.1.2,Win32,60,5f035e5afe130c270d6ae6dd,5f05e0d5859dcb0b41b88d73,5,,,,,,tyre,,,,,,,,,,,4,2,0,41,41,32,1,,,,,,,,,,,,,,,,,,,,,,,,,,,,,,,,,,,,,,,,,,,,,,,,,,,,,,,,,,,,,,,,,,,,,,
,,?,0.001,0,,,,,,stimuli/images/PICTURE_93.png,GIRL,5e4cd31b485acc129e20fbdd,26/12/1989,2020-07-08_11h06.54.879,proactive,2020.1.2,Win32,60,5f035e5afe130c270d6ae6dd,5f05e0d5859dcb0b41b88d73,5,,,,,,skateboard,,,,,,,,,,,4,2,0,42,42,31,1,,,,,,,,,,,,,,,,,,,,,,,,,,,,,,,,,,,,,,,,,,,,,,,,,,,,,,,,,,,,,,,,,,,,,,
,,?,0.001,0,,,,,,stimuli/images/PICTURE_509.png,SHOTS,5e4cd31b485acc129e20fbdd,26/12/1989,2020-07-08_11h06.54.879,proactive,2020.1.2,Win32,60,5f035e5afe130c270d6ae6dd,5f05e0d5859dcb0b41b88d73,5,,,,,,telephone,,,,,,,,,,,1,2,0,43,43,7,1,,,,,,,,,,,,,,,,,,,,,,,,,,,,,,,,,,,,,,,,,,,,,,,,,,,,,,,,,,,,,,,,,,,,,,
,,?,0,0,,,,,,stimuli/images/PICTURE_215.png,FOOD,5e4cd31b485acc129e20fbdd,26/12/1989,2020-07-08_11h06.54.879,proactive,2020.1.2,Win32,60,5f035e5afe130c270d6ae6dd,5f05e0d5859dcb0b41b88d73,5,,,,,,boot,,,,,,,,,,,1,2,0,44,44,5,1,,,,,,,,,,,,,,,,,,,,,,,,,,,,,,,,,,,,,,,,,,,,,,,,,,,,,,,,,,,,,,,,,,,,,,
,,?,0.001,0,,,,,,stimuli/images/PICTURE_33.png,COPS,5e4cd31b485acc129e20fbdd,26/12/1989,2020-07-08_11h06.54.879,proactive,2020.1.2,Win32,60,5f035e5afe130c270d6ae6dd,5f05e0d5859dcb0b41b88d73,5,,,,,,frame,,,,,,,,,,,3,2,0,45,45,29,1,,,,,,,,,,,,,,,,,,,,,,,,,,,,,,,,,,,,,,,,,,,,,,,,,,,,,,,,,,,,,,,,,,,,,,
,,?,0.001,0,,,,,,stimuli/images/PICTURE_654.png,COPS,5e4cd31b485acc129e20fbdd,26/12/1989,2020-07-08_11h06.54.879,proactive,2020.1.2,Win32,60,5f035e5afe130c270d6ae6dd,5f05e0d5859dcb0b41b88d73,5,,,,,,pencil,,,,,,,,,,,2,2,0,46,46,10,1,,,,,,,,,,,,,,,,,,,,,,,,,,,,,,,,,,,,,,,,,,,,,,,,,,,,,,,,,,,,,,,,,,,,,,
,,?,0,0,,,,,,stimuli/images/PICTURE_509.png,APPLE,5e4cd31b485acc129e20fbdd,26/12/1989,2020-07-08_11h06.54.879,proactive,2020.1.2,Win32,60,5f035e5afe130c270d6ae6dd,5f05e0d5859dcb0b41b88d73,5,,,,,,telephone,,,,,,,,,,,4,2,0,47,47,38,1,,,,,,,,,,,,,,,,,,,,,,,,,,,,,,,,,,,,,,,,,,,,,,,,,,,,,,,,,,,,,,,,,,,,,,
,,?,0.001,0,,,,,,stimuli/images/PICTURE_57.png,CANDY,5e4cd31b485acc129e20fbdd,26/12/1989,2020-07-08_11h06.54.879,proactive,2020.1.2,Win32,60,5f035e5afe130c270d6ae6dd,5f05e0d5859dcb0b41b88d73,5,,,,,,stamp,,,,,,,,,,,6,2,0,48,48,52,1,,,,,,,,,,,,,,,,,,,,,,,,,,,,,,,,,,,,,,,,,,,,,,,,,,,,,,,,,,,,,,,,,,,,,,
,,?,0,0,,,,,,stimuli/images/PICTURE_314.png,SPEECH,5e4cd31b485acc129e20fbdd,26/12/1989,2020-07-08_11h06.54.879,proactive,2020.1.2,Win32,60,5f035e5afe130c270d6ae6dd,5f05e0d5859dcb0b41b88d73,5,,,,,,perfume,,,,,,,,,,,4,2,0,49,49,35,1,,,,,,,,,,,,,,,,,,,,,,,,,,,,,,,,,,,,,,,,,,,,,,,,,,,,,,,,,,,,,,,,,,,,,,
,,?,0,0,,,,,,stimuli/images/PICTURE_452.png,COPS,5e4cd31b485acc129e20fbdd,26/12/1989,2020-07-08_11h06.54.879,proactive,2020.1.2,Win32,60,5f035e5afe130c270d6ae6dd,5f05e0d5859dcb0b41b88d73,5,,,,,,watch,,,,,,,,,,,1,2,0,50,50,0,1,,,,,,,,,,,,,,,,,,,,,,,,,,,,,,,,,,,,,,,,,,,,,,,,,,,,,,,,,,,,,,,,,,,,,,
,,?,0,0,,,,,,stimuli/images/PICTURE_564.png,PLENTY,5e4cd31b485acc129e20fbdd,26/12/1989,2020-07-08_11h06.54.879,proactive,2020.1.2,Win32,60,5f035e5afe130c270d6ae6dd,5f05e0d5859dcb0b41b88d73,5,,,,,,spoon,,,,,,,,,,,2,2,0,51,51,11,1,,,,,,,,,,,,,,,,,,,,,,,,,,,,,,,,,,,,,,,,,,,,,,,,,,,,,,,,,,,,,,,,,,,,,,
,,?,0.001,0,,,,,,stimuli/images/PICTURE_348.png,TOILET,5e4cd31b485acc129e20fbdd,26/12/1989,2020-07-08_11h06.54.879,proactive,2020.1.2,Win32,60,5f035e5afe130c270d6ae6dd,5f05e0d5859dcb0b41b88d73,5,,,,,,pepper,,,,,,,,,,,1,2,0,52,52,4,1,,,,,,,,,,,,,,,,,,,,,,,,,,,,,,,,,,,,,,,,,,,,,,,,,,,,,,,,,,,,,,,,,,,,,,
,,?,0,0,,,,,,stimuli/images/PICTURE_297.png,BODY,5e4cd31b485acc129e20fbdd,26/12/1989,2020-07-08_11h06.54.879,proactive,2020.1.2,Win32,60,5f035e5afe130c270d6ae6dd,5f05e0d5859dcb0b41b88d73,5,,,,,,aeroplane,,,,,,,,,,,6,2,0,53,53,51,1,,,,,,,,,,,,,,,,,,,,,,,,,,,,,,,,,,,,,,,,,,,,,,,,,,,,,,,,,,,,,,,,,,,,,,
,,?,0.001,0,,,,,,stimuli/images/PICTURE_2.png,YARD,5e4cd31b485acc129e20fbdd,26/12/1989,2020-07-08_11h06.54.879,proactive,2020.1.2,Win32,60,5f035e5afe130c270d6ae6dd,5f05e0d5859dcb0b41b88d73,5,,,,,,tyre,,,,,,,,,,,6,2,0,54,54,55,1,,,,,,,,,,,,,,,,,,,,,,,,,,,,,,,,,,,,,,,,,,,,,,,,,,,,,,,,,,,,,,,,,,,,,,
,,?,0,0,,,,,,stimuli/images/PICTURE_2.png,JUNGLE,5e4cd31b485acc129e20fbdd,26/12/1989,2020-07-08_11h06.54.879,proactive,2020.1.2,Win32,60,5f035e5afe130c270d6ae6dd,5f05e0d5859dcb0b41b88d73,5,,,,,,tyre,,,,,,,,,,,1,2,0,55,55,1,1,,,,,,,,,,,,,,,,,,,,,,,,,,,,,,,,,,,,,,,,,,,,,,,,,,,,,,,,,,,,,,,,,,,,,,
,,?,0.001,0,,,,,,stimuli/images/PICTURE_348.png,DUDE,5e4cd31b485acc129e20fbdd,26/12/1989,2020-07-08_11h06.54.879,proactive,2020.1.2,Win32,60,5f035e5afe130c270d6ae6dd,5f05e0d5859dcb0b41b88d73,5,,,,,,pepper,,,,,,,,,,,6,2,0,56,56,59,1,,,,,,,,,,,,,,,,,,,,,,,,,,,,,,,,,,,,,,,,,,,,,,,,,,,,,,,,,,,,,,,,,,,,,,
,,?,0.001,0,,,,,,stimuli/images/PICTURE_57.png,CASINO,5e4cd31b485acc129e20fbdd,26/12/1989,2020-07-08_11h06.54.879,proactive,2020.1.2,Win32,60,5f035e5afe130c270d6ae6dd,5f05e0d5859dcb0b41b88d73,5,,,,,,stamp,,,,,,,,,,,2,2,0,57,57,12,1,,,,,,,,,,,,,,,,,,,,,,,,,,,,,,,,,,,,,,,,,,,,,,,,,,,,,,,,,,,,,,,,,,,,,,
,,?,0.002,0,,,,,,stimuli/images/PICTURE_405.png,HOUSE,5e4cd31b485acc129e20fbdd,26/12/1989,2020-07-08_11h06.54.879,proactive,2020.1.2,Win32,60,5f035e5afe130c270d6ae6dd,5f05e0d5859dcb0b41b88d73,5,,,,,,anchor,,,,,,,,,,,1,2,0,58,58,2,1,,,,,,,,,,,,,,,,,,,,,,,,,,,,,,,,,,,,,,,,,,,,,,,,,,,,,,,,,,,,,,,,,,,,,,
,,CLOCK,1.88,1,,,,,,stimuli/images/PICTURE_688.png,CLOCK,5e4cd31b485acc129e20fbdd,26/12/1989,2020-07-08_11h06.54.879,proactive,2020.1.2,Win32,60,5f035e5afe130c270d6ae6dd,5f05e0d5859dcb0b41b88d73,5,,,,,,runner,,,,,,,,,,,5,2,0,59,59,42,1,,,,,,,,,,,,,,,,,,,,,,,,,,,,,,,,,,,,,,,,,,,,,,,,,,,,,,,,,,,,,,,,,,,,,,
,,,,,,,,,,,,5e4cd31b485acc129e20fbdd,26/12/1989,2020-07-08_11h06.54.879,proactive,2020.1.2,Win32,60,5f035e5afe130c270d6ae6dd,5f05e0d5859dcb0b41b88d73,5,,,,,,,,,,,,,,,,,,,,,,,,0,1,1,2,1,stimuli/learn-block3.csv,,,,,,,,,,,,,,,,,,,,,,,,,,,,,,,,,,,,,,,,,,,,,,,,,,,,,,,,,,,,,,,,
,,,,,,,,,,stimuli/images/PICTURE_327.png,CASINO,5e4cd31b485acc129e20fbdd,26/12/1989,2020-07-08_11h06.54.879,proactive,2020.1.2,Win32,60,5f035e5afe130c270d6ae6dd,5f05e0d5859dcb0b41b88d73,5,,,,,,helmet,,,,,,0,0,0,20,1,3,1,,,,,,,,,,,,,,,,,,,,,,,,,,,,,,,,,,,,,,,,,,,,,,,,,,,,,,,,,,,,,,,,,,,,,,,,,,,
,,,,,,,,,,stimuli/images/PICTURE_33.png,FRIEND,5e4cd31b485acc129e20fbdd,26/12/1989,2020-07-08_11h06.54.879,proactive,2020.1.2,Win32,60,5f035e5afe130c270d6ae6dd,5f05e0d5859dcb0b41b88d73,5,,,,,,frame,,,,,,0,1,1,8,1,1,1,,,,,,,,,,,,,,,,,,,,,,,,,,,,,,,,,,,,,,,,,,,,,,,,,,,,,,,,,,,,,,,,,,,,,,,,,,,
,,,,,,,,,,stimuli/images/PICTURE_108.png,POLICY,5e4cd31b485acc129e20fbdd,26/12/1989,2020-07-08_11h06.54.879,proactive,2020.1.2,Win32,60,5f035e5afe130c270d6ae6dd,5f05e0d5859dcb0b41b88d73,5,,,,,,calendar,,,,,,0,2,2,22,1,3,1,,,,,,,,,,,,,,,,,,,,,,,,,,,,,,,,,,,,,,,,,,,,,,,,,,,,,,,,,,,,,,,,,,,,,,,,,,,
,,,,,,,,,,stimuli/images/PICTURE_383.png,SERIES,5e4cd31b485acc129e20fbdd,26/12/1989,2020-07-08_11h06.54.879,proactive,2020.1.2,Win32,60,5f035e5afe130c270d6ae6dd,5f05e0d5859dcb0b41b88d73,5,,,,,,coin,,,,,,0,3,3,46,1,5,1,,,,,,,,,,,,,,,,,,,,,,,,,,,,,,,,,,,,,,,,,,,,,,,,,,,,,,,,,,,,,,,,,,,,,,,,,,,
,,,,,,,,,,stimuli/images/PICTURE_675.png,SALE,5e4cd31b485acc129e20fbdd,26/12/1989,2020-07-08_11h06.54.879,proactive,2020.1.2,Win32,60,5f035e5afe130c270d6ae6dd,5f05e0d5859dcb0b41b88d73,5,,,,,,windmill,,,,,,0,4,4,47,1,5,1,,,,,,,,,,,,,,,,,,,,,,,,,,,,,,,,,,,,,,,,,,,,,,,,,,,,,,,,,,,,,,,,,,,,,,,,,,,
,,,,,,,,,,stimuli/images/PICTURE_208.png,SYSTEM,5e4cd31b485acc129e20fbdd,26/12/1989,2020-07-08_11h06.54.879,proactive,2020.1.2,Win32,60,5f035e5afe130c270d6ae6dd,5f05e0d5859dcb0b41b88d73,5,,,,,,microphone,,,,,,0,5,5,32,1,4,1,,,,,,,,,,,,,,,,,,,,,,,,,,,,,,,,,,,,,,,,,,,,,,,,,,,,,,,,,,,,,,,,,,,,,,,,,,,
,,,,,,,,,,stimuli/images/PICTURE_95.png,BOYS,5e4cd31b485acc129e20fbdd,26/12/1989,2020-07-08_11h06.54.879,proactive,2020.1.2,Win32,60,5f035e5afe130c270d6ae6dd,5f05e0d5859dcb0b41b88d73,5,,,,,,suitcase,,,,,,0,6,6,1,1,1,1,,,,,,,,,,,,,,,,,,,,,,,,,,,,,,,,,,,,,,,,,,,,,,,,,,,,,,,,,,,,,,,,,,,,,,,,,,,
,,,,,,,,,,stimuli/images/PICTURE_491.png,GLASS,5e4cd31b485acc129e20fbdd,26/12/1989,2020-07-08_11h06.54.879,proactive,2020.1.2,Win32,60,5f035e5afe130c270d6ae6dd,5f05e0d5859dcb0b41b88d73,5,,,,,,rug,,,,,,0,7,7,14,1,2,1,,,,,,,,,,,,,,,,,,,,,,,,,,,,,,,,,,,,,,,,,,,,,,,,,,,,,,,,,,,,,,,,,,,,,,,,,,,
,,,,,,,,,,stimuli/images/PICTURE_469.png,AGENT,5e4cd31b485acc129e20fbdd,26/12/1989,2020-07-08_11h06.54.879,proactive,2020.1.2,Win32,60,5f035e5afe130c270d6ae6dd,5f05e0d5859dcb0b41b88d73,5,,,,,,stool,,,,,,0,8,8,16,1,2,1,,,,,,,,,,,,,,,,,,,,,,,,,,,,,,,,,,,,,,,,,,,,,,,,,,,,,,,,,,,,,,,,,,,,,,,,,,,
,,,,,,,,,,stimuli/images/PICTURE_285.png,LIFE,5e4cd31b485acc129e20fbdd,26/12/1989,2020-07-08_11h06.54.879,proactive,2020.1.2,Win32,60,5f035e5afe130c270d6ae6dd,5f05e0d5859dcb0b41b88d73,5,,,,,,carrot,,,,,,0,9,9,33,1,4,1,,,,,,,,,,,,,,,,,,,,,,,,,,,,,,,,,,,,,,,,,,,,,,,,,,,,,,,,,,,,,,,,,,,,,,,,,,,
,,,,,,,,,,stimuli/images/PICTURE_487.png,GIRL,5e4cd31b485acc129e20fbdd,26/12/1989,2020-07-08_11h06.54.879,proactive,2020.1.2,Win32,60,5f035e5afe130c270d6ae6dd,5f05e0d5859dcb0b41b88d73,5,,,,,,basket,,,,,,0,10,10,45,1,5,1,,,,,,,,,,,,,,,,,,,,,,,,,,,,,,,,,,,,,,,,,,,,,,,,,,,,,,,,,,,,,,,,,,,,,,,,,,,
,,,,,,,,,,stimuli/images/PICTURE_677.png,APPLE,5e4cd31b485acc129e20fbdd,26/12/1989,2020-07-08_11h06.54.879,proactive,2020.1.2,Win32,60,5f035e5afe130c270d6ae6dd,5f05e0d5859dcb0b41b88d73,5,,,,,,map,,,,,,0,11,11,43,1,5,1,,,,,,,,,,,,,,,,,,,,,,,,,,,,,,,,,,,,,,,,,,,,,,,,,,,,,,,,,,,,,,,,,,,,,,,,,,,
,,,,,,,,,,stimuli/images/PICTURE_380.png,HONEY,5e4cd31b485acc129e20fbdd,26/12/1989,2020-07-08_11h06.54.879,proactive,2020.1.2,Win32,60,5f035e5afe130c270d6ae6dd,5f05e0d5859dcb0b41b88d73,5,,,,,,gorilla,,,,,,0,12,12,19,1,2,1,,,,,,,,,,,,,,,,,,,,,,,,,,,,,,,,,,,,,,,,,,,,,,,,,,,,,,,,,,,,,,,,,,,,,,,,,,,
,,,,,,,,,,stimuli/images/PICTURE_491.png,RIVER,5e4cd31b485acc129e20fbdd,26/12/1989,2020-07-08_11h06.54.879,proactive,2020.1.2,Win32,60,5f035e5afe130c270d6ae6dd,5f05e0d5859dcb0b41b88d73,5,,,,,,rug,,,,,,0,13,13,6,1,1,1,,,,,,,,,,,,,,,,,,,,,,,,,,,,,,,,,,,,,,,,,,,,,,,,,,,,,,,,,,,,,,,,,,,,,,,,,,,
,,,,,,,,,,stimuli/images/PICTURE_667.png,RIVER,5e4cd31b485acc129e20fbdd,26/12/1989,2020-07-08_11h06.54.879,proactive,2020.1.2,Win32,60,5f035e5afe130c270d6ae6dd,5f05e0d5859dcb0b41b88d73,5,,,,,,daisy,,,,,,0,14,14,10,1,2,1,,,,,,,,,,,,,,,,,,,,,,,,,,,,,,,,,,,,,,,,,,,,,,,,,,,,,,,,,,,,,,,,,,,,,,,,,,,
,,,,,,,,,,stimuli/images/PICTURE_327.png,SERIES,5e4cd31b485acc129e20fbdd,26/12/1989,2020-07-08_11h06.54.879,proactive,2020.1.2,Win32,60,5f035e5afe130c270d6ae6dd,5f05e0d5859dcb0b41b88d73,5,,,,,,helmet,,,,,,0,15,15,3,1,1,1,,,,,,,,,,,,,,,,,,,,,,,,,,,,,,,,,,,,,,,,,,,,,,,,,,,,,,,,,,,,,,,,,,,,,,,,,,,
,,,,,,,,,,stimuli/images/PICTURE_744.png,WEAPON,5e4cd31b485acc129e20fbdd,26/12/1989,2020-07-08_11h06.54.879,proactive,2020.1.2,Win32,60,5f035e5afe130c270d6ae6dd,5f05e0d5859dcb0b41b88d73,5,,,,,,ring,,,,,,0,16,16,50,1,6,1,,,,,,,,,,,,,,,,,,,,,,,,,,,,,,,,,,,,,,,,,,,,,,,,,,,,,,,,,,,,,,,,,,,,,,,,,,,
,,,,,,,,,,stimuli/images/PICTURE_403.png,RIVER,5e4cd31b485acc129e20fbdd,26/12/1989,2020-07-08_11h06.54.879,proactive,2020.1.2,Win32,60,5f035e5afe130c270d6ae6dd,5f05e0d5859dcb0b41b88d73,5,,,,,,cathedral,,,,,,0,17,17,40,1,5,1,,,,,,,,,,,,,,,,,,,,,,,,,,,,,,,,,,,,,,,,,,,,,,,,,,,,,,,,,,,,,,,,,,,,,,,,,,,
,,,,,,,,,,stimuli/images/PICTURE_95.png,MILLER,5e4cd31b485acc129e20fbdd,26/12/1989,2020-07-08_11h06.54.879,proactive,2020.1.2,Win32,60,5f035e5afe130c270d6ae6dd,5f05e0d5859dcb0b41b88d73,5,,,,,,suitcase,,,,,,0,18,18,56,1,6,1,,,,,,,,,,,,,,,,,,,,,,,,,,,,,,,,,,,,,,,,,,,,,,,,,,,,,,,,,,,,,,,,,,,,,,,,,,,
,,,,,,,,,,stimuli/images/PICTURE_108.png,FLIGHT,5e4cd31b485acc129e20fbdd,26/12/1989,2020-07-08_11h06.54.879,proactive,2020.1.2,Win32,60,5f035e5afe130c270d6ae6dd,5f05e0d5859dcb0b41b88d73,5,,,,,,calendar,,,,,,0,19,19,59,1,6,1,,,,,,,,,,,,,,,,,,,,,,,,,,,,,,,,,,,,,,,,,,,,,,,,,,,,,,,,,,,,,,,,,,,,,,,,,,,
,,,,,,,,,,stimuli/images/PICTURE_685.png,PENNY,5e4cd31b485acc129e20fbdd,26/12/1989,2020-07-08_11h06.54.879,proactive,2020.1.2,Win32,60,5f035e5afe130c270d6ae6dd,5f05e0d5859dcb0b41b88d73,5,,,,,,goose,,,,,,0,20,20,4,1,1,1,,,,,,,,,,,,,,,,,,,,,,,,,,,,,,,,,,,,,,,,,,,,,,,,,,,,,,,,,,,,,,,,,,,,,,,,,,,
,,,,,,,,,,stimuli/images/PICTURE_504.png,ARTIST,5e4cd31b485acc129e20fbdd,26/12/1989,2020-07-08_11h06.54.879,proactive,2020.1.2,Win32,60,5f035e5afe130c270d6ae6dd,5f05e0d5859dcb0b41b88d73,5,,,,,,wheel,,,,,,0,21,21,49,1,5,1,,,,,,,,,,,,,,,,,,,,,,,,,,,,,,,,,,,,,,,,,,,,,,,,,,,,,,,,,,,,,,,,,,,,,,,,,,,
,,,,,,,,,,stimuli/images/PICTURE_655.png,TOILET,5e4cd31b485acc129e20fbdd,26/12/1989,2020-07-08_11h06.54.879,proactive,2020.1.2,Win32,60,5f035e5afe130c270d6ae6dd,5f05e0d5859dcb0b41b88d73,5,,,,,,megaphone,,,,,,0,22,22,12,1,2,1,,,,,,,,,,,,,,,,,,,,,,,,,,,,,,,,,,,,,,,,,,,,,,,,,,,,,,,,,,,,,,,,,,,,,,,,,,,
,,,,,,,,,,stimuli/images/PICTURE_85.png,TOILET,5e4cd31b485acc129e20fbdd,26/12/1989,2020-07-08_11h06.54.879,proactive,2020.1.2,Win32,60,5f035e5afe130c270d6ae6dd,5f05e0d5859dcb0b41b88d73,5,,,,,,diamond,,,,,,0,23,23,48,1,5,1,,,,,,,,,,,,,,,,,,,,,,,,,,,,,,,,,,,,,,,,,,,,,,,,,,,,,,,,,,,,,,,,,,,,,,,,,,,
,,,,,,,,,,stimuli/images/PICTURE_42.png,BOYS,5e4cd31b485acc129e20fbdd,26/12/1989,2020-07-08_11h06.54.879,proactive,2020.1.2,Win32,60,5f035e5afe130c270d6ae6dd,5f05e0d5859dcb0b41b88d73,5,,,,,,pear,,,,,,0,24,24,55,1,6,1,,,,,,,,,,,,,,,,,,,,,,,,,,,,,,,,,,,,,,,,,,,,,,,,,,,,,,,,,,,,,,,,,,,,,,,,,,,
,,,,,,,,,,stimuli/images/PICTURE_95.png,HONEY,5e4cd31b485acc129e20fbdd,26/12/1989,2020-07-08_11h06.54.879,proactive,2020.1.2,Win32,60,5f035e5afe130c270d6ae6dd,5f05e0d5859dcb0b41b88d73,5,,,,,,suitcase,,,,,,0,25,25,44,1,5,1,,,,,,,,,,,,,,,,,,,,,,,,,,,,,,,,,,,,,,,,,,,,,,,,,,,,,,,,,,,,,,,,,,,,,,,,,,,
,,,,,,,,,,stimuli/images/PICTURE_654.png,MONTH,5e4cd31b485acc129e20fbdd,26/12/1989,2020-07-08_11h06.54.879,proactive,2020.1.2,Win32,60,5f035e5afe130c270d6ae6dd,5f05e0d5859dcb0b41b88d73,5,,,,,,pencil,,,,,,0,26,26,29,1,3,1,,,,,,,,,,,,,,,,,,,,,,,,,,,,,,,,,,,,,,,,,,,,,,,,,,,,,,,,,,,,,,,,,,,,,,,,,,,
,,,,,,,,,,stimuli/images/PICTURE_403.png,TOILET,5e4cd31b485acc129e20fbdd,26/12/1989,2020-07-08_11h06.54.879,proactive,2020.1.2,Win32,60,5f035e5afe130c270d6ae6dd,5f05e0d5859dcb0b41b88d73,5,,,,,,cathedral,,,,,,0,27,27,25,1,3,1,,,,,,,,,,,,,,,,,,,,,,,,,,,,,,,,,,,,,,,,,,,,,,,,,,,,,,,,,,,,,,,,,,,,,,,,,,,
,,,,,,,,,,stimuli/images/PICTURE_147.png,WOMEN,5e4cd31b485acc129e20fbdd,26/12/1989,2020-07-08_11h06.54.879,proactive,2020.1.2,Win32,60,5f035e5afe130c270d6ae6dd,5f05e0d5859dcb0b41b88d73,5,,,,,,hanger,,,,,,0,28,28,7,1,1,1,,,,,,,,,,,,,,,,,,,,,,,,,,,,,,,,,,,,,,,,,,,,,,,,,,,,,,,,,,,,,,,,,,,,,,,,,,,
,,,,,,,,,,stimuli/images/PICTURE_203.png,GODS,5e4cd31b485acc129e20fbdd,26/12/1989,2020-07-08_11h06.54.879,proactive,2020.1.2,Win32,60,5f035e5afe130c270d6ae6dd,5f05e0d5859dcb0b41b88d73,5,,,,,,cap,,,,,,0,29,29,30,1,4,1,,,,,,,,,,,,,,,,,,,,,,,,,,,,,,,,,,,,,,,,,,,,,,,,,,,,,,,,,,,,,,,,,,,,,,,,,,,
,,,,,,,,,,stimuli/images/PICTURE_147.png,YEAR,5e4cd31b485acc129e20fbdd,26/12/1989,2020-07-08_11h06.54.879,proactive,2020.1.2,Win32,60,5f035e5afe130c270d6ae6dd,5f05e0d5859dcb0b41b88d73,5,,,,,,hanger,,,,,,0,30,30,21,1,3,1,,,,,,,,,,,,,,,,,,,,,,,,,,,,,,,,,,,,,,,,,,,,,,,,,,,,,,,,,,,,,,,,,,,,,,,,,,,
,,,,,,,,,,stimuli/images/PICTURE_750.png,HOTEL,5e4cd31b485acc129e20fbdd,26/12/1989,2020-07-08_11h06.54.879,proactive,2020.1.2,Win32,60,5f035e5afe130c270d6ae6dd,5f05e0d5859dcb0b41b88d73,5,,,,,,kettle,,,,,,0,31,31,27,1,3,1,,,,,,,,,,,,,,,,,,,,,,,,,,,,,,,,,,,,,,,,,,,,,,,,,,,,,,,,,,,,,,,,,,,,,,,,,,,
,,,,,,,,,,stimuli/images/PICTURE_449.png,DUDE,5e4cd31b485acc129e20fbdd,26/12/1989,2020-07-08_11h06.54.879,proactive,2020.1.2,Win32,60,5f035e5afe130c270d6ae6dd,5f05e0d5859dcb0b41b88d73,5,,,,,,bench,,,,,,0,32,32,17,1,2,1,,,,,,,,,,,,,,,,,,,,,,,,,,,,,,,,,,,,,,,,,,,,,,,,,,,,,,,,,,,,,,,,,,,,,,,,,,,
,,,,,,,,,,stimuli/images/PICTURE_708.png,RECORD,5e4cd31b485acc129e20fbdd,26/12/1989,2020-07-08_11h06.54.879,proactive,2020.1.2,Win32,60,5f035e5afe130c270d6ae6dd,5f05e0d5859dcb0b41b88d73,5,,,,,,monkey,,,,,,0,33,33,58,1,6,1,,,,,,,,,,,,,,,,,,,,,,,,,,,,,,,,,,,,,,,,,,,,,,,,,,,,,,,,,,,,,,,,,,,,,,,,,,,
,,,,,,,,,,stimuli/images/PICTURE_57.png,MOMENT,5e4cd31b485acc129e20fbdd,26/12/1989,2020-07-08_11h06.54.879,proactive,2020.1.2,Win32,60,5f035e5afe130c270d6ae6dd,5f05e0d5859dcb0b41b88d73,5,,,,,,stamp,,,,,,0,34,34,37,1,4,1,,,,,,,,,,,,,,,,,,,,,,,,,,,,,,,,,,,,,,,,,,,,,,,,,,,,,,,,,,,,,,,,,,,,,,,,,,,
,,,,,,,,,,stimuli/images/PICTURE_297.png,RIVER,5e4cd31b485acc129e20fbdd,26/12/1989,2020-07-08_11h06.54.879,proactive,2020.1.2,Win32,60,5f035e5afe130c270d6ae6dd,5f05e0d5859dcb0b41b88d73,5,,,,,,aeroplane,,,,,,0,35,35,39,1,4,1,,,,,,,,,,,,,,,,,,,,,,,,,,,,,,,,,,,,,,,,,,,,,,,,,,,,,,,,,,,,,,,,,,,,,,,,,,,
,,,,,,,,,,stimuli/images/PICTURE_296.png,LOTS,5e4cd31b485acc129e20fbdd,26/12/1989,2020-07-08_11h06.54.879,proactive,2020.1.2,Win32,60,5f035e5afe130c270d6ae6dd,5f05e0d5859dcb0b41b88d73,5,,,,,,bolt,,,,,,0,36,36,9,1,1,1,,,,,,,,,,,,,,,,,,,,,,,,,,,,,,,,,,,,,,,,,,,,,,,,,,,,,,,,,,,,,,,,,,,,,,,,,,,
,,,,,,,,,,stimuli/images/PICTURE_380.png,CANDY,5e4cd31b485acc129e20fbdd,26/12/1989,2020-07-08_11h06.54.879,proactive,2020.1.2,Win32,60,5f035e5afe130c270d6ae6dd,5f05e0d5859dcb0b41b88d73,5,,,,,,gorilla,,,,,,0,37,37,0,1,1,1,,,,,,,,,,,,,,,,,,,,,,,,,,,,,,,,,,,,,,,,,,,,,,,,,,,,,,,,,,,,,,,,,,,,,,,,,,,
,,,,,,,,,,stimuli/images/PICTURE_2.png,FLIGHT,5e4cd31b485acc129e20fbdd,26/12/1989,2020-07-08_11h06.54.879,proactive,2020.1.2,Win32,60,5f035e5afe130c270d6ae6dd,5f05e0d5859dcb0b41b88d73,5,,,,,,tyre,,,,,,0,38,38,15,1,2,1,,,,,,,,,,,,,,,,,,,,,,,,,,,,,,,,,,,,,,,,,,,,,,,,,,,,,,,,,,,,,,,,,,,,,,,,,,,
,,,,,,,,,,stimuli/images/PICTURE_403.png,WRITER,5e4cd31b485acc129e20fbdd,26/12/1989,2020-07-08_11h06.54.879,proactive,2020.1.2,Win32,60,5f035e5afe130c270d6ae6dd,5f05e0d5859dcb0b41b88d73,5,,,,,,cathedral,,,,,,0,39,39,31,1,4,1,,,,,,,,,,,,,,,,,,,,,,,,,,,,,,,,,,,,,,,,,,,,,,,,,,,,,,,,,,,,,,,,,,,,,,,,,,,
,,,,,,,,,,stimuli/images/PICTURE_308.png,FAMILY,5e4cd31b485acc129e20fbdd,26/12/1989,2020-07-08_11h06.54.879,proactive,2020.1.2,Win32,60,5f035e5afe130c270d6ae6dd,5f05e0d5859dcb0b41b88d73,5,,,,,,dice,,,,,,0,40,40,36,1,4,1,,,,,,,,,,,,,,,,,,,,,,,,,,,,,,,,,,,,,,,,,,,,,,,,,,,,,,,,,,,,,,,,,,,,,,,,,,,
,,,,,,,,,,stimuli/images/PICTURE_203.png,NIGHT,5e4cd31b485acc129e20fbdd,26/12/1989,2020-07-08_11h06.54.879,proactive,2020.1.2,Win32,60,5f035e5afe130c270d6ae6dd,5f05e0d5859dcb0b41b88d73,5,,,,,,cap,,,,,,0,41,41,2,1,1,1,,,,,,,,,,,,,,,,,,,,,,,,,,,,,,,,,,,,,,,,,,,,,,,,,,,,,,,,,,,,,,,,,,,,,,,,,,,
,,,,,,,,,,stimuli/images/PICTURE_340.png,VALLEY,5e4cd31b485acc129e20fbdd,26/12/1989,2020-07-08_11h06.54.879,proactive,2020.1.2,Win32,60,5f035e5afe130c270d6ae6dd,5f05e0d5859dcb0b41b88d73,5,,,,,,mirror,,,,,,0,42,42,54,1,6,1,,,,,,,,,,,,,,,,,,,,,,,,,,,,,,,,,,,,,,,,,,,,,,,,,,,,,,,,,,,,,,,,,,,,,,,,,,,
,,,,,,,,,,stimuli/images/PICTURE_504.png,COPS,5e4cd31b485acc129e20fbdd,26/12/1989,2020-07-08_11h06.54.879,proactive,2020.1.2,Win32,60,5f035e5afe130c270d6ae6dd,5f05e0d5859dcb0b41b88d73,5,,,,,,wheel,,,,,,0,43,43,52,1,6,1,,,,,,,,,,,,,,,,,,,,,,,,,,,,,,,,,,,,,,,,,,,,,,,,,,,,,,,,,,,,,,,,,,,,,,,,,,,
,,,,,,,,,,stimuli/images/PICTURE_405.png,YEAR,5e4cd31b485acc129e20fbdd,26/12/1989,2020-07-08_11h06.54.879,proactive,2020.1.2,Win32,60,5f035e5afe130c270d6ae6dd,5f05e0d5859dcb0b41b88d73,5,,,,,,anchor,,,,,,0,44,44,34,1,4,1,,,,,,,,,,,,,,,,,,,,,,,,,,,,,,,,,,,,,,,,,,,,,,,,,,,,,,,,,,,,,,,,,,,,,,,,,,,
,,,,,,,,,,stimuli/images/PICTURE_504.png,YEAR,5e4cd31b485acc129e20fbdd,26/12/1989,2020-07-08_11h06.54.879,proactive,2020.1.2,Win32,60,5f035e5afe130c270d6ae6dd,5f05e0d5859dcb0b41b88d73,5,,,,,,wheel,,,,,,0,45,45,13,1,2,1,,,,,,,,,,,,,,,,,,,,,,,,,,,,,,,,,,,,,,,,,,,,,,,,,,,,,,,,,,,,,,,,,,,,,,,,,,,
,,,,,,,,,,stimuli/images/PICTURE_32.png,KIND,5e4cd31b485acc129e20fbdd,26/12/1989,2020-07-08_11h06.54.879,proactive,2020.1.2,Win32,60,5f035e5afe130c270d6ae6dd,5f05e0d5859dcb0b41b88d73,5,,,,,,crown,,,,,,0,46,46,35,1,4,1,,,,,,,,,,,,,,,,,,,,,,,,,,,,,,,,,,,,,,,,,,,,,,,,,,,,,,,,,,,,,,,,,,,,,,,,,,,
,,,,,,,,,,stimuli/images/PICTURE_405.png,PLENTY,5e4cd31b485acc129e20fbdd,26/12/1989,2020-07-08_11h06.54.879,proactive,2020.1.2,Win32,60,5f035e5afe130c270d6ae6dd,5f05e0d5859dcb0b41b88d73,5,,,,,,anchor,,,,,,0,47,47,23,1,3,1,,,,,,,,,,,,,,,,,,,,,,,,,,,,,,,,,,,,,,,,,,,,,,,,,,,,,,,,,,,,,,,,,,,,,,,,,,,
,,,,,,,,,,stimuli/images/PICTURE_177.png,WRITER,5e4cd31b485acc129e20fbdd,26/12/1989,2020-07-08_11h06.54.879,proactive,2020.1.2,Win32,60,5f035e5afe130c270d6ae6dd,5f05e0d5859dcb0b41b88d73,5,,,,,,mushroom,,,,,,0,48,48,41,1,5,1,,,,,,,,,,,,,,,,,,,,,,,,,,,,,,,,,,,,,,,,,,,,,,,,,,,,,,,,,,,,,,,,,,,,,,,,,,,
,,,,,,,,,,stimuli/images/PICTURE_233.png,LOTS,5e4cd31b485acc129e20fbdd,26/12/1989,2020-07-08_11h06.54.879,proactive,2020.1.2,Win32,60,5f035e5afe130c270d6ae6dd,5f05e0d5859dcb0b41b88d73,5,,,,,,salt,,,,,,0,49,49,42,1,5,1,,,,,,,,,,,,,,,,,,,,,,,,,,,,,,,,,,,,,,,,,,,,,,,,,,,,,,,,,,,,,,,,,,,,,,,,,,,
,,,,,,,,,,stimuli/images/PICTURE_32.png,PILLS,5e4cd31b485acc129e20fbdd,26/12/1989,2020-07-08_11h06.54.879,proactive,2020.1.2,Win32,60,5f035e5afe130c270d6ae6dd,5f05e0d5859dcb0b41b88d73,5,,,,,,crown,,,,,,0,50,50,18,1,2,1,,,,,,,,,,,,,,,,,,,,,,,,,,,,,,,,,,,,,,,,,,,,,,,,,,,,,,,,,,,,,,,,,,,,,,,,,,,
,,,,,,,,,,stimuli/images/PICTURE_68.png,ROOF,5e4cd31b485acc129e20fbdd,26/12/1989,2020-07-08_11h06.54.879,proactive,2020.1.2,Win32,60,5f035e5afe130c270d6ae6dd,5f05e0d5859dcb0b41b88d73,5,,,,,,candle,,,,,,0,51,51,38,1,4,1,,,,,,,,,,,,,,,,,,,,,,,,,,,,,,,,,,,,,,,,,,,,,,,,,,,,,,,,,,,,,,,,,,,,,,,,,,,
,,,,,,,,,,stimuli/images/PICTURE_68.png,MILE,5e4cd31b485acc129e20fbdd,26/12/1989,2020-07-08_11h06.54.879,proactive,2020.1.2,Win32,60,5f035e5afe130c270d6ae6dd,5f05e0d5859dcb0b41b88d73,5,,,,,,candle,,,,,,0,52,52,51,1,6,1,,,,,,,,,,,,,,,,,,,,,,,,,,,,,,,,,,,,,,,,,,,,,,,,,,,,,,,,,,,,,,,,,,,,,,,,,,,
,,,,,,,,,,stimuli/images/PICTURE_85.png,NATION,5e4cd31b485acc129e20fbdd,26/12/1989,2020-07-08_11h06.54.879,proactive,2020.1.2,Win32,60,5f035e5afe130c270d6ae6dd,5f05e0d5859dcb0b41b88d73,5,,,,,,diamond,,,,,,0,53,53,5,1,1,1,,,,,,,,,,,,,,,,,,,,,,,,,,,,,,,,,,,,,,,,,,,,,,,,,,,,,,,,,,,,,,,,,,,,,,,,,,,
,,,,,,,,,,stimuli/images/PICTURE_564.png,BATH,5e4cd31b485acc129e20fbdd,26/12/1989,2020-07-08_11h06.54.879,proactive,2020.1.2,Win32,60,5f035e5afe130c270d6ae6dd,5f05e0d5859dcb0b41b88d73,5,,,,,,spoon,,,,,,0,54,54,26,1,3,1,,,,,,,,,,,,,,,,,,,,,,,,,,,,,,,,,,,,,,,,,,,,,,,,,,,,,,,,,,,,,,,,,,,,,,,,,,,
,,,,,,,,,,stimuli/images/PICTURE_339.png,CLIENT,5e4cd31b485acc129e20fbdd,26/12/1989,2020-07-08_11h06.54.879,proactive,2020.1.2,Win32,60,5f035e5afe130c270d6ae6dd,5f05e0d5859dcb0b41b88d73,5,,,,,,backpack,,,,,,0,55,55,11,1,2,1,,,,,,,,,,,,,,,,,,,,,,,,,,,,,,,,,,,,,,,,,,,,,,,,,,,,,,,,,,,,,,,,,,,,,,,,,,,
,,,,,,,,,,stimuli/images/PICTURE_383.png,WRITER,5e4cd31b485acc129e20fbdd,26/12/1989,2020-07-08_11h06.54.879,proactive,2020.1.2,Win32,60,5f035e5afe130c270d6ae6dd,5f05e0d5859dcb0b41b88d73,5,,,,,,coin,,,,,,0,56,56,28,1,3,1,,,,,,,,,,,,,,,,,,,,,,,,,,,,,,,,,,,,,,,,,,,,,,,,,,,,,,,,,,,,,,,,,,,,,,,,,,,
,,,,,,,,,,stimuli/images/PICTURE_296.png,LIFE,5e4cd31b485acc129e20fbdd,26/12/1989,2020-07-08_11h06.54.879,proactive,2020.1.2,Win32,60,5f035e5afe130c270d6ae6dd,5f05e0d5859dcb0b41b88d73,5,,,,,,bolt,,,,,,0,57,57,57,1,6,1,,,,,,,,,,,,,,,,,,,,,,,,,,,,,,,,,,,,,,,,,,,,,,,,,,,,,,,,,,,,,,,,,,,,,,,,,,,
,,,,,,,,,,stimuli/images/PICTURE_340.png,LETTER,5e4cd31b485acc129e20fbdd,26/12/1989,2020-07-08_11h06.54.879,proactive,2020.1.2,Win32,60,5f035e5afe130c270d6ae6dd,5f05e0d5859dcb0b41b88d73,5,,,,,,mirror,,,,,,0,58,58,24,1,3,1,,,,,,,,,,,,,,,,,,,,,,,,,,,,,,,,,,,,,,,,,,,,,,,,,,,,,,,,,,,,,,,,,,,,,,,,,,,
,,?,0,0,,,,,,stimuli/images/PICTURE_504.png,COPS,5e4cd31b485acc129e20fbdd,26/12/1989,2020-07-08_11h06.54.879,proactive,2020.1.2,Win32,60,5f035e5afe130c270d6ae6dd,5f05e0d5859dcb0b41b88d73,5,,,,,,wheel,,,,,,,,,,,6,1,0,0,0,52,1,,,,,,,,,,,,,,,,,,,,,,,,,,,,,,,,,,,,,,,,,,,,,,,,,,,,,,,,,,,,,,,,,,,,,,
,,?,0,0,,,,,,stimuli/images/PICTURE_340.png,LETTER,5e4cd31b485acc129e20fbdd,26/12/1989,2020-07-08_11h06.54.879,proactive,2020.1.2,Win32,60,5f035e5afe130c270d6ae6dd,5f05e0d5859dcb0b41b88d73,5,,,,,,mirror,,,,,,,,,,,3,1,0,1,1,24,1,,,,,,,,,,,,,,,,,,,,,,,,,,,,,,,,,,,,,,,,,,,,,,,,,,,,,,,,,,,,,,,,,,,,,,
,,?,0,0,,,,,,stimuli/images/PICTURE_203.png,GODS,5e4cd31b485acc129e20fbdd,26/12/1989,2020-07-08_11h06.54.879,proactive,2020.1.2,Win32,60,5f035e5afe130c270d6ae6dd,5f05e0d5859dcb0b41b88d73,5,,,,,,cap,,,,,,,,,,,4,1,0,2,2,30,1,,,,,,,,,,,,,,,,,,,,,,,,,,,,,,,,,,,,,,,,,,,,,,,,,,,,,,,,,,,,,,,,,,,,,,
,,?,0.001,0,,,,,,stimuli/images/PICTURE_469.png,AGENT,5e4cd31b485acc129e20fbdd,26/12/1989,2020-07-08_11h06.54.879,proactive,2020.1.2,Win32,60,5f035e5afe130c270d6ae6dd,5f05e0d5859dcb0b41b88d73,5,,,,,,stool,,,,,,,,,,,2,1,0,3,3,16,1,,,,,,,,,,,,,,,,,,,,,,,,,,,,,,,,,,,,,,,,,,,,,,,,,,,,,,,,,,,,,,,,,,,,,,
,,?,0.001,0,,,,,,stimuli/images/PICTURE_108.png,POLICY,5e4cd31b485acc129e20fbdd,26/12/1989,2020-07-08_11h06.54.879,proactive,2020.1.2,Win32,60,5f035e5afe130c270d6ae6dd,5f05e0d5859dcb0b41b88d73,5,,,,,,calendar,,,,,,,,,,,3,1,0,4,4,22,1,,,,,,,,,,,,,,,,,,,,,,,,,,,,,,,,,,,,,,,,,,,,,,,,,,,,,,,,,,,,,,,,,,,,,,
,,?,0.001,0,,,,,,stimuli/images/PICTURE_285.png,LIFE,5e4cd31b485acc129e20fbdd,26/12/1989,2020-07-08_11h06.54.879,proactive,2020.1.2,Win32,60,5f035e5afe130c270d6ae6dd,5f05e0d5859dcb0b41b88d73,5,,,,,,carrot,,,,,,,,,,,4,1,0,5,5,33,1,,,,,,,,,,,,,,,,,,,,,,,,,,,,,,,,,,,,,,,,,,,,,,,,,,,,,,,,,,,,,,,,,,,,,,
,,?,0,0,,,,,,stimuli/images/PICTURE_32.png,PILLS,5e4cd31b485acc129e20fbdd,26/12/1989,2020-07-08_11h06.54.879,proactive,2020.1.2,Win32,60,5f035e5afe130c270d6ae6dd,5f05e0d5859dcb0b41b88d73,5,,,,,,crown,,,,,,,,,,,2,1,0,6,6,18,1,,,,,,,,,,,,,,,,,,,,,,,,,,,,,,,,,,,,,,,,,,,,,,,,,,,,,,,,,,,,,,,,,,,,,,
,,?,0.001,0,,,,,,stimuli/images/PICTURE_208.png,SYSTEM,5e4cd31b485acc129e20fbdd,26/12/1989,2020-07-08_11h06.54.879,proactive,2020.1.2,Win32,60,5f035e5afe130c270d6ae6dd,5f05e0d5859dcb0b41b88d73,5,,,,,,microphone,,,,,,,,,,,4,1,0,7,7,32,1,,,,,,,,,,,,,,,,,,,,,,,,,,,,,,,,,,,,,,,,,,,,,,,,,,,,,,,,,,,,,,,,,,,,,,
,,?,0.001,0,,,,,,stimuli/images/PICTURE_147.png,YEAR,5e4cd31b485acc129e20fbdd,26/12/1989,2020-07-08_11h06.54.879,proactive,2020.1.2,Win32,60,5f035e5afe130c270d6ae6dd,5f05e0d5859dcb0b41b88d73,5,,,,,,hanger,,,,,,,,,,,3,1,0,8,8,21,1,,,,,,,,,,,,,,,,,,,,,,,,,,,,,,,,,,,,,,,,,,,,,,,,,,,,,,,,,,,,,,,,,,,,,,
,,?,0.001,0,,,,,,stimuli/images/PICTURE_327.png,CASINO,5e4cd31b485acc129e20fbdd,26/12/1989,2020-07-08_11h06.54.879,proactive,2020.1.2,Win32,60,5f035e5afe130c270d6ae6dd,5f05e0d5859dcb0b41b88d73,5,,,,,,helmet,,,,,,,,,,,3,1,0,9,9,20,1,,,,,,,,,,,,,,,,,,,,,,,,,,,,,,,,,,,,,,,,,,,,,,,,,,,,,,,,,,,,,,,,,,,,,,
,,?,0.002,0,,,,,,stimuli/images/PICTURE_564.png,BATH,5e4cd31b485acc129e20fbdd,26/12/1989,2020-07-08_11h06.54.879,proactive,2020.1.2,Win32,60,5f035e5afe130c270d6ae6dd,5f05e0d5859dcb0b41b88d73,5,,,,,,spoon,,,,,,,,,,,3,1,0,10,10,26,1,,,,,,,,,,,,,,,,,,,,,,,,,,,,,,,,,,,,,,,,,,,,,,,,,,,,,,,,,,,,,,,,,,,,,,
,,?,0.001,0,,,,,,stimuli/images/PICTURE_380.png,CANDY,5e4cd31b485acc129e20fbdd,26/12/1989,2020-07-08_11h06.54.879,proactive,2020.1.2,Win32,60,5f035e5afe130c270d6ae6dd,5f05e0d5859dcb0b41b88d73,5,,,,,,gorilla,,,,,,,,,,,1,1,0,11,11,0,1,,,,,,,,,,,,,,,,,,,,,,,,,,,,,,,,,,,,,,,,,,,,,,,,,,,,,,,,,,,,,,,,,,,,,,
,,?,0,0,,,,,,stimuli/images/PICTURE_339.png,CLIENT,5e4cd31b485acc129e20fbdd,26/12/1989,2020-07-08_11h06.54.879,proactive,2020.1.2,Win32,60,5f035e5afe130c270d6ae6dd,5f05e0d5859dcb0b41b88d73,5,,,,,,backpack,,,,,,,,,,,2,1,0,12,12,11,1,,,,,,,,,,,,,,,,,,,,,,,,,,,,,,,,,,,,,,,,,,,,,,,,,,,,,,,,,,,,,,,,,,,,,,
,,HONEY,3.236,1,,,,,,stimuli/images/PICTURE_95.png,HONEY,5e4cd31b485acc129e20fbdd,26/12/1989,2020-07-08_11h06.54.879,proactive,2020.1.2,Win32,60,5f035e5afe130c270d6ae6dd,5f05e0d5859dcb0b41b88d73,5,,,,,,suitcase,,,,,,,,,,,5,1,0,13,13,44,1,,,,,,,,,,,,,,,,,,,,,,,,,,,,,,,,,,,,,,,,,,,,,,,,,,,,,,,,,,,,,,,,,,,,,,
,,?,0.001,0,,,,,,stimuli/images/PICTURE_504.png,YEAR,5e4cd31b485acc129e20fbdd,26/12/1989,2020-07-08_11h06.54.879,proactive,2020.1.2,Win32,60,5f035e5afe130c270d6ae6dd,5f05e0d5859dcb0b41b88d73,5,,,,,,wheel,,,,,,,,,,,2,1,0,14,14,13,1,,,,,,,,,,,,,,,,,,,,,,,,,,,,,,,,,,,,,,,,,,,,,,,,,,,,,,,,,,,,,,,,,,,,,,
,,?,0.001,0,,,,,,stimuli/images/PICTURE_383.png,WRITER,5e4cd31b485acc129e20fbdd,26/12/1989,2020-07-08_11h06.54.879,proactive,2020.1.2,Win32,60,5f035e5afe130c270d6ae6dd,5f05e0d5859dcb0b41b88d73,5,,,,,,coin,,,,,,,,,,,3,1,0,15,15,28,1,,,,,,,,,,,,,,,,,,,,,,,,,,,,,,,,,,,,,,,,,,,,,,,,,,,,,,,,,,,,,,,,,,,,,,
,,?,0.002,0,,,,,,stimuli/images/PICTURE_42.png,BOYS,5e4cd31b485acc129e20fbdd,26/12/1989,2020-07-08_11h06.54.879,proactive,2020.1.2,Win32,60,5f035e5afe130c270d6ae6dd,5f05e0d5859dcb0b41b88d73,5,,,,,,pear,,,,,,,,,,,6,1,0,16,16,55,1,,,,,,,,,,,,,,,,,,,,,,,,,,,,,,,,,,,,,,,,,,,,,,,,,,,,,,,,,,,,,,,,,,,,,,
,,?,0.001,0,,,,,,stimuli/images/PICTURE_327.png,SERIES,5e4cd31b485acc129e20fbdd,26/12/1989,2020-07-08_11h06.54.879,proactive,2020.1.2,Win32,60,5f035e5afe130c270d6ae6dd,5f05e0d5859dcb0b41b88d73,5,,,,,,helmet,,,,,,,,,,,1,1,0,17,17,3,1,,,,,,,,,,,,,,,,,,,,,,,,,,,,,,,,,,,,,,,,,,,,,,,,,,,,,,,,,,,,,,,,,,,,,,
,,SALE,3.391,1,,,,,,stimuli/images/PICTURE_675.png,SALE,5e4cd31b485acc129e20fbdd,26/12/1989,2020-07-08_11h06.54.879,proactive,2020.1.2,Win32,60,5f035e5afe130c270d6ae6dd,5f05e0d5859dcb0b41b88d73,5,,,,,,windmill,,,,,,,,,,,5,1,0,18,18,47,1,,,,,,,,,,,,,,,,,,,,,,,,,,,,,,,,,,,,,,,,,,,,,,,,,,,,,,,,,,,,,,,,,,,,,,
