consent_key.keys,consent_key.rt,recalled,recalled_rt,recall_acc,example_recall.thisRepN,example_recall.thisTrialN,example_recall.thisN,example_recall.thisIndex,example_recall.ran,file,word,participant,please enter your date of birth (dd/mm/yyyy),date,expName,psychopyVersion,OS,frameRate,STUDY_ID,SESSION_ID,list,prac_learn_study_loop.thisRepN,prac_learn_study_loop.thisTrialN,prac_learn_study_loop.thisN,prac_learn_study_loop.thisIndex,prac_learn_study_loop.ran,image,prac_learn_test_loop.thisRepN,prac_learn_test_loop.thisTrialN,prac_learn_test_loop.thisN,prac_learn_test_loop.thisIndex,prac_learn_test_loop.ran,learn_study_loop.thisRepN,learn_study_loop.thisTrialN,learn_study_loop.thisN,learn_study_loop.thisIndex,learn_study_loop.ran,list_no,block_no,learn_test_loop.thisRepN,learn_test_loop.thisTrialN,learn_test_loop.thisN,learn_test_loop.thisIndex,learn_test_loop.ran,learn_blocks.thisRepN,learn_blocks.thisTrialN,learn_blocks.thisN,learn_blocks.thisIndex,learn_blocks.ran,block_csv,key_resp_13.keys,key_resp_13.rt,learn_blocks_loop.thisRepN,learn_blocks_loop.thisTrialN,learn_blocks_loop.thisN,learn_blocks_loop.thisIndex,learn_blocks_loop.ran,final_learn_test.thisRepN,final_learn_test.thisTrialN,final_learn_test.thisN,final_learn_test.thisIndex,final_learn_test.ran,prac_wm_test_loop.thisRepN,prac_wm_test_loop.thisTrialN,prac_wm_test_loop.thisN,prac_wm_test_loop.thisIndex,prac_wm_test_loop.ran,wm_recalled1,wm_recall_rt1,wm_probed1,wm_recall_acc1,wm_recalled2,wm_recall_rt2,wm_probed2,wm_recall_acc2,wm_recalled3,wm_recall_rt3,wm_probed3,wm_recall_acc3,wm_recalled4,wm_recall_rt4,wm_probed4,wm_recall_acc4,prac_wm_trial_loop.thisRepN,prac_wm_trial_loop.thisTrialN,prac_wm_trial_loop.thisN,prac_wm_trial_loop.thisIndex,prac_wm_trial_loop.ran,word1,image1,file1,item_type1,word2,image2,file2,item_type2,word4,image4,file4,item_type4,word3,image3,file3,item_type3,wm_test_loop.thisRepN,wm_test_loop.thisTrialN,wm_test_loop.thisN,wm_test_loop.thisIndex,wm_test_loop.ran,wm_trial_loop.thisRepN,wm_trial_loop.thisTrialN,wm_trial_loop.thisN,wm_trial_loop.thisIndex,wm_trial_loop.ran
y,32.331,TOUGH,3.488,1,0,0,0,0,1,stimuli/images/PICTURE_747.png,TOUGH,5e510d0760dd0913e45370dc,07/11/1954,2020-07-09_22h13.10.755,proactive,2020.1.2,Win32,60,5f073de81c76c3308c0e4fb3,5f078846422aa73aa2d99ac6,3,,,,,,,,,,,,,,,,,,,,,,,,,,,,,,,,,,,,,,,,,,,,,,,,,,,,,,,,,,,,,,,,,,,,,,,,,,,,,,,,,,,,,,,,,,,,,
,,,,,,,,,,stimuli/images/PICTURE_378.png,LOSS,5e510d0760dd0913e45370dc,07/11/1954,2020-07-09_22h13.10.755,proactive,2020.1.2,Win32,60,5f073de81c76c3308c0e4fb3,5f078846422aa73aa2d99ac6,3,0,0,0,2,1,lobster,,,,,,,,,,,,,,,,,,,,,,,,,,,,,,,,,,,,,,,,,,,,,,,,,,,,,,,,,,,,,,,,,,,,,,,,,,,,,,,,,,,,,,,
,,,,,,,,,,stimuli/images/PICTURE_269.png,GENIUS,5e510d0760dd0913e45370dc,07/11/1954,2020-07-09_22h13.10.755,proactive,2020.1.2,Win32,60,5f073de81c76c3308c0e4fb3,5f078846422aa73aa2d99ac6,3,0,1,1,0,1,chameleon,,,,,,,,,,,,,,,,,,,,,,,,,,,,,,,,,,,,,,,,,,,,,,,,,,,,,,,,,,,,,,,,,,,,,,,,,,,,,,,,,,,,,,,
,,,,,,,,,,stimuli/images/PICTURE_697.png,KILLER,5e510d0760dd0913e45370dc,07/11/1954,2020-07-09_22h13.10.755,proactive,2020.1.2,Win32,60,5f073de81c76c3308c0e4fb3,5f078846422aa73aa2d99ac6,3,0,2,2,4,1,peach,,,,,,,,,,,,,,,,,,,,,,,,,,,,,,,,,,,,,,,,,,,,,,,,,,,,,,,,,,,,,,,,,,,,,,,,,,,,,,,,,,,,,,,
,,,,,,,,,,stimuli/images/PICTURE_658.png,DEVIL,5e510d0760dd0913e45370dc,07/11/1954,2020-07-09_22h13.10.755,proactive,2020.1.2,Win32,60,5f073de81c76c3308c0e4fb3,5f078846422aa73aa2d99ac6,3,0,3,3,3,1,crow,,,,,,,,,,,,,,,,,,,,,,,,,,,,,,,,,,,,,,,,,,,,,,,,,,,,,,,,,,,,,,,,,,,,,,,,,,,,,,,,,,,,,,,
,,GENIUS,5.655,1,,,,,,stimuli/images/PICTURE_269.png,GENIUS,5e510d0760dd0913e45370dc,07/11/1954,2020-07-09_22h13.10.755,proactive,2020.1.2,Win32,60,5f073de81c76c3308c0e4fb3,5f078846422aa73aa2d99ac6,3,,,,,,chameleon,0,0,0,0,1,,,,,,,,,,,,,,,,,,,,,,,,,,,,,,,,,,,,,,,,,,,,,,,,,,,,,,,,,,,,,,,,,,,,,,,,,,,,,,,,,,
,,CELL,3.164,1,,,,,,stimuli/images/PICTURE_727.png,CELL,5e510d0760dd0913e45370dc,07/11/1954,2020-07-09_22h13.10.755,proactive,2020.1.2,Win32,60,5f073de81c76c3308c0e4fb3,5f078846422aa73aa2d99ac6,3,,,,,,hose,0,1,1,1,1,,,,,,,,,,,,,,,,,,,,,,,,,,,,,,,,,,,,,,,,,,,,,,,,,,,,,,,,,,,,,,,,,,,,,,,,,,,,,,,,,,
,,LOSS,3.58,1,,,,,,stimuli/images/PICTURE_378.png,LOSS,5e510d0760dd0913e45370dc,07/11/1954,2020-07-09_22h13.10.755,proactive,2020.1.2,Win32,60,5f073de81c76c3308c0e4fb3,5f078846422aa73aa2d99ac6,3,,,,,,lobster,0,2,2,2,1,,,,,,,,,,,,,,,,,,,,,,,,,,,,,,,,,,,,,,,,,,,,,,,,,,,,,,,,,,,,,,,,,,,,,,,,,,,,,,,,,,
,,KILLER,3.781,1,,,,,,stimuli/images/PICTURE_697.png,KILLER,5e510d0760dd0913e45370dc,07/11/1954,2020-07-09_22h13.10.755,proactive,2020.1.2,Win32,60,5f073de81c76c3308c0e4fb3,5f078846422aa73aa2d99ac6,3,,,,,,peach,0,3,3,4,1,,,,,,,,,,,,,,,,,,,,,,,,,,,,,,,,,,,,,,,,,,,,,,,,,,,,,,,,,,,,,,,,,,,,,,,,,,,,,,,,,,
,,DEVIL,3.264,1,,,,,,stimuli/images/PICTURE_658.png,DEVIL,5e510d0760dd0913e45370dc,07/11/1954,2020-07-09_22h13.10.755,proactive,2020.1.2,Win32,60,5f073de81c76c3308c0e4fb3,5f078846422aa73aa2d99ac6,3,,,,,,crow,0,4,4,3,1,,,,,,,,,,,,,,,,,,,,,,,,,,,,,,,,,,,,,,,,,,,,,,,,,,,,,,,,,,,,,,,,,,,,,,,,,,,,,,,,,,
,,,,,,,,,,stimuli/images/PICTURE_203.png,ARTIST,5e510d0760dd0913e45370dc,07/11/1954,2020-07-09_22h13.10.755,proactive,2020.1.2,Win32,60,5f073de81c76c3308c0e4fb3,5f078846422aa73aa2d99ac6,3,,,,,,cap,,,,,,0,0,0,26,1,3,0,,,,,,,,,,,,,,,,,,,,,,,,,,,,,,,,,,,,,,,,,,,,,,,,,,,,,,,,,,,,,,,,,,,,,,,,,,,
,,,,,,,,,,stimuli/images/PICTURE_285.png,ADVICE,5e510d0760dd0913e45370dc,07/11/1954,2020-07-09_22h13.10.755,proactive,2020.1.2,Win32,60,5f073de81c76c3308c0e4fb3,5f078846422aa73aa2d99ac6,3,,,,,,carrot,,,,,,0,1,1,12,1,2,0,,,,,,,,,,,,,,,,,,,,,,,,,,,,,,,,,,,,,,,,,,,,,,,,,,,,,,,,,,,,,,,,,,,,,,,,,,,
,,,,,,,,,,stimuli/images/PICTURE_208.png,THING,5e510d0760dd0913e45370dc,07/11/1954,2020-07-09_22h13.10.755,proactive,2020.1.2,Win32,60,5f073de81c76c3308c0e4fb3,5f078846422aa73aa2d99ac6,3,,,,,,microphone,,,,,,0,2,2,47,1,5,0,,,,,,,,,,,,,,,,,,,,,,,,,,,,,,,,,,,,,,,,,,,,,,,,,,,,,,,,,,,,,,,,,,,,,,,,,,,
,,,,,,,,,,stimuli/images/PICTURE_311.png,BEAUTY,5e510d0760dd0913e45370dc,07/11/1954,2020-07-09_22h13.10.755,proactive,2020.1.2,Win32,60,5f073de81c76c3308c0e4fb3,5f078846422aa73aa2d99ac6,3,,,,,,razor,,,,,,0,3,3,13,1,2,0,,,,,,,,,,,,,,,,,,,,,,,,,,,,,,,,,,,,,,,,,,,,,,,,,,,,,,,,,,,,,,,,,,,,,,,,,,,
,,,,,,,,,,stimuli/images/PICTURE_708.png,CLIENT,5e510d0760dd0913e45370dc,07/11/1954,2020-07-09_22h13.10.755,proactive,2020.1.2,Win32,60,5f073de81c76c3308c0e4fb3,5f078846422aa73aa2d99ac6,3,,,,,,monkey,,,,,,0,4,4,5,1,1,0,,,,,,,,,,,,,,,,,,,,,,,,,,,,,,,,,,,,,,,,,,,,,,,,,,,,,,,,,,,,,,,,,,,,,,,,,,,
,,,,,,,,,,stimuli/images/PICTURE_233.png,IDEAS,5e510d0760dd0913e45370dc,07/11/1954,2020-07-09_22h13.10.755,proactive,2020.1.2,Win32,60,5f073de81c76c3308c0e4fb3,5f078846422aa73aa2d99ac6,3,,,,,,salt,,,,,,0,5,5,28,1,3,0,,,,,,,,,,,,,,,,,,,,,,,,,,,,,,,,,,,,,,,,,,,,,,,,,,,,,,,,,,,,,,,,,,,,,,,,,,,
,,,,,,,,,,stimuli/images/PICTURE_327.png,BEAUTY,5e510d0760dd0913e45370dc,07/11/1954,2020-07-09_22h13.10.755,proactive,2020.1.2,Win32,60,5f073de81c76c3308c0e4fb3,5f078846422aa73aa2d99ac6,3,,,,,,helmet,,,,,,0,6,6,48,1,5,0,,,,,,,,,,,,,,,,,,,,,,,,,,,,,,,,,,,,,,,,,,,,,,,,,,,,,,,,,,,,,,,,,,,,,,,,,,,
,,,,,,,,,,stimuli/images/PICTURE_488.png,STYLE,5e510d0760dd0913e45370dc,07/11/1954,2020-07-09_22h13.10.755,proactive,2020.1.2,Win32,60,5f073de81c76c3308c0e4fb3,5f078846422aa73aa2d99ac6,3,,,,,,sun,,,,,,0,7,7,33,1,4,0,,,,,,,,,,,,,,,,,,,,,,,,,,,,,,,,,,,,,,,,,,,,,,,,,,,,,,,,,,,,,,,,,,,,,,,,,,,
,,,,,,,,,,stimuli/images/PICTURE_453.png,DUDE,5e510d0760dd0913e45370dc,07/11/1954,2020-07-09_22h13.10.755,proactive,2020.1.2,Win32,60,5f073de81c76c3308c0e4fb3,5f078846422aa73aa2d99ac6,3,,,,,,scissors,,,,,,0,8,8,27,1,3,0,,,,,,,,,,,,,,,,,,,,,,,,,,,,,,,,,,,,,,,,,,,,,,,,,,,,,,,,,,,,,,,,,,,,,,,,,,,
,,,,,,,,,,stimuli/images/PICTURE_453.png,PLENTY,5e510d0760dd0913e45370dc,07/11/1954,2020-07-09_22h13.10.755,proactive,2020.1.2,Win32,60,5f073de81c76c3308c0e4fb3,5f078846422aa73aa2d99ac6,3,,,,,,scissors,,,,,,0,9,9,56,1,6,0,,,,,,,,,,,,,,,,,,,,,,,,,,,,,,,,,,,,,,,,,,,,,,,,,,,,,,,,,,,,,,,,,,,,,,,,,,,
,,,,,,,,,,stimuli/images/PICTURE_744.png,SAKE,5e510d0760dd0913e45370dc,07/11/1954,2020-07-09_22h13.10.755,proactive,2020.1.2,Win32,60,5f073de81c76c3308c0e4fb3,5f078846422aa73aa2d99ac6,3,,,,,,ring,,,,,,0,10,10,17,1,2,0,,,,,,,,,,,,,,,,,,,,,,,,,,,,,,,,,,,,,,,,,,,,,,,,,,,,,,,,,,,,,,,,,,,,,,,,,,,
,,,,,,,,,,stimuli/images/PICTURE_469.png,ARTIST,5e510d0760dd0913e45370dc,07/11/1954,2020-07-09_22h13.10.755,proactive,2020.1.2,Win32,60,5f073de81c76c3308c0e4fb3,5f078846422aa73aa2d99ac6,3,,,,,,stool,,,,,,0,11,11,6,1,1,0,,,,,,,,,,,,,,,,,,,,,,,,,,,,,,,,,,,,,,,,,,,,,,,,,,,,,,,,,,,,,,,,,,,,,,,,,,,
,,,,,,,,,,stimuli/images/PICTURE_688.png,CASINO,5e510d0760dd0913e45370dc,07/11/1954,2020-07-09_22h13.10.755,proactive,2020.1.2,Win32,60,5f073de81c76c3308c0e4fb3,5f078846422aa73aa2d99ac6,3,,,,,,runner,,,,,,0,12,12,2,1,1,0,,,,,,,,,,,,,,,,,,,,,,,,,,,,,,,,,,,,,,,,,,,,,,,,,,,,,,,,,,,,,,,,,,,,,,,,,,,
,,,,,,,,,,stimuli/images/PICTURE_667.png,PLENTY,5e510d0760dd0913e45370dc,07/11/1954,2020-07-09_22h13.10.755,proactive,2020.1.2,Win32,60,5f073de81c76c3308c0e4fb3,5f078846422aa73aa2d99ac6,3,,,,,,daisy,,,,,,0,13,13,41,1,5,0,,,,,,,,,,,,,,,,,,,,,,,,,,,,,,,,,,,,,,,,,,,,,,,,,,,,,,,,,,,,,,,,,,,,,,,,,,,
,,,,,,,,,,stimuli/images/PICTURE_491.png,WRITER,5e510d0760dd0913e45370dc,07/11/1954,2020-07-09_22h13.10.755,proactive,2020.1.2,Win32,60,5f073de81c76c3308c0e4fb3,5f078846422aa73aa2d99ac6,3,,,,,,rug,,,,,,0,14,14,57,1,6,0,,,,,,,,,,,,,,,,,,,,,,,,,,,,,,,,,,,,,,,,,,,,,,,,,,,,,,,,,,,,,,,,,,,,,,,,,,,
,,,,,,,,,,stimuli/images/PICTURE_233.png,WOMEN,5e510d0760dd0913e45370dc,07/11/1954,2020-07-09_22h13.10.755,proactive,2020.1.2,Win32,60,5f073de81c76c3308c0e4fb3,5f078846422aa73aa2d99ac6,3,,,,,,salt,,,,,,0,15,15,38,1,4,0,,,,,,,,,,,,,,,,,,,,,,,,,,,,,,,,,,,,,,,,,,,,,,,,,,,,,,,,,,,,,,,,,,,,,,,,,,,
,,,,,,,,,,stimuli/images/PICTURE_509.png,PHOTO,5e510d0760dd0913e45370dc,07/11/1954,2020-07-09_22h13.10.755,proactive,2020.1.2,Win32,60,5f073de81c76c3308c0e4fb3,5f078846422aa73aa2d99ac6,3,,,,,,telephone,,,,,,0,16,16,21,1,3,0,,,,,,,,,,,,,,,,,,,,,,,,,,,,,,,,,,,,,,,,,,,,,,,,,,,,,,,,,,,,,,,,,,,,,,,,,,,
,,,,,,,,,,stimuli/images/PICTURE_708.png,YARD,5e510d0760dd0913e45370dc,07/11/1954,2020-07-09_22h13.10.755,proactive,2020.1.2,Win32,60,5f073de81c76c3308c0e4fb3,5f078846422aa73aa2d99ac6,3,,,,,,monkey,,,,,,0,17,17,29,1,3,0,,,,,,,,,,,,,,,,,,,,,,,,,,,,,,,,,,,,,,,,,,,,,,,,,,,,,,,,,,,,,,,,,,,,,,,,,,,
,,,,,,,,,,stimuli/images/PICTURE_470.png,CASINO,5e510d0760dd0913e45370dc,07/11/1954,2020-07-09_22h13.10.755,proactive,2020.1.2,Win32,60,5f073de81c76c3308c0e4fb3,5f078846422aa73aa2d99ac6,3,,,,,,motorbike,,,,,,0,18,18,36,1,4,0,,,,,,,,,,,,,,,,,,,,,,,,,,,,,,,,,,,,,,,,,,,,,,,,,,,,,,,,,,,,,,,,,,,,,,,,,,,
,,,,,,,,,,stimuli/images/PICTURE_677.png,MILE,5e510d0760dd0913e45370dc,07/11/1954,2020-07-09_22h13.10.755,proactive,2020.1.2,Win32,60,5f073de81c76c3308c0e4fb3,5f078846422aa73aa2d99ac6,3,,,,,,map,,,,,,0,19,19,30,1,4,0,,,,,,,,,,,,,,,,,,,,,,,,,,,,,,,,,,,,,,,,,,,,,,,,,,,,,,,,,,,,,,,,,,,,,,,,,,,
,,,,,,,,,,stimuli/images/PICTURE_123.png,ADVICE,5e510d0760dd0913e45370dc,07/11/1954,2020-07-09_22h13.10.755,proactive,2020.1.2,Win32,60,5f073de81c76c3308c0e4fb3,5f078846422aa73aa2d99ac6,3,,,,,,dart,,,,,,0,20,20,50,1,6,0,,,,,,,,,,,,,,,,,,,,,,,,,,,,,,,,,,,,,,,,,,,,,,,,,,,,,,,,,,,,,,,,,,,,,,,,,,,
,,,,,,,,,,stimuli/images/PICTURE_708.png,PENNY,5e510d0760dd0913e45370dc,07/11/1954,2020-07-09_22h13.10.755,proactive,2020.1.2,Win32,60,5f073de81c76c3308c0e4fb3,5f078846422aa73aa2d99ac6,3,,,,,,monkey,,,,,,0,21,21,31,1,4,0,,,,,,,,,,,,,,,,,,,,,,,,,,,,,,,,,,,,,,,,,,,,,,,,,,,,,,,,,,,,,,,,,,,,,,,,,,,
,,,,,,,,,,stimuli/images/PICTURE_123.png,ADVICE,5e510d0760dd0913e45370dc,07/11/1954,2020-07-09_22h13.10.755,proactive,2020.1.2,Win32,60,5f073de81c76c3308c0e4fb3,5f078846422aa73aa2d99ac6,3,,,,,,dart,,,,,,0,22,22,40,1,5,0,,,,,,,,,,,,,,,,,,,,,,,,,,,,,,,,,,,,,,,,,,,,,,,,,,,,,,,,,,,,,,,,,,,,,,,,,,,
,,,,,,,,,,stimuli/images/PICTURE_675.png,WEAPON,5e510d0760dd0913e45370dc,07/11/1954,2020-07-09_22h13.10.755,proactive,2020.1.2,Win32,60,5f073de81c76c3308c0e4fb3,5f078846422aa73aa2d99ac6,3,,,,,,windmill,,,,,,0,23,23,32,1,4,0,,,,,,,,,,,,,,,,,,,,,,,,,,,,,,,,,,,,,,,,,,,,,,,,,,,,,,,,,,,,,,,,,,,,,,,,,,,
,,,,,,,,,,stimuli/images/PICTURE_380.png,DEATH,5e510d0760dd0913e45370dc,07/11/1954,2020-07-09_22h13.10.755,proactive,2020.1.2,Win32,60,5f073de81c76c3308c0e4fb3,5f078846422aa73aa2d99ac6,3,,,,,,gorilla,,,,,,0,24,24,49,1,5,0,,,,,,,,,,,,,,,,,,,,,,,,,,,,,,,,,,,,,,,,,,,,,,,,,,,,,,,,,,,,,,,,,,,,,,,,,,,
,,,,,,,,,,stimuli/images/PICTURE_467.png,DEMON,5e510d0760dd0913e45370dc,07/11/1954,2020-07-09_22h13.10.755,proactive,2020.1.2,Win32,60,5f073de81c76c3308c0e4fb3,5f078846422aa73aa2d99ac6,3,,,,,,peg,,,,,,0,25,25,23,1,3,0,,,,,,,,,,,,,,,,,,,,,,,,,,,,,,,,,,,,,,,,,,,,,,,,,,,,,,,,,,,,,,,,,,,,,,,,,,,
,,,,,,,,,,stimuli/images/PICTURE_487.png,FLIGHT,5e510d0760dd0913e45370dc,07/11/1954,2020-07-09_22h13.10.755,proactive,2020.1.2,Win32,60,5f073de81c76c3308c0e4fb3,5f078846422aa73aa2d99ac6,3,,,,,,basket,,,,,,0,26,26,9,1,1,0,,,,,,,,,,,,,,,,,,,,,,,,,,,,,,,,,,,,,,,,,,,,,,,,,,,,,,,,,,,,,,,,,,,,,,,,,,,
,,,,,,,,,,stimuli/images/PICTURE_147.png,MOMENT,5e510d0760dd0913e45370dc,07/11/1954,2020-07-09_22h13.10.755,proactive,2020.1.2,Win32,60,5f073de81c76c3308c0e4fb3,5f078846422aa73aa2d99ac6,3,,,,,,hanger,,,,,,0,27,27,51,1,6,0,,,,,,,,,,,,,,,,,,,,,,,,,,,,,,,,,,,,,,,,,,,,,,,,,,,,,,,,,,,,,,,,,,,,,,,,,,,
,,,,,,,,,,stimuli/images/PICTURE_449.png,THING,5e510d0760dd0913e45370dc,07/11/1954,2020-07-09_22h13.10.755,proactive,2020.1.2,Win32,60,5f073de81c76c3308c0e4fb3,5f078846422aa73aa2d99ac6,3,,,,,,bench,,,,,,0,28,28,59,1,6,0,,,,,,,,,,,,,,,,,,,,,,,,,,,,,,,,,,,,,,,,,,,,,,,,,,,,,,,,,,,,,,,,,,,,,,,,,,,
,,,,,,,,,,stimuli/images/PICTURE_208.png,LOTS,5e510d0760dd0913e45370dc,07/11/1954,2020-07-09_22h13.10.755,proactive,2020.1.2,Win32,60,5f073de81c76c3308c0e4fb3,5f078846422aa73aa2d99ac6,3,,,,,,microphone,,,,,,0,29,29,10,1,2,0,,,,,,,,,,,,,,,,,,,,,,,,,,,,,,,,,,,,,,,,,,,,,,,,,,,,,,,,,,,,,,,,,,,,,,,,,,,
,,,,,,,,,,stimuli/images/PICTURE_32.png,JUNGLE,5e510d0760dd0913e45370dc,07/11/1954,2020-07-09_22h13.10.755,proactive,2020.1.2,Win32,60,5f073de81c76c3308c0e4fb3,5f078846422aa73aa2d99ac6,3,,,,,,crown,,,,,,0,30,30,45,1,5,0,,,,,,,,,,,,,,,,,,,,,,,,,,,,,,,,,,,,,,,,,,,,,,,,,,,,,,,,,,,,,,,,,,,,,,,,,,,
,,,,,,,,,,stimuli/images/PICTURE_85.png,THING,5e510d0760dd0913e45370dc,07/11/1954,2020-07-09_22h13.10.755,proactive,2020.1.2,Win32,60,5f073de81c76c3308c0e4fb3,5f078846422aa73aa2d99ac6,3,,,,,,diamond,,,,,,0,31,31,15,1,2,0,,,,,,,,,,,,,,,,,,,,,,,,,,,,,,,,,,,,,,,,,,,,,,,,,,,,,,,,,,,,,,,,,,,,,,,,,,,
,,,,,,,,,,stimuli/images/PICTURE_356.png,DANGER,5e510d0760dd0913e45370dc,07/11/1954,2020-07-09_22h13.10.755,proactive,2020.1.2,Win32,60,5f073de81c76c3308c0e4fb3,5f078846422aa73aa2d99ac6,3,,,,,,pawn,,,,,,0,32,32,55,1,6,0,,,,,,,,,,,,,,,,,,,,,,,,,,,,,,,,,,,,,,,,,,,,,,,,,,,,,,,,,,,,,,,,,,,,,,,,,,,
,,,,,,,,,,stimuli/images/PICTURE_151.png,GIRL,5e510d0760dd0913e45370dc,07/11/1954,2020-07-09_22h13.10.755,proactive,2020.1.2,Win32,60,5f073de81c76c3308c0e4fb3,5f078846422aa73aa2d99ac6,3,,,,,,tray,,,,,,0,33,33,19,1,2,0,,,,,,,,,,,,,,,,,,,,,,,,,,,,,,,,,,,,,,,,,,,,,,,,,,,,,,,,,,,,,,,,,,,,,,,,,,,
,,,,,,,,,,stimuli/images/PICTURE_380.png,PHOTO,5e510d0760dd0913e45370dc,07/11/1954,2020-07-09_22h13.10.755,proactive,2020.1.2,Win32,60,5f073de81c76c3308c0e4fb3,5f078846422aa73aa2d99ac6,3,,,,,,gorilla,,,,,,0,34,34,52,1,6,0,,,,,,,,,,,,,,,,,,,,,,,,,,,,,,,,,,,,,,,,,,,,,,,,,,,,,,,,,,,,,,,,,,,,,,,,,,,
,,,,,,,,,,stimuli/images/PICTURE_160.png,LEADER,5e510d0760dd0913e45370dc,07/11/1954,2020-07-09_22h13.10.755,proactive,2020.1.2,Win32,60,5f073de81c76c3308c0e4fb3,5f078846422aa73aa2d99ac6,3,,,,,,wheelbarrow,,,,,,0,35,35,3,1,1,0,,,,,,,,,,,,,,,,,,,,,,,,,,,,,,,,,,,,,,,,,,,,,,,,,,,,,,,,,,,,,,,,,,,,,,,,,,,
,,,,,,,,,,stimuli/images/PICTURE_667.png,BATH,5e510d0760dd0913e45370dc,07/11/1954,2020-07-09_22h13.10.755,proactive,2020.1.2,Win32,60,5f073de81c76c3308c0e4fb3,5f078846422aa73aa2d99ac6,3,,,,,,daisy,,,,,,0,36,36,4,1,1,0,,,,,,,,,,,,,,,,,,,,,,,,,,,,,,,,,,,,,,,,,,,,,,,,,,,,,,,,,,,,,,,,,,,,,,,,,,,
,,,,,,,,,,stimuli/images/PICTURE_688.png,WOMEN,5e510d0760dd0913e45370dc,07/11/1954,2020-07-09_22h13.10.755,proactive,2020.1.2,Win32,60,5f073de81c76c3308c0e4fb3,5f078846422aa73aa2d99ac6,3,,,,,,runner,,,,,,0,37,37,14,1,2,0,,,,,,,,,,,,,,,,,,,,,,,,,,,,,,,,,,,,,,,,,,,,,,,,,,,,,,,,,,,,,,,,,,,,,,,,,,,
,,,,,,,,,,stimuli/images/PICTURE_68.png,MILE,5e510d0760dd0913e45370dc,07/11/1954,2020-07-09_22h13.10.755,proactive,2020.1.2,Win32,60,5f073de81c76c3308c0e4fb3,5f078846422aa73aa2d99ac6,3,,,,,,candle,,,,,,0,38,38,44,1,5,0,,,,,,,,,,,,,,,,,,,,,,,,,,,,,,,,,,,,,,,,,,,,,,,,,,,,,,,,,,,,,,,,,,,,,,,,,,,
,,,,,,,,,,stimuli/images/PICTURE_177.png,CARS,5e510d0760dd0913e45370dc,07/11/1954,2020-07-09_22h13.10.755,proactive,2020.1.2,Win32,60,5f073de81c76c3308c0e4fb3,5f078846422aa73aa2d99ac6,3,,,,,,mushroom,,,,,,0,39,39,35,1,4,0,,,,,,,,,,,,,,,,,,,,,,,,,,,,,,,,,,,,,,,,,,,,,,,,,,,,,,,,,,,,,,,,,,,,,,,,,,,
,,,,,,,,,,stimuli/images/PICTURE_160.png,FEET,5e510d0760dd0913e45370dc,07/11/1954,2020-07-09_22h13.10.755,proactive,2020.1.2,Win32,60,5f073de81c76c3308c0e4fb3,5f078846422aa73aa2d99ac6,3,,,,,,wheelbarrow,,,,,,0,40,40,58,1,6,0,,,,,,,,,,,,,,,,,,,,,,,,,,,,,,,,,,,,,,,,,,,,,,,,,,,,,,,,,,,,,,,,,,,,,,,,,,,
,,,,,,,,,,stimuli/images/PICTURE_339.png,PLENTY,5e510d0760dd0913e45370dc,07/11/1954,2020-07-09_22h13.10.755,proactive,2020.1.2,Win32,60,5f073de81c76c3308c0e4fb3,5f078846422aa73aa2d99ac6,3,,,,,,backpack,,,,,,0,41,41,0,1,1,0,,,,,,,,,,,,,,,,,,,,,,,,,,,,,,,,,,,,,,,,,,,,,,,,,,,,,,,,,,,,,,,,,,,,,,,,,,,
,,,,,,,,,,stimuli/images/PICTURE_692.png,MONTH,5e510d0760dd0913e45370dc,07/11/1954,2020-07-09_22h13.10.755,proactive,2020.1.2,Win32,60,5f073de81c76c3308c0e4fb3,5f078846422aa73aa2d99ac6,3,,,,,,cherry,,,,,,0,42,42,16,1,2,0,,,,,,,,,,,,,,,,,,,,,,,,,,,,,,,,,,,,,,,,,,,,,,,,,,,,,,,,,,,,,,,,,,,,,,,,,,,
,,,,,,,,,,stimuli/images/PICTURE_311.png,FRIEND,5e510d0760dd0913e45370dc,07/11/1954,2020-07-09_22h13.10.755,proactive,2020.1.2,Win32,60,5f073de81c76c3308c0e4fb3,5f078846422aa73aa2d99ac6,3,,,,,,razor,,,,,,0,43,43,34,1,4,0,,,,,,,,,,,,,,,,,,,,,,,,,,,,,,,,,,,,,,,,,,,,,,,,,,,,,,,,,,,,,,,,,,,,,,,,,,,
,,,,,,,,,,stimuli/images/PICTURE_491.png,ROOF,5e510d0760dd0913e45370dc,07/11/1954,2020-07-09_22h13.10.755,proactive,2020.1.2,Win32,60,5f073de81c76c3308c0e4fb3,5f078846422aa73aa2d99ac6,3,,,,,,rug,,,,,,0,44,44,24,1,3,0,,,,,,,,,,,,,,,,,,,,,,,,,,,,,,,,,,,,,,,,,,,,,,,,,,,,,,,,,,,,,,,,,,,,,,,,,,,
,,,,,,,,,,stimuli/images/PICTURE_314.png,GODS,5e510d0760dd0913e45370dc,07/11/1954,2020-07-09_22h13.10.755,proactive,2020.1.2,Win32,60,5f073de81c76c3308c0e4fb3,5f078846422aa73aa2d99ac6,3,,,,,,perfume,,,,,,0,45,45,11,1,2,0,,,,,,,,,,,,,,,,,,,,,,,,,,,,,,,,,,,,,,,,,,,,,,,,,,,,,,,,,,,,,,,,,,,,,,,,,,,
,,,,,,,,,,stimuli/images/PICTURE_504.png,BODY,5e510d0760dd0913e45370dc,07/11/1954,2020-07-09_22h13.10.755,proactive,2020.1.2,Win32,60,5f073de81c76c3308c0e4fb3,5f078846422aa73aa2d99ac6,3,,,,,,wheel,,,,,,0,46,46,8,1,1,0,,,,,,,,,,,,,,,,,,,,,,,,,,,,,,,,,,,,,,,,,,,,,,,,,,,,,,,,,,,,,,,,,,,,,,,,,,,
,,,,,,,,,,stimuli/images/PICTURE_308.png,ESTATE,5e510d0760dd0913e45370dc,07/11/1954,2020-07-09_22h13.10.755,proactive,2020.1.2,Win32,60,5f073de81c76c3308c0e4fb3,5f078846422aa73aa2d99ac6,3,,,,,,dice,,,,,,0,47,47,46,1,5,0,,,,,,,,,,,,,,,,,,,,,,,,,,,,,,,,,,,,,,,,,,,,,,,,,,,,,,,,,,,,,,,,,,,,,,,,,,,
,,,,,,,,,,stimuli/images/PICTURE_302.png,FAMILY,5e510d0760dd0913e45370dc,07/11/1954,2020-07-09_22h13.10.755,proactive,2020.1.2,Win32,60,5f073de81c76c3308c0e4fb3,5f078846422aa73aa2d99ac6,3,,,,,,taxi,,,,,,0,48,48,18,1,2,0,,,,,,,,,,,,,,,,,,,,,,,,,,,,,,,,,,,,,,,,,,,,,,,,,,,,,,,,,,,,,,,,,,,,,,,,,,,
,,,,,,,,,,stimuli/images/PICTURE_654.png,VALLEY,5e510d0760dd0913e45370dc,07/11/1954,2020-07-09_22h13.10.755,proactive,2020.1.2,Win32,60,5f073de81c76c3308c0e4fb3,5f078846422aa73aa2d99ac6,3,,,,,,pencil,,,,,,0,49,49,1,1,1,0,,,,,,,,,,,,,,,,,,,,,,,,,,,,,,,,,,,,,,,,,,,,,,,,,,,,,,,,,,,,,,,,,,,,,,,,,,,
,,,,,,,,,,stimuli/images/PICTURE_255.png,AREA,5e510d0760dd0913e45370dc,07/11/1954,2020-07-09_22h13.10.755,proactive,2020.1.2,Win32,60,5f073de81c76c3308c0e4fb3,5f078846422aa73aa2d99ac6,3,,,,,,shovel,,,,,,0,50,50,22,1,3,0,,,,,,,,,,,,,,,,,,,,,,,,,,,,,,,,,,,,,,,,,,,,,,,,,,,,,,,,,,,,,,,,,,,,,,,,,,,
,,,,,,,,,,stimuli/images/PICTURE_308.png,KIND,5e510d0760dd0913e45370dc,07/11/1954,2020-07-09_22h13.10.755,proactive,2020.1.2,Win32,60,5f073de81c76c3308c0e4fb3,5f078846422aa73aa2d99ac6,3,,,,,,dice,,,,,,0,51,51,54,1,6,0,,,,,,,,,,,,,,,,,,,,,,,,,,,,,,,,,,,,,,,,,,,,,,,,,,,,,,,,,,,,,,,,,,,,,,,,,,,
,,,,,,,,,,stimuli/images/PICTURE_248.png,DOZEN,5e510d0760dd0913e45370dc,07/11/1954,2020-07-09_22h13.10.755,proactive,2020.1.2,Win32,60,5f073de81c76c3308c0e4fb3,5f078846422aa73aa2d99ac6,3,,,,,,cart,,,,,,0,52,52,39,1,4,0,,,,,,,,,,,,,,,,,,,,,,,,,,,,,,,,,,,,,,,,,,,,,,,,,,,,,,,,,,,,,,,,,,,,,,,,,,,
,,,,,,,,,,stimuli/images/PICTURE_215.png,PLENTY,5e510d0760dd0913e45370dc,07/11/1954,2020-07-09_22h13.10.755,proactive,2020.1.2,Win32,60,5f073de81c76c3308c0e4fb3,5f078846422aa73aa2d99ac6,3,,,,,,boot,,,,,,0,53,53,37,1,4,0,,,,,,,,,,,,,,,,,,,,,,,,,,,,,,,,,,,,,,,,,,,,,,,,,,,,,,,,,,,,,,,,,,,,,,,,,,,
,,,,,,,,,,stimuli/images/PICTURE_744.png,SYSTEM,5e510d0760dd0913e45370dc,07/11/1954,2020-07-09_22h13.10.755,proactive,2020.1.2,Win32,60,5f073de81c76c3308c0e4fb3,5f078846422aa73aa2d99ac6,3,,,,,,ring,,,,,,0,54,54,43,1,5,0,,,,,,,,,,,,,,,,,,,,,,,,,,,,,,,,,,,,,,,,,,,,,,,,,,,,,,,,,,,,,,,,,,,,,,,,,,,
,,,,,,,,,,stimuli/images/PICTURE_95.png,STYLE,5e510d0760dd0913e45370dc,07/11/1954,2020-07-09_22h13.10.755,proactive,2020.1.2,Win32,60,5f073de81c76c3308c0e4fb3,5f078846422aa73aa2d99ac6,3,,,,,,suitcase,,,,,,0,55,55,25,1,3,0,,,,,,,,,,,,,,,,,,,,,,,,,,,,,,,,,,,,,,,,,,,,,,,,,,,,,,,,,,,,,,,,,,,,,,,,,,,
,,,,,,,,,,stimuli/images/PICTURE_469.png,LETTER,5e510d0760dd0913e45370dc,07/11/1954,2020-07-09_22h13.10.755,proactive,2020.1.2,Win32,60,5f073de81c76c3308c0e4fb3,5f078846422aa73aa2d99ac6,3,,,,,,stool,,,,,,0,56,56,42,1,5,0,,,,,,,,,,,,,,,,,,,,,,,,,,,,,,,,,,,,,,,,,,,,,,,,,,,,,,,,,,,,,,,,,,,,,,,,,,,
,,,,,,,,,,stimuli/images/PICTURE_348.png,SPEECH,5e510d0760dd0913e45370dc,07/11/1954,2020-07-09_22h13.10.755,proactive,2020.1.2,Win32,60,5f073de81c76c3308c0e4fb3,5f078846422aa73aa2d99ac6,3,,,,,,pepper,,,,,,0,57,57,20,1,3,0,,,,,,,,,,,,,,,,,,,,,,,,,,,,,,,,,,,,,,,,,,,,,,,,,,,,,,,,,,,,,,,,,,,,,,,,,,,
,,,,,,,,,,stimuli/images/PICTURE_314.png,SAKE,5e510d0760dd0913e45370dc,07/11/1954,2020-07-09_22h13.10.755,proactive,2020.1.2,Win32,60,5f073de81c76c3308c0e4fb3,5f078846422aa73aa2d99ac6,3,,,,,,perfume,,,,,,0,58,58,7,1,1,0,,,,,,,,,,,,,,,,,,,,,,,,,,,,,,,,,,,,,,,,,,,,,,,,,,,,,,,,,,,,,,,,,,,,,,,,,,,
,,?,0.002,0,,,,,,stimuli/images/PICTURE_311.png,BEAUTY,5e510d0760dd0913e45370dc,07/11/1954,2020-07-09_22h13.10.755,proactive,2020.1.2,Win32,60,5f073de81c76c3308c0e4fb3,5f078846422aa73aa2d99ac6,3,,,,,,razor,,,,,,,,,,,2,0,0,0,0,13,1,,,,,,,,,,,,,,,,,,,,,,,,,,,,,,,,,,,,,,,,,,,,,,,,,,,,,,,,,,,,,,,,,,,,,,
,,DEMON,5.77,0,,,,,,stimuli/images/PICTURE_255.png,AREA,5e510d0760dd0913e45370dc,07/11/1954,2020-07-09_22h13.10.755,proactive,2020.1.2,Win32,60,5f073de81c76c3308c0e4fb3,5f078846422aa73aa2d99ac6,3,,,,,,shovel,,,,,,,,,,,3,0,0,1,1,22,1,,,,,,,,,,,,,,,,,,,,,,,,,,,,,,,,,,,,,,,,,,,,,,,,,,,,,,,,,,,,,,,,,,,,,,
,,?,0.006,0,,,,,,stimuli/images/PICTURE_327.png,BEAUTY,5e510d0760dd0913e45370dc,07/11/1954,2020-07-09_22h13.10.755,proactive,2020.1.2,Win32,60,5f073de81c76c3308c0e4fb3,5f078846422aa73aa2d99ac6,3,,,,,,helmet,,,,,,,,,,,5,0,0,2,2,48,1,,,,,,,,,,,,,,,,,,,,,,,,,,,,,,,,,,,,,,,,,,,,,,,,,,,,,,,,,,,,,,,,,,,,,,
,,?,0.001,0,,,,,,stimuli/images/PICTURE_356.png,DANGER,5e510d0760dd0913e45370dc,07/11/1954,2020-07-09_22h13.10.755,proactive,2020.1.2,Win32,60,5f073de81c76c3308c0e4fb3,5f078846422aa73aa2d99ac6,3,,,,,,pawn,,,,,,,,,,,6,0,0,3,3,55,1,,,,,,,,,,,,,,,,,,,,,,,,,,,,,,,,,,,,,,,,,,,,,,,,,,,,,,,,,,,,,,,,,,,,,,
,,?,0.002,0,,,,,,stimuli/images/PICTURE_677.png,MILE,5e510d0760dd0913e45370dc,07/11/1954,2020-07-09_22h13.10.755,proactive,2020.1.2,Win32,60,5f073de81c76c3308c0e4fb3,5f078846422aa73aa2d99ac6,3,,,,,,map,,,,,,,,,,,4,0,0,4,4,30,1,,,,,,,,,,,,,,,,,,,,,,,,,,,,,,,,,,,,,,,,,,,,,,,,,,,,,,,,,,,,,,,,,,,,,,
,,?,0.001,0,,,,,,stimuli/images/PICTURE_675.png,WEAPON,5e510d0760dd0913e45370dc,07/11/1954,2020-07-09_22h13.10.755,proactive,2020.1.2,Win32,60,5f073de81c76c3308c0e4fb3,5f078846422aa73aa2d99ac6,3,,,,,,windmill,,,,,,,,,,,4,0,0,5,5,32,1,,,,,,,,,,,,,,,,,,,,,,,,,,,,,,,,,,,,,,,,,,,,,,,,,,,,,,,,,,,,,,,,,,,,,,
,,?,0.001,0,,,,,,stimuli/images/PICTURE_314.png,GODS,5e510d0760dd0913e45370dc,07/11/1954,2020-07-09_22h13.10.755,proactive,2020.1.2,Win32,60,5f073de81c76c3308c0e4fb3,5f078846422aa73aa2d99ac6,3,,,,,,perfume,,,,,,,,,,,2,0,0,6,6,11,1,,,,,,,,,,,,,,,,,,,,,,,,,,,,,,,,,,,,,,,,,,,,,,,,,,,,,,,,,,,,,,,,,,,,,,
,,?,0.004,0,,,,,,stimuli/images/PICTURE_339.png,PLENTY,5e510d0760dd0913e45370dc,07/11/1954,2020-07-09_22h13.10.755,proactive,2020.1.2,Win32,60,5f073de81c76c3308c0e4fb3,5f078846422aa73aa2d99ac6,3,,,,,,backpack,,,,,,,,,,,1,0,0,7,7,0,1,,,,,,,,,,,,,,,,,,,,,,,,,,,,,,,,,,,,,,,,,,,,,,,,,,,,,,,,,,,,,,,,,,,,,,
,,?,0.002,0,,,,,,stimuli/images/PICTURE_470.png,CASINO,5e510d0760dd0913e45370dc,07/11/1954,2020-07-09_22h13.10.755,proactive,2020.1.2,Win32,60,5f073de81c76c3308c0e4fb3,5f078846422aa73aa2d99ac6,3,,,,,,motorbike,,,,,,,,,,,4,0,0,8,8,36,1,,,,,,,,,,,,,,,,,,,,,,,,,,,,,,,,,,,,,,,,,,,,,,,,,,,,,,,,,,,,,,,,,,,,,,
,,?,0.001,0,,,,,,stimuli/images/PICTURE_688.png,CASINO,5e510d0760dd0913e45370dc,07/11/1954,2020-07-09_22h13.10.755,proactive,2020.1.2,Win32,60,5f073de81c76c3308c0e4fb3,5f078846422aa73aa2d99ac6,3,,,,,,runner,,,,,,,,,,,1,0,0,9,9,2,1,,,,,,,,,,,,,,,,,,,,,,,,,,,,,,,,,,,,,,,,,,,,,,,,,,,,,,,,,,,,,,,,,,,,,,
,,ARTIST,4.657,1,,,,,,stimuli/images/PICTURE_203.png,ARTIST,5e510d0760dd0913e45370dc,07/11/1954,2020-07-09_22h13.10.755,proactive,2020.1.2,Win32,60,5f073de81c76c3308c0e4fb3,5f078846422aa73aa2d99ac6,3,,,,,,cap,,,,,,,,,,,3,0,0,10,10,26,1,,,,,,,,,,,,,,,,,,,,,,,,,,,,,,,,,,,,,,,,,,,,,,,,,,,,,,,,,,,,,,,,,,,,,,
,,?,0.005,0,,,,,,stimuli/images/PICTURE_68.png,MILE,5e510d0760dd0913e45370dc,07/11/1954,2020-07-09_22h13.10.755,proactive,2020.1.2,Win32,60,5f073de81c76c3308c0e4fb3,5f078846422aa73aa2d99ac6,3,,,,,,candle,,,,,,,,,,,5,0,0,11,11,44,1,,,,,,,,,,,,,,,,,,,,,,,,,,,,,,,,,,,,,,,,,,,,,,,,,,,,,,,,,,,,,,,,,,,,,,
,,?,0.002,0,,,,,,stimuli/images/PICTURE_147.png,MOMENT,5e510d0760dd0913e45370dc,07/11/1954,2020-07-09_22h13.10.755,proactive,2020.1.2,Win32,60,5f073de81c76c3308c0e4fb3,5f078846422aa73aa2d99ac6,3,,,,,,hanger,,,,,,,,,,,6,0,0,12,12,51,1,,,,,,,,,,,,,,,,,,,,,,,,,,,,,,,,,,,,,,,,,,,,,,,,,,,,,,,,,,,,,,,,,,,,,,
,,?,0.002,0,,,,,,stimuli/images/PICTURE_208.png,THING,5e510d0760dd0913e45370dc,07/11/1954,2020-07-09_22h13.10.755,proactive,2020.1.2,Win32,60,5f073de81c76c3308c0e4fb3,5f078846422aa73aa2d99ac6,3,,,,,,microphone,,,,,,,,,,,5,0,0,13,13,47,1,,,,,,,,,,,,,,,,,,,,,,,,,,,,,,,,,,,,,,,,,,,,,,,,,,,,,,,,,,,,,,,,,,,,,,
,,?,0,0,,,,,,stimuli/images/PICTURE_123.png,ADVICE,5e510d0760dd0913e45370dc,07/11/1954,2020-07-09_22h13.10.755,proactive,2020.1.2,Win32,60,5f073de81c76c3308c0e4fb3,5f078846422aa73aa2d99ac6,3,,,,,,dart,,,,,,,,,,,6,0,0,14,14,50,1,,,,,,,,,,,,,,,,,,,,,,,,,,,,,,,,,,,,,,,,,,,,,,,,,,,,,,,,,,,,,,,,,,,,,,
,,?,0.002,0,,,,,,stimuli/images/PICTURE_491.png,WRITER,5e510d0760dd0913e45370dc,07/11/1954,2020-07-09_22h13.10.755,proactive,2020.1.2,Win32,60,5f073de81c76c3308c0e4fb3,5f078846422aa73aa2d99ac6,3,,,,,,rug,,,,,,,,,,,6,0,0,15,15,57,1,,,,,,,,,,,,,,,,,,,,,,,,,,,,,,,,,,,,,,,,,,,,,,,,,,,,,,,,,,,,,,,,,,,,,,
,,?,0.001,0,,,,,,stimuli/images/PICTURE_488.png,STYLE,5e510d0760dd0913e45370dc,07/11/1954,2020-07-09_22h13.10.755,proactive,2020.1.2,Win32,60,5f073de81c76c3308c0e4fb3,5f078846422aa73aa2d99ac6,3,,,,,,sun,,,,,,,,,,,4,0,0,16,16,33,1,,,,,,,,,,,,,,,,,,,,,,,,,,,,,,,,,,,,,,,,,,,,,,,,,,,,,,,,,,,,,,,,,,,,,,
,,?,0.001,0,,,,,,stimuli/images/PICTURE_285.png,ADVICE,5e510d0760dd0913e45370dc,07/11/1954,2020-07-09_22h13.10.755,proactive,2020.1.2,Win32,60,5f073de81c76c3308c0e4fb3,5f078846422aa73aa2d99ac6,3,,,,,,carrot,,,,,,,,,,,2,0,0,17,17,12,1,,,,,,,,,,,,,,,,,,,,,,,,,,,,,,,,,,,,,,,,,,,,,,,,,,,,,,,,,,,,,,,,,,,,,,
,,SHAKE,8.704,0,,,,,,stimuli/images/PICTURE_233.png,IDEAS,5e510d0760dd0913e45370dc,07/11/1954,2020-07-09_22h13.10.755,proactive,2020.1.2,Win32,60,5f073de81c76c3308c0e4fb3,5f078846422aa73aa2d99ac6,3,,,,,,salt,,,,,,,,,,,3,0,0,18,18,28,1,,,,,,,,,,,,,,,,,,,,,,,,,,,,,,,,,,,,,,,,,,,,,,,,,,,,,,,,,,,,,,,,,,,,,,
,,?,0.003,0,,,,,,stimuli/images/PICTURE_248.png,DOZEN,5e510d0760dd0913e45370dc,07/11/1954,2020-07-09_22h13.10.755,proactive,2020.1.2,Win32,60,5f073de81c76c3308c0e4fb3,5f078846422aa73aa2d99ac6,3,,,,,,cart,,,,,,,,,,,4,0,0,19,19,39,1,,,,,,,,,,,,,,,,,,,,,,,,,,,,,,,,,,,,,,,,,,,,,,,,,,,,,,,,,,,,,,,,,,,,,,
,,?,0,0,,,,,,stimuli/images/PICTURE_160.png,LEADER,5e510d0760dd0913e45370dc,07/11/1954,2020-07-09_22h13.10.755,proactive,2020.1.2,Win32,60,5f073de81c76c3308c0e4fb3,5f078846422aa73aa2d99ac6,3,,,,,,wheelbarrow,,,,,,,,,,,1,0,0,20,20,3,1,,,,,,,,,,,,,,,,,,,,,,,,,,,,,,,,,,,,,,,,,,,,,,,,,,,,,,,,,,,,,,,,,,,,,,
,,?,0,0,,,,,,stimuli/images/PICTURE_667.png,BATH,5e510d0760dd0913e45370dc,07/11/1954,2020-07-09_22h13.10.755,proactive,2020.1.2,Win32,60,5f073de81c76c3308c0e4fb3,5f078846422aa73aa2d99ac6,3,,,,,,daisy,,,,,,,,,,,1,0,0,21,21,4,1,,,,,,,,,,,,,,,,,,,,,,,,,,,,,,,,,,,,,,,,,,,,,,,,,,,,,,,,,,,,,,,,,,,,,,
,,?,0.001,0,,,,,,stimuli/images/PICTURE_32.png,JUNGLE,5e510d0760dd0913e45370dc,07/11/1954,2020-07-09_22h13.10.755,proactive,2020.1.2,Win32,60,5f073de81c76c3308c0e4fb3,5f078846422aa73aa2d99ac6,3,,,,,,crown,,,,,,,,,,,5,0,0,22,22,45,1,,,,,,,,,,,,,,,,,,,,,,,,,,,,,,,,,,,,,,,,,,,,,,,,,,,,,,,,,,,,,,,,,,,,,,
,,?,0,0,,,,,,stimuli/images/PICTURE_688.png,WOMEN,5e510d0760dd0913e45370dc,07/11/1954,2020-07-09_22h13.10.755,proactive,2020.1.2,Win32,60,5f073de81c76c3308c0e4fb3,5f078846422aa73aa2d99ac6,3,,,,,,runner,,,,,,,,,,,2,0,0,23,23,14,1,,,,,,,,,,,,,,,,,,,,,,,,,,,,,,,,,,,,,,,,,,,,,,,,,,,,,,,,,,,,,,,,,,,,,,
,,YARD,5.217,1,,,,,,stimuli/images/PICTURE_708.png,YARD,5e510d0760dd0913e45370dc,07/11/1954,2020-07-09_22h13.10.755,proactive,2020.1.2,Win32,60,5f073de81c76c3308c0e4fb3,5f078846422aa73aa2d99ac6,3,,,,,,monkey,,,,,,,,,,,3,0,0,24,24,29,1,,,,,,,,,,,,,,,,,,,,,,,,,,,,,,,,,,,,,,,,,,,,,,,,,,,,,,,,,,,,,,,,,,,,,,
,,?,0.003,0,,,,,,stimuli/images/PICTURE_449.png,THING,5e510d0760dd0913e45370dc,07/11/1954,2020-07-09_22h13.10.755,proactive,2020.1.2,Win32,60,5f073de81c76c3308c0e4fb3,5f078846422aa73aa2d99ac6,3,,,,,,bench,,,,,,,,,,,6,0,0,25,25,59,1,,,,,,,,,,,,,,,,,,,,,,,,,,,,,,,,,,,,,,,,,,,,,,,,,,,,,,,,,,,,,,,,,,,,,,
,,?,0,0,,,,,,stimuli/images/PICTURE_744.png,SYSTEM,5e510d0760dd0913e45370dc,07/11/1954,2020-07-09_22h13.10.755,proactive,2020.1.2,Win32,60,5f073de81c76c3308c0e4fb3,5f078846422aa73aa2d99ac6,3,,,,,,ring,,,,,,,,,,,5,0,0,26,26,43,1,,,,,,,,,,,,,,,,,,,,,,,,,,,,,,,,,,,,,,,,,,,,,,,,,,,,,,,,,,,,,,,,,,,,,,
,,STYLE,3.588,1,,,,,,stimuli/images/PICTURE_95.png,STYLE,5e510d0760dd0913e45370dc,07/11/1954,2020-07-09_22h13.10.755,proactive,2020.1.2,Win32,60,5f073de81c76c3308c0e4fb3,5f078846422aa73aa2d99ac6,3,,,,,,suitcase,,,,,,,,,,,3,0,0,27,27,25,1,,,,,,,,,,,,,,,,,,,,,,,,,,,,,,,,,,,,,,,,,,,,,,,,,,,,,,,,,,,,,,,,,,,,,,
,,?,0.006,0,,,,,,stimuli/images/PICTURE_308.png,ESTATE,5e510d0760dd0913e45370dc,07/11/1954,2020-07-09_22h13.10.755,proactive,2020.1.2,Win32,60,5f073de81c76c3308c0e4fb3,5f078846422aa73aa2d99ac6,3,,,,,,dice,,,,,,,,,,,5,0,0,28,28,46,1,,,,,,,,,,,,,,,,,,,,,,,,,,,,,,,,,,,,,,,,,,,,,,,,,,,,,,,,,,,,,,,,,,,,,,
,,?,0.001,0,,,,,,stimuli/images/PICTURE_123.png,ADVICE,5e510d0760dd0913e45370dc,07/11/1954,2020-07-09_22h13.10.755,proactive,2020.1.2,Win32,60,5f073de81c76c3308c0e4fb3,5f078846422aa73aa2d99ac6,3,,,,,,dart,,,,,,,,,,,5,0,0,29,29,40,1,,,,,,,,,,,,,,,,,,,,,,,,,,,,,,,,,,,,,,,,,,,,,,,,,,,,,,,,,,,,,,,,,,,,,,
,,?,0.001,0,,,,,,stimuli/images/PICTURE_744.png,SAKE,5e510d0760dd0913e45370dc,07/11/1954,2020-07-09_22h13.10.755,proactive,2020.1.2,Win32,60,5f073de81c76c3308c0e4fb3,5f078846422aa73aa2d99ac6,3,,,,,,ring,,,,,,,,,,,2,0,0,30,30,17,1,,,,,,,,,,,,,,,,,,,,,,,,,,,,,,,,,,,,,,,,,,,,,,,,,,,,,,,,,,,,,,,,,,,,,,
,,?,0.001,0,,,,,,stimuli/images/PICTURE_692.png,MONTH,5e510d0760dd0913e45370dc,07/11/1954,2020-07-09_22h13.10.755,proactive,2020.1.2,Win32,60,5f073de81c76c3308c0e4fb3,5f078846422aa73aa2d99ac6,3,,,,,,cherry,,,,,,,,,,,2,0,0,31,31,16,1,,,,,,,,,,,,,,,,,,,,,,,,,,,,,,,,,,,,,,,,,,,,,,,,,,,,,,,,,,,,,,,,,,,,,,
,,?,0.001,0,,,,,,stimuli/images/PICTURE_667.png,PLENTY,5e510d0760dd0913e45370dc,07/11/1954,2020-07-09_22h13.10.755,proactive,2020.1.2,Win32,60,5f073de81c76c3308c0e4fb3,5f078846422aa73aa2d99ac6,3,,,,,,daisy,,,,,,,,,,,5,0,0,32,32,41,1,,,,,,,,,,,,,,,,,,,,,,,,,,,,,,,,,,,,,,,,,,,,,,,,,,,,,,,,,,,,,,,,,,,,,,
,,,6.08,0,,,,,,stimuli/images/PICTURE_348.png,SPEECH,5e510d0760dd0913e45370dc,07/11/1954,2020-07-09_22h13.10.755,proactive,2020.1.2,Win32,60,5f073de81c76c3308c0e4fb3,5f078846422aa73aa2d99ac6,3,,,,,,pepper,,,,,,,,,,,3,0,0,33,33,20,1,,,,,,,,,,,,,,,,,,,,,,,,,,,,,,,,,,,,,,,,,,,,,,,,,,,,,,,,,,,,,,,,,,,,,,
,,?,0.004,0,,,,,,stimuli/images/PICTURE_453.png,PLENTY,5e510d0760dd0913e45370dc,07/11/1954,2020-07-09_22h13.10.755,proactive,2020.1.2,Win32,60,5f073de81c76c3308c0e4fb3,5f078846422aa73aa2d99ac6,3,,,,,,scissors,,,,,,,,,,,6,0,0,34,34,56,1,,,,,,,,,,,,,,,,,,,,,,,,,,,,,,,,,,,,,,,,,,,,,,,,,,,,,,,,,,,,,,,,,,,,,,
,,?,0.001,0,,,,,,stimuli/images/PICTURE_469.png,LETTER,5e510d0760dd0913e45370dc,07/11/1954,2020-07-09_22h13.10.755,proactive,2020.1.2,Win32,60,5f073de81c76c3308c0e4fb3,5f078846422aa73aa2d99ac6,3,,,,,,stool,,,,,,,,,,,5,0,0,35,35,42,1,,,,,,,,,,,,,,,,,,,,,,,,,,,,,,,,,,,,,,,,,,,,,,,,,,,,,,,,,,,,,,,,,,,,,,
,,?,0.001,0,,,,,,stimuli/images/PICTURE_654.png,VALLEY,5e510d0760dd0913e45370dc,07/11/1954,2020-07-09_22h13.10.755,proactive,2020.1.2,Win32,60,5f073de81c76c3308c0e4fb3,5f078846422aa73aa2d99ac6,3,,,,,,pencil,,,,,,,,,,,1,0,0,36,36,1,1,,,,,,,,,,,,,,,,,,,,,,,,,,,,,,,,,,,,,,,,,,,,,,,,,,,,,,,,,,,,,,,,,,,,,,
,,DUDE,3.47,1,,,,,,stimuli/images/PICTURE_453.png,DUDE,5e510d0760dd0913e45370dc,07/11/1954,2020-07-09_22h13.10.755,proactive,2020.1.2,Win32,60,5f073de81c76c3308c0e4fb3,5f078846422aa73aa2d99ac6,3,,,,,,scissors,,,,,,,,,,,3,0,0,37,37,27,1,,,,,,,,,,,,,,,,,,,,,,,,,,,,,,,,,,,,,,,,,,,,,,,,,,,,,,,,,,,,,,,,,,,,,,
,,?,0.005,0,,,,,,stimuli/images/PICTURE_380.png,DEATH,5e510d0760dd0913e45370dc,07/11/1954,2020-07-09_22h13.10.755,proactive,2020.1.2,Win32,60,5f073de81c76c3308c0e4fb3,5f078846422aa73aa2d99ac6,3,,,,,,gorilla,,,,,,,,,,,5,0,0,38,38,49,1,,,,,,,,,,,,,,,,,,,,,,,,,,,,,,,,,,,,,,,,,,,,,,,,,,,,,,,,,,,,,,,,,,,,,,
,,?,0.001,0,,,,,,stimuli/images/PICTURE_308.png,KIND,5e510d0760dd0913e45370dc,07/11/1954,2020-07-09_22h13.10.755,proactive,2020.1.2,Win32,60,5f073de81c76c3308c0e4fb3,5f078846422aa73aa2d99ac6,3,,,,,,dice,,,,,,,,,,,6,0,0,39,39,54,1,,,,,,,,,,,,,,,,,,,,,,,,,,,,,,,,,,,,,,,,,,,,,,,,,,,,,,,,,,,,,,,,,,,,,,
,,?,0.001,0,,,,,,stimuli/images/PICTURE_380.png,PHOTO,5e510d0760dd0913e45370dc,07/11/1954,2020-07-09_22h13.10.755,proactive,2020.1.2,Win32,60,5f073de81c76c3308c0e4fb3,5f078846422aa73aa2d99ac6,3,,,,,,gorilla,,,,,,,,,,,6,0,0,40,40,52,1,,,,,,,,,,,,,,,,,,,,,,,,,,,,,,,,,,,,,,,,,,,,,,,,,,,,,,,,,,,,,,,,,,,,,,
,,?,0.001,0,,,,,,stimuli/images/PICTURE_487.png,FLIGHT,5e510d0760dd0913e45370dc,07/11/1954,2020-07-09_22h13.10.755,proactive,2020.1.2,Win32,60,5f073de81c76c3308c0e4fb3,5f078846422aa73aa2d99ac6,3,,,,,,basket,,,,,,,,,,,1,0,0,41,41,9,1,,,,,,,,,,,,,,,,,,,,,,,,,,,,,,,,,,,,,,,,,,,,,,,,,,,,,,,,,,,,,,,,,,,,,,
,,?,0,0,,,,,,stimuli/images/PICTURE_151.png,GIRL,5e510d0760dd0913e45370dc,07/11/1954,2020-07-09_22h13.10.755,proactive,2020.1.2,Win32,60,5f073de81c76c3308c0e4fb3,5f078846422aa73aa2d99ac6,3,,,,,,tray,,,,,,,,,,,2,0,0,42,42,19,1,,,,,,,,,,,,,,,,,,,,,,,,,,,,,,,,,,,,,,,,,,,,,,,,,,,,,,,,,,,,,,,,,,,,,,
,,?,0.005,0,,,,,,stimuli/images/PICTURE_208.png,LOTS,5e510d0760dd0913e45370dc,07/11/1954,2020-07-09_22h13.10.755,proactive,2020.1.2,Win32,60,5f073de81c76c3308c0e4fb3,5f078846422aa73aa2d99ac6,3,,,,,,microphone,,,,,,,,,,,2,0,0,43,43,10,1,,,,,,,,,,,,,,,,,,,,,,,,,,,,,,,,,,,,,,,,,,,,,,,,,,,,,,,,,,,,,,,,,,,,,,
,,PHOTO,4.727,1,,,,,,stimuli/images/PICTURE_509.png,PHOTO,5e510d0760dd0913e45370dc,07/11/1954,2020-07-09_22h13.10.755,proactive,2020.1.2,Win32,60,5f073de81c76c3308c0e4fb3,5f078846422aa73aa2d99ac6,3,,,,,,telephone,,,,,,,,,,,3,0,0,44,44,21,1,,,,,,,,,,,,,,,,,,,,,,,,,,,,,,,,,,,,,,,,,,,,,,,,,,,,,,,,,,,,,,,,,,,,,,
,,?,0.004,0,,,,,,stimuli/images/PICTURE_708.png,CLIENT,5e510d0760dd0913e45370dc,07/11/1954,2020-07-09_22h13.10.755,proactive,2020.1.2,Win32,60,5f073de81c76c3308c0e4fb3,5f078846422aa73aa2d99ac6,3,,,,,,monkey,,,,,,,,,,,1,0,0,45,45,5,1,,,,,,,,,,,,,,,,,,,,,,,,,,,,,,,,,,,,,,,,,,,,,,,,,,,,,,,,,,,,,,,,,,,,,,
,,?,0,0,,,,,,stimuli/images/PICTURE_85.png,THING,5e510d0760dd0913e45370dc,07/11/1954,2020-07-09_22h13.10.755,proactive,2020.1.2,Win32,60,5f073de81c76c3308c0e4fb3,5f078846422aa73aa2d99ac6,3,,,,,,diamond,,,,,,,,,,,2,0,0,46,46,15,1,,,,,,,,,,,,,,,,,,,,,,,,,,,,,,,,,,,,,,,,,,,,,,,,,,,,,,,,,,,,,,,,,,,,,,
,,?,0,0,,,,,,stimuli/images/PICTURE_215.png,PLENTY,5e510d0760dd0913e45370dc,07/11/1954,2020-07-09_22h13.10.755,proactive,2020.1.2,Win32,60,5f073de81c76c3308c0e4fb3,5f078846422aa73aa2d99ac6,3,,,,,,boot,,,,,,,,,,,4,0,0,47,47,37,1,,,,,,,,,,,,,,,,,,,,,,,,,,,,,,,,,,,,,,,,,,,,,,,,,,,,,,,,,,,,,,,,,,,,,,
,,?,0.001,0,,,,,,stimuli/images/PICTURE_302.png,FAMILY,5e510d0760dd0913e45370dc,07/11/1954,2020-07-09_22h13.10.755,proactive,2020.1.2,Win32,60,5f073de81c76c3308c0e4fb3,5f078846422aa73aa2d99ac6,3,,,,,,taxi,,,,,,,,,,,2,0,0,48,48,18,1,,,,,,,,,,,,,,,,,,,,,,,,,,,,,,,,,,,,,,,,,,,,,,,,,,,,,,,,,,,,,,,,,,,,,,
,,ROOF,2.75,1,,,,,,stimuli/images/PICTURE_491.png,ROOF,5e510d0760dd0913e45370dc,07/11/1954,2020-07-09_22h13.10.755,proactive,2020.1.2,Win32,60,5f073de81c76c3308c0e4fb3,5f078846422aa73aa2d99ac6,3,,,,,,rug,,,,,,,,,,,3,0,0,49,49,24,1,,,,,,,,,,,,,,,,,,,,,,,,,,,,,,,,,,,,,,,,,,,,,,,,,,,,,,,,,,,,,,,,,,,,,,
,,?,0.004,0,,,,,,stimuli/images/PICTURE_504.png,BODY,5e510d0760dd0913e45370dc,07/11/1954,2020-07-09_22h13.10.755,proactive,2020.1.2,Win32,60,5f073de81c76c3308c0e4fb3,5f078846422aa73aa2d99ac6,3,,,,,,wheel,,,,,,,,,,,1,0,0,50,50,8,1,,,,,,,,,,,,,,,,,,,,,,,,,,,,,,,,,,,,,,,,,,,,,,,,,,,,,,,,,,,,,,,,,,,,,,
,,?,0.001,0,,,,,,stimuli/images/PICTURE_160.png,FEET,5e510d0760dd0913e45370dc,07/11/1954,2020-07-09_22h13.10.755,proactive,2020.1.2,Win32,60,5f073de81c76c3308c0e4fb3,5f078846422aa73aa2d99ac6,3,,,,,,wheelbarrow,,,,,,,,,,,6,0,0,51,51,58,1,,,,,,,,,,,,,,,,,,,,,,,,,,,,,,,,,,,,,,,,,,,,,,,,,,,,,,,,,,,,,,,,,,,,,,
,,?,0.001,0,,,,,,stimuli/images/PICTURE_469.png,ARTIST,5e510d0760dd0913e45370dc,07/11/1954,2020-07-09_22h13.10.755,proactive,2020.1.2,Win32,60,5f073de81c76c3308c0e4fb3,5f078846422aa73aa2d99ac6,3,,,,,,stool,,,,,,,,,,,1,0,0,52,52,6,1,,,,,,,,,,,,,,,,,,,,,,,,,,,,,,,,,,,,,,,,,,,,,,,,,,,,,,,,,,,,,,,,,,,,,,
,,?,0.001,0,,,,,,stimuli/images/PICTURE_314.png,SAKE,5e510d0760dd0913e45370dc,07/11/1954,2020-07-09_22h13.10.755,proactive,2020.1.2,Win32,60,5f073de81c76c3308c0e4fb3,5f078846422aa73aa2d99ac6,3,,,,,,perfume,,,,,,,,,,,1,0,0,53,53,7,1,,,,,,,,,,,,,,,,,,,,,,,,,,,,,,,,,,,,,,,,,,,,,,,,,,,,,,,,,,,,,,,,,,,,,,
,,?,0.001,0,,,,,,stimuli/images/PICTURE_233.png,WOMEN,5e510d0760dd0913e45370dc,07/11/1954,2020-07-09_22h13.10.755,proactive,2020.1.2,Win32,60,5f073de81c76c3308c0e4fb3,5f078846422aa73aa2d99ac6,3,,,,,,salt,,,,,,,,,,,4,0,0,54,54,38,1,,,,,,,,,,,,,,,,,,,,,,,,,,,,,,,,,,,,,,,,,,,,,,,,,,,,,,,,,,,,,,,,,,,,,,
,,?,0.003,0,,,,,,stimuli/images/PICTURE_208.png,MONTH,5e510d0760dd0913e45370dc,07/11/1954,2020-07-09_22h13.10.755,proactive,2020.1.2,Win32,60,5f073de81c76c3308c0e4fb3,5f078846422aa73aa2d99ac6,3,,,,,,microphone,,,,,,,,,,,6,0,0,55,55,53,1,,,,,,,,,,,,,,,,,,,,,,,,,,,,,,,,,,,,,,,,,,,,,,,,,,,,,,,,,,,,,,,,,,,,,,
,,?,0.001,0,,,,,,stimuli/images/PICTURE_311.png,FRIEND,5e510d0760dd0913e45370dc,07/11/1954,2020-07-09_22h13.10.755,proactive,2020.1.2,Win32,60,5f073de81c76c3308c0e4fb3,5f078846422aa73aa2d99ac6,3,,,,,,razor,,,,,,,,,,,4,0,0,56,56,34,1,,,,,,,,,,,,,,,,,,,,,,,,,,,,,,,,,,,,,,,,,,,,,,,,,,,,,,,,,,,,,,,,,,,,,,
,,?,0,0,,,,,,stimuli/images/PICTURE_708.png,PENNY,5e510d0760dd0913e45370dc,07/11/1954,2020-07-09_22h13.10.755,proactive,2020.1.2,Win32,60,5f073de81c76c3308c0e4fb3,5f078846422aa73aa2d99ac6,3,,,,,,monkey,,,,,,,,,,,4,0,0,57,57,31,1,,,,,,,,,,,,,,,,,,,,,,,,,,,,,,,,,,,,,,,,,,,,,,,,,,,,,,,,,,,,,,,,,,,,,,
,,?,0,0,,,,,,stimuli/images/PICTURE_177.png,CARS,5e510d0760dd0913e45370dc,07/11/1954,2020-07-09_22h13.10.755,proactive,2020.1.2,Win32,60,5f073de81c76c3308c0e4fb3,5f078846422aa73aa2d99ac6,3,,,,,,mushroom,,,,,,,,,,,4,0,0,58,58,35,1,,,,,,,,,,,,,,,,,,,,,,,,,,,,,,,,,,,,,,,,,,,,,,,,,,,,,,,,,,,,,,,,,,,,,,
,,DEMON,3.123,1,,,,,,stimuli/images/PICTURE_467.png,DEMON,5e510d0760dd0913e45370dc,07/11/1954,2020-07-09_22h13.10.755,proactive,2020.1.2,Win32,60,5f073de81c76c3308c0e4fb3,5f078846422aa73aa2d99ac6,3,,,,,,peg,,,,,,,,,,,3,0,0,59,59,23,1,,,,,,,,,,,,,,,,,,,,,,,,,,,,,,,,,,,,,,,,,,,,,,,,,,,,,,,,,,,,,,,,,,,,,,
,,,,,,,,,,,,5e510d0760dd0913e45370dc,07/11/1954,2020-07-09_22h13.10.755,proactive,2020.1.2,Win32,60,5f073de81c76c3308c0e4fb3,5f078846422aa73aa2d99ac6,3,,,,,,,,,,,,,,,,,,,,,,,,0,0,0,0,1,stimuli/learn-block1.csv,,,,,,,,,,,,,,,,,,,,,,,,,,,,,,,,,,,,,,,,,,,,,,,,,,,,,,,,,,,,,,,,
,,,,,,,,,,stimuli/images/PICTURE_147.png,WOMEN,5e510d0760dd0913e45370dc,07/11/1954,2020-07-09_22h13.10.755,proactive,2020.1.2,Win32,60,5f073de81c76c3308c0e4fb3,5f078846422aa73aa2d99ac6,3,,,,,,hanger,,,,,,0,0,0,7,1,1,1,,,,,,,,,,,,,,,,,,,,,,,,,,,,,,,,,,,,,,,,,,,,,,,,,,,,,,,,,,,,,,,,,,,,,,,,,,,
,,,,,,,,,,stimuli/images/PICTURE_675.png,SALE,5e510d0760dd0913e45370dc,07/11/1954,2020-07-09_22h13.10.755,proactive,2020.1.2,Win32,60,5f073de81c76c3308c0e4fb3,5f078846422aa73aa2d99ac6,3,,,,,,windmill,,,,,,0,1,1,47,1,5,1,,,,,,,,,,,,,,,,,,,,,,,,,,,,,,,,,,,,,,,,,,,,,,,,,,,,,,,,,,,,,,,,,,,,,,,,,,,
,,,,,,,,,,stimuli/images/PICTURE_95.png,BOYS,5e510d0760dd0913e45370dc,07/11/1954,2020-07-09_22h13.10.755,proactive,2020.1.2,Win32,60,5f073de81c76c3308c0e4fb3,5f078846422aa73aa2d99ac6,3,,,,,,suitcase,,,,,,0,2,2,1,1,1,1,,,,,,,,,,,,,,,,,,,,,,,,,,,,,,,,,,,,,,,,,,,,,,,,,,,,,,,,,,,,,,,,,,,,,,,,,,,
,,,,,,,,,,stimuli/images/PICTURE_33.png,FRIEND,5e510d0760dd0913e45370dc,07/11/1954,2020-07-09_22h13.10.755,proactive,2020.1.2,Win32,60,5f073de81c76c3308c0e4fb3,5f078846422aa73aa2d99ac6,3,,,,,,frame,,,,,,0,3,3,8,1,1,1,,,,,,,,,,,,,,,,,,,,,,,,,,,,,,,,,,,,,,,,,,,,,,,,,,,,,,,,,,,,,,,,,,,,,,,,,,,
,,,,,,,,,,stimuli/images/PICTURE_655.png,TOILET,5e510d0760dd0913e45370dc,07/11/1954,2020-07-09_22h13.10.755,proactive,2020.1.2,Win32,60,5f073de81c76c3308c0e4fb3,5f078846422aa73aa2d99ac6,3,,,,,,megaphone,,,,,,0,4,4,12,1,2,1,,,,,,,,,,,,,,,,,,,,,,,,,,,,,,,,,,,,,,,,,,,,,,,,,,,,,,,,,,,,,,,,,,,,,,,,,,,
,,,,,,,,,,stimuli/images/PICTURE_667.png,RIVER,5e510d0760dd0913e45370dc,07/11/1954,2020-07-09_22h13.10.755,proactive,2020.1.2,Win32,60,5f073de81c76c3308c0e4fb3,5f078846422aa73aa2d99ac6,3,,,,,,daisy,,,,,,0,5,5,10,1,2,1,,,,,,,,,,,,,,,,,,,,,,,,,,,,,,,,,,,,,,,,,,,,,,,,,,,,,,,,,,,,,,,,,,,,,,,,,,,
,,,,,,,,,,stimuli/images/PICTURE_296.png,LOTS,5e510d0760dd0913e45370dc,07/11/1954,2020-07-09_22h13.10.755,proactive,2020.1.2,Win32,60,5f073de81c76c3308c0e4fb3,5f078846422aa73aa2d99ac6,3,,,,,,bolt,,,,,,0,6,6,9,1,1,1,,,,,,,,,,,,,,,,,,,,,,,,,,,,,,,,,,,,,,,,,,,,,,,,,,,,,,,,,,,,,,,,,,,,,,,,,,,
,,,,,,,,,,stimuli/images/PICTURE_68.png,MILE,5e510d0760dd0913e45370dc,07/11/1954,2020-07-09_22h13.10.755,proactive,2020.1.2,Win32,60,5f073de81c76c3308c0e4fb3,5f078846422aa73aa2d99ac6,3,,,,,,candle,,,,,,0,7,7,51,1,6,1,,,,,,,,,,,,,,,,,,,,,,,,,,,,,,,,,,,,,,,,,,,,,,,,,,,,,,,,,,,,,,,,,,,,,,,,,,,
,,,,,,,,,,stimuli/images/PICTURE_42.png,BOYS,5e510d0760dd0913e45370dc,07/11/1954,2020-07-09_22h13.10.755,proactive,2020.1.2,Win32,60,5f073de81c76c3308c0e4fb3,5f078846422aa73aa2d99ac6,3,,,,,,pear,,,,,,0,8,8,55,1,6,1,,,,,,,,,,,,,,,,,,,,,,,,,,,,,,,,,,,,,,,,,,,,,,,,,,,,,,,,,,,,,,,,,,,,,,,,,,,
,,,,,,,,,,stimuli/images/PICTURE_487.png,GIRL,5e510d0760dd0913e45370dc,07/11/1954,2020-07-09_22h13.10.755,proactive,2020.1.2,Win32,60,5f073de81c76c3308c0e4fb3,5f078846422aa73aa2d99ac6,3,,,,,,basket,,,,,,0,9,9,45,1,5,1,,,,,,,,,,,,,,,,,,,,,,,,,,,,,,,,,,,,,,,,,,,,,,,,,,,,,,,,,,,,,,,,,,,,,,,,,,,
,,,,,,,,,,stimuli/images/PICTURE_449.png,DUDE,5e510d0760dd0913e45370dc,07/11/1954,2020-07-09_22h13.10.755,proactive,2020.1.2,Win32,60,5f073de81c76c3308c0e4fb3,5f078846422aa73aa2d99ac6,3,,,,,,bench,,,,,,0,10,10,17,1,2,1,,,,,,,,,,,,,,,,,,,,,,,,,,,,,,,,,,,,,,,,,,,,,,,,,,,,,,,,,,,,,,,,,,,,,,,,,,,
,,,,,,,,,,stimuli/images/PICTURE_308.png,FAMILY,5e510d0760dd0913e45370dc,07/11/1954,2020-07-09_22h13.10.755,proactive,2020.1.2,Win32,60,5f073de81c76c3308c0e4fb3,5f078846422aa73aa2d99ac6,3,,,,,,dice,,,,,,0,11,11,36,1,4,1,,,,,,,,,,,,,,,,,,,,,,,,,,,,,,,,,,,,,,,,,,,,,,,,,,,,,,,,,,,,,,,,,,,,,,,,,,,
,,,,,,,,,,stimuli/images/PICTURE_677.png,APPLE,5e510d0760dd0913e45370dc,07/11/1954,2020-07-09_22h13.10.755,proactive,2020.1.2,Win32,60,5f073de81c76c3308c0e4fb3,5f078846422aa73aa2d99ac6,3,,,,,,map,,,,,,0,12,12,43,1,5,1,,,,,,,,,,,,,,,,,,,,,,,,,,,,,,,,,,,,,,,,,,,,,,,,,,,,,,,,,,,,,,,,,,,,,,,,,,,
,,,,,,,,,,stimuli/images/PICTURE_95.png,MILLER,5e510d0760dd0913e45370dc,07/11/1954,2020-07-09_22h13.10.755,proactive,2020.1.2,Win32,60,5f073de81c76c3308c0e4fb3,5f078846422aa73aa2d99ac6,3,,,,,,suitcase,,,,,,0,13,13,56,1,6,1,,,,,,,,,,,,,,,,,,,,,,,,,,,,,,,,,,,,,,,,,,,,,,,,,,,,,,,,,,,,,,,,,,,,,,,,,,,
,,,,,,,,,,stimuli/images/PICTURE_203.png,GODS,5e510d0760dd0913e45370dc,07/11/1954,2020-07-09_22h13.10.755,proactive,2020.1.2,Win32,60,5f073de81c76c3308c0e4fb3,5f078846422aa73aa2d99ac6,3,,,,,,cap,,,,,,0,14,14,30,1,4,1,,,,,,,,,,,,,,,,,,,,,,,,,,,,,,,,,,,,,,,,,,,,,,,,,,,,,,,,,,,,,,,,,,,,,,,,,,,
,,,,,,,,,,stimuli/images/PICTURE_469.png,AGENT,5e510d0760dd0913e45370dc,07/11/1954,2020-07-09_22h13.10.755,proactive,2020.1.2,Win32,60,5f073de81c76c3308c0e4fb3,5f078846422aa73aa2d99ac6,3,,,,,,stool,,,,,,0,15,15,16,1,2,1,,,,,,,,,,,,,,,,,,,,,,,,,,,,,,,,,,,,,,,,,,,,,,,,,,,,,,,,,,,,,,,,,,,,,,,,,,,
,,,,,,,,,,stimuli/images/PICTURE_285.png,LIFE,5e510d0760dd0913e45370dc,07/11/1954,2020-07-09_22h13.10.755,proactive,2020.1.2,Win32,60,5f073de81c76c3308c0e4fb3,5f078846422aa73aa2d99ac6,3,,,,,,carrot,,,,,,0,16,16,33,1,4,1,,,,,,,,,,,,,,,,,,,,,,,,,,,,,,,,,,,,,,,,,,,,,,,,,,,,,,,,,,,,,,,,,,,,,,,,,,,
,,,,,,,,,,stimuli/images/PICTURE_327.png,CASINO,5e510d0760dd0913e45370dc,07/11/1954,2020-07-09_22h13.10.755,proactive,2020.1.2,Win32,60,5f073de81c76c3308c0e4fb3,5f078846422aa73aa2d99ac6,3,,,,,,helmet,,,,,,0,17,17,20,1,3,1,,,,,,,,,,,,,,,,,,,,,,,,,,,,,,,,,,,,,,,,,,,,,,,,,,,,,,,,,,,,,,,,,,,,,,,,,,,
,,,,,,,,,,stimuli/images/PICTURE_203.png,NIGHT,5e510d0760dd0913e45370dc,07/11/1954,2020-07-09_22h13.10.755,proactive,2020.1.2,Win32,60,5f073de81c76c3308c0e4fb3,5f078846422aa73aa2d99ac6,3,,,,,,cap,,,,,,0,18,18,2,1,1,1,,,,,,,,,,,,,,,,,,,,,,,,,,,,,,,,,,,,,,,,,,,,,,,,,,,,,,,,,,,,,,,,,,,,,,,,,,,
,,,,,,,,,,stimuli/images/PICTURE_380.png,HONEY,5e510d0760dd0913e45370dc,07/11/1954,2020-07-09_22h13.10.755,proactive,2020.1.2,Win32,60,5f073de81c76c3308c0e4fb3,5f078846422aa73aa2d99ac6,3,,,,,,gorilla,,,,,,0,19,19,19,1,2,1,,,,,,,,,,,,,,,,,,,,,,,,,,,,,,,,,,,,,,,,,,,,,,,,,,,,,,,,,,,,,,,,,,,,,,,,,,,
,,,,,,,,,,stimuli/images/PICTURE_685.png,PENNY,5e510d0760dd0913e45370dc,07/11/1954,2020-07-09_22h13.10.755,proactive,2020.1.2,Win32,60,5f073de81c76c3308c0e4fb3,5f078846422aa73aa2d99ac6,3,,,,,,goose,,,,,,0,20,20,4,1,1,1,,,,,,,,,,,,,,,,,,,,,,,,,,,,,,,,,,,,,,,,,,,,,,,,,,,,,,,,,,,,,,,,,,,,,,,,,,,
,,,,,,,,,,stimuli/images/PICTURE_405.png,YEAR,5e510d0760dd0913e45370dc,07/11/1954,2020-07-09_22h13.10.755,proactive,2020.1.2,Win32,60,5f073de81c76c3308c0e4fb3,5f078846422aa73aa2d99ac6,3,,,,,,anchor,,,,,,0,21,21,34,1,4,1,,,,,,,,,,,,,,,,,,,,,,,,,,,,,,,,,,,,,,,,,,,,,,,,,,,,,,,,,,,,,,,,,,,,,,,,,,,
,,,,,,,,,,stimuli/images/PICTURE_57.png,MOMENT,5e510d0760dd0913e45370dc,07/11/1954,2020-07-09_22h13.10.755,proactive,2020.1.2,Win32,60,5f073de81c76c3308c0e4fb3,5f078846422aa73aa2d99ac6,3,,,,,,stamp,,,,,,0,22,22,37,1,4,1,,,,,,,,,,,,,,,,,,,,,,,,,,,,,,,,,,,,,,,,,,,,,,,,,,,,,,,,,,,,,,,,,,,,,,,,,,,
,,,,,,,,,,stimuli/images/PICTURE_177.png,WRITER,5e510d0760dd0913e45370dc,07/11/1954,2020-07-09_22h13.10.755,proactive,2020.1.2,Win32,60,5f073de81c76c3308c0e4fb3,5f078846422aa73aa2d99ac6,3,,,,,,mushroom,,,,,,0,23,23,41,1,5,1,,,,,,,,,,,,,,,,,,,,,,,,,,,,,,,,,,,,,,,,,,,,,,,,,,,,,,,,,,,,,,,,,,,,,,,,,,,
,,,,,,,,,,stimuli/images/PICTURE_403.png,TOILET,5e510d0760dd0913e45370dc,07/11/1954,2020-07-09_22h13.10.755,proactive,2020.1.2,Win32,60,5f073de81c76c3308c0e4fb3,5f078846422aa73aa2d99ac6,3,,,,,,cathedral,,,,,,0,24,24,25,1,3,1,,,,,,,,,,,,,,,,,,,,,,,,,,,,,,,,,,,,,,,,,,,,,,,,,,,,,,,,,,,,,,,,,,,,,,,,,,,
,,,,,,,,,,stimuli/images/PICTURE_405.png,PLENTY,5e510d0760dd0913e45370dc,07/11/1954,2020-07-09_22h13.10.755,proactive,2020.1.2,Win32,60,5f073de81c76c3308c0e4fb3,5f078846422aa73aa2d99ac6,3,,,,,,anchor,,,,,,0,25,25,23,1,3,1,,,,,,,,,,,,,,,,,,,,,,,,,,,,,,,,,,,,,,,,,,,,,,,,,,,,,,,,,,,,,,,,,,,,,,,,,,,
,,,,,,,,,,stimuli/images/PICTURE_467.png,POLICY,5e510d0760dd0913e45370dc,07/11/1954,2020-07-09_22h13.10.755,proactive,2020.1.2,Win32,60,5f073de81c76c3308c0e4fb3,5f078846422aa73aa2d99ac6,3,,,,,,peg,,,,,,0,26,26,53,1,6,1,,,,,,,,,,,,,,,,,,,,,,,,,,,,,,,,,,,,,,,,,,,,,,,,,,,,,,,,,,,,,,,,,,,,,,,,,,,
,,,,,,,,,,stimuli/images/PICTURE_208.png,SYSTEM,5e510d0760dd0913e45370dc,07/11/1954,2020-07-09_22h13.10.755,proactive,2020.1.2,Win32,60,5f073de81c76c3308c0e4fb3,5f078846422aa73aa2d99ac6,3,,,,,,microphone,,,,,,0,27,27,32,1,4,1,,,,,,,,,,,,,,,,,,,,,,,,,,,,,,,,,,,,,,,,,,,,,,,,,,,,,,,,,,,,,,,,,,,,,,,,,,,
,,,,,,,,,,stimuli/images/PICTURE_654.png,MONTH,5e510d0760dd0913e45370dc,07/11/1954,2020-07-09_22h13.10.755,proactive,2020.1.2,Win32,60,5f073de81c76c3308c0e4fb3,5f078846422aa73aa2d99ac6,3,,,,,,pencil,,,,,,0,28,28,29,1,3,1,,,,,,,,,,,,,,,,,,,,,,,,,,,,,,,,,,,,,,,,,,,,,,,,,,,,,,,,,,,,,,,,,,,,,,,,,,,
,,,,,,,,,,stimuli/images/PICTURE_85.png,NATION,5e510d0760dd0913e45370dc,07/11/1954,2020-07-09_22h13.10.755,proactive,2020.1.2,Win32,60,5f073de81c76c3308c0e4fb3,5f078846422aa73aa2d99ac6,3,,,,,,diamond,,,,,,0,29,29,5,1,1,1,,,,,,,,,,,,,,,,,,,,,,,,,,,,,,,,,,,,,,,,,,,,,,,,,,,,,,,,,,,,,,,,,,,,,,,,,,,
,,,,,,,,,,stimuli/images/PICTURE_383.png,WRITER,5e510d0760dd0913e45370dc,07/11/1954,2020-07-09_22h13.10.755,proactive,2020.1.2,Win32,60,5f073de81c76c3308c0e4fb3,5f078846422aa73aa2d99ac6,3,,,,,,coin,,,,,,0,30,30,28,1,3,1,,,,,,,,,,,,,,,,,,,,,,,,,,,,,,,,,,,,,,,,,,,,,,,,,,,,,,,,,,,,,,,,,,,,,,,,,,,
,,,,,,,,,,stimuli/images/PICTURE_233.png,LOTS,5e510d0760dd0913e45370dc,07/11/1954,2020-07-09_22h13.10.755,proactive,2020.1.2,Win32,60,5f073de81c76c3308c0e4fb3,5f078846422aa73aa2d99ac6,3,,,,,,salt,,,,,,0,31,31,42,1,5,1,,,,,,,,,,,,,,,,,,,,,,,,,,,,,,,,,,,,,,,,,,,,,,,,,,,,,,,,,,,,,,,,,,,,,,,,,,,
,,,,,,,,,,stimuli/images/PICTURE_504.png,YEAR,5e510d0760dd0913e45370dc,07/11/1954,2020-07-09_22h13.10.755,proactive,2020.1.2,Win32,60,5f073de81c76c3308c0e4fb3,5f078846422aa73aa2d99ac6,3,,,,,,wheel,,,,,,0,32,32,13,1,2,1,,,,,,,,,,,,,,,,,,,,,,,,,,,,,,,,,,,,,,,,,,,,,,,,,,,,,,,,,,,,,,,,,,,,,,,,,,,
,,,,,,,,,,stimuli/images/PICTURE_403.png,WRITER,5e510d0760dd0913e45370dc,07/11/1954,2020-07-09_22h13.10.755,proactive,2020.1.2,Win32,60,5f073de81c76c3308c0e4fb3,5f078846422aa73aa2d99ac6,3,,,,,,cathedral,,,,,,0,33,33,31,1,4,1,,,,,,,,,,,,,,,,,,,,,,,,,,,,,,,,,,,,,,,,,,,,,,,,,,,,,,,,,,,,,,,,,,,,,,,,,,,
,,,,,,,,,,stimuli/images/PICTURE_147.png,YEAR,5e510d0760dd0913e45370dc,07/11/1954,2020-07-09_22h13.10.755,proactive,2020.1.2,Win32,60,5f073de81c76c3308c0e4fb3,5f078846422aa73aa2d99ac6,3,,,,,,hanger,,,,,,0,34,34,21,1,3,1,,,,,,,,,,,,,,,,,,,,,,,,,,,,,,,,,,,,,,,,,,,,,,,,,,,,,,,,,,,,,,,,,,,,,,,,,,,
,,,,,,,,,,stimuli/images/PICTURE_491.png,GLASS,5e510d0760dd0913e45370dc,07/11/1954,2020-07-09_22h13.10.755,proactive,2020.1.2,Win32,60,5f073de81c76c3308c0e4fb3,5f078846422aa73aa2d99ac6,3,,,,,,rug,,,,,,0,35,35,14,1,2,1,,,,,,,,,,,,,,,,,,,,,,,,,,,,,,,,,,,,,,,,,,,,,,,,,,,,,,,,,,,,,,,,,,,,,,,,,,,
,,,,,,,,,,stimuli/images/PICTURE_564.png,BATH,5e510d0760dd0913e45370dc,07/11/1954,2020-07-09_22h13.10.755,proactive,2020.1.2,Win32,60,5f073de81c76c3308c0e4fb3,5f078846422aa73aa2d99ac6,3,,,,,,spoon,,,,,,0,36,36,26,1,3,1,,,,,,,,,,,,,,,,,,,,,,,,,,,,,,,,,,,,,,,,,,,,,,,,,,,,,,,,,,,,,,,,,,,,,,,,,,,
,,,,,,,,,,stimuli/images/PICTURE_339.png,CLIENT,5e510d0760dd0913e45370dc,07/11/1954,2020-07-09_22h13.10.755,proactive,2020.1.2,Win32,60,5f073de81c76c3308c0e4fb3,5f078846422aa73aa2d99ac6,3,,,,,,backpack,,,,,,0,37,37,11,1,2,1,,,,,,,,,,,,,,,,,,,,,,,,,,,,,,,,,,,,,,,,,,,,,,,,,,,,,,,,,,,,,,,,,,,,,,,,,,,
,,,,,,,,,,stimuli/images/PICTURE_383.png,SERIES,5e510d0760dd0913e45370dc,07/11/1954,2020-07-09_22h13.10.755,proactive,2020.1.2,Win32,60,5f073de81c76c3308c0e4fb3,5f078846422aa73aa2d99ac6,3,,,,,,coin,,,,,,0,38,38,46,1,5,1,,,,,,,,,,,,,,,,,,,,,,,,,,,,,,,,,,,,,,,,,,,,,,,,,,,,,,,,,,,,,,,,,,,,,,,,,,,
,,,,,,,,,,stimuli/images/PICTURE_32.png,PILLS,5e510d0760dd0913e45370dc,07/11/1954,2020-07-09_22h13.10.755,proactive,2020.1.2,Win32,60,5f073de81c76c3308c0e4fb3,5f078846422aa73aa2d99ac6,3,,,,,,crown,,,,,,0,39,39,18,1,2,1,,,,,,,,,,,,,,,,,,,,,,,,,,,,,,,,,,,,,,,,,,,,,,,,,,,,,,,,,,,,,,,,,,,,,,,,,,,
,,,,,,,,,,stimuli/images/PICTURE_340.png,VALLEY,5e510d0760dd0913e45370dc,07/11/1954,2020-07-09_22h13.10.755,proactive,2020.1.2,Win32,60,5f073de81c76c3308c0e4fb3,5f078846422aa73aa2d99ac6,3,,,,,,mirror,,,,,,0,40,40,54,1,6,1,,,,,,,,,,,,,,,,,,,,,,,,,,,,,,,,,,,,,,,,,,,,,,,,,,,,,,,,,,,,,,,,,,,,,,,,,,,
,,,,,,,,,,stimuli/images/PICTURE_85.png,TOILET,5e510d0760dd0913e45370dc,07/11/1954,2020-07-09_22h13.10.755,proactive,2020.1.2,Win32,60,5f073de81c76c3308c0e4fb3,5f078846422aa73aa2d99ac6,3,,,,,,diamond,,,,,,0,41,41,48,1,5,1,,,,,,,,,,,,,,,,,,,,,,,,,,,,,,,,,,,,,,,,,,,,,,,,,,,,,,,,,,,,,,,,,,,,,,,,,,,
,,,,,,,,,,stimuli/images/PICTURE_68.png,ROOF,5e510d0760dd0913e45370dc,07/11/1954,2020-07-09_22h13.10.755,proactive,2020.1.2,Win32,60,5f073de81c76c3308c0e4fb3,5f078846422aa73aa2d99ac6,3,,,,,,candle,,,,,,0,42,42,38,1,4,1,,,,,,,,,,,,,,,,,,,,,,,,,,,,,,,,,,,,,,,,,,,,,,,,,,,,,,,,,,,,,,,,,,,,,,,,,,,
,,,,,,,,,,stimuli/images/PICTURE_744.png,WEAPON,5e510d0760dd0913e45370dc,07/11/1954,2020-07-09_22h13.10.755,proactive,2020.1.2,Win32,60,5f073de81c76c3308c0e4fb3,5f078846422aa73aa2d99ac6,3,,,,,,ring,,,,,,0,43,43,50,1,6,1,,,,,,,,,,,,,,,,,,,,,,,,,,,,,,,,,,,,,,,,,,,,,,,,,,,,,,,,,,,,,,,,,,,,,,,,,,,
,,,,,,,,,,stimuli/images/PICTURE_504.png,COPS,5e510d0760dd0913e45370dc,07/11/1954,2020-07-09_22h13.10.755,proactive,2020.1.2,Win32,60,5f073de81c76c3308c0e4fb3,5f078846422aa73aa2d99ac6,3,,,,,,wheel,,,,,,0,44,44,52,1,6,1,,,,,,,,,,,,,,,,,,,,,,,,,,,,,,,,,,,,,,,,,,,,,,,,,,,,,,,,,,,,,,,,,,,,,,,,,,,
,,,,,,,,,,stimuli/images/PICTURE_327.png,SERIES,5e510d0760dd0913e45370dc,07/11/1954,2020-07-09_22h13.10.755,proactive,2020.1.2,Win32,60,5f073de81c76c3308c0e4fb3,5f078846422aa73aa2d99ac6,3,,,,,,helmet,,,,,,0,45,45,3,1,1,1,,,,,,,,,,,,,,,,,,,,,,,,,,,,,,,,,,,,,,,,,,,,,,,,,,,,,,,,,,,,,,,,,,,,,,,,,,,
,,,,,,,,,,stimuli/images/PICTURE_750.png,HOTEL,5e510d0760dd0913e45370dc,07/11/1954,2020-07-09_22h13.10.755,proactive,2020.1.2,Win32,60,5f073de81c76c3308c0e4fb3,5f078846422aa73aa2d99ac6,3,,,,,,kettle,,,,,,0,46,46,27,1,3,1,,,,,,,,,,,,,,,,,,,,,,,,,,,,,,,,,,,,,,,,,,,,,,,,,,,,,,,,,,,,,,,,,,,,,,,,,,,
,,,,,,,,,,stimuli/images/PICTURE_504.png,ARTIST,5e510d0760dd0913e45370dc,07/11/1954,2020-07-09_22h13.10.755,proactive,2020.1.2,Win32,60,5f073de81c76c3308c0e4fb3,5f078846422aa73aa2d99ac6,3,,,,,,wheel,,,,,,0,47,47,49,1,5,1,,,,,,,,,,,,,,,,,,,,,,,,,,,,,,,,,,,,,,,,,,,,,,,,,,,,,,,,,,,,,,,,,,,,,,,,,,,
,,,,,,,,,,stimuli/images/PICTURE_708.png,RECORD,5e510d0760dd0913e45370dc,07/11/1954,2020-07-09_22h13.10.755,proactive,2020.1.2,Win32,60,5f073de81c76c3308c0e4fb3,5f078846422aa73aa2d99ac6,3,,,,,,monkey,,,,,,0,48,48,58,1,6,1,,,,,,,,,,,,,,,,,,,,,,,,,,,,,,,,,,,,,,,,,,,,,,,,,,,,,,,,,,,,,,,,,,,,,,,,,,,
,,,,,,,,,,stimuli/images/PICTURE_108.png,FLIGHT,5e510d0760dd0913e45370dc,07/11/1954,2020-07-09_22h13.10.755,proactive,2020.1.2,Win32,60,5f073de81c76c3308c0e4fb3,5f078846422aa73aa2d99ac6,3,,,,,,calendar,,,,,,0,49,49,59,1,6,1,,,,,,,,,,,,,,,,,,,,,,,,,,,,,,,,,,,,,,,,,,,,,,,,,,,,,,,,,,,,,,,,,,,,,,,,,,,
,,,,,,,,,,stimuli/images/PICTURE_32.png,KIND,5e510d0760dd0913e45370dc,07/11/1954,2020-07-09_22h13.10.755,proactive,2020.1.2,Win32,60,5f073de81c76c3308c0e4fb3,5f078846422aa73aa2d99ac6,3,,,,,,crown,,,,,,0,50,50,35,1,4,1,,,,,,,,,,,,,,,,,,,,,,,,,,,,,,,,,,,,,,,,,,,,,,,,,,,,,,,,,,,,,,,,,,,,,,,,,,,
,,,,,,,,,,stimuli/images/PICTURE_108.png,POLICY,5e510d0760dd0913e45370dc,07/11/1954,2020-07-09_22h13.10.755,proactive,2020.1.2,Win32,60,5f073de81c76c3308c0e4fb3,5f078846422aa73aa2d99ac6,3,,,,,,calendar,,,,,,0,51,51,22,1,3,1,,,,,,,,,,,,,,,,,,,,,,,,,,,,,,,,,,,,,,,,,,,,,,,,,,,,,,,,,,,,,,,,,,,,,,,,,,,
,,,,,,,,,,stimuli/images/PICTURE_296.png,LIFE,5e510d0760dd0913e45370dc,07/11/1954,2020-07-09_22h13.10.755,proactive,2020.1.2,Win32,60,5f073de81c76c3308c0e4fb3,5f078846422aa73aa2d99ac6,3,,,,,,bolt,,,,,,0,52,52,57,1,6,1,,,,,,,,,,,,,,,,,,,,,,,,,,,,,,,,,,,,,,,,,,,,,,,,,,,,,,,,,,,,,,,,,,,,,,,,,,,
,,,,,,,,,,stimuli/images/PICTURE_340.png,LETTER,5e510d0760dd0913e45370dc,07/11/1954,2020-07-09_22h13.10.755,proactive,2020.1.2,Win32,60,5f073de81c76c3308c0e4fb3,5f078846422aa73aa2d99ac6,3,,,,,,mirror,,,,,,0,53,53,24,1,3,1,,,,,,,,,,,,,,,,,,,,,,,,,,,,,,,,,,,,,,,,,,,,,,,,,,,,,,,,,,,,,,,,,,,,,,,,,,,
,,,,,,,,,,stimuli/images/PICTURE_297.png,RIVER,5e510d0760dd0913e45370dc,07/11/1954,2020-07-09_22h13.10.755,proactive,2020.1.2,Win32,60,5f073de81c76c3308c0e4fb3,5f078846422aa73aa2d99ac6,3,,,,,,aeroplane,,,,,,0,54,54,39,1,4,1,,,,,,,,,,,,,,,,,,,,,,,,,,,,,,,,,,,,,,,,,,,,,,,,,,,,,,,,,,,,,,,,,,,,,,,,,,,
,,,,,,,,,,stimuli/images/PICTURE_491.png,RIVER,5e510d0760dd0913e45370dc,07/11/1954,2020-07-09_22h13.10.755,proactive,2020.1.2,Win32,60,5f073de81c76c3308c0e4fb3,5f078846422aa73aa2d99ac6,3,,,,,,rug,,,,,,0,55,55,6,1,1,1,,,,,,,,,,,,,,,,,,,,,,,,,,,,,,,,,,,,,,,,,,,,,,,,,,,,,,,,,,,,,,,,,,,,,,,,,,,
,,,,,,,,,,stimuli/images/PICTURE_403.png,RIVER,5e510d0760dd0913e45370dc,07/11/1954,2020-07-09_22h13.10.755,proactive,2020.1.2,Win32,60,5f073de81c76c3308c0e4fb3,5f078846422aa73aa2d99ac6,3,,,,,,cathedral,,,,,,0,56,56,40,1,5,1,,,,,,,,,,,,,,,,,,,,,,,,,,,,,,,,,,,,,,,,,,,,,,,,,,,,,,,,,,,,,,,,,,,,,,,,,,,
,,,,,,,,,,stimuli/images/PICTURE_2.png,FLIGHT,5e510d0760dd0913e45370dc,07/11/1954,2020-07-09_22h13.10.755,proactive,2020.1.2,Win32,60,5f073de81c76c3308c0e4fb3,5f078846422aa73aa2d99ac6,3,,,,,,tyre,,,,,,0,57,57,15,1,2,1,,,,,,,,,,,,,,,,,,,,,,,,,,,,,,,,,,,,,,,,,,,,,,,,,,,,,,,,,,,,,,,,,,,,,,,,,,,
,,,,,,,,,,stimuli/images/PICTURE_380.png,CANDY,5e510d0760dd0913e45370dc,07/11/1954,2020-07-09_22h13.10.755,proactive,2020.1.2,Win32,60,5f073de81c76c3308c0e4fb3,5f078846422aa73aa2d99ac6,3,,,,,,gorilla,,,,,,0,58,58,0,1,1,1,,,,,,,,,,,,,,,,,,,,,,,,,,,,,,,,,,,,,,,,,,,,,,,,,,,,,,,,,,,,,,,,,,,,,,,,,,,
,,?,0.001,0,,,,,,stimuli/images/PICTURE_667.png,RIVER,5e510d0760dd0913e45370dc,07/11/1954,2020-07-09_22h13.10.755,proactive,2020.1.2,Win32,60,5f073de81c76c3308c0e4fb3,5f078846422aa73aa2d99ac6,3,,,,,,daisy,,,,,,,,,,,2,1,0,0,0,10,1,,,,,,,,,,,,,,,,,,,,,,,,,,,,,,,,,,,,,,,,,,,,,,,,,,,,,,,,,,,,,,,,,,,,,,
,,?,0.001,0,,,,,,stimuli/images/PICTURE_469.png,AGENT,5e510d0760dd0913e45370dc,07/11/1954,2020-07-09_22h13.10.755,proactive,2020.1.2,Win32,60,5f073de81c76c3308c0e4fb3,5f078846422aa73aa2d99ac6,3,,,,,,stool,,,,,,,,,,,2,1,0,1,1,16,1,,,,,,,,,,,,,,,,,,,,,,,,,,,,,,,,,,,,,,,,,,,,,,,,,,,,,,,,,,,,,,,,,,,,,,
,,?,0.001,0,,,,,,stimuli/images/PICTURE_203.png,GODS,5e510d0760dd0913e45370dc,07/11/1954,2020-07-09_22h13.10.755,proactive,2020.1.2,Win32,60,5f073de81c76c3308c0e4fb3,5f078846422aa73aa2d99ac6,3,,,,,,cap,,,,,,,,,,,4,1,0,2,2,30,1,,,,,,,,,,,,,,,,,,,,,,,,,,,,,,,,,,,,,,,,,,,,,,,,,,,,,,,,,,,,,,,,,,,,,,
,,?,0,0,,,,,,stimuli/images/PICTURE_203.png,NIGHT,5e510d0760dd0913e45370dc,07/11/1954,2020-07-09_22h13.10.755,proactive,2020.1.2,Win32,60,5f073de81c76c3308c0e4fb3,5f078846422aa73aa2d99ac6,3,,,,,,cap,,,,,,,,,,,1,1,0,3,3,2,1,,,,,,,,,,,,,,,,,,,,,,,,,,,,,,,,,,,,,,,,,,,,,,,,,,,,,,,,,,,,,,,,,,,,,,
,,?,0.001,0,,,,,,stimuli/images/PICTURE_449.png,DUDE,5e510d0760dd0913e45370dc,07/11/1954,2020-07-09_22h13.10.755,proactive,2020.1.2,Win32,60,5f073de81c76c3308c0e4fb3,5f078846422aa73aa2d99ac6,3,,,,,,bench,,,,,,,,,,,2,1,0,4,4,17,1,,,,,,,,,,,,,,,,,,,,,,,,,,,,,,,,,,,,,,,,,,,,,,,,,,,,,,,,,,,,,,,,,,,,,,
,,?,0.001,0,,,,,,stimuli/images/PICTURE_95.png,HONEY,5e510d0760dd0913e45370dc,07/11/1954,2020-07-09_22h13.10.755,proactive,2020.1.2,Win32,60,5f073de81c76c3308c0e4fb3,5f078846422aa73aa2d99ac6,3,,,,,,suitcase,,,,,,,,,,,5,1,0,5,5,44,1,,,,,,,,,,,,,,,,,,,,,,,,,,,,,,,,,,,,,,,,,,,,,,,,,,,,,,,,,,,,,,,,,,,,,,
,,?,0,0,,,,,,stimuli/images/PICTURE_403.png,RIVER,5e510d0760dd0913e45370dc,07/11/1954,2020-07-09_22h13.10.755,proactive,2020.1.2,Win32,60,5f073de81c76c3308c0e4fb3,5f078846422aa73aa2d99ac6,3,,,,,,cathedral,,,,,,,,,,,5,1,0,6,6,40,1,,,,,,,,,,,,,,,,,,,,,,,,,,,,,,,,,,,,,,,,,,,,,,,,,,,,,,,,,,,,,,,,,,,,,,
,,?,0,0,,,,,,stimuli/images/PICTURE_491.png,RIVER,5e510d0760dd0913e45370dc,07/11/1954,2020-07-09_22h13.10.755,proactive,2020.1.2,Win32,60,5f073de81c76c3308c0e4fb3,5f078846422aa73aa2d99ac6,3,,,,,,rug,,,,,,,,,,,1,1,0,7,7,6,1,,,,,,,,,,,,,,,,,,,,,,,,,,,,,,,,,,,,,,,,,,,,,,,,,,,,,,,,,,,,,,,,,,,,,,
,,BATH,5.183,0,,,,,,stimuli/images/PICTURE_383.png,WRITER,5e510d0760dd0913e45370dc,07/11/1954,2020-07-09_22h13.10.755,proactive,2020.1.2,Win32,60,5f073de81c76c3308c0e4fb3,5f078846422aa73aa2d99ac6,3,,,,,,coin,,,,,,,,,,,3,1,0,8,8,28,1,,,,,,,,,,,,,,,,,,,,,,,,,,,,,,,,,,,,,,,,,,,,,,,,,,,,,,,,,,,,,,,,,,,,,,
,,BATH,2.583,1,,,,,,stimuli/images/PICTURE_564.png,BATH,5e510d0760dd0913e45370dc,07/11/1954,2020-07-09_22h13.10.755,proactive,2020.1.2,Win32,60,5f073de81c76c3308c0e4fb3,5f078846422aa73aa2d99ac6,3,,,,,,spoon,,,,,,,,,,,3,1,0,9,9,26,1,,,,,,,,,,,,,,,,,,,,,,,,,,,,,,,,,,,,,,,,,,,,,,,,,,,,,,,,,,,,,,,,,,,,,,
,,CASINO,5.248,1,,,,,,stimuli/images/PICTURE_327.png,CASINO,5e510d0760dd0913e45370dc,07/11/1954,2020-07-09_22h13.10.755,proactive,2020.1.2,Win32,60,5f073de81c76c3308c0e4fb3,5f078846422aa73aa2d99ac6,3,,,,,,helmet,,,,,,,,,,,3,1,0,10,10,20,1,,,,,,,,,,,,,,,,,,,,,,,,,,,,,,,,,,,,,,,,,,,,,,,,,,,,,,,,,,,,,,,,,,,,,,
,,?,0.005,0,,,,,,stimuli/images/PICTURE_68.png,MILE,5e510d0760dd0913e45370dc,07/11/1954,2020-07-09_22h13.10.755,proactive,2020.1.2,Win32,60,5f073de81c76c3308c0e4fb3,5f078846422aa73aa2d99ac6,3,,,,,,candle,,,,,,,,,,,6,1,0,11,11,51,1,,,,,,,,,,,,,,,,,,,,,,,,,,,,,,,,,,,,,,,,,,,,,,,,,,,,,,,,,,,,,,,,,,,,,,
,,?,0,0,,,,,,stimuli/images/PICTURE_85.png,NATION,5e510d0760dd0913e45370dc,07/11/1954,2020-07-09_22h13.10.755,proactive,2020.1.2,Win32,60,5f073de81c76c3308c0e4fb3,5f078846422aa73aa2d99ac6,3,,,,,,diamond,,,,,,,,,,,1,1,0,12,12,5,1,,,,,,,,,,,,,,,,,,,,,,,,,,,,,,,,,,,,,,,,,,,,,,,,,,,,,,,,,,,,,,,,,,,,,,
,,HOTEL,3.338,1,,,,,,stimuli/images/PICTURE_750.png,HOTEL,5e510d0760dd0913e45370dc,07/11/1954,2020-07-09_22h13.10.755,proactive,2020.1.2,Win32,60,5f073de81c76c3308c0e4fb3,5f078846422aa73aa2d99ac6,3,,,,,,kettle,,,,,,,,,,,3,1,0,13,13,27,1,,,,,,,,,,,,,,,,,,,,,,,,,,,,,,,,,,,,,,,,,,,,,,,,,,,,,,,,,,,,,,,,,,,,,,
,,?,0.004,0,,,,,,stimuli/images/PICTURE_32.png,KIND,5e510d0760dd0913e45370dc,07/11/1954,2020-07-09_22h13.10.755,proactive,2020.1.2,Win32,60,5f073de81c76c3308c0e4fb3,5f078846422aa73aa2d99ac6,3,,,,,,crown,,,,,,,,,,,4,1,0,14,14,35,1,,,,,,,,,,,,,,,,,,,,,,,,,,,,,,,,,,,,,,,,,,,,,,,,,,,,,,,,,,,,,,,,,,,,,,
,,?,0,0,,,,,,stimuli/images/PICTURE_208.png,SYSTEM,5e510d0760dd0913e45370dc,07/11/1954,2020-07-09_22h13.10.755,proactive,2020.1.2,Win32,60,5f073de81c76c3308c0e4fb3,5f078846422aa73aa2d99ac6,3,,,,,,microphone,,,,,,,,,,,4,1,0,15,15,32,1,,,,,,,,,,,,,,,,,,,,,,,,,,,,,,,,,,,,,,,,,,,,,,,,,,,,,,,,,,,,,,,,,,,,,,
,,?,0,0,,,,,,stimuli/images/PICTURE_383.png,SERIES,5e510d0760dd0913e45370dc,07/11/1954,2020-07-09_22h13.10.755,proactive,2020.1.2,Win32,60,5f073de81c76c3308c0e4fb3,5f078846422aa73aa2d99ac6,3,,,,,,coin,,,,,,,,,,,5,1,0,16,16,46,1,,,,,,,,,,,,,,,,,,,,,,,,,,,,,,,,,,,,,,,,,,,,,,,,,,,,,,,,,,,,,,,,,,,,,,
,,?,0.001,0,,,,,,stimuli/images/PICTURE_68.png,ROOF,5e510d0760dd0913e45370dc,07/11/1954,2020-07-09_22h13.10.755,proactive,2020.1.2,Win32,60,5f073de81c76c3308c0e4fb3,5f078846422aa73aa2d99ac6,3,,,,,,candle,,,,,,,,,,,4,1,0,17,17,38,1,,,,,,,,,,,,,,,,,,,,,,,,,,,,,,,,,,,,,,,,,,,,,,,,,,,,,,,,,,,,,,,,,,,,,,
,,?,0,0,,,,,,stimuli/images/PICTURE_285.png,LIFE,5e510d0760dd0913e45370dc,07/11/1954,2020-07-09_22h13.10.755,proactive,2020.1.2,Win32,60,5f073de81c76c3308c0e4fb3,5f078846422aa73aa2d99ac6,3,,,,,,carrot,,,,,,,,,,,4,1,0,18,18,33,1,,,,,,,,,,,,,,,,,,,,,,,,,,,,,,,,,,,,,,,,,,,,,,,,,,,,,,,,,,,,,,,,,,,,,,
,,POLICY,3.583,1,,,,,,stimuli/images/PICTURE_108.png,POLICY,5e510d0760dd0913e45370dc,07/11/1954,2020-07-09_22h13.10.755,proactive,2020.1.2,Win32,60,5f073de81c76c3308c0e4fb3,5f078846422aa73aa2d99ac6,3,,,,,,calendar,,,,,,,,,,,3,1,0,19,19,22,1,,,,,,,,,,,,,,,,,,,,,,,,,,,,,,,,,,,,,,,,,,,,,,,,,,,,,,,,,,,,,,,,,,,,,,
,,?,0.003,0,,,,,,stimuli/images/PICTURE_2.png,FLIGHT,5e510d0760dd0913e45370dc,07/11/1954,2020-07-09_22h13.10.755,proactive,2020.1.2,Win32,60,5f073de81c76c3308c0e4fb3,5f078846422aa73aa2d99ac6,3,,,,,,tyre,,,,,,,,,,,2,1,0,20,20,15,1,,,,,,,,,,,,,,,,,,,,,,,,,,,,,,,,,,,,,,,,,,,,,,,,,,,,,,,,,,,,,,,,,,,,,,
,,?,0,0,,,,,,stimuli/images/PICTURE_147.png,WOMEN,5e510d0760dd0913e45370dc,07/11/1954,2020-07-09_22h13.10.755,proactive,2020.1.2,Win32,60,5f073de81c76c3308c0e4fb3,5f078846422aa73aa2d99ac6,3,,,,,,hanger,,,,,,,,,,,1,1,0,21,21,7,1,,,,,,,,,,,,,,,,,,,,,,,,,,,,,,,,,,,,,,,,,,,,,,,,,,,,,,,,,,,,,,,,,,,,,,
,,?,0.001,0,,,,,,stimuli/images/PICTURE_95.png,MILLER,5e510d0760dd0913e45370dc,07/11/1954,2020-07-09_22h13.10.755,proactive,2020.1.2,Win32,60,5f073de81c76c3308c0e4fb3,5f078846422aa73aa2d99ac6,3,,,,,,suitcase,,,,,,,,,,,6,1,0,22,22,56,1,,,,,,,,,,,,,,,,,,,,,,,,,,,,,,,,,,,,,,,,,,,,,,,,,,,,,,,,,,,,,,,,,,,,,,
,,?,0.001,0,,,,,,stimuli/images/PICTURE_32.png,PILLS,5e510d0760dd0913e45370dc,07/11/1954,2020-07-09_22h13.10.755,proactive,2020.1.2,Win32,60,5f073de81c76c3308c0e4fb3,5f078846422aa73aa2d99ac6,3,,,,,,crown,,,,,,,,,,,2,1,0,23,23,18,1,,,,,,,,,,,,,,,,,,,,,,,,,,,,,,,,,,,,,,,,,,,,,,,,,,,,,,,,,,,,,,,,,,,,,,
,,?,0.001,0,,,,,,stimuli/images/PICTURE_403.png,WRITER,5e510d0760dd0913e45370dc,07/11/1954,2020-07-09_22h13.10.755,proactive,2020.1.2,Win32,60,5f073de81c76c3308c0e4fb3,5f078846422aa73aa2d99ac6,3,,,,,,cathedral,,,,,,,,,,,4,1,0,24,24,31,1,,,,,,,,,,,,,,,,,,,,,,,,,,,,,,,,,,,,,,,,,,,,,,,,,,,,,,,,,,,,,,,,,,,,,,
,,?,0.003,0,,,,,,stimuli/images/PICTURE_405.png,YEAR,5e510d0760dd0913e45370dc,07/11/1954,2020-07-09_22h13.10.755,proactive,2020.1.2,Win32,60,5f073de81c76c3308c0e4fb3,5f078846422aa73aa2d99ac6,3,,,,,,anchor,,,,,,,,,,,4,1,0,25,25,34,1,,,,,,,,,,,,,,,,,,,,,,,,,,,,,,,,,,,,,,,,,,,,,,,,,,,,,,,,,,,,,,,,,,,,,,
,,?,0,0,,,,,,stimuli/images/PICTURE_504.png,COPS,5e510d0760dd0913e45370dc,07/11/1954,2020-07-09_22h13.10.755,proactive,2020.1.2,Win32,60,5f073de81c76c3308c0e4fb3,5f078846422aa73aa2d99ac6,3,,,,,,wheel,,,,,,,,,,,6,1,0,26,26,52,1,,,,,,,,,,,,,,,,,,,,,,,,,,,,,,,,,,,,,,,,,,,,,,,,,,,,,,,,,,,,,,,,,,,,,,
,,?,0.002,0,,,,,,stimuli/images/PICTURE_380.png,HONEY,5e510d0760dd0913e45370dc,07/11/1954,2020-07-09_22h13.10.755,proactive,2020.1.2,Win32,60,5f073de81c76c3308c0e4fb3,5f078846422aa73aa2d99ac6,3,,,,,,gorilla,,,,,,,,,,,2,1,0,27,27,19,1,,,,,,,,,,,,,,,,,,,,,,,,,,,,,,,,,,,,,,,,,,,,,,,,,,,,,,,,,,,,,,,,,,,,,,
,,?,0.001,0,,,,,,stimuli/images/PICTURE_57.png,MOMENT,5e510d0760dd0913e45370dc,07/11/1954,2020-07-09_22h13.10.755,proactive,2020.1.2,Win32,60,5f073de81c76c3308c0e4fb3,5f078846422aa73aa2d99ac6,3,,,,,,stamp,,,,,,,,,,,4,1,0,28,28,37,1,,,,,,,,,,,,,,,,,,,,,,,,,,,,,,,,,,,,,,,,,,,,,,,,,,,,,,,,,,,,,,,,,,,,,,
,,MONTH,5.64,1,,,,,,stimuli/images/PICTURE_654.png,MONTH,5e510d0760dd0913e45370dc,07/11/1954,2020-07-09_22h13.10.755,proactive,2020.1.2,Win32,60,5f073de81c76c3308c0e4fb3,5f078846422aa73aa2d99ac6,3,,,,,,pencil,,,,,,,,,,,3,1,0,29,29,29,1,,,,,,,,,,,,,,,,,,,,,,,,,,,,,,,,,,,,,,,,,,,,,,,,,,,,,,,,,,,,,,,,,,,,,,
,,?,0.006,0,,,,,,stimuli/images/PICTURE_339.png,CLIENT,5e510d0760dd0913e45370dc,07/11/1954,2020-07-09_22h13.10.755,proactive,2020.1.2,Win32,60,5f073de81c76c3308c0e4fb3,5f078846422aa73aa2d99ac6,3,,,,,,backpack,,,,,,,,,,,2,1,0,30,30,11,1,,,,,,,,,,,,,,,,,,,,,,,,,,,,,,,,,,,,,,,,,,,,,,,,,,,,,,,,,,,,,,,,,,,,,,
,,?,0.001,0,,,,,,stimuli/images/PICTURE_340.png,VALLEY,5e510d0760dd0913e45370dc,07/11/1954,2020-07-09_22h13.10.755,proactive,2020.1.2,Win32,60,5f073de81c76c3308c0e4fb3,5f078846422aa73aa2d99ac6,3,,,,,,mirror,,,,,,,,,,,6,1,0,31,31,54,1,,,,,,,,,,,,,,,,,,,,,,,,,,,,,,,,,,,,,,,,,,,,,,,,,,,,,,,,,,,,,,,,,,,,,,
,,TOILET,6.319,1,,,,,,stimuli/images/PICTURE_403.png,TOILET,5e510d0760dd0913e45370dc,07/11/1954,2020-07-09_22h13.10.755,proactive,2020.1.2,Win32,60,5f073de81c76c3308c0e4fb3,5f078846422aa73aa2d99ac6,3,,,,,,cathedral,,,,,,,,,,,3,1,0,32,32,25,1,,,,,,,,,,,,,,,,,,,,,,,,,,,,,,,,,,,,,,,,,,,,,,,,,,,,,,,,,,,,,,,,,,,,,,
,,?,0.004,0,,,,,,stimuli/images/PICTURE_233.png,LOTS,5e510d0760dd0913e45370dc,07/11/1954,2020-07-09_22h13.10.755,proactive,2020.1.2,Win32,60,5f073de81c76c3308c0e4fb3,5f078846422aa73aa2d99ac6,3,,,,,,salt,,,,,,,,,,,5,1,0,33,33,42,1,,,,,,,,,,,,,,,,,,,,,,,,,,,,,,,,,,,,,,,,,,,,,,,,,,,,,,,,,,,,,,,,,,,,,,
,,?,0.001,0,,,,,,stimuli/images/PICTURE_296.png,LIFE,5e510d0760dd0913e45370dc,07/11/1954,2020-07-09_22h13.10.755,proactive,2020.1.2,Win32,60,5f073de81c76c3308c0e4fb3,5f078846422aa73aa2d99ac6,3,,,,,,bolt,,,,,,,,,,,6,1,0,34,34,57,1,,,,,,,,,,,,,,,,,,,,,,,,,,,,,,,,,,,,,,,,,,,,,,,,,,,,,,,,,,,,,,,,,,,,,,
,,?,0,0,,,,,,stimuli/images/PICTURE_708.png,RECORD,5e510d0760dd0913e45370dc,07/11/1954,2020-07-09_22h13.10.755,proactive,2020.1.2,Win32,60,5f073de81c76c3308c0e4fb3,5f078846422aa73aa2d99ac6,3,,,,,,monkey,,,,,,,,,,,6,1,0,35,35,58,1,,,,,,,,,,,,,,,,,,,,,,,,,,,,,,,,,,,,,,,,,,,,,,,,,,,,,,,,,,,,,,,,,,,,,,
,,?,0.001,0,,,,,,stimuli/images/PICTURE_42.png,BOYS,5e510d0760dd0913e45370dc,07/11/1954,2020-07-09_22h13.10.755,proactive,2020.1.2,Win32,60,5f073de81c76c3308c0e4fb3,5f078846422aa73aa2d99ac6,3,,,,,,pear,,,,,,,,,,,6,1,0,36,36,55,1,,,,,,,,,,,,,,,,,,,,,,,,,,,,,,,,,,,,,,,,,,,,,,,,,,,,,,,,,,,,,,,,,,,,,,
,,?,0.001,0,,,,,,stimuli/images/PICTURE_491.png,GLASS,5e510d0760dd0913e45370dc,07/11/1954,2020-07-09_22h13.10.755,proactive,2020.1.2,Win32,60,5f073de81c76c3308c0e4fb3,5f078846422aa73aa2d99ac6,3,,,,,,rug,,,,,,,,,,,2,1,0,37,37,14,1,,,,,,,,,,,,,,,,,,,,,,,,,,,,,,,,,,,,,,,,,,,,,,,,,,,,,,,,,,,,,,,,,,,,,,
,,?,0.001,0,,,,,,stimuli/images/PICTURE_677.png,APPLE,5e510d0760dd0913e45370dc,07/11/1954,2020-07-09_22h13.10.755,proactive,2020.1.2,Win32,60,5f073de81c76c3308c0e4fb3,5f078846422aa73aa2d99ac6,3,,,,,,map,,,,,,,,,,,5,1,0,38,38,43,1,,,,,,,,,,,,,,,,,,,,,,,,,,,,,,,,,,,,,,,,,,,,,,,,,,,,,,,,,,,,,,,,,,,,,,
,,?,0,0,,,,,,stimuli/images/PICTURE_177.png,WRITER,5e510d0760dd0913e45370dc,07/11/1954,2020-07-09_22h13.10.755,proactive,2020.1.2,Win32,60,5f073de81c76c3308c0e4fb3,5f078846422aa73aa2d99ac6,3,,,,,,mushroom,,,,,,,,,,,5,1,0,39,39,41,1,,,,,,,,,,,,,,,,,,,,,,,,,,,,,,,,,,,,,,,,,,,,,,,,,,,,,,,,,,,,,,,,,,,,,,
,,?,0.001,0,,,,,,stimuli/images/PICTURE_685.png,PENNY,5e510d0760dd0913e45370dc,07/11/1954,2020-07-09_22h13.10.755,proactive,2020.1.2,Win32,60,5f073de81c76c3308c0e4fb3,5f078846422aa73aa2d99ac6,3,,,,,,goose,,,,,,,,,,,1,1,0,40,40,4,1,,,,,,,,,,,,,,,,,,,,,,,,,,,,,,,,,,,,,,,,,,,,,,,,,,,,,,,,,,,,,,,,,,,,,,
,,?,0.002,0,,,,,,stimuli/images/PICTURE_108.png,FLIGHT,5e510d0760dd0913e45370dc,07/11/1954,2020-07-09_22h13.10.755,proactive,2020.1.2,Win32,60,5f073de81c76c3308c0e4fb3,5f078846422aa73aa2d99ac6,3,,,,,,calendar,,,,,,,,,,,6,1,0,41,41,59,1,,,,,,,,,,,,,,,,,,,,,,,,,,,,,,,,,,,,,,,,,,,,,,,,,,,,,,,,,,,,,,,,,,,,,,
,,?,4.57,0,,,,,,stimuli/images/PICTURE_340.png,LETTER,5e510d0760dd0913e45370dc,07/11/1954,2020-07-09_22h13.10.755,proactive,2020.1.2,Win32,60,5f073de81c76c3308c0e4fb3,5f078846422aa73aa2d99ac6,3,,,,,,mirror,,,,,,,,,,,3,1,0,42,42,24,1,,,,,,,,,,,,,,,,,,,,,,,,,,,,,,,,,,,,,,,,,,,,,,,,,,,,,,,,,,,,,,,,,,,,,,
,,?,0.004,0,,,,,,stimuli/images/PICTURE_85.png,TOILET,5e510d0760dd0913e45370dc,07/11/1954,2020-07-09_22h13.10.755,proactive,2020.1.2,Win32,60,5f073de81c76c3308c0e4fb3,5f078846422aa73aa2d99ac6,3,,,,,,diamond,,,,,,,,,,,5,1,0,43,43,48,1,,,,,,,,,,,,,,,,,,,,,,,,,,,,,,,,,,,,,,,,,,,,,,,,,,,,,,,,,,,,,,,,,,,,,,
,,?,0.001,0,,,,,,stimuli/images/PICTURE_297.png,RIVER,5e510d0760dd0913e45370dc,07/11/1954,2020-07-09_22h13.10.755,proactive,2020.1.2,Win32,60,5f073de81c76c3308c0e4fb3,5f078846422aa73aa2d99ac6,3,,,,,,aeroplane,,,,,,,,,,,4,1,0,44,44,39,1,,,,,,,,,,,,,,,,,,,,,,,,,,,,,,,,,,,,,,,,,,,,,,,,,,,,,,,,,,,,,,,,,,,,,,
,,?,0.001,0,,,,,,stimuli/images/PICTURE_467.png,POLICY,5e510d0760dd0913e45370dc,07/11/1954,2020-07-09_22h13.10.755,proactive,2020.1.2,Win32,60,5f073de81c76c3308c0e4fb3,5f078846422aa73aa2d99ac6,3,,,,,,peg,,,,,,,,,,,6,1,0,45,45,53,1,,,,,,,,,,,,,,,,,,,,,,,,,,,,,,,,,,,,,,,,,,,,,,,,,,,,,,,,,,,,,,,,,,,,,,
,,?,0.002,0,,,,,,stimuli/images/PICTURE_504.png,ARTIST,5e510d0760dd0913e45370dc,07/11/1954,2020-07-09_22h13.10.755,proactive,2020.1.2,Win32,60,5f073de81c76c3308c0e4fb3,5f078846422aa73aa2d99ac6,3,,,,,,wheel,,,,,,,,,,,5,1,0,46,46,49,1,,,,,,,,,,,,,,,,,,,,,,,,,,,,,,,,,,,,,,,,,,,,,,,,,,,,,,,,,,,,,,,,,,,,,,
,,?,0,0,,,,,,stimuli/images/PICTURE_33.png,FRIEND,5e510d0760dd0913e45370dc,07/11/1954,2020-07-09_22h13.10.755,proactive,2020.1.2,Win32,60,5f073de81c76c3308c0e4fb3,5f078846422aa73aa2d99ac6,3,,,,,,frame,,,,,,,,,,,1,1,0,47,47,8,1,,,,,,,,,,,,,,,,,,,,,,,,,,,,,,,,,,,,,,,,,,,,,,,,,,,,,,,,,,,,,,,,,,,,,,
,,YEAR,3.48,1,,,,,,stimuli/images/PICTURE_147.png,YEAR,5e510d0760dd0913e45370dc,07/11/1954,2020-07-09_22h13.10.755,proactive,2020.1.2,Win32,60,5f073de81c76c3308c0e4fb3,5f078846422aa73aa2d99ac6,3,,,,,,hanger,,,,,,,,,,,3,1,0,48,48,21,1,,,,,,,,,,,,,,,,,,,,,,,,,,,,,,,,,,,,,,,,,,,,,,,,,,,,,,,,,,,,,,,,,,,,,,
,,?,0.009,0,,,,,,stimuli/images/PICTURE_744.png,WEAPON,5e510d0760dd0913e45370dc,07/11/1954,2020-07-09_22h13.10.755,proactive,2020.1.2,Win32,60,5f073de81c76c3308c0e4fb3,5f078846422aa73aa2d99ac6,3,,,,,,ring,,,,,,,,,,,6,1,0,49,49,50,1,,,,,,,,,,,,,,,,,,,,,,,,,,,,,,,,,,,,,,,,,,,,,,,,,,,,,,,,,,,,,,,,,,,,,,
,,?,0.001,0,,,,,,stimuli/images/PICTURE_655.png,TOILET,5e510d0760dd0913e45370dc,07/11/1954,2020-07-09_22h13.10.755,proactive,2020.1.2,Win32,60,5f073de81c76c3308c0e4fb3,5f078846422aa73aa2d99ac6,3,,,,,,megaphone,,,,,,,,,,,2,1,0,50,50,12,1,,,,,,,,,,,,,,,,,,,,,,,,,,,,,,,,,,,,,,,,,,,,,,,,,,,,,,,,,,,,,,,,,,,,,,
,,?,9.191,0,,,,,,stimuli/images/PICTURE_405.png,PLENTY,5e510d0760dd0913e45370dc,07/11/1954,2020-07-09_22h13.10.755,proactive,2020.1.2,Win32,60,5f073de81c76c3308c0e4fb3,5f078846422aa73aa2d99ac6,3,,,,,,anchor,,,,,,,,,,,3,1,0,51,51,23,1,,,,,,,,,,,,,,,,,,,,,,,,,,,,,,,,,,,,,,,,,,,,,,,,,,,,,,,,,,,,,,,,,,,,,,
,,?,0.005,0,,,,,,stimuli/images/PICTURE_380.png,CANDY,5e510d0760dd0913e45370dc,07/11/1954,2020-07-09_22h13.10.755,proactive,2020.1.2,Win32,60,5f073de81c76c3308c0e4fb3,5f078846422aa73aa2d99ac6,3,,,,,,gorilla,,,,,,,,,,,1,1,0,52,52,0,1,,,,,,,,,,,,,,,,,,,,,,,,,,,,,,,,,,,,,,,,,,,,,,,,,,,,,,,,,,,,,,,,,,,,,,
,,?,0.001,0,,,,,,stimuli/images/PICTURE_308.png,FAMILY,5e510d0760dd0913e45370dc,07/11/1954,2020-07-09_22h13.10.755,proactive,2020.1.2,Win32,60,5f073de81c76c3308c0e4fb3,5f078846422aa73aa2d99ac6,3,,,,,,dice,,,,,,,,,,,4,1,0,53,53,36,1,,,,,,,,,,,,,,,,,,,,,,,,,,,,,,,,,,,,,,,,,,,,,,,,,,,,,,,,,,,,,,,,,,,,,,
,,?,0.001,0,,,,,,stimuli/images/PICTURE_327.png,SERIES,5e510d0760dd0913e45370dc,07/11/1954,2020-07-09_22h13.10.755,proactive,2020.1.2,Win32,60,5f073de81c76c3308c0e4fb3,5f078846422aa73aa2d99ac6,3,,,,,,helmet,,,,,,,,,,,1,1,0,54,54,3,1,,,,,,,,,,,,,,,,,,,,,,,,,,,,,,,,,,,,,,,,,,,,,,,,,,,,,,,,,,,,,,,,,,,,,,
,,?,0,0,,,,,,stimuli/images/PICTURE_675.png,SALE,5e510d0760dd0913e45370dc,07/11/1954,2020-07-09_22h13.10.755,proactive,2020.1.2,Win32,60,5f073de81c76c3308c0e4fb3,5f078846422aa73aa2d99ac6,3,,,,,,windmill,,,,,,,,,,,5,1,0,55,55,47,1,,,,,,,,,,,,,,,,,,,,,,,,,,,,,,,,,,,,,,,,,,,,,,,,,,,,,,,,,,,,,,,,,,,,,,
,,?,0,0,,,,,,stimuli/images/PICTURE_95.png,BOYS,5e510d0760dd0913e45370dc,07/11/1954,2020-07-09_22h13.10.755,proactive,2020.1.2,Win32,60,5f073de81c76c3308c0e4fb3,5f078846422aa73aa2d99ac6,3,,,,,,suitcase,,,,,,,,,,,1,1,0,56,56,1,1,,,,,,,,,,,,,,,,,,,,,,,,,,,,,,,,,,,,,,,,,,,,,,,,,,,,,,,,,,,,,,,,,,,,,,
,,?,0.003,0,,,,,,stimuli/images/PICTURE_504.png,YEAR,5e510d0760dd0913e45370dc,07/11/1954,2020-07-09_22h13.10.755,proactive,2020.1.2,Win32,60,5f073de81c76c3308c0e4fb3,5f078846422aa73aa2d99ac6,3,,,,,,wheel,,,,,,,,,,,2,1,0,57,57,13,1,,,,,,,,,,,,,,,,,,,,,,,,,,,,,,,,,,,,,,,,,,,,,,,,,,,,,,,,,,,,,,,,,,,,,,
,,?,0.001,0,,,,,,stimuli/images/PICTURE_487.png,GIRL,5e510d0760dd0913e45370dc,07/11/1954,2020-07-09_22h13.10.755,proactive,2020.1.2,Win32,60,5f073de81c76c3308c0e4fb3,5f078846422aa73aa2d99ac6,3,,,,,,basket,,,,,,,,,,,5,1,0,58,58,45,1,,,,,,,,,,,,,,,,,,,,,,,,,,,,,,,,,,,,,,,,,,,,,,,,,,,,,,,,,,,,,,,,,,,,,,
,,?,0.001,0,,,,,,stimuli/images/PICTURE_296.png,LOTS,5e510d0760dd0913e45370dc,07/11/1954,2020-07-09_22h13.10.755,proactive,2020.1.2,Win32,60,5f073de81c76c3308c0e4fb3,5f078846422aa73aa2d99ac6,3,,,,,,bolt,,,,,,,,,,,1,1,0,59,59,9,1,,,,,,,,,,,,,,,,,,,,,,,,,,,,,,,,,,,,,,,,,,,,,,,,,,,,,,,,,,,,,,,,,,,,,,
,,,,,,,,,,,,5e510d0760dd0913e45370dc,07/11/1954,2020-07-09_22h13.10.755,proactive,2020.1.2,Win32,60,5f073de81c76c3308c0e4fb3,5f078846422aa73aa2d99ac6,3,,,,,,,,,,,,,,,,,,,,,,,,0,1,1,1,1,stimuli/learn-block2.csv,,,,,,,,,,,,,,,,,,,,,,,,,,,,,,,,,,,,,,,,,,,,,,,,,,,,,,,,,,,,,,,,
,,,,,,,,,,stimuli/images/PICTURE_95.png,NIGHT,5e510d0760dd0913e45370dc,07/11/1954,2020-07-09_22h13.10.755,proactive,2020.1.2,Win32,60,5f073de81c76c3308c0e4fb3,5f078846422aa73aa2d99ac6,3,,,,,,suitcase,,,,,,0,0,0,37,1,4,2,,,,,,,,,,,,,,,,,,,,,,,,,,,,,,,,,,,,,,,,,,,,,,,,,,,,,,,,,,,,,,,,,,,,,,,,,,,
,,,,,,,,,,stimuli/images/PICTURE_93.png,GIRL,5e510d0760dd0913e45370dc,07/11/1954,2020-07-09_22h13.10.755,proactive,2020.1.2,Win32,60,5f073de81c76c3308c0e4fb3,5f078846422aa73aa2d99ac6,3,,,,,,skateboard,,,,,,0,1,1,31,1,4,2,,,,,,,,,,,,,,,,,,,,,,,,,,,,,,,,,,,,,,,,,,,,,,,,,,,,,,,,,,,,,,,,,,,,,,,,,,,
,,,,,,,,,,stimuli/images/PICTURE_470.png,MOMENT,5e510d0760dd0913e45370dc,07/11/1954,2020-07-09_22h13.10.755,proactive,2020.1.2,Win32,60,5f073de81c76c3308c0e4fb3,5f078846422aa73aa2d99ac6,3,,,,,,motorbike,,,,,,0,2,2,40,1,5,2,,,,,,,,,,,,,,,,,,,,,,,,,,,,,,,,,,,,,,,,,,,,,,,,,,,,,,,,,,,,,,,,,,,,,,,,,,,
,,,,,,,,,,stimuli/images/PICTURE_2.png,JUNGLE,5e510d0760dd0913e45370dc,07/11/1954,2020-07-09_22h13.10.755,proactive,2020.1.2,Win32,60,5f073de81c76c3308c0e4fb3,5f078846422aa73aa2d99ac6,3,,,,,,tyre,,,,,,0,3,3,1,1,1,2,,,,,,,,,,,,,,,,,,,,,,,,,,,,,,,,,,,,,,,,,,,,,,,,,,,,,,,,,,,,,,,,,,,,,,,,,,,
,,,,,,,,,,stimuli/images/PICTURE_504.png,HOUSE,5e510d0760dd0913e45370dc,07/11/1954,2020-07-09_22h13.10.755,proactive,2020.1.2,Win32,60,5f073de81c76c3308c0e4fb3,5f078846422aa73aa2d99ac6,3,,,,,,wheel,,,,,,0,4,4,36,1,4,2,,,,,,,,,,,,,,,,,,,,,,,,,,,,,,,,,,,,,,,,,,,,,,,,,,,,,,,,,,,,,,,,,,,,,,,,,,,
,,,,,,,,,,stimuli/images/PICTURE_147.png,LEADER,5e510d0760dd0913e45370dc,07/11/1954,2020-07-09_22h13.10.755,proactive,2020.1.2,Win32,60,5f073de81c76c3308c0e4fb3,5f078846422aa73aa2d99ac6,3,,,,,,hanger,,,,,,0,5,5,33,1,4,2,,,,,,,,,,,,,,,,,,,,,,,,,,,,,,,,,,,,,,,,,,,,,,,,,,,,,,,,,,,,,,,,,,,,,,,,,,,
,,,,,,,,,,stimuli/images/PICTURE_655.png,SALE,5e510d0760dd0913e45370dc,07/11/1954,2020-07-09_22h13.10.755,proactive,2020.1.2,Win32,60,5f073de81c76c3308c0e4fb3,5f078846422aa73aa2d99ac6,3,,,,,,megaphone,,,,,,0,6,6,57,1,6,2,,,,,,,,,,,,,,,,,,,,,,,,,,,,,,,,,,,,,,,,,,,,,,,,,,,,,,,,,,,,,,,,,,,,,,,,,,,
,,,,,,,,,,stimuli/images/PICTURE_708.png,VALLEY,5e510d0760dd0913e45370dc,07/11/1954,2020-07-09_22h13.10.755,proactive,2020.1.2,Win32,60,5f073de81c76c3308c0e4fb3,5f078846422aa73aa2d99ac6,3,,,,,,monkey,,,,,,0,7,7,45,1,5,2,,,,,,,,,,,,,,,,,,,,,,,,,,,,,,,,,,,,,,,,,,,,,,,,,,,,,,,,,,,,,,,,,,,,,,,,,,,
,,,,,,,,,,stimuli/images/PICTURE_33.png,COPS,5e510d0760dd0913e45370dc,07/11/1954,2020-07-09_22h13.10.755,proactive,2020.1.2,Win32,60,5f073de81c76c3308c0e4fb3,5f078846422aa73aa2d99ac6,3,,,,,,frame,,,,,,0,8,8,29,1,3,2,,,,,,,,,,,,,,,,,,,,,,,,,,,,,,,,,,,,,,,,,,,,,,,,,,,,,,,,,,,,,,,,,,,,,,,,,,,
,,,,,,,,,,stimuli/images/PICTURE_215.png,BOYS,5e510d0760dd0913e45370dc,07/11/1954,2020-07-09_22h13.10.755,proactive,2020.1.2,Win32,60,5f073de81c76c3308c0e4fb3,5f078846422aa73aa2d99ac6,3,,,,,,boot,,,,,,0,9,9,24,1,3,2,,,,,,,,,,,,,,,,,,,,,,,,,,,,,,,,,,,,,,,,,,,,,,,,,,,,,,,,,,,,,,,,,,,,,,,,,,,
,,,,,,,,,,stimuli/images/PICTURE_32.png,LETTER,5e510d0760dd0913e45370dc,07/11/1954,2020-07-09_22h13.10.755,proactive,2020.1.2,Win32,60,5f073de81c76c3308c0e4fb3,5f078846422aa73aa2d99ac6,3,,,,,,crown,,,,,,0,10,10,56,1,6,2,,,,,,,,,,,,,,,,,,,,,,,,,,,,,,,,,,,,,,,,,,,,,,,,,,,,,,,,,,,,,,,,,,,,,,,,,,,
,,,,,,,,,,stimuli/images/PICTURE_356.png,CANDY,5e510d0760dd0913e45370dc,07/11/1954,2020-07-09_22h13.10.755,proactive,2020.1.2,Win32,60,5f073de81c76c3308c0e4fb3,5f078846422aa73aa2d99ac6,3,,,,,,pawn,,,,,,0,11,11,46,1,5,2,,,,,,,,,,,,,,,,,,,,,,,,,,,,,,,,,,,,,,,,,,,,,,,,,,,,,,,,,,,,,,,,,,,,,,,,,,,
,,,,,,,,,,stimuli/images/PICTURE_654.png,YEAR,5e510d0760dd0913e45370dc,07/11/1954,2020-07-09_22h13.10.755,proactive,2020.1.2,Win32,60,5f073de81c76c3308c0e4fb3,5f078846422aa73aa2d99ac6,3,,,,,,pencil,,,,,,0,12,12,41,1,5,2,,,,,,,,,,,,,,,,,,,,,,,,,,,,,,,,,,,,,,,,,,,,,,,,,,,,,,,,,,,,,,,,,,,,,,,,,,,
,,,,,,,,,,stimuli/images/PICTURE_18.png,RIVER,5e510d0760dd0913e45370dc,07/11/1954,2020-07-09_22h13.10.755,proactive,2020.1.2,Win32,60,5f073de81c76c3308c0e4fb3,5f078846422aa73aa2d99ac6,3,,,,,,planet,,,,,,0,13,13,22,1,3,2,,,,,,,,,,,,,,,,,,,,,,,,,,,,,,,,,,,,,,,,,,,,,,,,,,,,,,,,,,,,,,,,,,,,,,,,,,,
,,,,,,,,,,stimuli/images/PICTURE_215.png,LEADER,5e510d0760dd0913e45370dc,07/11/1954,2020-07-09_22h13.10.755,proactive,2020.1.2,Win32,60,5f073de81c76c3308c0e4fb3,5f078846422aa73aa2d99ac6,3,,,,,,boot,,,,,,0,14,14,43,1,5,2,,,,,,,,,,,,,,,,,,,,,,,,,,,,,,,,,,,,,,,,,,,,,,,,,,,,,,,,,,,,,,,,,,,,,,,,,,,
,,,,,,,,,,stimuli/images/PICTURE_487.png,POLICY,5e510d0760dd0913e45370dc,07/11/1954,2020-07-09_22h13.10.755,proactive,2020.1.2,Win32,60,5f073de81c76c3308c0e4fb3,5f078846422aa73aa2d99ac6,3,,,,,,basket,,,,,,0,15,15,34,1,4,2,,,,,,,,,,,,,,,,,,,,,,,,,,,,,,,,,,,,,,,,,,,,,,,,,,,,,,,,,,,,,,,,,,,,,,,,,,,
,,,,,,,,,,stimuli/images/PICTURE_348.png,DUDE,5e510d0760dd0913e45370dc,07/11/1954,2020-07-09_22h13.10.755,proactive,2020.1.2,Win32,60,5f073de81c76c3308c0e4fb3,5f078846422aa73aa2d99ac6,3,,,,,,pepper,,,,,,0,16,16,59,1,6,2,,,,,,,,,,,,,,,,,,,,,,,,,,,,,,,,,,,,,,,,,,,,,,,,,,,,,,,,,,,,,,,,,,,,,,,,,,,
,,,,,,,,,,stimuli/images/PICTURE_470.png,BEAUTY,5e510d0760dd0913e45370dc,07/11/1954,2020-07-09_22h13.10.755,proactive,2020.1.2,Win32,60,5f073de81c76c3308c0e4fb3,5f078846422aa73aa2d99ac6,3,,,,,,motorbike,,,,,,0,17,17,26,1,3,2,,,,,,,,,,,,,,,,,,,,,,,,,,,,,,,,,,,,,,,,,,,,,,,,,,,,,,,,,,,,,,,,,,,,,,,,,,,
,,,,,,,,,,stimuli/images/PICTURE_750.png,POLICY,5e510d0760dd0913e45370dc,07/11/1954,2020-07-09_22h13.10.755,proactive,2020.1.2,Win32,60,5f073de81c76c3308c0e4fb3,5f078846422aa73aa2d99ac6,3,,,,,,kettle,,,,,,0,18,18,44,1,5,2,,,,,,,,,,,,,,,,,,,,,,,,,,,,,,,,,,,,,,,,,,,,,,,,,,,,,,,,,,,,,,,,,,,,,,,,,,,
,,,,,,,,,,stimuli/images/PICTURE_654.png,COPS,5e510d0760dd0913e45370dc,07/11/1954,2020-07-09_22h13.10.755,proactive,2020.1.2,Win32,60,5f073de81c76c3308c0e4fb3,5f078846422aa73aa2d99ac6,3,,,,,,pencil,,,,,,0,19,19,10,1,2,2,,,,,,,,,,,,,,,,,,,,,,,,,,,,,,,,,,,,,,,,,,,,,,,,,,,,,,,,,,,,,,,,,,,,,,,,,,,
,,,,,,,,,,stimuli/images/PICTURE_487.png,ROOF,5e510d0760dd0913e45370dc,07/11/1954,2020-07-09_22h13.10.755,proactive,2020.1.2,Win32,60,5f073de81c76c3308c0e4fb3,5f078846422aa73aa2d99ac6,3,,,,,,basket,,,,,,0,20,20,50,1,6,2,,,,,,,,,,,,,,,,,,,,,,,,,,,,,,,,,,,,,,,,,,,,,,,,,,,,,,,,,,,,,,,,,,,,,,,,,,,
,,,,,,,,,,stimuli/images/PICTURE_405.png,JUNGLE,5e510d0760dd0913e45370dc,07/11/1954,2020-07-09_22h13.10.755,proactive,2020.1.2,Win32,60,5f073de81c76c3308c0e4fb3,5f078846422aa73aa2d99ac6,3,,,,,,anchor,,,,,,0,21,21,58,1,6,2,,,,,,,,,,,,,,,,,,,,,,,,,,,,,,,,,,,,,,,,,,,,,,,,,,,,,,,,,,,,,,,,,,,,,,,,,,,
,,,,,,,,,,stimuli/images/PICTURE_403.png,FAMILY,5e510d0760dd0913e45370dc,07/11/1954,2020-07-09_22h13.10.755,proactive,2020.1.2,Win32,60,5f073de81c76c3308c0e4fb3,5f078846422aa73aa2d99ac6,3,,,,,,cathedral,,,,,,0,22,22,9,1,1,2,,,,,,,,,,,,,,,,,,,,,,,,,,,,,,,,,,,,,,,,,,,,,,,,,,,,,,,,,,,,,,,,,,,,,,,,,,,
,,,,,,,,,,stimuli/images/PICTURE_255.png,PENNY,5e510d0760dd0913e45370dc,07/11/1954,2020-07-09_22h13.10.755,proactive,2020.1.2,Win32,60,5f073de81c76c3308c0e4fb3,5f078846422aa73aa2d99ac6,3,,,,,,shovel,,,,,,0,23,23,19,1,2,2,,,,,,,,,,,,,,,,,,,,,,,,,,,,,,,,,,,,,,,,,,,,,,,,,,,,,,,,,,,,,,,,,,,,,,,,,,,
,,,,,,,,,,stimuli/images/PICTURE_57.png,CASINO,5e510d0760dd0913e45370dc,07/11/1954,2020-07-09_22h13.10.755,proactive,2020.1.2,Win32,60,5f073de81c76c3308c0e4fb3,5f078846422aa73aa2d99ac6,3,,,,,,stamp,,,,,,0,24,24,12,1,2,2,,,,,,,,,,,,,,,,,,,,,,,,,,,,,,,,,,,,,,,,,,,,,,,,,,,,,,,,,,,,,,,,,,,,,,,,,,,
,,,,,,,,,,stimuli/images/PICTURE_208.png,SPIRIT,5e510d0760dd0913e45370dc,07/11/1954,2020-07-09_22h13.10.755,proactive,2020.1.2,Win32,60,5f073de81c76c3308c0e4fb3,5f078846422aa73aa2d99ac6,3,,,,,,microphone,,,,,,0,25,25,28,1,3,2,,,,,,,,,,,,,,,,,,,,,,,,,,,,,,,,,,,,,,,,,,,,,,,,,,,,,,,,,,,,,,,,,,,,,,,,,,,
,,,,,,,,,,stimuli/images/PICTURE_314.png,SPEECH,5e510d0760dd0913e45370dc,07/11/1954,2020-07-09_22h13.10.755,proactive,2020.1.2,Win32,60,5f073de81c76c3308c0e4fb3,5f078846422aa73aa2d99ac6,3,,,,,,perfume,,,,,,0,26,26,35,1,4,2,,,,,,,,,,,,,,,,,,,,,,,,,,,,,,,,,,,,,,,,,,,,,,,,,,,,,,,,,,,,,,,,,,,,,,,,,,,
,,,,,,,,,,stimuli/images/PICTURE_57.png,CANDY,5e510d0760dd0913e45370dc,07/11/1954,2020-07-09_22h13.10.755,proactive,2020.1.2,Win32,60,5f073de81c76c3308c0e4fb3,5f078846422aa73aa2d99ac6,3,,,,,,stamp,,,,,,0,27,27,52,1,6,2,,,,,,,,,,,,,,,,,,,,,,,,,,,,,,,,,,,,,,,,,,,,,,,,,,,,,,,,,,,,,,,,,,,,,,,,,,,
,,,,,,,,,,stimuli/images/PICTURE_453.png,FAMILY,5e510d0760dd0913e45370dc,07/11/1954,2020-07-09_22h13.10.755,proactive,2020.1.2,Win32,60,5f073de81c76c3308c0e4fb3,5f078846422aa73aa2d99ac6,3,,,,,,scissors,,,,,,0,28,28,48,1,5,2,,,,,,,,,,,,,,,,,,,,,,,,,,,,,,,,,,,,,,,,,,,,,,,,,,,,,,,,,,,,,,,,,,,,,,,,,,,
,,,,,,,,,,stimuli/images/PICTURE_2.png,AREA,5e510d0760dd0913e45370dc,07/11/1954,2020-07-09_22h13.10.755,proactive,2020.1.2,Win32,60,5f073de81c76c3308c0e4fb3,5f078846422aa73aa2d99ac6,3,,,,,,tyre,,,,,,0,29,29,32,1,4,2,,,,,,,,,,,,,,,,,,,,,,,,,,,,,,,,,,,,,,,,,,,,,,,,,,,,,,,,,,,,,,,,,,,,,,,,,,,
,,,,,,,,,,stimuli/images/PICTURE_405.png,JUNGLE,5e510d0760dd0913e45370dc,07/11/1954,2020-07-09_22h13.10.755,proactive,2020.1.2,Win32,60,5f073de81c76c3308c0e4fb3,5f078846422aa73aa2d99ac6,3,,,,,,anchor,,,,,,0,30,30,13,1,2,2,,,,,,,,,,,,,,,,,,,,,,,,,,,,,,,,,,,,,,,,,,,,,,,,,,,,,,,,,,,,,,,,,,,,,,,,,,,
,,,,,,,,,,stimuli/images/PICTURE_285.png,WRITER,5e510d0760dd0913e45370dc,07/11/1954,2020-07-09_22h13.10.755,proactive,2020.1.2,Win32,60,5f073de81c76c3308c0e4fb3,5f078846422aa73aa2d99ac6,3,,,,,,carrot,,,,,,0,31,31,6,1,1,2,,,,,,,,,,,,,,,,,,,,,,,,,,,,,,,,,,,,,,,,,,,,,,,,,,,,,,,,,,,,,,,,,,,,,,,,,,,
,,,,,,,,,,stimuli/images/PICTURE_160.png,HOTEL,5e510d0760dd0913e45370dc,07/11/1954,2020-07-09_22h13.10.755,proactive,2020.1.2,Win32,60,5f073de81c76c3308c0e4fb3,5f078846422aa73aa2d99ac6,3,,,,,,wheelbarrow,,,,,,0,32,32,16,1,2,2,,,,,,,,,,,,,,,,,,,,,,,,,,,,,,,,,,,,,,,,,,,,,,,,,,,,,,,,,,,,,,,,,,,,,,,,,,,
,,,,,,,,,,stimuli/images/PICTURE_509.png,BATH,5e510d0760dd0913e45370dc,07/11/1954,2020-07-09_22h13.10.755,proactive,2020.1.2,Win32,60,5f073de81c76c3308c0e4fb3,5f078846422aa73aa2d99ac6,3,,,,,,telephone,,,,,,0,33,33,15,1,2,2,,,,,,,,,,,,,,,,,,,,,,,,,,,,,,,,,,,,,,,,,,,,,,,,,,,,,,,,,,,,,,,,,,,,,,,,,,,
,,,,,,,,,,stimuli/images/PICTURE_2.png,YARD,5e510d0760dd0913e45370dc,07/11/1954,2020-07-09_22h13.10.755,proactive,2020.1.2,Win32,60,5f073de81c76c3308c0e4fb3,5f078846422aa73aa2d99ac6,3,,,,,,tyre,,,,,,0,34,34,55,1,6,2,,,,,,,,,,,,,,,,,,,,,,,,,,,,,,,,,,,,,,,,,,,,,,,,,,,,,,,,,,,,,,,,,,,,,,,,,,,
,,,,,,,,,,stimuli/images/PICTURE_296.png,CLOCK,5e510d0760dd0913e45370dc,07/11/1954,2020-07-09_22h13.10.755,proactive,2020.1.2,Win32,60,5f073de81c76c3308c0e4fb3,5f078846422aa73aa2d99ac6,3,,,,,,bolt,,,,,,0,35,35,18,1,2,2,,,,,,,,,,,,,,,,,,,,,,,,,,,,,,,,,,,,,,,,,,,,,,,,,,,,,,,,,,,,,,,,,,,,,,,,,,,
,,,,,,,,,,stimuli/images/PICTURE_509.png,MILLER,5e510d0760dd0913e45370dc,07/11/1954,2020-07-09_22h13.10.755,proactive,2020.1.2,Win32,60,5f073de81c76c3308c0e4fb3,5f078846422aa73aa2d99ac6,3,,,,,,telephone,,,,,,0,36,36,49,1,5,2,,,,,,,,,,,,,,,,,,,,,,,,,,,,,,,,,,,,,,,,,,,,,,,,,,,,,,,,,,,,,,,,,,,,,,,,,,,
,,,,,,,,,,stimuli/images/PICTURE_688.png,CLOCK,5e510d0760dd0913e45370dc,07/11/1954,2020-07-09_22h13.10.755,proactive,2020.1.2,Win32,60,5f073de81c76c3308c0e4fb3,5f078846422aa73aa2d99ac6,3,,,,,,runner,,,,,,0,37,37,42,1,5,2,,,,,,,,,,,,,,,,,,,,,,,,,,,,,,,,,,,,,,,,,,,,,,,,,,,,,,,,,,,,,,,,,,,,,,,,,,,
,,,,,,,,,,stimuli/images/PICTURE_297.png,BODY,5e510d0760dd0913e45370dc,07/11/1954,2020-07-09_22h13.10.755,proactive,2020.1.2,Win32,60,5f073de81c76c3308c0e4fb3,5f078846422aa73aa2d99ac6,3,,,,,,aeroplane,,,,,,0,38,38,51,1,6,2,,,,,,,,,,,,,,,,,,,,,,,,,,,,,,,,,,,,,,,,,,,,,,,,,,,,,,,,,,,,,,,,,,,,,,,,,,,
,,,,,,,,,,stimuli/images/PICTURE_677.png,PHOTO,5e510d0760dd0913e45370dc,07/11/1954,2020-07-09_22h13.10.755,proactive,2020.1.2,Win32,60,5f073de81c76c3308c0e4fb3,5f078846422aa73aa2d99ac6,3,,,,,,map,,,,,,0,39,39,14,1,2,2,,,,,,,,,,,,,,,,,,,,,,,,,,,,,,,,,,,,,,,,,,,,,,,,,,,,,,,,,,,,,,,,,,,,,,,,,,,
,,,,,,,,,,stimuli/images/PICTURE_177.png,HOUSE,5e510d0760dd0913e45370dc,07/11/1954,2020-07-09_22h13.10.755,proactive,2020.1.2,Win32,60,5f073de81c76c3308c0e4fb3,5f078846422aa73aa2d99ac6,3,,,,,,mushroom,,,,,,0,40,40,25,1,3,2,,,,,,,,,,,,,,,,,,,,,,,,,,,,,,,,,,,,,,,,,,,,,,,,,,,,,,,,,,,,,,,,,,,,,,,,,,,
,,,,,,,,,,stimuli/images/PICTURE_215.png,FOOD,5e510d0760dd0913e45370dc,07/11/1954,2020-07-09_22h13.10.755,proactive,2020.1.2,Win32,60,5f073de81c76c3308c0e4fb3,5f078846422aa73aa2d99ac6,3,,,,,,boot,,,,,,0,41,41,5,1,1,2,,,,,,,,,,,,,,,,,,,,,,,,,,,,,,,,,,,,,,,,,,,,,,,,,,,,,,,,,,,,,,,,,,,,,,,,,,,
,,,,,,,,,,stimuli/images/PICTURE_327.png,LEADER,5e510d0760dd0913e45370dc,07/11/1954,2020-07-09_22h13.10.755,proactive,2020.1.2,Win32,60,5f073de81c76c3308c0e4fb3,5f078846422aa73aa2d99ac6,3,,,,,,helmet,,,,,,0,42,42,17,1,2,2,,,,,,,,,,,,,,,,,,,,,,,,,,,,,,,,,,,,,,,,,,,,,,,,,,,,,,,,,,,,,,,,,,,,,,,,,,,
,,,,,,,,,,stimuli/images/PICTURE_692.png,DUDE,5e510d0760dd0913e45370dc,07/11/1954,2020-07-09_22h13.10.755,proactive,2020.1.2,Win32,60,5f073de81c76c3308c0e4fb3,5f078846422aa73aa2d99ac6,3,,,,,,cherry,,,,,,0,43,43,47,1,5,2,,,,,,,,,,,,,,,,,,,,,,,,,,,,,,,,,,,,,,,,,,,,,,,,,,,,,,,,,,,,,,,,,,,,,,,,,,,
,,,,,,,,,,stimuli/images/PICTURE_509.png,SHOTS,5e510d0760dd0913e45370dc,07/11/1954,2020-07-09_22h13.10.755,proactive,2020.1.2,Win32,60,5f073de81c76c3308c0e4fb3,5f078846422aa73aa2d99ac6,3,,,,,,telephone,,,,,,0,44,44,7,1,1,2,,,,,,,,,,,,,,,,,,,,,,,,,,,,,,,,,,,,,,,,,,,,,,,,,,,,,,,,,,,,,,,,,,,,,,,,,,,
,,,,,,,,,,stimuli/images/PICTURE_348.png,TOILET,5e510d0760dd0913e45370dc,07/11/1954,2020-07-09_22h13.10.755,proactive,2020.1.2,Win32,60,5f073de81c76c3308c0e4fb3,5f078846422aa73aa2d99ac6,3,,,,,,pepper,,,,,,0,45,45,4,1,1,2,,,,,,,,,,,,,,,,,,,,,,,,,,,,,,,,,,,,,,,,,,,,,,,,,,,,,,,,,,,,,,,,,,,,,,,,,,,
,,,,,,,,,,stimuli/images/PICTURE_564.png,PLENTY,5e510d0760dd0913e45370dc,07/11/1954,2020-07-09_22h13.10.755,proactive,2020.1.2,Win32,60,5f073de81c76c3308c0e4fb3,5f078846422aa73aa2d99ac6,3,,,,,,spoon,,,,,,0,46,46,11,1,2,2,,,,,,,,,,,,,,,,,,,,,,,,,,,,,,,,,,,,,,,,,,,,,,,,,,,,,,,,,,,,,,,,,,,,,,,,,,,
,,,,,,,,,,stimuli/images/PICTURE_68.png,KIND,5e510d0760dd0913e45370dc,07/11/1954,2020-07-09_22h13.10.755,proactive,2020.1.2,Win32,60,5f073de81c76c3308c0e4fb3,5f078846422aa73aa2d99ac6,3,,,,,,candle,,,,,,0,47,47,23,1,3,2,,,,,,,,,,,,,,,,,,,,,,,,,,,,,,,,,,,,,,,,,,,,,,,,,,,,,,,,,,,,,,,,,,,,,,,,,,,
,,,,,,,,,,stimuli/images/PICTURE_123.png,SALE,5e510d0760dd0913e45370dc,07/11/1954,2020-07-09_22h13.10.755,proactive,2020.1.2,Win32,60,5f073de81c76c3308c0e4fb3,5f078846422aa73aa2d99ac6,3,,,,,,dart,,,,,,0,48,48,8,1,1,2,,,,,,,,,,,,,,,,,,,,,,,,,,,,,,,,,,,,,,,,,,,,,,,,,,,,,,,,,,,,,,,,,,,,,,,,,,,
,,,,,,,,,,stimuli/images/PICTURE_452.png,COPS,5e510d0760dd0913e45370dc,07/11/1954,2020-07-09_22h13.10.755,proactive,2020.1.2,Win32,60,5f073de81c76c3308c0e4fb3,5f078846422aa73aa2d99ac6,3,,,,,,watch,,,,,,0,49,49,0,1,1,2,,,,,,,,,,,,,,,,,,,,,,,,,,,,,,,,,,,,,,,,,,,,,,,,,,,,,,,,,,,,,,,,,,,,,,,,,,,
,,,,,,,,,,stimuli/images/PICTURE_509.png,APPLE,5e510d0760dd0913e45370dc,07/11/1954,2020-07-09_22h13.10.755,proactive,2020.1.2,Win32,60,5f073de81c76c3308c0e4fb3,5f078846422aa73aa2d99ac6,3,,,,,,telephone,,,,,,0,50,50,38,1,4,2,,,,,,,,,,,,,,,,,,,,,,,,,,,,,,,,,,,,,,,,,,,,,,,,,,,,,,,,,,,,,,,,,,,,,,,,,,,
,,,,,,,,,,stimuli/images/PICTURE_311.png,TOILET,5e510d0760dd0913e45370dc,07/11/1954,2020-07-09_22h13.10.755,proactive,2020.1.2,Win32,60,5f073de81c76c3308c0e4fb3,5f078846422aa73aa2d99ac6,3,,,,,,razor,,,,,,0,51,51,54,1,6,2,,,,,,,,,,,,,,,,,,,,,,,,,,,,,,,,,,,,,,,,,,,,,,,,,,,,,,,,,,,,,,,,,,,,,,,,,,,
,,,,,,,,,,stimuli/images/PICTURE_677.png,FAMILY,5e510d0760dd0913e45370dc,07/11/1954,2020-07-09_22h13.10.755,proactive,2020.1.2,Win32,60,5f073de81c76c3308c0e4fb3,5f078846422aa73aa2d99ac6,3,,,,,,map,,,,,,0,52,52,53,1,6,2,,,,,,,,,,,,,,,,,,,,,,,,,,,,,,,,,,,,,,,,,,,,,,,,,,,,,,,,,,,,,,,,,,,,,,,,,,,
,,,,,,,,,,stimuli/images/PICTURE_405.png,HOUSE,5e510d0760dd0913e45370dc,07/11/1954,2020-07-09_22h13.10.755,proactive,2020.1.2,Win32,60,5f073de81c76c3308c0e4fb3,5f078846422aa73aa2d99ac6,3,,,,,,anchor,,,,,,0,53,53,2,1,1,2,,,,,,,,,,,,,,,,,,,,,,,,,,,,,,,,,,,,,,,,,,,,,,,,,,,,,,,,,,,,,,,,,,,,,,,,,,,
,,,,,,,,,,stimuli/images/PICTURE_491.png,SERIES,5e510d0760dd0913e45370dc,07/11/1954,2020-07-09_22h13.10.755,proactive,2020.1.2,Win32,60,5f073de81c76c3308c0e4fb3,5f078846422aa73aa2d99ac6,3,,,,,,rug,,,,,,0,54,54,39,1,4,2,,,,,,,,,,,,,,,,,,,,,,,,,,,,,,,,,,,,,,,,,,,,,,,,,,,,,,,,,,,,,,,,,,,,,,,,,,,
,,,,,,,,,,stimuli/images/PICTURE_141.png,CLIENT,5e510d0760dd0913e45370dc,07/11/1954,2020-07-09_22h13.10.755,proactive,2020.1.2,Win32,60,5f073de81c76c3308c0e4fb3,5f078846422aa73aa2d99ac6,3,,,,,,sunflower,,,,,,0,55,55,30,1,4,2,,,,,,,,,,,,,,,,,,,,,,,,,,,,,,,,,,,,,,,,,,,,,,,,,,,,,,,,,,,,,,,,,,,,,,,,,,,
,,,,,,,,,,stimuli/images/PICTURE_57.png,NATION,5e510d0760dd0913e45370dc,07/11/1954,2020-07-09_22h13.10.755,proactive,2020.1.2,Win32,60,5f073de81c76c3308c0e4fb3,5f078846422aa73aa2d99ac6,3,,,,,,stamp,,,,,,0,56,56,21,1,3,2,,,,,,,,,,,,,,,,,,,,,,,,,,,,,,,,,,,,,,,,,,,,,,,,,,,,,,,,,,,,,,,,,,,,,,,,,,,
,,,,,,,,,,stimuli/images/PICTURE_667.png,GLASS,5e510d0760dd0913e45370dc,07/11/1954,2020-07-09_22h13.10.755,proactive,2020.1.2,Win32,60,5f073de81c76c3308c0e4fb3,5f078846422aa73aa2d99ac6,3,,,,,,daisy,,,,,,0,57,57,27,1,3,2,,,,,,,,,,,,,,,,,,,,,,,,,,,,,,,,,,,,,,,,,,,,,,,,,,,,,,,,,,,,,,,,,,,,,,,,,,,
,,,,,,,,,,stimuli/images/PICTURE_285.png,PRINCE,5e510d0760dd0913e45370dc,07/11/1954,2020-07-09_22h13.10.755,proactive,2020.1.2,Win32,60,5f073de81c76c3308c0e4fb3,5f078846422aa73aa2d99ac6,3,,,,,,carrot,,,,,,0,58,58,20,1,3,2,,,,,,,,,,,,,,,,,,,,,,,,,,,,,,,,,,,,,,,,,,,,,,,,,,,,,,,,,,,,,,,,,,,,,,,,,,,
,,?,0.001,0,,,,,,stimuli/images/PICTURE_504.png,HOUSE,5e510d0760dd0913e45370dc,07/11/1954,2020-07-09_22h13.10.755,proactive,2020.1.2,Win32,60,5f073de81c76c3308c0e4fb3,5f078846422aa73aa2d99ac6,3,,,,,,wheel,,,,,,,,,,,4,2,0,0,0,36,1,,,,,,,,,,,,,,,,,,,,,,,,,,,,,,,,,,,,,,,,,,,,,,,,,,,,,,,,,,,,,,,,,,,,,,
,,?,0,0,,,,,,stimuli/images/PICTURE_255.png,PENNY,5e510d0760dd0913e45370dc,07/11/1954,2020-07-09_22h13.10.755,proactive,2020.1.2,Win32,60,5f073de81c76c3308c0e4fb3,5f078846422aa73aa2d99ac6,3,,,,,,shovel,,,,,,,,,,,2,2,0,1,1,19,1,,,,,,,,,,,,,,,,,,,,,,,,,,,,,,,,,,,,,,,,,,,,,,,,,,,,,,,,,,,,,,,,,,,,,,
,,?,0.004,0,,,,,,stimuli/images/PICTURE_311.png,TOILET,5e510d0760dd0913e45370dc,07/11/1954,2020-07-09_22h13.10.755,proactive,2020.1.2,Win32,60,5f073de81c76c3308c0e4fb3,5f078846422aa73aa2d99ac6,3,,,,,,razor,,,,,,,,,,,6,2,0,2,2,54,1,,,,,,,,,,,,,,,,,,,,,,,,,,,,,,,,,,,,,,,,,,,,,,,,,,,,,,,,,,,,,,,,,,,,,,
,,BOYS,5.844,1,,,,,,stimuli/images/PICTURE_215.png,BOYS,5e510d0760dd0913e45370dc,07/11/1954,2020-07-09_22h13.10.755,proactive,2020.1.2,Win32,60,5f073de81c76c3308c0e4fb3,5f078846422aa73aa2d99ac6,3,,,,,,boot,,,,,,,,,,,3,2,0,3,3,24,1,,,,,,,,,,,,,,,,,,,,,,,,,,,,,,,,,,,,,,,,,,,,,,,,,,,,,,,,,,,,,,,,,,,,,,
,,?,0.005,0,,,,,,stimuli/images/PICTURE_356.png,CANDY,5e510d0760dd0913e45370dc,07/11/1954,2020-07-09_22h13.10.755,proactive,2020.1.2,Win32,60,5f073de81c76c3308c0e4fb3,5f078846422aa73aa2d99ac6,3,,,,,,pawn,,,,,,,,,,,5,2,0,4,4,46,1,,,,,,,,,,,,,,,,,,,,,,,,,,,,,,,,,,,,,,,,,,,,,,,,,,,,,,,,,,,,,,,,,,,,,,
,,?,0,0,,,,,,stimuli/images/PICTURE_57.png,CASINO,5e510d0760dd0913e45370dc,07/11/1954,2020-07-09_22h13.10.755,proactive,2020.1.2,Win32,60,5f073de81c76c3308c0e4fb3,5f078846422aa73aa2d99ac6,3,,,,,,stamp,,,,,,,,,,,2,2,0,5,5,12,1,,,,,,,,,,,,,,,,,,,,,,,,,,,,,,,,,,,,,,,,,,,,,,,,,,,,,,,,,,,,,,,,,,,,,,
,,?,0.001,0,,,,,,stimuli/images/PICTURE_285.png,WRITER,5e510d0760dd0913e45370dc,07/11/1954,2020-07-09_22h13.10.755,proactive,2020.1.2,Win32,60,5f073de81c76c3308c0e4fb3,5f078846422aa73aa2d99ac6,3,,,,,,carrot,,,,,,,,,,,1,2,0,6,6,6,1,,,,,,,,,,,,,,,,,,,,,,,,,,,,,,,,,,,,,,,,,,,,,,,,,,,,,,,,,,,,,,,,,,,,,,
,,?,0.005,0,,,,,,stimuli/images/PICTURE_654.png,YEAR,5e510d0760dd0913e45370dc,07/11/1954,2020-07-09_22h13.10.755,proactive,2020.1.2,Win32,60,5f073de81c76c3308c0e4fb3,5f078846422aa73aa2d99ac6,3,,,,,,pencil,,,,,,,,,,,5,2,0,7,7,41,1,,,,,,,,,,,,,,,,,,,,,,,,,,,,,,,,,,,,,,,,,,,,,,,,,,,,,,,,,,,,,,,,,,,,,,
,,SPIRIT,6.36,1,,,,,,stimuli/images/PICTURE_208.png,SPIRIT,5e510d0760dd0913e45370dc,07/11/1954,2020-07-09_22h13.10.755,proactive,2020.1.2,Win32,60,5f073de81c76c3308c0e4fb3,5f078846422aa73aa2d99ac6,3,,,,,,microphone,,,,,,,,,,,3,2,0,8,8,28,1,,,,,,,,,,,,,,,,,,,,,,,,,,,,,,,,,,,,,,,,,,,,,,,,,,,,,,,,,,,,,,,,,,,,,,
,,?,0.003,0,,,,,,stimuli/images/PICTURE_2.png,AREA,5e510d0760dd0913e45370dc,07/11/1954,2020-07-09_22h13.10.755,proactive,2020.1.2,Win32,60,5f073de81c76c3308c0e4fb3,5f078846422aa73aa2d99ac6,3,,,,,,tyre,,,,,,,,,,,4,2,0,9,9,32,1,,,,,,,,,,,,,,,,,,,,,,,,,,,,,,,,,,,,,,,,,,,,,,,,,,,,,,,,,,,,,,,,,,,,,,
,,?,0,0,,,,,,stimuli/images/PICTURE_564.png,PLENTY,5e510d0760dd0913e45370dc,07/11/1954,2020-07-09_22h13.10.755,proactive,2020.1.2,Win32,60,5f073de81c76c3308c0e4fb3,5f078846422aa73aa2d99ac6,3,,,,,,spoon,,,,,,,,,,,2,2,0,10,10,11,1,,,,,,,,,,,,,,,,,,,,,,,,,,,,,,,,,,,,,,,,,,,,,,,,,,,,,,,,,,,,,,,,,,,,,,
,,HOUSE,2.639,1,,,,,,stimuli/images/PICTURE_177.png,HOUSE,5e510d0760dd0913e45370dc,07/11/1954,2020-07-09_22h13.10.755,proactive,2020.1.2,Win32,60,5f073de81c76c3308c0e4fb3,5f078846422aa73aa2d99ac6,3,,,,,,mushroom,,,,,,,,,,,3,2,0,11,11,25,1,,,,,,,,,,,,,,,,,,,,,,,,,,,,,,,,,,,,,,,,,,,,,,,,,,,,,,,,,,,,,,,,,,,,,,
,,?,0.004,0,,,,,,stimuli/images/PICTURE_509.png,BATH,5e510d0760dd0913e45370dc,07/11/1954,2020-07-09_22h13.10.755,proactive,2020.1.2,Win32,60,5f073de81c76c3308c0e4fb3,5f078846422aa73aa2d99ac6,3,,,,,,telephone,,,,,,,,,,,2,2,0,12,12,15,1,,,,,,,,,,,,,,,,,,,,,,,,,,,,,,,,,,,,,,,,,,,,,,,,,,,,,,,,,,,,,,,,,,,,,,
,,?,0.001,0,,,,,,stimuli/images/PICTURE_487.png,POLICY,5e510d0760dd0913e45370dc,07/11/1954,2020-07-09_22h13.10.755,proactive,2020.1.2,Win32,60,5f073de81c76c3308c0e4fb3,5f078846422aa73aa2d99ac6,3,,,,,,basket,,,,,,,,,,,4,2,0,13,13,34,1,,,,,,,,,,,,,,,,,,,,,,,,,,,,,,,,,,,,,,,,,,,,,,,,,,,,,,,,,,,,,,,,,,,,,,
,,?,0.001,0,,,,,,stimuli/images/PICTURE_692.png,DUDE,5e510d0760dd0913e45370dc,07/11/1954,2020-07-09_22h13.10.755,proactive,2020.1.2,Win32,60,5f073de81c76c3308c0e4fb3,5f078846422aa73aa2d99ac6,3,,,,,,cherry,,,,,,,,,,,5,2,0,14,14,47,1,,,,,,,,,,,,,,,,,,,,,,,,,,,,,,,,,,,,,,,,,,,,,,,,,,,,,,,,,,,,,,,,,,,,,,
,,?,0.001,0,,,,,,stimuli/images/PICTURE_215.png,LEADER,5e510d0760dd0913e45370dc,07/11/1954,2020-07-09_22h13.10.755,proactive,2020.1.2,Win32,60,5f073de81c76c3308c0e4fb3,5f078846422aa73aa2d99ac6,3,,,,,,boot,,,,,,,,,,,5,2,0,15,15,43,1,,,,,,,,,,,,,,,,,,,,,,,,,,,,,,,,,,,,,,,,,,,,,,,,,,,,,,,,,,,,,,,,,,,,,,
,,?,0.005,0,,,,,,stimuli/images/PICTURE_311.png,FLESH,5e510d0760dd0913e45370dc,07/11/1954,2020-07-09_22h13.10.755,proactive,2020.1.2,Win32,60,5f073de81c76c3308c0e4fb3,5f078846422aa73aa2d99ac6,3,,,,,,razor,,,,,,,,,,,1,2,0,16,16,3,1,,,,,,,,,,,,,,,,,,,,,,,,,,,,,,,,,,,,,,,,,,,,,,,,,,,,,,,,,,,,,,,,,,,,,,
,,?,0.001,0,,,,,,stimuli/images/PICTURE_348.png,TOILET,5e510d0760dd0913e45370dc,07/11/1954,2020-07-09_22h13.10.755,proactive,2020.1.2,Win32,60,5f073de81c76c3308c0e4fb3,5f078846422aa73aa2d99ac6,3,,,,,,pepper,,,,,,,,,,,1,2,0,17,17,4,1,,,,,,,,,,,,,,,,,,,,,,,,,,,,,,,,,,,,,,,,,,,,,,,,,,,,,,,,,,,,,,,,,,,,,,
,,?,0,0,,,,,,stimuli/images/PICTURE_141.png,CLIENT,5e510d0760dd0913e45370dc,07/11/1954,2020-07-09_22h13.10.755,proactive,2020.1.2,Win32,60,5f073de81c76c3308c0e4fb3,5f078846422aa73aa2d99ac6,3,,,,,,sunflower,,,,,,,,,,,4,2,0,18,18,30,1,,,,,,,,,,,,,,,,,,,,,,,,,,,,,,,,,,,,,,,,,,,,,,,,,,,,,,,,,,,,,,,,,,,,,,
