consent_key.keys,consent_key.rt,recalled,recalled_rt,recall_acc,example_recall.thisRepN,example_recall.thisTrialN,example_recall.thisN,example_recall.thisIndex,example_recall.ran,file,word,participant,date,expName,psychopyVersion,OS,frameRate,STUDY_ID,SESSION_ID,list,prac_learn_study_loop.thisRepN,prac_learn_study_loop.thisTrialN,prac_learn_study_loop.thisN,prac_learn_study_loop.thisIndex,prac_learn_study_loop.ran,image,prac_learn_test_loop.thisRepN,prac_learn_test_loop.thisTrialN,prac_learn_test_loop.thisN,prac_learn_test_loop.thisIndex,prac_learn_test_loop.ran,learn_study_loop.thisRepN,learn_study_loop.thisTrialN,learn_study_loop.thisN,learn_study_loop.thisIndex,learn_study_loop.ran,list_no,block_no,learn_test_loop.thisRepN,learn_test_loop.thisTrialN,learn_test_loop.thisN,learn_test_loop.thisIndex,learn_test_loop.ran,learn_blocks.thisRepN,learn_blocks.thisTrialN,learn_blocks.thisN,learn_blocks.thisIndex,learn_blocks.ran,block_csv,key_resp_13.keys,key_resp_13.rt,learn_blocks_loop.thisRepN,learn_blocks_loop.thisTrialN,learn_blocks_loop.thisN,learn_blocks_loop.thisIndex,learn_blocks_loop.ran,final_learn_test.thisRepN,final_learn_test.thisTrialN,final_learn_test.thisN,final_learn_test.thisIndex,final_learn_test.ran,prac_wm_test_loop.thisRepN,prac_wm_test_loop.thisTrialN,prac_wm_test_loop.thisN,prac_wm_test_loop.thisIndex,prac_wm_test_loop.ran,wm_recalled1,wm_recall_rt1,wm_probed1,wm_recall_acc1,wm_recalled2,wm_recall_rt2,wm_probed2,wm_recall_acc2,wm_recalled3,wm_recall_rt3,wm_probed3,wm_recall_acc3,wm_recalled4,wm_recall_rt4,wm_probed4,wm_recall_acc4,prac_wm_trial_loop.thisRepN,prac_wm_trial_loop.thisTrialN,prac_wm_trial_loop.thisN,prac_wm_trial_loop.thisIndex,prac_wm_trial_loop.ran,word1,image1,file1,item_type1,word2,image2,file2,item_type2,word4,image4,file4,item_type4,word3,image3,file3,item_type3,wm_test_loop.thisRepN,wm_test_loop.thisTrialN,wm_test_loop.thisN,wm_test_loop.thisIndex,wm_test_loop.ran,wm_trial_loop.thisRepN,wm_trial_loop.thisTrialN,wm_trial_loop.thisN,wm_trial_loop.thisIndex,wm_trial_loop.ran
y,55.70577,TOUGH,4.862195,1,0,0,0,0,1,stimuli/images/PICTURE_747.png,TOUGH,5e53aad3d4c2b63a1e7deedc,2020-06-30_19h40.09.341,proactive,2020.1.2,Win32,60,5efb791ed4cb570da489e737,5efb8711a3de8710ce9a2ea6,3,,,,,,,,,,,,,,,,,,,,,,,,,,,,,,,,,,,,,,,,,,,,,,,,,,,,,,,,,,,,,,,,,,,,,,,,,,,,,,,,,,,,,,,,,,,,,
,,,,,,,,,,stimuli/images/PICTURE_727.png,CELL,5e53aad3d4c2b63a1e7deedc,2020-06-30_19h40.09.341,proactive,2020.1.2,Win32,60,5efb791ed4cb570da489e737,5efb8711a3de8710ce9a2ea6,3,0,0,0,1,1,hose,,,,,,,,,,,,,,,,,,,,,,,,,,,,,,,,,,,,,,,,,,,,,,,,,,,,,,,,,,,,,,,,,,,,,,,,,,,,,,,,,,,,,,,
,,,,,,,,,,stimuli/images/PICTURE_269.png,GENIUS,5e53aad3d4c2b63a1e7deedc,2020-06-30_19h40.09.341,proactive,2020.1.2,Win32,60,5efb791ed4cb570da489e737,5efb8711a3de8710ce9a2ea6,3,0,1,1,0,1,chameleon,,,,,,,,,,,,,,,,,,,,,,,,,,,,,,,,,,,,,,,,,,,,,,,,,,,,,,,,,,,,,,,,,,,,,,,,,,,,,,,,,,,,,,,
,,,,,,,,,,stimuli/images/PICTURE_658.png,DEVIL,5e53aad3d4c2b63a1e7deedc,2020-06-30_19h40.09.341,proactive,2020.1.2,Win32,60,5efb791ed4cb570da489e737,5efb8711a3de8710ce9a2ea6,3,0,2,2,3,1,crow,,,,,,,,,,,,,,,,,,,,,,,,,,,,,,,,,,,,,,,,,,,,,,,,,,,,,,,,,,,,,,,,,,,,,,,,,,,,,,,,,,,,,,,
,,,,,,,,,,stimuli/images/PICTURE_697.png,KILLER,5e53aad3d4c2b63a1e7deedc,2020-06-30_19h40.09.341,proactive,2020.1.2,Win32,60,5efb791ed4cb570da489e737,5efb8711a3de8710ce9a2ea6,3,0,3,3,4,1,peach,,,,,,,,,,,,,,,,,,,,,,,,,,,,,,,,,,,,,,,,,,,,,,,,,,,,,,,,,,,,,,,,,,,,,,,,,,,,,,,,,,,,,,,
,,?,5.858315,0,,,,,,stimuli/images/PICTURE_727.png,CELL,5e53aad3d4c2b63a1e7deedc,2020-06-30_19h40.09.341,proactive,2020.1.2,Win32,60,5efb791ed4cb570da489e737,5efb8711a3de8710ce9a2ea6,3,,,,,,hose,0,0,0,1,1,,,,,,,,,,,,,,,,,,,,,,,,,,,,,,,,,,,,,,,,,,,,,,,,,,,,,,,,,,,,,,,,,,,,,,,,,,,,,,,,,,
,,?,10.01179,0,,,,,,stimuli/images/PICTURE_658.png,DEVIL,5e53aad3d4c2b63a1e7deedc,2020-06-30_19h40.09.341,proactive,2020.1.2,Win32,60,5efb791ed4cb570da489e737,5efb8711a3de8710ce9a2ea6,3,,,,,,crow,0,1,1,3,1,,,,,,,,,,,,,,,,,,,,,,,,,,,,,,,,,,,,,,,,,,,,,,,,,,,,,,,,,,,,,,,,,,,,,,,,,,,,,,,,,,
,,LOSS,6.51311,1,,,,,,stimuli/images/PICTURE_378.png,LOSS,5e53aad3d4c2b63a1e7deedc,2020-06-30_19h40.09.341,proactive,2020.1.2,Win32,60,5efb791ed4cb570da489e737,5efb8711a3de8710ce9a2ea6,3,,,,,,lobster,0,2,2,2,1,,,,,,,,,,,,,,,,,,,,,,,,,,,,,,,,,,,,,,,,,,,,,,,,,,,,,,,,,,,,,,,,,,,,,,,,,,,,,,,,,,
,,KILLER,2.46493,1,,,,,,stimuli/images/PICTURE_697.png,KILLER,5e53aad3d4c2b63a1e7deedc,2020-06-30_19h40.09.341,proactive,2020.1.2,Win32,60,5efb791ed4cb570da489e737,5efb8711a3de8710ce9a2ea6,3,,,,,,peach,0,3,3,4,1,,,,,,,,,,,,,,,,,,,,,,,,,,,,,,,,,,,,,,,,,,,,,,,,,,,,,,,,,,,,,,,,,,,,,,,,,,,,,,,,,,
,,?,9.448445,0,,,,,,stimuli/images/PICTURE_269.png,GENIUS,5e53aad3d4c2b63a1e7deedc,2020-06-30_19h40.09.341,proactive,2020.1.2,Win32,60,5efb791ed4cb570da489e737,5efb8711a3de8710ce9a2ea6,3,,,,,,chameleon,0,4,4,0,1,,,,,,,,,,,,,,,,,,,,,,,,,,,,,,,,,,,,,,,,,,,,,,,,,,,,,,,,,,,,,,,,,,,,,,,,,,,,,,,,,,
,,,,,,,,,,stimuli/images/PICTURE_2.png,JUNGLE,5e53aad3d4c2b63a1e7deedc,2020-06-30_19h40.09.341,proactive,2020.1.2,Win32,60,5efb791ed4cb570da489e737,5efb8711a3de8710ce9a2ea6,3,,,,,,tyre,,,,,,0,0,0,1,1,1,2,,,,,,,,,,,,,,,,,,,,,,,,,,,,,,,,,,,,,,,,,,,,,,,,,,,,,,,,,,,,,,,,,,,,,,,,,,,
,,,,,,,,,,stimuli/images/PICTURE_677.png,PHOTO,5e53aad3d4c2b63a1e7deedc,2020-06-30_19h40.09.341,proactive,2020.1.2,Win32,60,5efb791ed4cb570da489e737,5efb8711a3de8710ce9a2ea6,3,,,,,,map,,,,,,0,1,1,14,1,2,2,,,,,,,,,,,,,,,,,,,,,,,,,,,,,,,,,,,,,,,,,,,,,,,,,,,,,,,,,,,,,,,,,,,,,,,,,,,
,,,,,,,,,,stimuli/images/PICTURE_311.png,FLESH,5e53aad3d4c2b63a1e7deedc,2020-06-30_19h40.09.341,proactive,2020.1.2,Win32,60,5efb791ed4cb570da489e737,5efb8711a3de8710ce9a2ea6,3,,,,,,razor,,,,,,0,2,2,3,1,1,2,,,,,,,,,,,,,,,,,,,,,,,,,,,,,,,,,,,,,,,,,,,,,,,,,,,,,,,,,,,,,,,,,,,,,,,,,,,
,,,,,,,,,,stimuli/images/PICTURE_487.png,ROOF,5e53aad3d4c2b63a1e7deedc,2020-06-30_19h40.09.341,proactive,2020.1.2,Win32,60,5efb791ed4cb570da489e737,5efb8711a3de8710ce9a2ea6,3,,,,,,basket,,,,,,0,3,3,50,1,6,2,,,,,,,,,,,,,,,,,,,,,,,,,,,,,,,,,,,,,,,,,,,,,,,,,,,,,,,,,,,,,,,,,,,,,,,,,,,
,,,,,,,,,,stimuli/images/PICTURE_68.png,KIND,5e53aad3d4c2b63a1e7deedc,2020-06-30_19h40.09.341,proactive,2020.1.2,Win32,60,5efb791ed4cb570da489e737,5efb8711a3de8710ce9a2ea6,3,,,,,,candle,,,,,,0,4,4,23,1,3,2,,,,,,,,,,,,,,,,,,,,,,,,,,,,,,,,,,,,,,,,,,,,,,,,,,,,,,,,,,,,,,,,,,,,,,,,,,,
,,,,,,,,,,stimuli/images/PICTURE_57.png,CANDY,5e53aad3d4c2b63a1e7deedc,2020-06-30_19h40.09.341,proactive,2020.1.2,Win32,60,5efb791ed4cb570da489e737,5efb8711a3de8710ce9a2ea6,3,,,,,,stamp,,,,,,0,5,5,52,1,6,2,,,,,,,,,,,,,,,,,,,,,,,,,,,,,,,,,,,,,,,,,,,,,,,,,,,,,,,,,,,,,,,,,,,,,,,,,,,
,,,,,,,,,,stimuli/images/PICTURE_2.png,AREA,5e53aad3d4c2b63a1e7deedc,2020-06-30_19h40.09.341,proactive,2020.1.2,Win32,60,5efb791ed4cb570da489e737,5efb8711a3de8710ce9a2ea6,3,,,,,,tyre,,,,,,0,6,6,32,1,4,2,,,,,,,,,,,,,,,,,,,,,,,,,,,,,,,,,,,,,,,,,,,,,,,,,,,,,,,,,,,,,,,,,,,,,,,,,,,
,,,,,,,,,,stimuli/images/PICTURE_667.png,GLASS,5e53aad3d4c2b63a1e7deedc,2020-06-30_19h40.09.341,proactive,2020.1.2,Win32,60,5efb791ed4cb570da489e737,5efb8711a3de8710ce9a2ea6,3,,,,,,daisy,,,,,,0,7,7,27,1,3,2,,,,,,,,,,,,,,,,,,,,,,,,,,,,,,,,,,,,,,,,,,,,,,,,,,,,,,,,,,,,,,,,,,,,,,,,,,,
,,,,,,,,,,stimuli/images/PICTURE_509.png,BATH,5e53aad3d4c2b63a1e7deedc,2020-06-30_19h40.09.341,proactive,2020.1.2,Win32,60,5efb791ed4cb570da489e737,5efb8711a3de8710ce9a2ea6,3,,,,,,telephone,,,,,,0,8,8,15,1,2,2,,,,,,,,,,,,,,,,,,,,,,,,,,,,,,,,,,,,,,,,,,,,,,,,,,,,,,,,,,,,,,,,,,,,,,,,,,,
,,,,,,,,,,stimuli/images/PICTURE_356.png,CANDY,5e53aad3d4c2b63a1e7deedc,2020-06-30_19h40.09.341,proactive,2020.1.2,Win32,60,5efb791ed4cb570da489e737,5efb8711a3de8710ce9a2ea6,3,,,,,,pawn,,,,,,0,9,9,46,1,5,2,,,,,,,,,,,,,,,,,,,,,,,,,,,,,,,,,,,,,,,,,,,,,,,,,,,,,,,,,,,,,,,,,,,,,,,,,,,
,,,,,,,,,,stimuli/images/PICTURE_487.png,POLICY,5e53aad3d4c2b63a1e7deedc,2020-06-30_19h40.09.341,proactive,2020.1.2,Win32,60,5efb791ed4cb570da489e737,5efb8711a3de8710ce9a2ea6,3,,,,,,basket,,,,,,0,10,10,34,1,4,2,,,,,,,,,,,,,,,,,,,,,,,,,,,,,,,,,,,,,,,,,,,,,,,,,,,,,,,,,,,,,,,,,,,,,,,,,,,
,,,,,,,,,,stimuli/images/PICTURE_311.png,TOILET,5e53aad3d4c2b63a1e7deedc,2020-06-30_19h40.09.341,proactive,2020.1.2,Win32,60,5efb791ed4cb570da489e737,5efb8711a3de8710ce9a2ea6,3,,,,,,razor,,,,,,0,11,11,54,1,6,2,,,,,,,,,,,,,,,,,,,,,,,,,,,,,,,,,,,,,,,,,,,,,,,,,,,,,,,,,,,,,,,,,,,,,,,,,,,
,,,,,,,,,,stimuli/images/PICTURE_32.png,LETTER,5e53aad3d4c2b63a1e7deedc,2020-06-30_19h40.09.341,proactive,2020.1.2,Win32,60,5efb791ed4cb570da489e737,5efb8711a3de8710ce9a2ea6,3,,,,,,crown,,,,,,0,12,12,56,1,6,2,,,,,,,,,,,,,,,,,,,,,,,,,,,,,,,,,,,,,,,,,,,,,,,,,,,,,,,,,,,,,,,,,,,,,,,,,,,
,,,,,,,,,,stimuli/images/PICTURE_677.png,FAMILY,5e53aad3d4c2b63a1e7deedc,2020-06-30_19h40.09.341,proactive,2020.1.2,Win32,60,5efb791ed4cb570da489e737,5efb8711a3de8710ce9a2ea6,3,,,,,,map,,,,,,0,13,13,53,1,6,2,,,,,,,,,,,,,,,,,,,,,,,,,,,,,,,,,,,,,,,,,,,,,,,,,,,,,,,,,,,,,,,,,,,,,,,,,,,
,,,,,,,,,,stimuli/images/PICTURE_654.png,COPS,5e53aad3d4c2b63a1e7deedc,2020-06-30_19h40.09.341,proactive,2020.1.2,Win32,60,5efb791ed4cb570da489e737,5efb8711a3de8710ce9a2ea6,3,,,,,,pencil,,,,,,0,14,14,10,1,2,2,,,,,,,,,,,,,,,,,,,,,,,,,,,,,,,,,,,,,,,,,,,,,,,,,,,,,,,,,,,,,,,,,,,,,,,,,,,
,,,,,,,,,,stimuli/images/PICTURE_297.png,BODY,5e53aad3d4c2b63a1e7deedc,2020-06-30_19h40.09.341,proactive,2020.1.2,Win32,60,5efb791ed4cb570da489e737,5efb8711a3de8710ce9a2ea6,3,,,,,,aeroplane,,,,,,0,15,15,51,1,6,2,,,,,,,,,,,,,,,,,,,,,,,,,,,,,,,,,,,,,,,,,,,,,,,,,,,,,,,,,,,,,,,,,,,,,,,,,,,
,,,,,,,,,,stimuli/images/PICTURE_141.png,CLIENT,5e53aad3d4c2b63a1e7deedc,2020-06-30_19h40.09.341,proactive,2020.1.2,Win32,60,5efb791ed4cb570da489e737,5efb8711a3de8710ce9a2ea6,3,,,,,,sunflower,,,,,,0,16,16,30,1,4,2,,,,,,,,,,,,,,,,,,,,,,,,,,,,,,,,,,,,,,,,,,,,,,,,,,,,,,,,,,,,,,,,,,,,,,,,,,,
,,,,,,,,,,stimuli/images/PICTURE_215.png,BOYS,5e53aad3d4c2b63a1e7deedc,2020-06-30_19h40.09.341,proactive,2020.1.2,Win32,60,5efb791ed4cb570da489e737,5efb8711a3de8710ce9a2ea6,3,,,,,,boot,,,,,,0,17,17,24,1,3,2,,,,,,,,,,,,,,,,,,,,,,,,,,,,,,,,,,,,,,,,,,,,,,,,,,,,,,,,,,,,,,,,,,,,,,,,,,,
,,,,,,,,,,stimuli/images/PICTURE_57.png,CASINO,5e53aad3d4c2b63a1e7deedc,2020-06-30_19h40.09.341,proactive,2020.1.2,Win32,60,5efb791ed4cb570da489e737,5efb8711a3de8710ce9a2ea6,3,,,,,,stamp,,,,,,0,18,18,12,1,2,2,,,,,,,,,,,,,,,,,,,,,,,,,,,,,,,,,,,,,,,,,,,,,,,,,,,,,,,,,,,,,,,,,,,,,,,,,,,
,,,,,,,,,,stimuli/images/PICTURE_208.png,SPIRIT,5e53aad3d4c2b63a1e7deedc,2020-06-30_19h40.09.341,proactive,2020.1.2,Win32,60,5efb791ed4cb570da489e737,5efb8711a3de8710ce9a2ea6,3,,,,,,microphone,,,,,,0,19,19,28,1,3,2,,,,,,,,,,,,,,,,,,,,,,,,,,,,,,,,,,,,,,,,,,,,,,,,,,,,,,,,,,,,,,,,,,,,,,,,,,,
,,,,,,,,,,stimuli/images/PICTURE_123.png,SALE,5e53aad3d4c2b63a1e7deedc,2020-06-30_19h40.09.341,proactive,2020.1.2,Win32,60,5efb791ed4cb570da489e737,5efb8711a3de8710ce9a2ea6,3,,,,,,dart,,,,,,0,20,20,8,1,1,2,,,,,,,,,,,,,,,,,,,,,,,,,,,,,,,,,,,,,,,,,,,,,,,,,,,,,,,,,,,,,,,,,,,,,,,,,,,
,,,,,,,,,,stimuli/images/PICTURE_491.png,SERIES,5e53aad3d4c2b63a1e7deedc,2020-06-30_19h40.09.341,proactive,2020.1.2,Win32,60,5efb791ed4cb570da489e737,5efb8711a3de8710ce9a2ea6,3,,,,,,rug,,,,,,0,21,21,39,1,4,2,,,,,,,,,,,,,,,,,,,,,,,,,,,,,,,,,,,,,,,,,,,,,,,,,,,,,,,,,,,,,,,,,,,,,,,,,,,
,,,,,,,,,,stimuli/images/PICTURE_453.png,FAMILY,5e53aad3d4c2b63a1e7deedc,2020-06-30_19h40.09.341,proactive,2020.1.2,Win32,60,5efb791ed4cb570da489e737,5efb8711a3de8710ce9a2ea6,3,,,,,,scissors,,,,,,0,22,22,48,1,5,2,,,,,,,,,,,,,,,,,,,,,,,,,,,,,,,,,,,,,,,,,,,,,,,,,,,,,,,,,,,,,,,,,,,,,,,,,,,
,,,,,,,,,,stimuli/images/PICTURE_509.png,MILLER,5e53aad3d4c2b63a1e7deedc,2020-06-30_19h40.09.341,proactive,2020.1.2,Win32,60,5efb791ed4cb570da489e737,5efb8711a3de8710ce9a2ea6,3,,,,,,telephone,,,,,,0,23,23,49,1,5,2,,,,,,,,,,,,,,,,,,,,,,,,,,,,,,,,,,,,,,,,,,,,,,,,,,,,,,,,,,,,,,,,,,,,,,,,,,,
,,,,,,,,,,stimuli/images/PICTURE_405.png,JUNGLE,5e53aad3d4c2b63a1e7deedc,2020-06-30_19h40.09.341,proactive,2020.1.2,Win32,60,5efb791ed4cb570da489e737,5efb8711a3de8710ce9a2ea6,3,,,,,,anchor,,,,,,0,24,24,13,1,2,2,,,,,,,,,,,,,,,,,,,,,,,,,,,,,,,,,,,,,,,,,,,,,,,,,,,,,,,,,,,,,,,,,,,,,,,,,,,
,,,,,,,,,,stimuli/images/PICTURE_564.png,PLENTY,5e53aad3d4c2b63a1e7deedc,2020-06-30_19h40.09.341,proactive,2020.1.2,Win32,60,5efb791ed4cb570da489e737,5efb8711a3de8710ce9a2ea6,3,,,,,,spoon,,,,,,0,25,25,11,1,2,2,,,,,,,,,,,,,,,,,,,,,,,,,,,,,,,,,,,,,,,,,,,,,,,,,,,,,,,,,,,,,,,,,,,,,,,,,,,
,,,,,,,,,,stimuli/images/PICTURE_57.png,NATION,5e53aad3d4c2b63a1e7deedc,2020-06-30_19h40.09.341,proactive,2020.1.2,Win32,60,5efb791ed4cb570da489e737,5efb8711a3de8710ce9a2ea6,3,,,,,,stamp,,,,,,0,26,26,21,1,3,2,,,,,,,,,,,,,,,,,,,,,,,,,,,,,,,,,,,,,,,,,,,,,,,,,,,,,,,,,,,,,,,,,,,,,,,,,,,
,,,,,,,,,,stimuli/images/PICTURE_403.png,FAMILY,5e53aad3d4c2b63a1e7deedc,2020-06-30_19h40.09.341,proactive,2020.1.2,Win32,60,5efb791ed4cb570da489e737,5efb8711a3de8710ce9a2ea6,3,,,,,,cathedral,,,,,,0,27,27,9,1,1,2,,,,,,,,,,,,,,,,,,,,,,,,,,,,,,,,,,,,,,,,,,,,,,,,,,,,,,,,,,,,,,,,,,,,,,,,,,,
,,,,,,,,,,stimuli/images/PICTURE_405.png,JUNGLE,5e53aad3d4c2b63a1e7deedc,2020-06-30_19h40.09.341,proactive,2020.1.2,Win32,60,5efb791ed4cb570da489e737,5efb8711a3de8710ce9a2ea6,3,,,,,,anchor,,,,,,0,28,28,58,1,6,2,,,,,,,,,,,,,,,,,,,,,,,,,,,,,,,,,,,,,,,,,,,,,,,,,,,,,,,,,,,,,,,,,,,,,,,,,,,
,,,,,,,,,,stimuli/images/PICTURE_470.png,BEAUTY,5e53aad3d4c2b63a1e7deedc,2020-06-30_19h40.09.341,proactive,2020.1.2,Win32,60,5efb791ed4cb570da489e737,5efb8711a3de8710ce9a2ea6,3,,,,,,motorbike,,,,,,0,29,29,26,1,3,2,,,,,,,,,,,,,,,,,,,,,,,,,,,,,,,,,,,,,,,,,,,,,,,,,,,,,,,,,,,,,,,,,,,,,,,,,,,
,,,,,,,,,,stimuli/images/PICTURE_2.png,YARD,5e53aad3d4c2b63a1e7deedc,2020-06-30_19h40.09.341,proactive,2020.1.2,Win32,60,5efb791ed4cb570da489e737,5efb8711a3de8710ce9a2ea6,3,,,,,,tyre,,,,,,0,30,30,55,1,6,2,,,,,,,,,,,,,,,,,,,,,,,,,,,,,,,,,,,,,,,,,,,,,,,,,,,,,,,,,,,,,,,,,,,,,,,,,,,
,,,,,,,,,,stimuli/images/PICTURE_654.png,YEAR,5e53aad3d4c2b63a1e7deedc,2020-06-30_19h40.09.341,proactive,2020.1.2,Win32,60,5efb791ed4cb570da489e737,5efb8711a3de8710ce9a2ea6,3,,,,,,pencil,,,,,,0,31,31,41,1,5,2,,,,,,,,,,,,,,,,,,,,,,,,,,,,,,,,,,,,,,,,,,,,,,,,,,,,,,,,,,,,,,,,,,,,,,,,,,,
,,,,,,,,,,stimuli/images/PICTURE_215.png,LEADER,5e53aad3d4c2b63a1e7deedc,2020-06-30_19h40.09.341,proactive,2020.1.2,Win32,60,5efb791ed4cb570da489e737,5efb8711a3de8710ce9a2ea6,3,,,,,,boot,,,,,,0,32,32,43,1,5,2,,,,,,,,,,,,,,,,,,,,,,,,,,,,,,,,,,,,,,,,,,,,,,,,,,,,,,,,,,,,,,,,,,,,,,,,,,,
,,,,,,,,,,stimuli/images/PICTURE_296.png,CLOCK,5e53aad3d4c2b63a1e7deedc,2020-06-30_19h40.09.341,proactive,2020.1.2,Win32,60,5efb791ed4cb570da489e737,5efb8711a3de8710ce9a2ea6,3,,,,,,bolt,,,,,,0,33,33,18,1,2,2,,,,,,,,,,,,,,,,,,,,,,,,,,,,,,,,,,,,,,,,,,,,,,,,,,,,,,,,,,,,,,,,,,,,,,,,,,,
,,,,,,,,,,stimuli/images/PICTURE_470.png,MOMENT,5e53aad3d4c2b63a1e7deedc,2020-06-30_19h40.09.341,proactive,2020.1.2,Win32,60,5efb791ed4cb570da489e737,5efb8711a3de8710ce9a2ea6,3,,,,,,motorbike,,,,,,0,34,34,40,1,5,2,,,,,,,,,,,,,,,,,,,,,,,,,,,,,,,,,,,,,,,,,,,,,,,,,,,,,,,,,,,,,,,,,,,,,,,,,,,
,,,,,,,,,,stimuli/images/PICTURE_314.png,SPEECH,5e53aad3d4c2b63a1e7deedc,2020-06-30_19h40.09.341,proactive,2020.1.2,Win32,60,5efb791ed4cb570da489e737,5efb8711a3de8710ce9a2ea6,3,,,,,,perfume,,,,,,0,35,35,35,1,4,2,,,,,,,,,,,,,,,,,,,,,,,,,,,,,,,,,,,,,,,,,,,,,,,,,,,,,,,,,,,,,,,,,,,,,,,,,,,
,,,,,,,,,,stimuli/images/PICTURE_750.png,POLICY,5e53aad3d4c2b63a1e7deedc,2020-06-30_19h40.09.341,proactive,2020.1.2,Win32,60,5efb791ed4cb570da489e737,5efb8711a3de8710ce9a2ea6,3,,,,,,kettle,,,,,,0,36,36,44,1,5,2,,,,,,,,,,,,,,,,,,,,,,,,,,,,,,,,,,,,,,,,,,,,,,,,,,,,,,,,,,,,,,,,,,,,,,,,,,,
,,,,,,,,,,stimuli/images/PICTURE_688.png,CLOCK,5e53aad3d4c2b63a1e7deedc,2020-06-30_19h40.09.341,proactive,2020.1.2,Win32,60,5efb791ed4cb570da489e737,5efb8711a3de8710ce9a2ea6,3,,,,,,runner,,,,,,0,37,37,42,1,5,2,,,,,,,,,,,,,,,,,,,,,,,,,,,,,,,,,,,,,,,,,,,,,,,,,,,,,,,,,,,,,,,,,,,,,,,,,,,
,,,,,,,,,,stimuli/images/PICTURE_348.png,TOILET,5e53aad3d4c2b63a1e7deedc,2020-06-30_19h40.09.341,proactive,2020.1.2,Win32,60,5efb791ed4cb570da489e737,5efb8711a3de8710ce9a2ea6,3,,,,,,pepper,,,,,,0,38,38,4,1,1,2,,,,,,,,,,,,,,,,,,,,,,,,,,,,,,,,,,,,,,,,,,,,,,,,,,,,,,,,,,,,,,,,,,,,,,,,,,,
,,,,,,,,,,stimuli/images/PICTURE_405.png,HOUSE,5e53aad3d4c2b63a1e7deedc,2020-06-30_19h40.09.341,proactive,2020.1.2,Win32,60,5efb791ed4cb570da489e737,5efb8711a3de8710ce9a2ea6,3,,,,,,anchor,,,,,,0,39,39,2,1,1,2,,,,,,,,,,,,,,,,,,,,,,,,,,,,,,,,,,,,,,,,,,,,,,,,,,,,,,,,,,,,,,,,,,,,,,,,,,,
,,,,,,,,,,stimuli/images/PICTURE_285.png,WRITER,5e53aad3d4c2b63a1e7deedc,2020-06-30_19h40.09.341,proactive,2020.1.2,Win32,60,5efb791ed4cb570da489e737,5efb8711a3de8710ce9a2ea6,3,,,,,,carrot,,,,,,0,40,40,6,1,1,2,,,,,,,,,,,,,,,,,,,,,,,,,,,,,,,,,,,,,,,,,,,,,,,,,,,,,,,,,,,,,,,,,,,,,,,,,,,
,,,,,,,,,,stimuli/images/PICTURE_93.png,GIRL,5e53aad3d4c2b63a1e7deedc,2020-06-30_19h40.09.341,proactive,2020.1.2,Win32,60,5efb791ed4cb570da489e737,5efb8711a3de8710ce9a2ea6,3,,,,,,skateboard,,,,,,0,41,41,31,1,4,2,,,,,,,,,,,,,,,,,,,,,,,,,,,,,,,,,,,,,,,,,,,,,,,,,,,,,,,,,,,,,,,,,,,,,,,,,,,
,,,,,,,,,,stimuli/images/PICTURE_692.png,DUDE,5e53aad3d4c2b63a1e7deedc,2020-06-30_19h40.09.341,proactive,2020.1.2,Win32,60,5efb791ed4cb570da489e737,5efb8711a3de8710ce9a2ea6,3,,,,,,cherry,,,,,,0,42,42,47,1,5,2,,,,,,,,,,,,,,,,,,,,,,,,,,,,,,,,,,,,,,,,,,,,,,,,,,,,,,,,,,,,,,,,,,,,,,,,,,,
,,,,,,,,,,stimuli/images/PICTURE_95.png,NIGHT,5e53aad3d4c2b63a1e7deedc,2020-06-30_19h40.09.341,proactive,2020.1.2,Win32,60,5efb791ed4cb570da489e737,5efb8711a3de8710ce9a2ea6,3,,,,,,suitcase,,,,,,0,43,43,37,1,4,2,,,,,,,,,,,,,,,,,,,,,,,,,,,,,,,,,,,,,,,,,,,,,,,,,,,,,,,,,,,,,,,,,,,,,,,,,,,
,,,,,,,,,,stimuli/images/PICTURE_348.png,DUDE,5e53aad3d4c2b63a1e7deedc,2020-06-30_19h40.09.341,proactive,2020.1.2,Win32,60,5efb791ed4cb570da489e737,5efb8711a3de8710ce9a2ea6,3,,,,,,pepper,,,,,,0,44,44,59,1,6,2,,,,,,,,,,,,,,,,,,,,,,,,,,,,,,,,,,,,,,,,,,,,,,,,,,,,,,,,,,,,,,,,,,,,,,,,,,,
,,,,,,,,,,stimuli/images/PICTURE_255.png,PENNY,5e53aad3d4c2b63a1e7deedc,2020-06-30_19h40.09.341,proactive,2020.1.2,Win32,60,5efb791ed4cb570da489e737,5efb8711a3de8710ce9a2ea6,3,,,,,,shovel,,,,,,0,45,45,19,1,2,2,,,,,,,,,,,,,,,,,,,,,,,,,,,,,,,,,,,,,,,,,,,,,,,,,,,,,,,,,,,,,,,,,,,,,,,,,,,
,,,,,,,,,,stimuli/images/PICTURE_504.png,HOUSE,5e53aad3d4c2b63a1e7deedc,2020-06-30_19h40.09.341,proactive,2020.1.2,Win32,60,5efb791ed4cb570da489e737,5efb8711a3de8710ce9a2ea6,3,,,,,,wheel,,,,,,0,46,46,36,1,4,2,,,,,,,,,,,,,,,,,,,,,,,,,,,,,,,,,,,,,,,,,,,,,,,,,,,,,,,,,,,,,,,,,,,,,,,,,,,
,,,,,,,,,,stimuli/images/PICTURE_655.png,SALE,5e53aad3d4c2b63a1e7deedc,2020-06-30_19h40.09.341,proactive,2020.1.2,Win32,60,5efb791ed4cb570da489e737,5efb8711a3de8710ce9a2ea6,3,,,,,,megaphone,,,,,,0,47,47,57,1,6,2,,,,,,,,,,,,,,,,,,,,,,,,,,,,,,,,,,,,,,,,,,,,,,,,,,,,,,,,,,,,,,,,,,,,,,,,,,,
,,,,,,,,,,stimuli/images/PICTURE_160.png,HOTEL,5e53aad3d4c2b63a1e7deedc,2020-06-30_19h40.09.341,proactive,2020.1.2,Win32,60,5efb791ed4cb570da489e737,5efb8711a3de8710ce9a2ea6,3,,,,,,wheelbarrow,,,,,,0,48,48,16,1,2,2,,,,,,,,,,,,,,,,,,,,,,,,,,,,,,,,,,,,,,,,,,,,,,,,,,,,,,,,,,,,,,,,,,,,,,,,,,,
,,,,,,,,,,stimuli/images/PICTURE_147.png,LEADER,5e53aad3d4c2b63a1e7deedc,2020-06-30_19h40.09.341,proactive,2020.1.2,Win32,60,5efb791ed4cb570da489e737,5efb8711a3de8710ce9a2ea6,3,,,,,,hanger,,,,,,0,49,49,33,1,4,2,,,,,,,,,,,,,,,,,,,,,,,,,,,,,,,,,,,,,,,,,,,,,,,,,,,,,,,,,,,,,,,,,,,,,,,,,,,
,,,,,,,,,,stimuli/images/PICTURE_509.png,SHOTS,5e53aad3d4c2b63a1e7deedc,2020-06-30_19h40.09.341,proactive,2020.1.2,Win32,60,5efb791ed4cb570da489e737,5efb8711a3de8710ce9a2ea6,3,,,,,,telephone,,,,,,0,50,50,7,1,1,2,,,,,,,,,,,,,,,,,,,,,,,,,,,,,,,,,,,,,,,,,,,,,,,,,,,,,,,,,,,,,,,,,,,,,,,,,,,
,,,,,,,,,,stimuli/images/PICTURE_327.png,LEADER,5e53aad3d4c2b63a1e7deedc,2020-06-30_19h40.09.341,proactive,2020.1.2,Win32,60,5efb791ed4cb570da489e737,5efb8711a3de8710ce9a2ea6,3,,,,,,helmet,,,,,,0,51,51,17,1,2,2,,,,,,,,,,,,,,,,,,,,,,,,,,,,,,,,,,,,,,,,,,,,,,,,,,,,,,,,,,,,,,,,,,,,,,,,,,,
,,,,,,,,,,stimuli/images/PICTURE_215.png,FOOD,5e53aad3d4c2b63a1e7deedc,2020-06-30_19h40.09.341,proactive,2020.1.2,Win32,60,5efb791ed4cb570da489e737,5efb8711a3de8710ce9a2ea6,3,,,,,,boot,,,,,,0,52,52,5,1,1,2,,,,,,,,,,,,,,,,,,,,,,,,,,,,,,,,,,,,,,,,,,,,,,,,,,,,,,,,,,,,,,,,,,,,,,,,,,,
,,,,,,,,,,stimuli/images/PICTURE_18.png,RIVER,5e53aad3d4c2b63a1e7deedc,2020-06-30_19h40.09.341,proactive,2020.1.2,Win32,60,5efb791ed4cb570da489e737,5efb8711a3de8710ce9a2ea6,3,,,,,,planet,,,,,,0,53,53,22,1,3,2,,,,,,,,,,,,,,,,,,,,,,,,,,,,,,,,,,,,,,,,,,,,,,,,,,,,,,,,,,,,,,,,,,,,,,,,,,,
,,,,,,,,,,stimuli/images/PICTURE_33.png,COPS,5e53aad3d4c2b63a1e7deedc,2020-06-30_19h40.09.341,proactive,2020.1.2,Win32,60,5efb791ed4cb570da489e737,5efb8711a3de8710ce9a2ea6,3,,,,,,frame,,,,,,0,54,54,29,1,3,2,,,,,,,,,,,,,,,,,,,,,,,,,,,,,,,,,,,,,,,,,,,,,,,,,,,,,,,,,,,,,,,,,,,,,,,,,,,
,,,,,,,,,,stimuli/images/PICTURE_452.png,COPS,5e53aad3d4c2b63a1e7deedc,2020-06-30_19h40.09.341,proactive,2020.1.2,Win32,60,5efb791ed4cb570da489e737,5efb8711a3de8710ce9a2ea6,3,,,,,,watch,,,,,,0,55,55,0,1,1,2,,,,,,,,,,,,,,,,,,,,,,,,,,,,,,,,,,,,,,,,,,,,,,,,,,,,,,,,,,,,,,,,,,,,,,,,,,,
,,,,,,,,,,stimuli/images/PICTURE_285.png,PRINCE,5e53aad3d4c2b63a1e7deedc,2020-06-30_19h40.09.341,proactive,2020.1.2,Win32,60,5efb791ed4cb570da489e737,5efb8711a3de8710ce9a2ea6,3,,,,,,carrot,,,,,,0,56,56,20,1,3,2,,,,,,,,,,,,,,,,,,,,,,,,,,,,,,,,,,,,,,,,,,,,,,,,,,,,,,,,,,,,,,,,,,,,,,,,,,,
,,,,,,,,,,stimuli/images/PICTURE_509.png,APPLE,5e53aad3d4c2b63a1e7deedc,2020-06-30_19h40.09.341,proactive,2020.1.2,Win32,60,5efb791ed4cb570da489e737,5efb8711a3de8710ce9a2ea6,3,,,,,,telephone,,,,,,0,57,57,38,1,4,2,,,,,,,,,,,,,,,,,,,,,,,,,,,,,,,,,,,,,,,,,,,,,,,,,,,,,,,,,,,,,,,,,,,,,,,,,,,
,,,,,,,,,,stimuli/images/PICTURE_708.png,VALLEY,5e53aad3d4c2b63a1e7deedc,2020-06-30_19h40.09.341,proactive,2020.1.2,Win32,60,5efb791ed4cb570da489e737,5efb8711a3de8710ce9a2ea6,3,,,,,,monkey,,,,,,0,58,58,45,1,5,2,,,,,,,,,,,,,,,,,,,,,,,,,,,,,,,,,,,,,,,,,,,,,,,,,,,,,,,,,,,,,,,,,,,,,,,,,,,
,,?,0.0012,0,,,,,,stimuli/images/PICTURE_2.png,AREA,5e53aad3d4c2b63a1e7deedc,2020-06-30_19h40.09.341,proactive,2020.1.2,Win32,60,5efb791ed4cb570da489e737,5efb8711a3de8710ce9a2ea6,3,,,,,,tyre,,,,,,,,,,,4,2,0,0,0,32,1,,,,,,,,,,,,,,,,,,,,,,,,,,,,,,,,,,,,,,,,,,,,,,,,,,,,,,,,,,,,,,,,,,,,,,
,,LOVE,5.65426,0,,,,,,stimuli/images/PICTURE_667.png,GLASS,5e53aad3d4c2b63a1e7deedc,2020-06-30_19h40.09.341,proactive,2020.1.2,Win32,60,5efb791ed4cb570da489e737,5efb8711a3de8710ce9a2ea6,3,,,,,,daisy,,,,,,,,,,,3,2,0,1,1,27,1,,,,,,,,,,,,,,,,,,,,,,,,,,,,,,,,,,,,,,,,,,,,,,,,,,,,,,,,,,,,,,,,,,,,,,
,,?,0.00175,0,,,,,,stimuli/images/PICTURE_452.png,COPS,5e53aad3d4c2b63a1e7deedc,2020-06-30_19h40.09.341,proactive,2020.1.2,Win32,60,5efb791ed4cb570da489e737,5efb8711a3de8710ce9a2ea6,3,,,,,,watch,,,,,,,,,,,1,2,0,2,2,0,1,,,,,,,,,,,,,,,,,,,,,,,,,,,,,,,,,,,,,,,,,,,,,,,,,,,,,,,,,,,,,,,,,,,,,,
,,?,0.00184,0,,,,,,stimuli/images/PICTURE_750.png,POLICY,5e53aad3d4c2b63a1e7deedc,2020-06-30_19h40.09.341,proactive,2020.1.2,Win32,60,5efb791ed4cb570da489e737,5efb8711a3de8710ce9a2ea6,3,,,,,,kettle,,,,,,,,,,,5,2,0,3,3,44,1,,,,,,,,,,,,,,,,,,,,,,,,,,,,,,,,,,,,,,,,,,,,,,,,,,,,,,,,,,,,,,,,,,,,,,
,,?,0.00807,0,,,,,,stimuli/images/PICTURE_147.png,LEADER,5e53aad3d4c2b63a1e7deedc,2020-06-30_19h40.09.341,proactive,2020.1.2,Win32,60,5efb791ed4cb570da489e737,5efb8711a3de8710ce9a2ea6,3,,,,,,hanger,,,,,,,,,,,4,2,0,4,4,33,1,,,,,,,,,,,,,,,,,,,,,,,,,,,,,,,,,,,,,,,,,,,,,,,,,,,,,,,,,,,,,,,,,,,,,,
,,?,0.00246,0,,,,,,stimuli/images/PICTURE_215.png,LEADER,5e53aad3d4c2b63a1e7deedc,2020-06-30_19h40.09.341,proactive,2020.1.2,Win32,60,5efb791ed4cb570da489e737,5efb8711a3de8710ce9a2ea6,3,,,,,,boot,,,,,,,,,,,5,2,0,5,5,43,1,,,,,,,,,,,,,,,,,,,,,,,,,,,,,,,,,,,,,,,,,,,,,,,,,,,,,,,,,,,,,,,,,,,,,,
,,?,0.003155,0,,,,,,stimuli/images/PICTURE_504.png,HOUSE,5e53aad3d4c2b63a1e7deedc,2020-06-30_19h40.09.341,proactive,2020.1.2,Win32,60,5efb791ed4cb570da489e737,5efb8711a3de8710ce9a2ea6,3,,,,,,wheel,,,,,,,,,,,4,2,0,6,6,36,1,,,,,,,,,,,,,,,,,,,,,,,,,,,,,,,,,,,,,,,,,,,,,,,,,,,,,,,,,,,,,,,,,,,,,,
,,?,0.005125,0,,,,,,stimuli/images/PICTURE_123.png,SALE,5e53aad3d4c2b63a1e7deedc,2020-06-30_19h40.09.341,proactive,2020.1.2,Win32,60,5efb791ed4cb570da489e737,5efb8711a3de8710ce9a2ea6,3,,,,,,dart,,,,,,,,,,,1,2,0,7,7,8,1,,,,,,,,,,,,,,,,,,,,,,,,,,,,,,,,,,,,,,,,,,,,,,,,,,,,,,,,,,,,,,,,,,,,,,
,,?,0.002395,0,,,,,,stimuli/images/PICTURE_93.png,GIRL,5e53aad3d4c2b63a1e7deedc,2020-06-30_19h40.09.341,proactive,2020.1.2,Win32,60,5efb791ed4cb570da489e737,5efb8711a3de8710ce9a2ea6,3,,,,,,skateboard,,,,,,,,,,,4,2,0,8,8,31,1,,,,,,,,,,,,,,,,,,,,,,,,,,,,,,,,,,,,,,,,,,,,,,,,,,,,,,,,,,,,,,,,,,,,,,
,,?,0.00198,0,,,,,,stimuli/images/PICTURE_297.png,BODY,5e53aad3d4c2b63a1e7deedc,2020-06-30_19h40.09.341,proactive,2020.1.2,Win32,60,5efb791ed4cb570da489e737,5efb8711a3de8710ce9a2ea6,3,,,,,,aeroplane,,,,,,,,,,,6,2,0,9,9,51,1,,,,,,,,,,,,,,,,,,,,,,,,,,,,,,,,,,,,,,,,,,,,,,,,,,,,,,,,,,,,,,,,,,,,,,
,,?,0.00251,0,,,,,,stimuli/images/PICTURE_487.png,ROOF,5e53aad3d4c2b63a1e7deedc,2020-06-30_19h40.09.341,proactive,2020.1.2,Win32,60,5efb791ed4cb570da489e737,5efb8711a3de8710ce9a2ea6,3,,,,,,basket,,,,,,,,,,,6,2,0,10,10,50,1,,,,,,,,,,,,,,,,,,,,,,,,,,,,,,,,,,,,,,,,,,,,,,,,,,,,,,,,,,,,,,,,,,,,,,
,,?,0.001275,0,,,,,,stimuli/images/PICTURE_509.png,SHOTS,5e53aad3d4c2b63a1e7deedc,2020-06-30_19h40.09.341,proactive,2020.1.2,Win32,60,5efb791ed4cb570da489e737,5efb8711a3de8710ce9a2ea6,3,,,,,,telephone,,,,,,,,,,,1,2,0,11,11,7,1,,,,,,,,,,,,,,,,,,,,,,,,,,,,,,,,,,,,,,,,,,,,,,,,,,,,,,,,,,,,,,,,,,,,,,
,,LOVE,7.51077,0,,,,,,stimuli/images/PICTURE_208.png,SPIRIT,5e53aad3d4c2b63a1e7deedc,2020-06-30_19h40.09.341,proactive,2020.1.2,Win32,60,5efb791ed4cb570da489e737,5efb8711a3de8710ce9a2ea6,3,,,,,,microphone,,,,,,,,,,,3,2,0,12,12,28,1,,,,,,,,,,,,,,,,,,,,,,,,,,,,,,,,,,,,,,,,,,,,,,,,,,,,,,,,,,,,,,,,,,,,,,
,,?,0.00262,0,,,,,,stimuli/images/PICTURE_509.png,MILLER,5e53aad3d4c2b63a1e7deedc,2020-06-30_19h40.09.341,proactive,2020.1.2,Win32,60,5efb791ed4cb570da489e737,5efb8711a3de8710ce9a2ea6,3,,,,,,telephone,,,,,,,,,,,5,2,0,13,13,49,1,,,,,,,,,,,,,,,,,,,,,,,,,,,,,,,,,,,,,,,,,,,,,,,,,,,,,,,,,,,,,,,,,,,,,,
,,?,0.00209,0,,,,,,stimuli/images/PICTURE_215.png,FOOD,5e53aad3d4c2b63a1e7deedc,2020-06-30_19h40.09.341,proactive,2020.1.2,Win32,60,5efb791ed4cb570da489e737,5efb8711a3de8710ce9a2ea6,3,,,,,,boot,,,,,,,,,,,1,2,0,14,14,5,1,,,,,,,,,,,,,,,,,,,,,,,,,,,,,,,,,,,,,,,,,,,,,,,,,,,,,,,,,,,,,,,,,,,,,,
,,?,0.003225,0,,,,,,stimuli/images/PICTURE_314.png,SPEECH,5e53aad3d4c2b63a1e7deedc,2020-06-30_19h40.09.341,proactive,2020.1.2,Win32,60,5efb791ed4cb570da489e737,5efb8711a3de8710ce9a2ea6,3,,,,,,perfume,,,,,,,,,,,4,2,0,15,15,35,1,,,,,,,,,,,,,,,,,,,,,,,,,,,,,,,,,,,,,,,,,,,,,,,,,,,,,,,,,,,,,,,,,,,,,,
,,?,0.00217,0,,,,,,stimuli/images/PICTURE_708.png,VALLEY,5e53aad3d4c2b63a1e7deedc,2020-06-30_19h40.09.341,proactive,2020.1.2,Win32,60,5efb791ed4cb570da489e737,5efb8711a3de8710ce9a2ea6,3,,,,,,monkey,,,,,,,,,,,5,2,0,16,16,45,1,,,,,,,,,,,,,,,,,,,,,,,,,,,,,,,,,,,,,,,,,,,,,,,,,,,,,,,,,,,,,,,,,,,,,,
,,?,0.00284,0,,,,,,stimuli/images/PICTURE_311.png,FLESH,5e53aad3d4c2b63a1e7deedc,2020-06-30_19h40.09.341,proactive,2020.1.2,Win32,60,5efb791ed4cb570da489e737,5efb8711a3de8710ce9a2ea6,3,,,,,,razor,,,,,,,,,,,1,2,0,17,17,3,1,,,,,,,,,,,,,,,,,,,,,,,,,,,,,,,,,,,,,,,,,,,,,,,,,,,,,,,,,,,,,,,,,,,,,,
,,?,0.00229,0,,,,,,stimuli/images/PICTURE_491.png,SERIES,5e53aad3d4c2b63a1e7deedc,2020-06-30_19h40.09.341,proactive,2020.1.2,Win32,60,5efb791ed4cb570da489e737,5efb8711a3de8710ce9a2ea6,3,,,,,,rug,,,,,,,,,,,4,2,0,18,18,39,1,,,,,,,,,,,,,,,,,,,,,,,,,,,,,,,,,,,,,,,,,,,,,,,,,,,,,,,,,,,,,,,,,,,,,,
,,?,0.002125,0,,,,,,stimuli/images/PICTURE_453.png,FAMILY,5e53aad3d4c2b63a1e7deedc,2020-06-30_19h40.09.341,proactive,2020.1.2,Win32,60,5efb791ed4cb570da489e737,5efb8711a3de8710ce9a2ea6,3,,,,,,scissors,,,,,,,,,,,5,2,0,19,19,48,1,,,,,,,,,,,,,,,,,,,,,,,,,,,,,,,,,,,,,,,,,,,,,,,,,,,,,,,,,,,,,,,,,,,,,,
,,?,0.00248,0,,,,,,stimuli/images/PICTURE_348.png,DUDE,5e53aad3d4c2b63a1e7deedc,2020-06-30_19h40.09.341,proactive,2020.1.2,Win32,60,5efb791ed4cb570da489e737,5efb8711a3de8710ce9a2ea6,3,,,,,,pepper,,,,,,,,,,,6,2,0,20,20,59,1,,,,,,,,,,,,,,,,,,,,,,,,,,,,,,,,,,,,,,,,,,,,,,,,,,,,,,,,,,,,,,,,,,,,,,
,,?,0.002635,0,,,,,,stimuli/images/PICTURE_311.png,TOILET,5e53aad3d4c2b63a1e7deedc,2020-06-30_19h40.09.341,proactive,2020.1.2,Win32,60,5efb791ed4cb570da489e737,5efb8711a3de8710ce9a2ea6,3,,,,,,razor,,,,,,,,,,,6,2,0,21,21,54,1,,,,,,,,,,,,,,,,,,,,,,,,,,,,,,,,,,,,,,,,,,,,,,,,,,,,,,,,,,,,,,,,,,,,,,
,,?,0.007395,0,,,,,,stimuli/images/PICTURE_677.png,PHOTO,5e53aad3d4c2b63a1e7deedc,2020-06-30_19h40.09.341,proactive,2020.1.2,Win32,60,5efb791ed4cb570da489e737,5efb8711a3de8710ce9a2ea6,3,,,,,,map,,,,,,,,,,,2,2,0,22,22,14,1,,,,,,,,,,,,,,,,,,,,,,,,,,,,,,,,,,,,,,,,,,,,,,,,,,,,,,,,,,,,,,,,,,,,,,
,,?,0.00224,0,,,,,,stimuli/images/PICTURE_509.png,APPLE,5e53aad3d4c2b63a1e7deedc,2020-06-30_19h40.09.341,proactive,2020.1.2,Win32,60,5efb791ed4cb570da489e737,5efb8711a3de8710ce9a2ea6,3,,,,,,telephone,,,,,,,,,,,4,2,0,23,23,38,1,,,,,,,,,,,,,,,,,,,,,,,,,,,,,,,,,,,,,,,,,,,,,,,,,,,,,,,,,,,,,,,,,,,,,,
,,?,0.002575,0,,,,,,stimuli/images/PICTURE_2.png,YARD,5e53aad3d4c2b63a1e7deedc,2020-06-30_19h40.09.341,proactive,2020.1.2,Win32,60,5efb791ed4cb570da489e737,5efb8711a3de8710ce9a2ea6,3,,,,,,tyre,,,,,,,,,,,6,2,0,24,24,55,1,,,,,,,,,,,,,,,,,,,,,,,,,,,,,,,,,,,,,,,,,,,,,,,,,,,,,,,,,,,,,,,,,,,,,,
,,?,0.00217,0,,,,,,stimuli/images/PICTURE_405.png,JUNGLE,5e53aad3d4c2b63a1e7deedc,2020-06-30_19h40.09.341,proactive,2020.1.2,Win32,60,5efb791ed4cb570da489e737,5efb8711a3de8710ce9a2ea6,3,,,,,,anchor,,,,,,,,,,,6,2,0,25,25,58,1,,,,,,,,,,,,,,,,,,,,,,,,,,,,,,,,,,,,,,,,,,,,,,,,,,,,,,,,,,,,,,,,,,,,,,
,,?,0.002195,0,,,,,,stimuli/images/PICTURE_470.png,MOMENT,5e53aad3d4c2b63a1e7deedc,2020-06-30_19h40.09.341,proactive,2020.1.2,Win32,60,5efb791ed4cb570da489e737,5efb8711a3de8710ce9a2ea6,3,,,,,,motorbike,,,,,,,,,,,5,2,0,26,26,40,1,,,,,,,,,,,,,,,,,,,,,,,,,,,,,,,,,,,,,,,,,,,,,,,,,,,,,,,,,,,,,,,,,,,,,,
,,?,0.002705,0,,,,,,stimuli/images/PICTURE_348.png,TOILET,5e53aad3d4c2b63a1e7deedc,2020-06-30_19h40.09.341,proactive,2020.1.2,Win32,60,5efb791ed4cb570da489e737,5efb8711a3de8710ce9a2ea6,3,,,,,,pepper,,,,,,,,,,,1,2,0,27,27,4,1,,,,,,,,,,,,,,,,,,,,,,,,,,,,,,,,,,,,,,,,,,,,,,,,,,,,,,,,,,,,,,,,,,,,,,
,,BOYS,2.219,1,,,,,,stimuli/images/PICTURE_215.png,BOYS,5e53aad3d4c2b63a1e7deedc,2020-06-30_19h40.09.341,proactive,2020.1.2,Win32,60,5efb791ed4cb570da489e737,5efb8711a3de8710ce9a2ea6,3,,,,,,boot,,,,,,,,,,,3,2,0,28,28,24,1,,,,,,,,,,,,,,,,,,,,,,,,,,,,,,,,,,,,,,,,,,,,,,,,,,,,,,,,,,,,,,,,,,,,,,
,,?,0.001685,0,,,,,,stimuli/images/PICTURE_405.png,JUNGLE,5e53aad3d4c2b63a1e7deedc,2020-06-30_19h40.09.341,proactive,2020.1.2,Win32,60,5efb791ed4cb570da489e737,5efb8711a3de8710ce9a2ea6,3,,,,,,anchor,,,,,,,,,,,2,2,0,29,29,13,1,,,,,,,,,,,,,,,,,,,,,,,,,,,,,,,,,,,,,,,,,,,,,,,,,,,,,,,,,,,,,,,,,,,,,,
,,?,0.001555,0,,,,,,stimuli/images/PICTURE_327.png,LEADER,5e53aad3d4c2b63a1e7deedc,2020-06-30_19h40.09.341,proactive,2020.1.2,Win32,60,5efb791ed4cb570da489e737,5efb8711a3de8710ce9a2ea6,3,,,,,,helmet,,,,,,,,,,,2,2,0,30,30,17,1,,,,,,,,,,,,,,,,,,,,,,,,,,,,,,,,,,,,,,,,,,,,,,,,,,,,,,,,,,,,,,,,,,,,,,
,,?,0.00159,0,,,,,,stimuli/images/PICTURE_32.png,LETTER,5e53aad3d4c2b63a1e7deedc,2020-06-30_19h40.09.341,proactive,2020.1.2,Win32,60,5efb791ed4cb570da489e737,5efb8711a3de8710ce9a2ea6,3,,,,,,crown,,,,,,,,,,,6,2,0,31,31,56,1,,,,,,,,,,,,,,,,,,,,,,,,,,,,,,,,,,,,,,,,,,,,,,,,,,,,,,,,,,,,,,,,,,,,,,
,,?,0.001735,0,,,,,,stimuli/images/PICTURE_285.png,WRITER,5e53aad3d4c2b63a1e7deedc,2020-06-30_19h40.09.341,proactive,2020.1.2,Win32,60,5efb791ed4cb570da489e737,5efb8711a3de8710ce9a2ea6,3,,,,,,carrot,,,,,,,,,,,1,2,0,32,32,6,1,,,,,,,,,,,,,,,,,,,,,,,,,,,,,,,,,,,,,,,,,,,,,,,,,,,,,,,,,,,,,,,,,,,,,,
,,?,0.001655,0,,,,,,stimuli/images/PICTURE_655.png,SALE,5e53aad3d4c2b63a1e7deedc,2020-06-30_19h40.09.341,proactive,2020.1.2,Win32,60,5efb791ed4cb570da489e737,5efb8711a3de8710ce9a2ea6,3,,,,,,megaphone,,,,,,,,,,,6,2,0,33,33,57,1,,,,,,,,,,,,,,,,,,,,,,,,,,,,,,,,,,,,,,,,,,,,,,,,,,,,,,,,,,,,,,,,,,,,,,
,,KING,8.592165,0,,,,,,stimuli/images/PICTURE_285.png,PRINCE,5e53aad3d4c2b63a1e7deedc,2020-06-30_19h40.09.341,proactive,2020.1.2,Win32,60,5efb791ed4cb570da489e737,5efb8711a3de8710ce9a2ea6,3,,,,,,carrot,,,,,,,,,,,3,2,0,34,34,20,1,,,,,,,,,,,,,,,,,,,,,,,,,,,,,,,,,,,,,,,,,,,,,,,,,,,,,,,,,,,,,,,,,,,,,,
,,?,0.000985,0,,,,,,stimuli/images/PICTURE_688.png,CLOCK,5e53aad3d4c2b63a1e7deedc,2020-06-30_19h40.09.341,proactive,2020.1.2,Win32,60,5efb791ed4cb570da489e737,5efb8711a3de8710ce9a2ea6,3,,,,,,runner,,,,,,,,,,,5,2,0,35,35,42,1,,,,,,,,,,,,,,,,,,,,,,,,,,,,,,,,,,,,,,,,,,,,,,,,,,,,,,,,,,,,,,,,,,,,,,
,,BEAUTY,6.52833,1,,,,,,stimuli/images/PICTURE_470.png,BEAUTY,5e53aad3d4c2b63a1e7deedc,2020-06-30_19h40.09.341,proactive,2020.1.2,Win32,60,5efb791ed4cb570da489e737,5efb8711a3de8710ce9a2ea6,3,,,,,,motorbike,,,,,,,,,,,3,2,0,36,36,26,1,,,,,,,,,,,,,,,,,,,,,,,,,,,,,,,,,,,,,,,,,,,,,,,,,,,,,,,,,,,,,,,,,,,,,,
,,RIVER,2.398225,1,,,,,,stimuli/images/PICTURE_18.png,RIVER,5e53aad3d4c2b63a1e7deedc,2020-06-30_19h40.09.341,proactive,2020.1.2,Win32,60,5efb791ed4cb570da489e737,5efb8711a3de8710ce9a2ea6,3,,,,,,planet,,,,,,,,,,,3,2,0,37,37,22,1,,,,,,,,,,,,,,,,,,,,,,,,,,,,,,,,,,,,,,,,,,,,,,,,,,,,,,,,,,,,,,,,,,,,,,
,,?,0.001245,0,,,,,,stimuli/images/PICTURE_403.png,FAMILY,5e53aad3d4c2b63a1e7deedc,2020-06-30_19h40.09.341,proactive,2020.1.2,Win32,60,5efb791ed4cb570da489e737,5efb8711a3de8710ce9a2ea6,3,,,,,,cathedral,,,,,,,,,,,1,2,0,38,38,9,1,,,,,,,,,,,,,,,,,,,,,,,,,,,,,,,,,,,,,,,,,,,,,,,,,,,,,,,,,,,,,,,,,,,,,,
,,?,0.00094,0,,,,,,stimuli/images/PICTURE_57.png,CASINO,5e53aad3d4c2b63a1e7deedc,2020-06-30_19h40.09.341,proactive,2020.1.2,Win32,60,5efb791ed4cb570da489e737,5efb8711a3de8710ce9a2ea6,3,,,,,,stamp,,,,,,,,,,,2,2,0,39,39,12,1,,,,,,,,,,,,,,,,,,,,,,,,,,,,,,,,,,,,,,,,,,,,,,,,,,,,,,,,,,,,,,,,,,,,,,
,,HOUSE,3.226215,1,,,,,,stimuli/images/PICTURE_177.png,HOUSE,5e53aad3d4c2b63a1e7deedc,2020-06-30_19h40.09.341,proactive,2020.1.2,Win32,60,5efb791ed4cb570da489e737,5efb8711a3de8710ce9a2ea6,3,,,,,,mushroom,,,,,,,,,,,3,2,0,40,40,25,1,,,,,,,,,,,,,,,,,,,,,,,,,,,,,,,,,,,,,,,,,,,,,,,,,,,,,,,,,,,,,,,,,,,,,,
,,?,0.001395,0,,,,,,stimuli/images/PICTURE_296.png,CLOCK,5e53aad3d4c2b63a1e7deedc,2020-06-30_19h40.09.341,proactive,2020.1.2,Win32,60,5efb791ed4cb570da489e737,5efb8711a3de8710ce9a2ea6,3,,,,,,bolt,,,,,,,,,,,2,2,0,41,41,18,1,,,,,,,,,,,,,,,,,,,,,,,,,,,,,,,,,,,,,,,,,,,,,,,,,,,,,,,,,,,,,,,,,,,,,,
,,?,0.0015,0,,,,,,stimuli/images/PICTURE_141.png,CLIENT,5e53aad3d4c2b63a1e7deedc,2020-06-30_19h40.09.341,proactive,2020.1.2,Win32,60,5efb791ed4cb570da489e737,5efb8711a3de8710ce9a2ea6,3,,,,,,sunflower,,,,,,,,,,,4,2,0,42,42,30,1,,,,,,,,,,,,,,,,,,,,,,,,,,,,,,,,,,,,,,,,,,,,,,,,,,,,,,,,,,,,,,,,,,,,,,
,,?,0.0015,0,,,,,,stimuli/images/PICTURE_509.png,BATH,5e53aad3d4c2b63a1e7deedc,2020-06-30_19h40.09.341,proactive,2020.1.2,Win32,60,5efb791ed4cb570da489e737,5efb8711a3de8710ce9a2ea6,3,,,,,,telephone,,,,,,,,,,,2,2,0,43,43,15,1,,,,,,,,,,,,,,,,,,,,,,,,,,,,,,,,,,,,,,,,,,,,,,,,,,,,,,,,,,,,,,,,,,,,,,
,,?,0.00267,0,,,,,,stimuli/images/PICTURE_356.png,CANDY,5e53aad3d4c2b63a1e7deedc,2020-06-30_19h40.09.341,proactive,2020.1.2,Win32,60,5efb791ed4cb570da489e737,5efb8711a3de8710ce9a2ea6,3,,,,,,pawn,,,,,,,,,,,5,2,0,44,44,46,1,,,,,,,,,,,,,,,,,,,,,,,,,,,,,,,,,,,,,,,,,,,,,,,,,,,,,,,,,,,,,,,,,,,,,,
,,?,0.001445,0,,,,,,stimuli/images/PICTURE_160.png,HOTEL,5e53aad3d4c2b63a1e7deedc,2020-06-30_19h40.09.341,proactive,2020.1.2,Win32,60,5efb791ed4cb570da489e737,5efb8711a3de8710ce9a2ea6,3,,,,,,wheelbarrow,,,,,,,,,,,2,2,0,45,45,16,1,,,,,,,,,,,,,,,,,,,,,,,,,,,,,,,,,,,,,,,,,,,,,,,,,,,,,,,,,,,,,,,,,,,,,,
,,?,0.001395,0,,,,,,stimuli/images/PICTURE_2.png,JUNGLE,5e53aad3d4c2b63a1e7deedc,2020-06-30_19h40.09.341,proactive,2020.1.2,Win32,60,5efb791ed4cb570da489e737,5efb8711a3de8710ce9a2ea6,3,,,,,,tyre,,,,,,,,,,,1,2,0,46,46,1,1,,,,,,,,,,,,,,,,,,,,,,,,,,,,,,,,,,,,,,,,,,,,,,,,,,,,,,,,,,,,,,,,,,,,,,
,,COPS,3.15983,1,,,,,,stimuli/images/PICTURE_33.png,COPS,5e53aad3d4c2b63a1e7deedc,2020-06-30_19h40.09.341,proactive,2020.1.2,Win32,60,5efb791ed4cb570da489e737,5efb8711a3de8710ce9a2ea6,3,,,,,,frame,,,,,,,,,,,3,2,0,47,47,29,1,,,,,,,,,,,,,,,,,,,,,,,,,,,,,,,,,,,,,,,,,,,,,,,,,,,,,,,,,,,,,,,,,,,,,,
,,?,0.00164,0,,,,,,stimuli/images/PICTURE_677.png,FAMILY,5e53aad3d4c2b63a1e7deedc,2020-06-30_19h40.09.341,proactive,2020.1.2,Win32,60,5efb791ed4cb570da489e737,5efb8711a3de8710ce9a2ea6,3,,,,,,map,,,,,,,,,,,6,2,0,48,48,53,1,,,,,,,,,,,,,,,,,,,,,,,,,,,,,,,,,,,,,,,,,,,,,,,,,,,,,,,,,,,,,,,,,,,,,,
,,NATION,2.37658,1,,,,,,stimuli/images/PICTURE_57.png,NATION,5e53aad3d4c2b63a1e7deedc,2020-06-30_19h40.09.341,proactive,2020.1.2,Win32,60,5efb791ed4cb570da489e737,5efb8711a3de8710ce9a2ea6,3,,,,,,stamp,,,,,,,,,,,3,2,0,49,49,21,1,,,,,,,,,,,,,,,,,,,,,,,,,,,,,,,,,,,,,,,,,,,,,,,,,,,,,,,,,,,,,,,,,,,,,,
,,?,0.00164,0,,,,,,stimuli/images/PICTURE_255.png,PENNY,5e53aad3d4c2b63a1e7deedc,2020-06-30_19h40.09.341,proactive,2020.1.2,Win32,60,5efb791ed4cb570da489e737,5efb8711a3de8710ce9a2ea6,3,,,,,,shovel,,,,,,,,,,,2,2,0,50,50,19,1,,,,,,,,,,,,,,,,,,,,,,,,,,,,,,,,,,,,,,,,,,,,,,,,,,,,,,,,,,,,,,,,,,,,,,
,,?,0.001475,0,,,,,,stimuli/images/PICTURE_692.png,DUDE,5e53aad3d4c2b63a1e7deedc,2020-06-30_19h40.09.341,proactive,2020.1.2,Win32,60,5efb791ed4cb570da489e737,5efb8711a3de8710ce9a2ea6,3,,,,,,cherry,,,,,,,,,,,5,2,0,51,51,47,1,,,,,,,,,,,,,,,,,,,,,,,,,,,,,,,,,,,,,,,,,,,,,,,,,,,,,,,,,,,,,,,,,,,,,,
,,?,0.001655,0,,,,,,stimuli/images/PICTURE_95.png,NIGHT,5e53aad3d4c2b63a1e7deedc,2020-06-30_19h40.09.341,proactive,2020.1.2,Win32,60,5efb791ed4cb570da489e737,5efb8711a3de8710ce9a2ea6,3,,,,,,suitcase,,,,,,,,,,,4,2,0,52,52,37,1,,,,,,,,,,,,,,,,,,,,,,,,,,,,,,,,,,,,,,,,,,,,,,,,,,,,,,,,,,,,,,,,,,,,,,
,,PEACE,6.502775,0,,,,,,stimuli/images/PICTURE_68.png,KIND,5e53aad3d4c2b63a1e7deedc,2020-06-30_19h40.09.341,proactive,2020.1.2,Win32,60,5efb791ed4cb570da489e737,5efb8711a3de8710ce9a2ea6,3,,,,,,candle,,,,,,,,,,,3,2,0,53,53,23,1,,,,,,,,,,,,,,,,,,,,,,,,,,,,,,,,,,,,,,,,,,,,,,,,,,,,,,,,,,,,,,,,,,,,,,
,,?,0.002025,0,,,,,,stimuli/images/PICTURE_487.png,POLICY,5e53aad3d4c2b63a1e7deedc,2020-06-30_19h40.09.341,proactive,2020.1.2,Win32,60,5efb791ed4cb570da489e737,5efb8711a3de8710ce9a2ea6,3,,,,,,basket,,,,,,,,,,,4,2,0,54,54,34,1,,,,,,,,,,,,,,,,,,,,,,,,,,,,,,,,,,,,,,,,,,,,,,,,,,,,,,,,,,,,,,,,,,,,,,
,,?,0.001495,0,,,,,,stimuli/images/PICTURE_654.png,YEAR,5e53aad3d4c2b63a1e7deedc,2020-06-30_19h40.09.341,proactive,2020.1.2,Win32,60,5efb791ed4cb570da489e737,5efb8711a3de8710ce9a2ea6,3,,,,,,pencil,,,,,,,,,,,5,2,0,55,55,41,1,,,,,,,,,,,,,,,,,,,,,,,,,,,,,,,,,,,,,,,,,,,,,,,,,,,,,,,,,,,,,,,,,,,,,,
,,?,0.0017,0,,,,,,stimuli/images/PICTURE_57.png,CANDY,5e53aad3d4c2b63a1e7deedc,2020-06-30_19h40.09.341,proactive,2020.1.2,Win32,60,5efb791ed4cb570da489e737,5efb8711a3de8710ce9a2ea6,3,,,,,,stamp,,,,,,,,,,,6,2,0,56,56,52,1,,,,,,,,,,,,,,,,,,,,,,,,,,,,,,,,,,,,,,,,,,,,,,,,,,,,,,,,,,,,,,,,,,,,,,
,,?,0.002265,0,,,,,,stimuli/images/PICTURE_564.png,PLENTY,5e53aad3d4c2b63a1e7deedc,2020-06-30_19h40.09.341,proactive,2020.1.2,Win32,60,5efb791ed4cb570da489e737,5efb8711a3de8710ce9a2ea6,3,,,,,,spoon,,,,,,,,,,,2,2,0,57,57,11,1,,,,,,,,,,,,,,,,,,,,,,,,,,,,,,,,,,,,,,,,,,,,,,,,,,,,,,,,,,,,,,,,,,,,,,
,,?,0.002095,0,,,,,,stimuli/images/PICTURE_654.png,COPS,5e53aad3d4c2b63a1e7deedc,2020-06-30_19h40.09.341,proactive,2020.1.2,Win32,60,5efb791ed4cb570da489e737,5efb8711a3de8710ce9a2ea6,3,,,,,,pencil,,,,,,,,,,,2,2,0,58,58,10,1,,,,,,,,,,,,,,,,,,,,,,,,,,,,,,,,,,,,,,,,,,,,,,,,,,,,,,,,,,,,,,,,,,,,,,
,,?,0.001605,0,,,,,,stimuli/images/PICTURE_405.png,HOUSE,5e53aad3d4c2b63a1e7deedc,2020-06-30_19h40.09.341,proactive,2020.1.2,Win32,60,5efb791ed4cb570da489e737,5efb8711a3de8710ce9a2ea6,3,,,,,,anchor,,,,,,,,,,,1,2,0,59,59,2,1,,,,,,,,,,,,,,,,,,,,,,,,,,,,,,,,,,,,,,,,,,,,,,,,,,,,,,,,,,,,,,,,,,,,,,
,,,,,,,,,,,,5e53aad3d4c2b63a1e7deedc,2020-06-30_19h40.09.341,proactive,2020.1.2,Win32,60,5efb791ed4cb570da489e737,5efb8711a3de8710ce9a2ea6,3,,,,,,,,,,,,,,,,,,,,,,,,0,0,0,2,1,stimuli/learn-block3.csv,,,,,,,,,,,,,,,,,,,,,,,,,,,,,,,,,,,,,,,,,,,,,,,,,,,,,,,,,,,,,,,,
,,,,,,,,,,stimuli/images/PICTURE_380.png,CANDY,5e53aad3d4c2b63a1e7deedc,2020-06-30_19h40.09.341,proactive,2020.1.2,Win32,60,5efb791ed4cb570da489e737,5efb8711a3de8710ce9a2ea6,3,,,,,,gorilla,,,,,,0,0,0,0,1,1,1,,,,,,,,,,,,,,,,,,,,,,,,,,,,,,,,,,,,,,,,,,,,,,,,,,,,,,,,,,,,,,,,,,,,,,,,,,,
,,,,,,,,,,stimuli/images/PICTURE_504.png,YEAR,5e53aad3d4c2b63a1e7deedc,2020-06-30_19h40.09.341,proactive,2020.1.2,Win32,60,5efb791ed4cb570da489e737,5efb8711a3de8710ce9a2ea6,3,,,,,,wheel,,,,,,0,1,1,13,1,2,1,,,,,,,,,,,,,,,,,,,,,,,,,,,,,,,,,,,,,,,,,,,,,,,,,,,,,,,,,,,,,,,,,,,,,,,,,,,
,,,,,,,,,,stimuli/images/PICTURE_504.png,COPS,5e53aad3d4c2b63a1e7deedc,2020-06-30_19h40.09.341,proactive,2020.1.2,Win32,60,5efb791ed4cb570da489e737,5efb8711a3de8710ce9a2ea6,3,,,,,,wheel,,,,,,0,2,2,52,1,6,1,,,,,,,,,,,,,,,,,,,,,,,,,,,,,,,,,,,,,,,,,,,,,,,,,,,,,,,,,,,,,,,,,,,,,,,,,,,
,,,,,,,,,,stimuli/images/PICTURE_405.png,YEAR,5e53aad3d4c2b63a1e7deedc,2020-06-30_19h40.09.341,proactive,2020.1.2,Win32,60,5efb791ed4cb570da489e737,5efb8711a3de8710ce9a2ea6,3,,,,,,anchor,,,,,,0,3,3,34,1,4,1,,,,,,,,,,,,,,,,,,,,,,,,,,,,,,,,,,,,,,,,,,,,,,,,,,,,,,,,,,,,,,,,,,,,,,,,,,,
,,,,,,,,,,stimuli/images/PICTURE_95.png,BOYS,5e53aad3d4c2b63a1e7deedc,2020-06-30_19h40.09.341,proactive,2020.1.2,Win32,60,5efb791ed4cb570da489e737,5efb8711a3de8710ce9a2ea6,3,,,,,,suitcase,,,,,,0,4,4,1,1,1,1,,,,,,,,,,,,,,,,,,,,,,,,,,,,,,,,,,,,,,,,,,,,,,,,,,,,,,,,,,,,,,,,,,,,,,,,,,,
,,,,,,,,,,stimuli/images/PICTURE_403.png,WRITER,5e53aad3d4c2b63a1e7deedc,2020-06-30_19h40.09.341,proactive,2020.1.2,Win32,60,5efb791ed4cb570da489e737,5efb8711a3de8710ce9a2ea6,3,,,,,,cathedral,,,,,,0,5,5,31,1,4,1,,,,,,,,,,,,,,,,,,,,,,,,,,,,,,,,,,,,,,,,,,,,,,,,,,,,,,,,,,,,,,,,,,,,,,,,,,,
,,,,,,,,,,stimuli/images/PICTURE_177.png,WRITER,5e53aad3d4c2b63a1e7deedc,2020-06-30_19h40.09.341,proactive,2020.1.2,Win32,60,5efb791ed4cb570da489e737,5efb8711a3de8710ce9a2ea6,3,,,,,,mushroom,,,,,,0,6,6,41,1,5,1,,,,,,,,,,,,,,,,,,,,,,,,,,,,,,,,,,,,,,,,,,,,,,,,,,,,,,,,,,,,,,,,,,,,,,,,,,,
,,,,,,,,,,stimuli/images/PICTURE_467.png,POLICY,5e53aad3d4c2b63a1e7deedc,2020-06-30_19h40.09.341,proactive,2020.1.2,Win32,60,5efb791ed4cb570da489e737,5efb8711a3de8710ce9a2ea6,3,,,,,,peg,,,,,,0,7,7,53,1,6,1,,,,,,,,,,,,,,,,,,,,,,,,,,,,,,,,,,,,,,,,,,,,,,,,,,,,,,,,,,,,,,,,,,,,,,,,,,,
,,,,,,,,,,stimuli/images/PICTURE_667.png,RIVER,5e53aad3d4c2b63a1e7deedc,2020-06-30_19h40.09.341,proactive,2020.1.2,Win32,60,5efb791ed4cb570da489e737,5efb8711a3de8710ce9a2ea6,3,,,,,,daisy,,,,,,0,8,8,10,1,2,1,,,,,,,,,,,,,,,,,,,,,,,,,,,,,,,,,,,,,,,,,,,,,,,,,,,,,,,,,,,,,,,,,,,,,,,,,,,
,,,,,,,,,,stimuli/images/PICTURE_147.png,WOMEN,5e53aad3d4c2b63a1e7deedc,2020-06-30_19h40.09.341,proactive,2020.1.2,Win32,60,5efb791ed4cb570da489e737,5efb8711a3de8710ce9a2ea6,3,,,,,,hanger,,,,,,0,9,9,7,1,1,1,,,,,,,,,,,,,,,,,,,,,,,,,,,,,,,,,,,,,,,,,,,,,,,,,,,,,,,,,,,,,,,,,,,,,,,,,,,
,,,,,,,,,,stimuli/images/PICTURE_95.png,HONEY,5e53aad3d4c2b63a1e7deedc,2020-06-30_19h40.09.341,proactive,2020.1.2,Win32,60,5efb791ed4cb570da489e737,5efb8711a3de8710ce9a2ea6,3,,,,,,suitcase,,,,,,0,10,10,44,1,5,1,,,,,,,,,,,,,,,,,,,,,,,,,,,,,,,,,,,,,,,,,,,,,,,,,,,,,,,,,,,,,,,,,,,,,,,,,,,
,,,,,,,,,,stimuli/images/PICTURE_340.png,LETTER,5e53aad3d4c2b63a1e7deedc,2020-06-30_19h40.09.341,proactive,2020.1.2,Win32,60,5efb791ed4cb570da489e737,5efb8711a3de8710ce9a2ea6,3,,,,,,mirror,,,,,,0,11,11,24,1,3,1,,,,,,,,,,,,,,,,,,,,,,,,,,,,,,,,,,,,,,,,,,,,,,,,,,,,,,,,,,,,,,,,,,,,,,,,,,,
,,,,,,,,,,stimuli/images/PICTURE_677.png,APPLE,5e53aad3d4c2b63a1e7deedc,2020-06-30_19h40.09.341,proactive,2020.1.2,Win32,60,5efb791ed4cb570da489e737,5efb8711a3de8710ce9a2ea6,3,,,,,,map,,,,,,0,12,12,43,1,5,1,,,,,,,,,,,,,,,,,,,,,,,,,,,,,,,,,,,,,,,,,,,,,,,,,,,,,,,,,,,,,,,,,,,,,,,,,,,
,,,,,,,,,,stimuli/images/PICTURE_297.png,RIVER,5e53aad3d4c2b63a1e7deedc,2020-06-30_19h40.09.341,proactive,2020.1.2,Win32,60,5efb791ed4cb570da489e737,5efb8711a3de8710ce9a2ea6,3,,,,,,aeroplane,,,,,,0,13,13,39,1,4,1,,,,,,,,,,,,,,,,,,,,,,,,,,,,,,,,,,,,,,,,,,,,,,,,,,,,,,,,,,,,,,,,,,,,,,,,,,,
,,,,,,,,,,stimuli/images/PICTURE_33.png,FRIEND,5e53aad3d4c2b63a1e7deedc,2020-06-30_19h40.09.341,proactive,2020.1.2,Win32,60,5efb791ed4cb570da489e737,5efb8711a3de8710ce9a2ea6,3,,,,,,frame,,,,,,0,14,14,8,1,1,1,,,,,,,,,,,,,,,,,,,,,,,,,,,,,,,,,,,,,,,,,,,,,,,,,,,,,,,,,,,,,,,,,,,,,,,,,,,
,,,,,,,,,,stimuli/images/PICTURE_32.png,KIND,5e53aad3d4c2b63a1e7deedc,2020-06-30_19h40.09.341,proactive,2020.1.2,Win32,60,5efb791ed4cb570da489e737,5efb8711a3de8710ce9a2ea6,3,,,,,,crown,,,,,,0,15,15,35,1,4,1,,,,,,,,,,,,,,,,,,,,,,,,,,,,,,,,,,,,,,,,,,,,,,,,,,,,,,,,,,,,,,,,,,,,,,,,,,,
,,,,,,,,,,stimuli/images/PICTURE_147.png,YEAR,5e53aad3d4c2b63a1e7deedc,2020-06-30_19h40.09.341,proactive,2020.1.2,Win32,60,5efb791ed4cb570da489e737,5efb8711a3de8710ce9a2ea6,3,,,,,,hanger,,,,,,0,16,16,21,1,3,1,,,,,,,,,,,,,,,,,,,,,,,,,,,,,,,,,,,,,,,,,,,,,,,,,,,,,,,,,,,,,,,,,,,,,,,,,,,
,,,,,,,,,,stimuli/images/PICTURE_296.png,LOTS,5e53aad3d4c2b63a1e7deedc,2020-06-30_19h40.09.341,proactive,2020.1.2,Win32,60,5efb791ed4cb570da489e737,5efb8711a3de8710ce9a2ea6,3,,,,,,bolt,,,,,,0,17,17,9,1,1,1,,,,,,,,,,,,,,,,,,,,,,,,,,,,,,,,,,,,,,,,,,,,,,,,,,,,,,,,,,,,,,,,,,,,,,,,,,,
,,,,,,,,,,stimuli/images/PICTURE_208.png,SYSTEM,5e53aad3d4c2b63a1e7deedc,2020-06-30_19h40.09.341,proactive,2020.1.2,Win32,60,5efb791ed4cb570da489e737,5efb8711a3de8710ce9a2ea6,3,,,,,,microphone,,,,,,0,18,18,32,1,4,1,,,,,,,,,,,,,,,,,,,,,,,,,,,,,,,,,,,,,,,,,,,,,,,,,,,,,,,,,,,,,,,,,,,,,,,,,,,
,,,,,,,,,,stimuli/images/PICTURE_380.png,HONEY,5e53aad3d4c2b63a1e7deedc,2020-06-30_19h40.09.341,proactive,2020.1.2,Win32,60,5efb791ed4cb570da489e737,5efb8711a3de8710ce9a2ea6,3,,,,,,gorilla,,,,,,0,19,19,19,1,2,1,,,,,,,,,,,,,,,,,,,,,,,,,,,,,,,,,,,,,,,,,,,,,,,,,,,,,,,,,,,,,,,,,,,,,,,,,,,
,,,,,,,,,,stimuli/images/PICTURE_469.png,AGENT,5e53aad3d4c2b63a1e7deedc,2020-06-30_19h40.09.341,proactive,2020.1.2,Win32,60,5efb791ed4cb570da489e737,5efb8711a3de8710ce9a2ea6,3,,,,,,stool,,,,,,0,20,20,16,1,2,1,,,,,,,,,,,,,,,,,,,,,,,,,,,,,,,,,,,,,,,,,,,,,,,,,,,,,,,,,,,,,,,,,,,,,,,,,,,
,,,,,,,,,,stimuli/images/PICTURE_708.png,RECORD,5e53aad3d4c2b63a1e7deedc,2020-06-30_19h40.09.341,proactive,2020.1.2,Win32,60,5efb791ed4cb570da489e737,5efb8711a3de8710ce9a2ea6,3,,,,,,monkey,,,,,,0,21,21,58,1,6,1,,,,,,,,,,,,,,,,,,,,,,,,,,,,,,,,,,,,,,,,,,,,,,,,,,,,,,,,,,,,,,,,,,,,,,,,,,,
,,,,,,,,,,stimuli/images/PICTURE_654.png,MONTH,5e53aad3d4c2b63a1e7deedc,2020-06-30_19h40.09.341,proactive,2020.1.2,Win32,60,5efb791ed4cb570da489e737,5efb8711a3de8710ce9a2ea6,3,,,,,,pencil,,,,,,0,22,22,29,1,3,1,,,,,,,,,,,,,,,,,,,,,,,,,,,,,,,,,,,,,,,,,,,,,,,,,,,,,,,,,,,,,,,,,,,,,,,,,,,
,,,,,,,,,,stimuli/images/PICTURE_85.png,NATION,5e53aad3d4c2b63a1e7deedc,2020-06-30_19h40.09.341,proactive,2020.1.2,Win32,60,5efb791ed4cb570da489e737,5efb8711a3de8710ce9a2ea6,3,,,,,,diamond,,,,,,0,23,23,5,1,1,1,,,,,,,,,,,,,,,,,,,,,,,,,,,,,,,,,,,,,,,,,,,,,,,,,,,,,,,,,,,,,,,,,,,,,,,,,,,
,,,,,,,,,,stimuli/images/PICTURE_108.png,POLICY,5e53aad3d4c2b63a1e7deedc,2020-06-30_19h40.09.341,proactive,2020.1.2,Win32,60,5efb791ed4cb570da489e737,5efb8711a3de8710ce9a2ea6,3,,,,,,calendar,,,,,,0,24,24,22,1,3,1,,,,,,,,,,,,,,,,,,,,,,,,,,,,,,,,,,,,,,,,,,,,,,,,,,,,,,,,,,,,,,,,,,,,,,,,,,,
,,,,,,,,,,stimuli/images/PICTURE_32.png,PILLS,5e53aad3d4c2b63a1e7deedc,2020-06-30_19h40.09.341,proactive,2020.1.2,Win32,60,5efb791ed4cb570da489e737,5efb8711a3de8710ce9a2ea6,3,,,,,,crown,,,,,,0,25,25,18,1,2,1,,,,,,,,,,,,,,,,,,,,,,,,,,,,,,,,,,,,,,,,,,,,,,,,,,,,,,,,,,,,,,,,,,,,,,,,,,,
,,,,,,,,,,stimuli/images/PICTURE_487.png,GIRL,5e53aad3d4c2b63a1e7deedc,2020-06-30_19h40.09.341,proactive,2020.1.2,Win32,60,5efb791ed4cb570da489e737,5efb8711a3de8710ce9a2ea6,3,,,,,,basket,,,,,,0,26,26,45,1,5,1,,,,,,,,,,,,,,,,,,,,,,,,,,,,,,,,,,,,,,,,,,,,,,,,,,,,,,,,,,,,,,,,,,,,,,,,,,,
,,,,,,,,,,stimuli/images/PICTURE_491.png,RIVER,5e53aad3d4c2b63a1e7deedc,2020-06-30_19h40.09.341,proactive,2020.1.2,Win32,60,5efb791ed4cb570da489e737,5efb8711a3de8710ce9a2ea6,3,,,,,,rug,,,,,,0,27,27,6,1,1,1,,,,,,,,,,,,,,,,,,,,,,,,,,,,,,,,,,,,,,,,,,,,,,,,,,,,,,,,,,,,,,,,,,,,,,,,,,,
,,,,,,,,,,stimuli/images/PICTURE_68.png,MILE,5e53aad3d4c2b63a1e7deedc,2020-06-30_19h40.09.341,proactive,2020.1.2,Win32,60,5efb791ed4cb570da489e737,5efb8711a3de8710ce9a2ea6,3,,,,,,candle,,,,,,0,28,28,51,1,6,1,,,,,,,,,,,,,,,,,,,,,,,,,,,,,,,,,,,,,,,,,,,,,,,,,,,,,,,,,,,,,,,,,,,,,,,,,,,
,,,,,,,,,,stimuli/images/PICTURE_85.png,TOILET,5e53aad3d4c2b63a1e7deedc,2020-06-30_19h40.09.341,proactive,2020.1.2,Win32,60,5efb791ed4cb570da489e737,5efb8711a3de8710ce9a2ea6,3,,,,,,diamond,,,,,,0,29,29,48,1,5,1,,,,,,,,,,,,,,,,,,,,,,,,,,,,,,,,,,,,,,,,,,,,,,,,,,,,,,,,,,,,,,,,,,,,,,,,,,,
,,,,,,,,,,stimuli/images/PICTURE_504.png,ARTIST,5e53aad3d4c2b63a1e7deedc,2020-06-30_19h40.09.341,proactive,2020.1.2,Win32,60,5efb791ed4cb570da489e737,5efb8711a3de8710ce9a2ea6,3,,,,,,wheel,,,,,,0,30,30,49,1,5,1,,,,,,,,,,,,,,,,,,,,,,,,,,,,,,,,,,,,,,,,,,,,,,,,,,,,,,,,,,,,,,,,,,,,,,,,,,,
,,,,,,,,,,stimuli/images/PICTURE_108.png,FLIGHT,5e53aad3d4c2b63a1e7deedc,2020-06-30_19h40.09.341,proactive,2020.1.2,Win32,60,5efb791ed4cb570da489e737,5efb8711a3de8710ce9a2ea6,3,,,,,,calendar,,,,,,0,31,31,59,1,6,1,,,,,,,,,,,,,,,,,,,,,,,,,,,,,,,,,,,,,,,,,,,,,,,,,,,,,,,,,,,,,,,,,,,,,,,,,,,
,,,,,,,,,,stimuli/images/PICTURE_203.png,NIGHT,5e53aad3d4c2b63a1e7deedc,2020-06-30_19h40.09.341,proactive,2020.1.2,Win32,60,5efb791ed4cb570da489e737,5efb8711a3de8710ce9a2ea6,3,,,,,,cap,,,,,,0,32,32,2,1,1,1,,,,,,,,,,,,,,,,,,,,,,,,,,,,,,,,,,,,,,,,,,,,,,,,,,,,,,,,,,,,,,,,,,,,,,,,,,,
,,,,,,,,,,stimuli/images/PICTURE_449.png,DUDE,5e53aad3d4c2b63a1e7deedc,2020-06-30_19h40.09.341,proactive,2020.1.2,Win32,60,5efb791ed4cb570da489e737,5efb8711a3de8710ce9a2ea6,3,,,,,,bench,,,,,,0,33,33,17,1,2,1,,,,,,,,,,,,,,,,,,,,,,,,,,,,,,,,,,,,,,,,,,,,,,,,,,,,,,,,,,,,,,,,,,,,,,,,,,,
,,,,,,,,,,stimuli/images/PICTURE_685.png,PENNY,5e53aad3d4c2b63a1e7deedc,2020-06-30_19h40.09.341,proactive,2020.1.2,Win32,60,5efb791ed4cb570da489e737,5efb8711a3de8710ce9a2ea6,3,,,,,,goose,,,,,,0,34,34,4,1,1,1,,,,,,,,,,,,,,,,,,,,,,,,,,,,,,,,,,,,,,,,,,,,,,,,,,,,,,,,,,,,,,,,,,,,,,,,,,,
,,,,,,,,,,stimuli/images/PICTURE_339.png,CLIENT,5e53aad3d4c2b63a1e7deedc,2020-06-30_19h40.09.341,proactive,2020.1.2,Win32,60,5efb791ed4cb570da489e737,5efb8711a3de8710ce9a2ea6,3,,,,,,backpack,,,,,,0,35,35,11,1,2,1,,,,,,,,,,,,,,,,,,,,,,,,,,,,,,,,,,,,,,,,,,,,,,,,,,,,,,,,,,,,,,,,,,,,,,,,,,,
,,,,,,,,,,stimuli/images/PICTURE_655.png,TOILET,5e53aad3d4c2b63a1e7deedc,2020-06-30_19h40.09.341,proactive,2020.1.2,Win32,60,5efb791ed4cb570da489e737,5efb8711a3de8710ce9a2ea6,3,,,,,,megaphone,,,,,,0,36,36,12,1,2,1,,,,,,,,,,,,,,,,,,,,,,,,,,,,,,,,,,,,,,,,,,,,,,,,,,,,,,,,,,,,,,,,,,,,,,,,,,,
,,,,,,,,,,stimuli/images/PICTURE_327.png,CASINO,5e53aad3d4c2b63a1e7deedc,2020-06-30_19h40.09.341,proactive,2020.1.2,Win32,60,5efb791ed4cb570da489e737,5efb8711a3de8710ce9a2ea6,3,,,,,,helmet,,,,,,0,37,37,20,1,3,1,,,,,,,,,,,,,,,,,,,,,,,,,,,,,,,,,,,,,,,,,,,,,,,,,,,,,,,,,,,,,,,,,,,,,,,,,,,
,,,,,,,,,,stimuli/images/PICTURE_340.png,VALLEY,5e53aad3d4c2b63a1e7deedc,2020-06-30_19h40.09.341,proactive,2020.1.2,Win32,60,5efb791ed4cb570da489e737,5efb8711a3de8710ce9a2ea6,3,,,,,,mirror,,,,,,0,38,38,54,1,6,1,,,,,,,,,,,,,,,,,,,,,,,,,,,,,,,,,,,,,,,,,,,,,,,,,,,,,,,,,,,,,,,,,,,,,,,,,,,
,,,,,,,,,,stimuli/images/PICTURE_296.png,LIFE,5e53aad3d4c2b63a1e7deedc,2020-06-30_19h40.09.341,proactive,2020.1.2,Win32,60,5efb791ed4cb570da489e737,5efb8711a3de8710ce9a2ea6,3,,,,,,bolt,,,,,,0,39,39,57,1,6,1,,,,,,,,,,,,,,,,,,,,,,,,,,,,,,,,,,,,,,,,,,,,,,,,,,,,,,,,,,,,,,,,,,,,,,,,,,,
,,,,,,,,,,stimuli/images/PICTURE_68.png,ROOF,5e53aad3d4c2b63a1e7deedc,2020-06-30_19h40.09.341,proactive,2020.1.2,Win32,60,5efb791ed4cb570da489e737,5efb8711a3de8710ce9a2ea6,3,,,,,,candle,,,,,,0,40,40,38,1,4,1,,,,,,,,,,,,,,,,,,,,,,,,,,,,,,,,,,,,,,,,,,,,,,,,,,,,,,,,,,,,,,,,,,,,,,,,,,,
,,,,,,,,,,stimuli/images/PICTURE_750.png,HOTEL,5e53aad3d4c2b63a1e7deedc,2020-06-30_19h40.09.341,proactive,2020.1.2,Win32,60,5efb791ed4cb570da489e737,5efb8711a3de8710ce9a2ea6,3,,,,,,kettle,,,,,,0,41,41,27,1,3,1,,,,,,,,,,,,,,,,,,,,,,,,,,,,,,,,,,,,,,,,,,,,,,,,,,,,,,,,,,,,,,,,,,,,,,,,,,,
,,,,,,,,,,stimuli/images/PICTURE_744.png,WEAPON,5e53aad3d4c2b63a1e7deedc,2020-06-30_19h40.09.341,proactive,2020.1.2,Win32,60,5efb791ed4cb570da489e737,5efb8711a3de8710ce9a2ea6,3,,,,,,ring,,,,,,0,42,42,50,1,6,1,,,,,,,,,,,,,,,,,,,,,,,,,,,,,,,,,,,,,,,,,,,,,,,,,,,,,,,,,,,,,,,,,,,,,,,,,,,
,,,,,,,,,,stimuli/images/PICTURE_308.png,FAMILY,5e53aad3d4c2b63a1e7deedc,2020-06-30_19h40.09.341,proactive,2020.1.2,Win32,60,5efb791ed4cb570da489e737,5efb8711a3de8710ce9a2ea6,3,,,,,,dice,,,,,,0,43,43,36,1,4,1,,,,,,,,,,,,,,,,,,,,,,,,,,,,,,,,,,,,,,,,,,,,,,,,,,,,,,,,,,,,,,,,,,,,,,,,,,,
,,,,,,,,,,stimuli/images/PICTURE_203.png,GODS,5e53aad3d4c2b63a1e7deedc,2020-06-30_19h40.09.341,proactive,2020.1.2,Win32,60,5efb791ed4cb570da489e737,5efb8711a3de8710ce9a2ea6,3,,,,,,cap,,,,,,0,44,44,30,1,4,1,,,,,,,,,,,,,,,,,,,,,,,,,,,,,,,,,,,,,,,,,,,,,,,,,,,,,,,,,,,,,,,,,,,,,,,,,,,
,,,,,,,,,,stimuli/images/PICTURE_675.png,SALE,5e53aad3d4c2b63a1e7deedc,2020-06-30_19h40.09.341,proactive,2020.1.2,Win32,60,5efb791ed4cb570da489e737,5efb8711a3de8710ce9a2ea6,3,,,,,,windmill,,,,,,0,45,45,47,1,5,1,,,,,,,,,,,,,,,,,,,,,,,,,,,,,,,,,,,,,,,,,,,,,,,,,,,,,,,,,,,,,,,,,,,,,,,,,,,
,,,,,,,,,,stimuli/images/PICTURE_403.png,RIVER,5e53aad3d4c2b63a1e7deedc,2020-06-30_19h40.09.341,proactive,2020.1.2,Win32,60,5efb791ed4cb570da489e737,5efb8711a3de8710ce9a2ea6,3,,,,,,cathedral,,,,,,0,46,46,40,1,5,1,,,,,,,,,,,,,,,,,,,,,,,,,,,,,,,,,,,,,,,,,,,,,,,,,,,,,,,,,,,,,,,,,,,,,,,,,,,
,,,,,,,,,,stimuli/images/PICTURE_95.png,MILLER,5e53aad3d4c2b63a1e7deedc,2020-06-30_19h40.09.341,proactive,2020.1.2,Win32,60,5efb791ed4cb570da489e737,5efb8711a3de8710ce9a2ea6,3,,,,,,suitcase,,,,,,0,47,47,56,1,6,1,,,,,,,,,,,,,,,,,,,,,,,,,,,,,,,,,,,,,,,,,,,,,,,,,,,,,,,,,,,,,,,,,,,,,,,,,,,
,,,,,,,,,,stimuli/images/PICTURE_405.png,PLENTY,5e53aad3d4c2b63a1e7deedc,2020-06-30_19h40.09.341,proactive,2020.1.2,Win32,60,5efb791ed4cb570da489e737,5efb8711a3de8710ce9a2ea6,3,,,,,,anchor,,,,,,0,48,48,23,1,3,1,,,,,,,,,,,,,,,,,,,,,,,,,,,,,,,,,,,,,,,,,,,,,,,,,,,,,,,,,,,,,,,,,,,,,,,,,,,
,,,,,,,,,,stimuli/images/PICTURE_57.png,MOMENT,5e53aad3d4c2b63a1e7deedc,2020-06-30_19h40.09.341,proactive,2020.1.2,Win32,60,5efb791ed4cb570da489e737,5efb8711a3de8710ce9a2ea6,3,,,,,,stamp,,,,,,0,49,49,37,1,4,1,,,,,,,,,,,,,,,,,,,,,,,,,,,,,,,,,,,,,,,,,,,,,,,,,,,,,,,,,,,,,,,,,,,,,,,,,,,
,,,,,,,,,,stimuli/images/PICTURE_2.png,FLIGHT,5e53aad3d4c2b63a1e7deedc,2020-06-30_19h40.09.341,proactive,2020.1.2,Win32,60,5efb791ed4cb570da489e737,5efb8711a3de8710ce9a2ea6,3,,,,,,tyre,,,,,,0,50,50,15,1,2,1,,,,,,,,,,,,,,,,,,,,,,,,,,,,,,,,,,,,,,,,,,,,,,,,,,,,,,,,,,,,,,,,,,,,,,,,,,,
,,,,,,,,,,stimuli/images/PICTURE_285.png,LIFE,5e53aad3d4c2b63a1e7deedc,2020-06-30_19h40.09.341,proactive,2020.1.2,Win32,60,5efb791ed4cb570da489e737,5efb8711a3de8710ce9a2ea6,3,,,,,,carrot,,,,,,0,51,51,33,1,4,1,,,,,,,,,,,,,,,,,,,,,,,,,,,,,,,,,,,,,,,,,,,,,,,,,,,,,,,,,,,,,,,,,,,,,,,,,,,
,,,,,,,,,,stimuli/images/PICTURE_383.png,WRITER,5e53aad3d4c2b63a1e7deedc,2020-06-30_19h40.09.341,proactive,2020.1.2,Win32,60,5efb791ed4cb570da489e737,5efb8711a3de8710ce9a2ea6,3,,,,,,coin,,,,,,0,52,52,28,1,3,1,,,,,,,,,,,,,,,,,,,,,,,,,,,,,,,,,,,,,,,,,,,,,,,,,,,,,,,,,,,,,,,,,,,,,,,,,,,
,,,,,,,,,,stimuli/images/PICTURE_42.png,BOYS,5e53aad3d4c2b63a1e7deedc,2020-06-30_19h40.09.341,proactive,2020.1.2,Win32,60,5efb791ed4cb570da489e737,5efb8711a3de8710ce9a2ea6,3,,,,,,pear,,,,,,0,53,53,55,1,6,1,,,,,,,,,,,,,,,,,,,,,,,,,,,,,,,,,,,,,,,,,,,,,,,,,,,,,,,,,,,,,,,,,,,,,,,,,,,
,,,,,,,,,,stimuli/images/PICTURE_233.png,LOTS,5e53aad3d4c2b63a1e7deedc,2020-06-30_19h40.09.341,proactive,2020.1.2,Win32,60,5efb791ed4cb570da489e737,5efb8711a3de8710ce9a2ea6,3,,,,,,salt,,,,,,0,54,54,42,1,5,1,,,,,,,,,,,,,,,,,,,,,,,,,,,,,,,,,,,,,,,,,,,,,,,,,,,,,,,,,,,,,,,,,,,,,,,,,,,
,,,,,,,,,,stimuli/images/PICTURE_327.png,SERIES,5e53aad3d4c2b63a1e7deedc,2020-06-30_19h40.09.341,proactive,2020.1.2,Win32,60,5efb791ed4cb570da489e737,5efb8711a3de8710ce9a2ea6,3,,,,,,helmet,,,,,,0,55,55,3,1,1,1,,,,,,,,,,,,,,,,,,,,,,,,,,,,,,,,,,,,,,,,,,,,,,,,,,,,,,,,,,,,,,,,,,,,,,,,,,,
,,,,,,,,,,stimuli/images/PICTURE_383.png,SERIES,5e53aad3d4c2b63a1e7deedc,2020-06-30_19h40.09.341,proactive,2020.1.2,Win32,60,5efb791ed4cb570da489e737,5efb8711a3de8710ce9a2ea6,3,,,,,,coin,,,,,,0,56,56,46,1,5,1,,,,,,,,,,,,,,,,,,,,,,,,,,,,,,,,,,,,,,,,,,,,,,,,,,,,,,,,,,,,,,,,,,,,,,,,,,,
,,,,,,,,,,stimuli/images/PICTURE_403.png,TOILET,5e53aad3d4c2b63a1e7deedc,2020-06-30_19h40.09.341,proactive,2020.1.2,Win32,60,5efb791ed4cb570da489e737,5efb8711a3de8710ce9a2ea6,3,,,,,,cathedral,,,,,,0,57,57,25,1,3,1,,,,,,,,,,,,,,,,,,,,,,,,,,,,,,,,,,,,,,,,,,,,,,,,,,,,,,,,,,,,,,,,,,,,,,,,,,,
,,,,,,,,,,stimuli/images/PICTURE_564.png,BATH,5e53aad3d4c2b63a1e7deedc,2020-06-30_19h40.09.341,proactive,2020.1.2,Win32,60,5efb791ed4cb570da489e737,5efb8711a3de8710ce9a2ea6,3,,,,,,spoon,,,,,,0,58,58,26,1,3,1,,,,,,,,,,,,,,,,,,,,,,,,,,,,,,,,,,,,,,,,,,,,,,,,,,,,,,,,,,,,,,,,,,,,,,,,,,,
,,?,0.00296,0,,,,,,stimuli/images/PICTURE_296.png,LOTS,5e53aad3d4c2b63a1e7deedc,2020-06-30_19h40.09.341,proactive,2020.1.2,Win32,60,5efb791ed4cb570da489e737,5efb8711a3de8710ce9a2ea6,3,,,,,,bolt,,,,,,,,,,,1,1,0,0,0,9,1,,,,,,,,,,,,,,,,,,,,,,,,,,,,,,,,,,,,,,,,,,,,,,,,,,,,,,,,,,,,,,,,,,,,,,
,,YEAR,3.06569,1,,,,,,stimuli/images/PICTURE_147.png,YEAR,5e53aad3d4c2b63a1e7deedc,2020-06-30_19h40.09.341,proactive,2020.1.2,Win32,60,5efb791ed4cb570da489e737,5efb8711a3de8710ce9a2ea6,3,,,,,,hanger,,,,,,,,,,,3,1,0,1,1,21,1,,,,,,,,,,,,,,,,,,,,,,,,,,,,,,,,,,,,,,,,,,,,,,,,,,,,,,,,,,,,,,,,,,,,,,
,,?,0.00088,0,,,,,,stimuli/images/PICTURE_675.png,SALE,5e53aad3d4c2b63a1e7deedc,2020-06-30_19h40.09.341,proactive,2020.1.2,Win32,60,5efb791ed4cb570da489e737,5efb8711a3de8710ce9a2ea6,3,,,,,,windmill,,,,,,,,,,,5,1,0,2,2,47,1,,,,,,,,,,,,,,,,,,,,,,,,,,,,,,,,,,,,,,,,,,,,,,,,,,,,,,,,,,,,,,,,,,,,,,
,,BATH,2.69678,1,,,,,,stimuli/images/PICTURE_564.png,BATH,5e53aad3d4c2b63a1e7deedc,2020-06-30_19h40.09.341,proactive,2020.1.2,Win32,60,5efb791ed4cb570da489e737,5efb8711a3de8710ce9a2ea6,3,,,,,,spoon,,,,,,,,,,,3,1,0,3,3,26,1,,,,,,,,,,,,,,,,,,,,,,,,,,,,,,,,,,,,,,,,,,,,,,,,,,,,,,,,,,,,,,,,,,,,,,
,,?,0.00174,0,,,,,,stimuli/images/PICTURE_339.png,CLIENT,5e53aad3d4c2b63a1e7deedc,2020-06-30_19h40.09.341,proactive,2020.1.2,Win32,60,5efb791ed4cb570da489e737,5efb8711a3de8710ce9a2ea6,3,,,,,,backpack,,,,,,,,,,,2,1,0,4,4,11,1,,,,,,,,,,,,,,,,,,,,,,,,,,,,,,,,,,,,,,,,,,,,,,,,,,,,,,,,,,,,,,,,,,,,,,
,,?,0.001545,0,,,,,,stimuli/images/PICTURE_327.png,SERIES,5e53aad3d4c2b63a1e7deedc,2020-06-30_19h40.09.341,proactive,2020.1.2,Win32,60,5efb791ed4cb570da489e737,5efb8711a3de8710ce9a2ea6,3,,,,,,helmet,,,,,,,,,,,1,1,0,5,5,3,1,,,,,,,,,,,,,,,,,,,,,,,,,,,,,,,,,,,,,,,,,,,,,,,,,,,,,,,,,,,,,,,,,,,,,,
,,?,0.001485,0,,,,,,stimuli/images/PICTURE_380.png,HONEY,5e53aad3d4c2b63a1e7deedc,2020-06-30_19h40.09.341,proactive,2020.1.2,Win32,60,5efb791ed4cb570da489e737,5efb8711a3de8710ce9a2ea6,3,,,,,,gorilla,,,,,,,,,,,2,1,0,6,6,19,1,,,,,,,,,,,,,,,,,,,,,,,,,,,,,,,,,,,,,,,,,,,,,,,,,,,,,,,,,,,,,,,,,,,,,,
,,?,0.001525,0,,,,,,stimuli/images/PICTURE_285.png,LIFE,5e53aad3d4c2b63a1e7deedc,2020-06-30_19h40.09.341,proactive,2020.1.2,Win32,60,5efb791ed4cb570da489e737,5efb8711a3de8710ce9a2ea6,3,,,,,,carrot,,,,,,,,,,,4,1,0,7,7,33,1,,,,,,,,,,,,,,,,,,,,,,,,,,,,,,,,,,,,,,,,,,,,,,,,,,,,,,,,,,,,,,,,,,,,,,
,,?,0.001975,0,,,,,,stimuli/images/PICTURE_383.png,SERIES,5e53aad3d4c2b63a1e7deedc,2020-06-30_19h40.09.341,proactive,2020.1.2,Win32,60,5efb791ed4cb570da489e737,5efb8711a3de8710ce9a2ea6,3,,,,,,coin,,,,,,,,,,,5,1,0,8,8,46,1,,,,,,,,,,,,,,,,,,,,,,,,,,,,,,,,,,,,,,,,,,,,,,,,,,,,,,,,,,,,,,,,,,,,,,
,,?,0.001455,0,,,,,,stimuli/images/PICTURE_685.png,PENNY,5e53aad3d4c2b63a1e7deedc,2020-06-30_19h40.09.341,proactive,2020.1.2,Win32,60,5efb791ed4cb570da489e737,5efb8711a3de8710ce9a2ea6,3,,,,,,goose,,,,,,,,,,,1,1,0,9,9,4,1,,,,,,,,,,,,,,,,,,,,,,,,,,,,,,,,,,,,,,,,,,,,,,,,,,,,,,,,,,,,,,,,,,,,,,
,,?,0.002,0,,,,,,stimuli/images/PICTURE_449.png,DUDE,5e53aad3d4c2b63a1e7deedc,2020-06-30_19h40.09.341,proactive,2020.1.2,Win32,60,5efb791ed4cb570da489e737,5efb8711a3de8710ce9a2ea6,3,,,,,,bench,,,,,,,,,,,2,1,0,10,10,17,1,,,,,,,,,,,,,,,,,,,,,,,,,,,,,,,,,,,,,,,,,,,,,,,,,,,,,,,,,,,,,,,,,,,,,,
,,?,0.001925,0,,,,,,stimuli/images/PICTURE_68.png,MILE,5e53aad3d4c2b63a1e7deedc,2020-06-30_19h40.09.341,proactive,2020.1.2,Win32,60,5efb791ed4cb570da489e737,5efb8711a3de8710ce9a2ea6,3,,,,,,candle,,,,,,,,,,,6,1,0,11,11,51,1,,,,,,,,,,,,,,,,,,,,,,,,,,,,,,,,,,,,,,,,,,,,,,,,,,,,,,,,,,,,,,,,,,,,,,
,,?,0.002335,0,,,,,,stimuli/images/PICTURE_469.png,AGENT,5e53aad3d4c2b63a1e7deedc,2020-06-30_19h40.09.341,proactive,2020.1.2,Win32,60,5efb791ed4cb570da489e737,5efb8711a3de8710ce9a2ea6,3,,,,,,stool,,,,,,,,,,,2,1,0,12,12,16,1,,,,,,,,,,,,,,,,,,,,,,,,,,,,,,,,,,,,,,,,,,,,,,,,,,,,,,,,,,,,,,,,,,,,,,
,,?,0.0018,0,,,,,,stimuli/images/PICTURE_405.png,YEAR,5e53aad3d4c2b63a1e7deedc,2020-06-30_19h40.09.341,proactive,2020.1.2,Win32,60,5efb791ed4cb570da489e737,5efb8711a3de8710ce9a2ea6,3,,,,,,anchor,,,,,,,,,,,4,1,0,13,13,34,1,,,,,,,,,,,,,,,,,,,,,,,,,,,,,,,,,,,,,,,,,,,,,,,,,,,,,,,,,,,,,,,,,,,,,,
,,?,0.002175,0,,,,,,stimuli/images/PICTURE_744.png,WEAPON,5e53aad3d4c2b63a1e7deedc,2020-06-30_19h40.09.341,proactive,2020.1.2,Win32,60,5efb791ed4cb570da489e737,5efb8711a3de8710ce9a2ea6,3,,,,,,ring,,,,,,,,,,,6,1,0,14,14,50,1,,,,,,,,,,,,,,,,,,,,,,,,,,,,,,,,,,,,,,,,,,,,,,,,,,,,,,,,,,,,,,,,,,,,,,
,,?,0.005105,0,,,,,,stimuli/images/PICTURE_177.png,WRITER,5e53aad3d4c2b63a1e7deedc,2020-06-30_19h40.09.341,proactive,2020.1.2,Win32,60,5efb791ed4cb570da489e737,5efb8711a3de8710ce9a2ea6,3,,,,,,mushroom,,,,,,,,,,,5,1,0,15,15,41,1,,,,,,,,,,,,,,,,,,,,,,,,,,,,,,,,,,,,,,,,,,,,,,,,,,,,,,,,,,,,,,,,,,,,,,
,,?,0.002125,0,,,,,,stimuli/images/PICTURE_667.png,RIVER,5e53aad3d4c2b63a1e7deedc,2020-06-30_19h40.09.341,proactive,2020.1.2,Win32,60,5efb791ed4cb570da489e737,5efb8711a3de8710ce9a2ea6,3,,,,,,daisy,,,,,,,,,,,2,1,0,16,16,10,1,,,,,,,,,,,,,,,,,,,,,,,,,,,,,,,,,,,,,,,,,,,,,,,,,,,,,,,,,,,,,,,,,,,,,,
,,?,0.00176,0,,,,,,stimuli/images/PICTURE_504.png,COPS,5e53aad3d4c2b63a1e7deedc,2020-06-30_19h40.09.341,proactive,2020.1.2,Win32,60,5efb791ed4cb570da489e737,5efb8711a3de8710ce9a2ea6,3,,,,,,wheel,,,,,,,,,,,6,1,0,17,17,52,1,,,,,,,,,,,,,,,,,,,,,,,,,,,,,,,,,,,,,,,,,,,,,,,,,,,,,,,,,,,,,,,,,,,,,,
,,?,0.001655,0,,,,,,stimuli/images/PICTURE_85.png,TOILET,5e53aad3d4c2b63a1e7deedc,2020-06-30_19h40.09.341,proactive,2020.1.2,Win32,60,5efb791ed4cb570da489e737,5efb8711a3de8710ce9a2ea6,3,,,,,,diamond,,,,,,,,,,,5,1,0,18,18,48,1,,,,,,,,,,,,,,,,,,,,,,,,,,,,,,,,,,,,,,,,,,,,,,,,,,,,,,,,,,,,,,,,,,,,,,
,,WRITER,2.44185,1,,,,,,stimuli/images/PICTURE_383.png,WRITER,5e53aad3d4c2b63a1e7deedc,2020-06-30_19h40.09.341,proactive,2020.1.2,Win32,60,5efb791ed4cb570da489e737,5efb8711a3de8710ce9a2ea6,3,,,,,,coin,,,,,,,,,,,3,1,0,19,19,28,1,,,,,,,,,,,,,,,,,,,,,,,,,,,,,,,,,,,,,,,,,,,,,,,,,,,,,,,,,,,,,,,,,,,,,,
,,?,0.00215,0,,,,,,stimuli/images/PICTURE_297.png,RIVER,5e53aad3d4c2b63a1e7deedc,2020-06-30_19h40.09.341,proactive,2020.1.2,Win32,60,5efb791ed4cb570da489e737,5efb8711a3de8710ce9a2ea6,3,,,,,,aeroplane,,,,,,,,,,,4,1,0,20,20,39,1,,,,,,,,,,,,,,,,,,,,,,,,,,,,,,,,,,,,,,,,,,,,,,,,,,,,,,,,,,,,,,,,,,,,,,
,,HOTEL,2.974735,1,,,,,,stimuli/images/PICTURE_750.png,HOTEL,5e53aad3d4c2b63a1e7deedc,2020-06-30_19h40.09.341,proactive,2020.1.2,Win32,60,5efb791ed4cb570da489e737,5efb8711a3de8710ce9a2ea6,3,,,,,,kettle,,,,,,,,,,,3,1,0,21,21,27,1,,,,,,,,,,,,,,,,,,,,,,,,,,,,,,,,,,,,,,,,,,,,,,,,,,,,,,,,,,,,,,,,,,,,,,
,,?,0.002265,0,,,,,,stimuli/images/PICTURE_85.png,NATION,5e53aad3d4c2b63a1e7deedc,2020-06-30_19h40.09.341,proactive,2020.1.2,Win32,60,5efb791ed4cb570da489e737,5efb8711a3de8710ce9a2ea6,3,,,,,,diamond,,,,,,,,,,,1,1,0,22,22,5,1,,,,,,,,,,,,,,,,,,,,,,,,,,,,,,,,,,,,,,,,,,,,,,,,,,,,,,,,,,,,,,,,,,,,,,
,,?,0.001475,0,,,,,,stimuli/images/PICTURE_655.png,TOILET,5e53aad3d4c2b63a1e7deedc,2020-06-30_19h40.09.341,proactive,2020.1.2,Win32,60,5efb791ed4cb570da489e737,5efb8711a3de8710ce9a2ea6,3,,,,,,megaphone,,,,,,,,,,,2,1,0,23,23,12,1,,,,,,,,,,,,,,,,,,,,,,,,,,,,,,,,,,,,,,,,,,,,,,,,,,,,,,,,,,,,,,,,,,,,,,
,,?,0.00224,0,,,,,,stimuli/images/PICTURE_677.png,APPLE,5e53aad3d4c2b63a1e7deedc,2020-06-30_19h40.09.341,proactive,2020.1.2,Win32,60,5efb791ed4cb570da489e737,5efb8711a3de8710ce9a2ea6,3,,,,,,map,,,,,,,,,,,5,1,0,24,24,43,1,,,,,,,,,,,,,,,,,,,,,,,,,,,,,,,,,,,,,,,,,,,,,,,,,,,,,,,,,,,,,,,,,,,,,,
,,TOILET,4.40041,1,,,,,,stimuli/images/PICTURE_403.png,TOILET,5e53aad3d4c2b63a1e7deedc,2020-06-30_19h40.09.341,proactive,2020.1.2,Win32,60,5efb791ed4cb570da489e737,5efb8711a3de8710ce9a2ea6,3,,,,,,cathedral,,,,,,,,,,,3,1,0,25,25,25,1,,,,,,,,,,,,,,,,,,,,,,,,,,,,,,,,,,,,,,,,,,,,,,,,,,,,,,,,,,,,,,,,,,,,,,
,,?,0.000955,0,,,,,,stimuli/images/PICTURE_68.png,ROOF,5e53aad3d4c2b63a1e7deedc,2020-06-30_19h40.09.341,proactive,2020.1.2,Win32,60,5efb791ed4cb570da489e737,5efb8711a3de8710ce9a2ea6,3,,,,,,candle,,,,,,,,,,,4,1,0,26,26,38,1,,,,,,,,,,,,,,,,,,,,,,,,,,,,,,,,,,,,,,,,,,,,,,,,,,,,,,,,,,,,,,,,,,,,,,
,,?,0.00124,0,,,,,,stimuli/images/PICTURE_487.png,GIRL,5e53aad3d4c2b63a1e7deedc,2020-06-30_19h40.09.341,proactive,2020.1.2,Win32,60,5efb791ed4cb570da489e737,5efb8711a3de8710ce9a2ea6,3,,,,,,basket,,,,,,,,,,,5,1,0,27,27,45,1,,,,,,,,,,,,,,,,,,,,,,,,,,,,,,,,,,,,,,,,,,,,,,,,,,,,,,,,,,,,,,,,,,,,,,
,,?,0.001315,0,,,,,,stimuli/images/PICTURE_403.png,RIVER,5e53aad3d4c2b63a1e7deedc,2020-06-30_19h40.09.341,proactive,2020.1.2,Win32,60,5efb791ed4cb570da489e737,5efb8711a3de8710ce9a2ea6,3,,,,,,cathedral,,,,,,,,,,,5,1,0,28,28,40,1,,,,,,,,,,,,,,,,,,,,,,,,,,,,,,,,,,,,,,,,,,,,,,,,,,,,,,,,,,,,,,,,,,,,,,
,,?,0.001445,0,,,,,,stimuli/images/PICTURE_95.png,HONEY,5e53aad3d4c2b63a1e7deedc,2020-06-30_19h40.09.341,proactive,2020.1.2,Win32,60,5efb791ed4cb570da489e737,5efb8711a3de8710ce9a2ea6,3,,,,,,suitcase,,,,,,,,,,,5,1,0,29,29,44,1,,,,,,,,,,,,,,,,,,,,,,,,,,,,,,,,,,,,,,,,,,,,,,,,,,,,,,,,,,,,,,,,,,,,,,
,,?,0.00098,0,,,,,,stimuli/images/PICTURE_504.png,ARTIST,5e53aad3d4c2b63a1e7deedc,2020-06-30_19h40.09.341,proactive,2020.1.2,Win32,60,5efb791ed4cb570da489e737,5efb8711a3de8710ce9a2ea6,3,,,,,,wheel,,,,,,,,,,,5,1,0,30,30,49,1,,,,,,,,,,,,,,,,,,,,,,,,,,,,,,,,,,,,,,,,,,,,,,,,,,,,,,,,,,,,,,,,,,,,,,
,,?,0.000975,0,,,,,,stimuli/images/PICTURE_233.png,LOTS,5e53aad3d4c2b63a1e7deedc,2020-06-30_19h40.09.341,proactive,2020.1.2,Win32,60,5efb791ed4cb570da489e737,5efb8711a3de8710ce9a2ea6,3,,,,,,salt,,,,,,,,,,,5,1,0,31,31,42,1,,,,,,,,,,,,,,,,,,,,,,,,,,,,,,,,,,,,,,,,,,,,,,,,,,,,,,,,,,,,,,,,,,,,,,
,,?,0.00109,0,,,,,,stimuli/images/PICTURE_491.png,RIVER,5e53aad3d4c2b63a1e7deedc,2020-06-30_19h40.09.341,proactive,2020.1.2,Win32,60,5efb791ed4cb570da489e737,5efb8711a3de8710ce9a2ea6,3,,,,,,rug,,,,,,,,,,,1,1,0,32,32,6,1,,,,,,,,,,,,,,,,,,,,,,,,,,,,,,,,,,,,,,,,,,,,,,,,,,,,,,,,,,,,,,,,,,,,,,
,,PLANNING,3.6631,0,,,,,,stimuli/images/PICTURE_108.png,POLICY,5e53aad3d4c2b63a1e7deedc,2020-06-30_19h40.09.341,proactive,2020.1.2,Win32,60,5efb791ed4cb570da489e737,5efb8711a3de8710ce9a2ea6,3,,,,,,calendar,,,,,,,,,,,3,1,0,33,33,22,1,,,,,,,,,,,,,,,,,,,,,,,,,,,,,,,,,,,,,,,,,,,,,,,,,,,,,,,,,,,,,,,,,,,,,,
,,?,0.001675,0,,,,,,stimuli/images/PICTURE_32.png,PILLS,5e53aad3d4c2b63a1e7deedc,2020-06-30_19h40.09.341,proactive,2020.1.2,Win32,60,5efb791ed4cb570da489e737,5efb8711a3de8710ce9a2ea6,3,,,,,,crown,,,,,,,,,,,2,1,0,34,34,18,1,,,,,,,,,,,,,,,,,,,,,,,,,,,,,,,,,,,,,,,,,,,,,,,,,,,,,,,,,,,,,,,,,,,,,,
,,?,4.37517,0,,,,,,stimuli/images/PICTURE_340.png,LETTER,5e53aad3d4c2b63a1e7deedc,2020-06-30_19h40.09.341,proactive,2020.1.2,Win32,60,5efb791ed4cb570da489e737,5efb8711a3de8710ce9a2ea6,3,,,,,,mirror,,,,,,,,,,,3,1,0,35,35,24,1,,,,,,,,,,,,,,,,,,,,,,,,,,,,,,,,,,,,,,,,,,,,,,,,,,,,,,,,,,,,,,,,,,,,,,
,,?,0.00092,0,,,,,,stimuli/images/PICTURE_203.png,GODS,5e53aad3d4c2b63a1e7deedc,2020-06-30_19h40.09.341,proactive,2020.1.2,Win32,60,5efb791ed4cb570da489e737,5efb8711a3de8710ce9a2ea6,3,,,,,,cap,,,,,,,,,,,4,1,0,36,36,30,1,,,,,,,,,,,,,,,,,,,,,,,,,,,,,,,,,,,,,,,,,,,,,,,,,,,,,,,,,,,,,,,,,,,,,,
,,?,0.00088,0,,,,,,stimuli/images/PICTURE_208.png,SYSTEM,5e53aad3d4c2b63a1e7deedc,2020-06-30_19h40.09.341,proactive,2020.1.2,Win32,60,5efb791ed4cb570da489e737,5efb8711a3de8710ce9a2ea6,3,,,,,,microphone,,,,,,,,,,,4,1,0,37,37,32,1,,,,,,,,,,,,,,,,,,,,,,,,,,,,,,,,,,,,,,,,,,,,,,,,,,,,,,,,,,,,,,,,,,,,,,
,,PLENTY,4.77635,1,,,,,,stimuli/images/PICTURE_405.png,PLENTY,5e53aad3d4c2b63a1e7deedc,2020-06-30_19h40.09.341,proactive,2020.1.2,Win32,60,5efb791ed4cb570da489e737,5efb8711a3de8710ce9a2ea6,3,,,,,,anchor,,,,,,,,,,,3,1,0,38,38,23,1,,,,,,,,,,,,,,,,,,,,,,,,,,,,,,,,,,,,,,,,,,,,,,,,,,,,,,,,,,,,,,,,,,,,,,
,,?,0.00161,0,,,,,,stimuli/images/PICTURE_504.png,YEAR,5e53aad3d4c2b63a1e7deedc,2020-06-30_19h40.09.341,proactive,2020.1.2,Win32,60,5efb791ed4cb570da489e737,5efb8711a3de8710ce9a2ea6,3,,,,,,wheel,,,,,,,,,,,2,1,0,39,39,13,1,,,,,,,,,,,,,,,,,,,,,,,,,,,,,,,,,,,,,,,,,,,,,,,,,,,,,,,,,,,,,,,,,,,,,,
,,?,0.0015,0,,,,,,stimuli/images/PICTURE_467.png,POLICY,5e53aad3d4c2b63a1e7deedc,2020-06-30_19h40.09.341,proactive,2020.1.2,Win32,60,5efb791ed4cb570da489e737,5efb8711a3de8710ce9a2ea6,3,,,,,,peg,,,,,,,,,,,6,1,0,40,40,53,1,,,,,,,,,,,,,,,,,,,,,,,,,,,,,,,,,,,,,,,,,,,,,,,,,,,,,,,,,,,,,,,,,,,,,,
,,?,0.001535,0,,,,,,stimuli/images/PICTURE_108.png,FLIGHT,5e53aad3d4c2b63a1e7deedc,2020-06-30_19h40.09.341,proactive,2020.1.2,Win32,60,5efb791ed4cb570da489e737,5efb8711a3de8710ce9a2ea6,3,,,,,,calendar,,,,,,,,,,,6,1,0,41,41,59,1,,,,,,,,,,,,,,,,,,,,,,,,,,,,,,,,,,,,,,,,,,,,,,,,,,,,,,,,,,,,,,,,,,,,,,
,,?,0.001985,0,,,,,,stimuli/images/PICTURE_42.png,BOYS,5e53aad3d4c2b63a1e7deedc,2020-06-30_19h40.09.341,proactive,2020.1.2,Win32,60,5efb791ed4cb570da489e737,5efb8711a3de8710ce9a2ea6,3,,,,,,pear,,,,,,,,,,,6,1,0,42,42,55,1,,,,,,,,,,,,,,,,,,,,,,,,,,,,,,,,,,,,,,,,,,,,,,,,,,,,,,,,,,,,,,,,,,,,,,
,,?,0.00167,0,,,,,,stimuli/images/PICTURE_57.png,MOMENT,5e53aad3d4c2b63a1e7deedc,2020-06-30_19h40.09.341,proactive,2020.1.2,Win32,60,5efb791ed4cb570da489e737,5efb8711a3de8710ce9a2ea6,3,,,,,,stamp,,,,,,,,,,,4,1,0,43,43,37,1,,,,,,,,,,,,,,,,,,,,,,,,,,,,,,,,,,,,,,,,,,,,,,,,,,,,,,,,,,,,,,,,,,,,,,
,,?,0.001955,0,,,,,,stimuli/images/PICTURE_32.png,KIND,5e53aad3d4c2b63a1e7deedc,2020-06-30_19h40.09.341,proactive,2020.1.2,Win32,60,5efb791ed4cb570da489e737,5efb8711a3de8710ce9a2ea6,3,,,,,,crown,,,,,,,,,,,4,1,0,44,44,35,1,,,,,,,,,,,,,,,,,,,,,,,,,,,,,,,,,,,,,,,,,,,,,,,,,,,,,,,,,,,,,,,,,,,,,,
,,?,0.001775,0,,,,,,stimuli/images/PICTURE_296.png,LIFE,5e53aad3d4c2b63a1e7deedc,2020-06-30_19h40.09.341,proactive,2020.1.2,Win32,60,5efb791ed4cb570da489e737,5efb8711a3de8710ce9a2ea6,3,,,,,,bolt,,,,,,,,,,,6,1,0,45,45,57,1,,,,,,,,,,,,,,,,,,,,,,,,,,,,,,,,,,,,,,,,,,,,,,,,,,,,,,,,,,,,,,,,,,,,,,
,,?,0.0024,0,,,,,,stimuli/images/PICTURE_95.png,BOYS,5e53aad3d4c2b63a1e7deedc,2020-06-30_19h40.09.341,proactive,2020.1.2,Win32,60,5efb791ed4cb570da489e737,5efb8711a3de8710ce9a2ea6,3,,,,,,suitcase,,,,,,,,,,,1,1,0,46,46,1,1,,,,,,,,,,,,,,,,,,,,,,,,,,,,,,,,,,,,,,,,,,,,,,,,,,,,,,,,,,,,,,,,,,,,,,
,,?,0.002725,0,,,,,,stimuli/images/PICTURE_308.png,FAMILY,5e53aad3d4c2b63a1e7deedc,2020-06-30_19h40.09.341,proactive,2020.1.2,Win32,60,5efb791ed4cb570da489e737,5efb8711a3de8710ce9a2ea6,3,,,,,,dice,,,,,,,,,,,4,1,0,47,47,36,1,,,,,,,,,,,,,,,,,,,,,,,,,,,,,,,,,,,,,,,,,,,,,,,,,,,,,,,,,,,,,,,,,,,,,,
,,?,0.00232,0,,,,,,stimuli/images/PICTURE_203.png,NIGHT,5e53aad3d4c2b63a1e7deedc,2020-06-30_19h40.09.341,proactive,2020.1.2,Win32,60,5efb791ed4cb570da489e737,5efb8711a3de8710ce9a2ea6,3,,,,,,cap,,,,,,,,,,,1,1,0,48,48,2,1,,,,,,,,,,,,,,,,,,,,,,,,,,,,,,,,,,,,,,,,,,,,,,,,,,,,,,,,,,,,,,,,,,,,,,
,,?,0.002015,0,,,,,,stimuli/images/PICTURE_2.png,FLIGHT,5e53aad3d4c2b63a1e7deedc,2020-06-30_19h40.09.341,proactive,2020.1.2,Win32,60,5efb791ed4cb570da489e737,5efb8711a3de8710ce9a2ea6,3,,,,,,tyre,,,,,,,,,,,2,1,0,49,49,15,1,,,,,,,,,,,,,,,,,,,,,,,,,,,,,,,,,,,,,,,,,,,,,,,,,,,,,,,,,,,,,,,,,,,,,,
,,?,0.002105,0,,,,,,stimuli/images/PICTURE_340.png,VALLEY,5e53aad3d4c2b63a1e7deedc,2020-06-30_19h40.09.341,proactive,2020.1.2,Win32,60,5efb791ed4cb570da489e737,5efb8711a3de8710ce9a2ea6,3,,,,,,mirror,,,,,,,,,,,6,1,0,50,50,54,1,,,,,,,,,,,,,,,,,,,,,,,,,,,,,,,,,,,,,,,,,,,,,,,,,,,,,,,,,,,,,,,,,,,,,,
,,?,0.003135,0,,,,,,stimuli/images/PICTURE_708.png,RECORD,5e53aad3d4c2b63a1e7deedc,2020-06-30_19h40.09.341,proactive,2020.1.2,Win32,60,5efb791ed4cb570da489e737,5efb8711a3de8710ce9a2ea6,3,,,,,,monkey,,,,,,,,,,,6,1,0,51,51,58,1,,,,,,,,,,,,,,,,,,,,,,,,,,,,,,,,,,,,,,,,,,,,,,,,,,,,,,,,,,,,,,,,,,,,,,
,,?,0.002625,0,,,,,,stimuli/images/PICTURE_403.png,WRITER,5e53aad3d4c2b63a1e7deedc,2020-06-30_19h40.09.341,proactive,2020.1.2,Win32,60,5efb791ed4cb570da489e737,5efb8711a3de8710ce9a2ea6,3,,,,,,cathedral,,,,,,,,,,,4,1,0,52,52,31,1,,,,,,,,,,,,,,,,,,,,,,,,,,,,,,,,,,,,,,,,,,,,,,,,,,,,,,,,,,,,,,,,,,,,,,
,,?,0.004205,0,,,,,,stimuli/images/PICTURE_33.png,FRIEND,5e53aad3d4c2b63a1e7deedc,2020-06-30_19h40.09.341,proactive,2020.1.2,Win32,60,5efb791ed4cb570da489e737,5efb8711a3de8710ce9a2ea6,3,,,,,,frame,,,,,,,,,,,1,1,0,53,53,8,1,,,,,,,,,,,,,,,,,,,,,,,,,,,,,,,,,,,,,,,,,,,,,,,,,,,,,,,,,,,,,,,,,,,,,,
,,?,0.00218,0,,,,,,stimuli/images/PICTURE_380.png,CANDY,5e53aad3d4c2b63a1e7deedc,2020-06-30_19h40.09.341,proactive,2020.1.2,Win32,60,5efb791ed4cb570da489e737,5efb8711a3de8710ce9a2ea6,3,,,,,,gorilla,,,,,,,,,,,1,1,0,54,54,0,1,,,,,,,,,,,,,,,,,,,,,,,,,,,,,,,,,,,,,,,,,,,,,,,,,,,,,,,,,,,,,,,,,,,,,,
,,?,0.0021,0,,,,,,stimuli/images/PICTURE_147.png,WOMEN,5e53aad3d4c2b63a1e7deedc,2020-06-30_19h40.09.341,proactive,2020.1.2,Win32,60,5efb791ed4cb570da489e737,5efb8711a3de8710ce9a2ea6,3,,,,,,hanger,,,,,,,,,,,1,1,0,55,55,7,1,,,,,,,,,,,,,,,,,,,,,,,,,,,,,,,,,,,,,,,,,,,,,,,,,,,,,,,,,,,,,,,,,,,,,,
,,MONTH,3.10053,1,,,,,,stimuli/images/PICTURE_654.png,MONTH,5e53aad3d4c2b63a1e7deedc,2020-06-30_19h40.09.341,proactive,2020.1.2,Win32,60,5efb791ed4cb570da489e737,5efb8711a3de8710ce9a2ea6,3,,,,,,pencil,,,,,,,,,,,3,1,0,56,56,29,1,,,,,,,,,,,,,,,,,,,,,,,,,,,,,,,,,,,,,,,,,,,,,,,,,,,,,,,,,,,,,,,,,,,,,,
,,CASINO,4.26528,1,,,,,,stimuli/images/PICTURE_327.png,CASINO,5e53aad3d4c2b63a1e7deedc,2020-06-30_19h40.09.341,proactive,2020.1.2,Win32,60,5efb791ed4cb570da489e737,5efb8711a3de8710ce9a2ea6,3,,,,,,helmet,,,,,,,,,,,3,1,0,57,57,20,1,,,,,,,,,,,,,,,,,,,,,,,,,,,,,,,,,,,,,,,,,,,,,,,,,,,,,,,,,,,,,,,,,,,,,,
,,?,0.002165,0,,,,,,stimuli/images/PICTURE_491.png,GLASS,5e53aad3d4c2b63a1e7deedc,2020-06-30_19h40.09.341,proactive,2020.1.2,Win32,60,5efb791ed4cb570da489e737,5efb8711a3de8710ce9a2ea6,3,,,,,,rug,,,,,,,,,,,2,1,0,58,58,14,1,,,,,,,,,,,,,,,,,,,,,,,,,,,,,,,,,,,,,,,,,,,,,,,,,,,,,,,,,,,,,,,,,,,,,,
,,?,0.00173,0,,,,,,stimuli/images/PICTURE_95.png,MILLER,5e53aad3d4c2b63a1e7deedc,2020-06-30_19h40.09.341,proactive,2020.1.2,Win32,60,5efb791ed4cb570da489e737,5efb8711a3de8710ce9a2ea6,3,,,,,,suitcase,,,,,,,,,,,6,1,0,59,59,56,1,,,,,,,,,,,,,,,,,,,,,,,,,,,,,,,,,,,,,,,,,,,,,,,,,,,,,,,,,,,,,,,,,,,,,,
,,,,,,,,,,,,5e53aad3d4c2b63a1e7deedc,2020-06-30_19h40.09.341,proactive,2020.1.2,Win32,60,5efb791ed4cb570da489e737,5efb8711a3de8710ce9a2ea6,3,,,,,,,,,,,,,,,,,,,,,,,,0,1,1,1,1,stimuli/learn-block2.csv,,,,,,,,,,,,,,,,,,,,,,,,,,,,,,,,,,,,,,,,,,,,,,,,,,,,,,,,,,,,,,,,
,,,,,,,,,,stimuli/images/PICTURE_208.png,MONTH,5e53aad3d4c2b63a1e7deedc,2020-06-30_19h40.09.341,proactive,2020.1.2,Win32,60,5efb791ed4cb570da489e737,5efb8711a3de8710ce9a2ea6,3,,,,,,microphone,,,,,,0,0,0,53,1,6,0,,,,,,,,,,,,,,,,,,,,,,,,,,,,,,,,,,,,,,,,,,,,,,,,,,,,,,,,,,,,,,,,,,,,,,,,,,,
,,,,,,,,,,stimuli/images/PICTURE_356.png,DANGER,5e53aad3d4c2b63a1e7deedc,2020-06-30_19h40.09.341,proactive,2020.1.2,Win32,60,5efb791ed4cb570da489e737,5efb8711a3de8710ce9a2ea6,3,,,,,,pawn,,,,,,0,1,1,55,1,6,0,,,,,,,,,,,,,,,,,,,,,,,,,,,,,,,,,,,,,,,,,,,,,,,,,,,,,,,,,,,,,,,,,,,,,,,,,,,
,,,,,,,,,,stimuli/images/PICTURE_308.png,KIND,5e53aad3d4c2b63a1e7deedc,2020-06-30_19h40.09.341,proactive,2020.1.2,Win32,60,5efb791ed4cb570da489e737,5efb8711a3de8710ce9a2ea6,3,,,,,,dice,,,,,,0,2,2,54,1,6,0,,,,,,,,,,,,,,,,,,,,,,,,,,,,,,,,,,,,,,,,,,,,,,,,,,,,,,,,,,,,,,,,,,,,,,,,,,,
,,,,,,,,,,stimuli/images/PICTURE_488.png,STYLE,5e53aad3d4c2b63a1e7deedc,2020-06-30_19h40.09.341,proactive,2020.1.2,Win32,60,5efb791ed4cb570da489e737,5efb8711a3de8710ce9a2ea6,3,,,,,,sun,,,,,,0,3,3,33,1,4,0,,,,,,,,,,,,,,,,,,,,,,,,,,,,,,,,,,,,,,,,,,,,,,,,,,,,,,,,,,,,,,,,,,,,,,,,,,,
,,,,,,,,,,stimuli/images/PICTURE_675.png,WEAPON,5e53aad3d4c2b63a1e7deedc,2020-06-30_19h40.09.341,proactive,2020.1.2,Win32,60,5efb791ed4cb570da489e737,5efb8711a3de8710ce9a2ea6,3,,,,,,windmill,,,,,,0,4,4,32,1,4,0,,,,,,,,,,,,,,,,,,,,,,,,,,,,,,,,,,,,,,,,,,,,,,,,,,,,,,,,,,,,,,,,,,,,,,,,,,,
,,,,,,,,,,stimuli/images/PICTURE_667.png,PLENTY,5e53aad3d4c2b63a1e7deedc,2020-06-30_19h40.09.341,proactive,2020.1.2,Win32,60,5efb791ed4cb570da489e737,5efb8711a3de8710ce9a2ea6,3,,,,,,daisy,,,,,,0,5,5,41,1,5,0,,,,,,,,,,,,,,,,,,,,,,,,,,,,,,,,,,,,,,,,,,,,,,,,,,,,,,,,,,,,,,,,,,,,,,,,,,,
,,,,,,,,,,stimuli/images/PICTURE_95.png,STYLE,5e53aad3d4c2b63a1e7deedc,2020-06-30_19h40.09.341,proactive,2020.1.2,Win32,60,5efb791ed4cb570da489e737,5efb8711a3de8710ce9a2ea6,3,,,,,,suitcase,,,,,,0,6,6,25,1,3,0,,,,,,,,,,,,,,,,,,,,,,,,,,,,,,,,,,,,,,,,,,,,,,,,,,,,,,,,,,,,,,,,,,,,,,,,,,,
,,,,,,,,,,stimuli/images/PICTURE_123.png,ADVICE,5e53aad3d4c2b63a1e7deedc,2020-06-30_19h40.09.341,proactive,2020.1.2,Win32,60,5efb791ed4cb570da489e737,5efb8711a3de8710ce9a2ea6,3,,,,,,dart,,,,,,0,7,7,50,1,6,0,,,,,,,,,,,,,,,,,,,,,,,,,,,,,,,,,,,,,,,,,,,,,,,,,,,,,,,,,,,,,,,,,,,,,,,,,,,
,,,,,,,,,,stimuli/images/PICTURE_469.png,ARTIST,5e53aad3d4c2b63a1e7deedc,2020-06-30_19h40.09.341,proactive,2020.1.2,Win32,60,5efb791ed4cb570da489e737,5efb8711a3de8710ce9a2ea6,3,,,,,,stool,,,,,,0,8,8,6,1,1,0,,,,,,,,,,,,,,,,,,,,,,,,,,,,,,,,,,,,,,,,,,,,,,,,,,,,,,,,,,,,,,,,,,,,,,,,,,,
,,,,,,,,,,stimuli/images/PICTURE_688.png,CASINO,5e53aad3d4c2b63a1e7deedc,2020-06-30_19h40.09.341,proactive,2020.1.2,Win32,60,5efb791ed4cb570da489e737,5efb8711a3de8710ce9a2ea6,3,,,,,,runner,,,,,,0,9,9,2,1,1,0,,,,,,,,,,,,,,,,,,,,,,,,,,,,,,,,,,,,,,,,,,,,,,,,,,,,,,,,,,,,,,,,,,,,,,,,,,,
,,,,,,,,,,stimuli/images/PICTURE_380.png,DEATH,5e53aad3d4c2b63a1e7deedc,2020-06-30_19h40.09.341,proactive,2020.1.2,Win32,60,5efb791ed4cb570da489e737,5efb8711a3de8710ce9a2ea6,3,,,,,,gorilla,,,,,,0,10,10,49,1,5,0,,,,,,,,,,,,,,,,,,,,,,,,,,,,,,,,,,,,,,,,,,,,,,,,,,,,,,,,,,,,,,,,,,,,,,,,,,,
,,,,,,,,,,stimuli/images/PICTURE_509.png,PHOTO,5e53aad3d4c2b63a1e7deedc,2020-06-30_19h40.09.341,proactive,2020.1.2,Win32,60,5efb791ed4cb570da489e737,5efb8711a3de8710ce9a2ea6,3,,,,,,telephone,,,,,,0,11,11,21,1,3,0,,,,,,,,,,,,,,,,,,,,,,,,,,,,,,,,,,,,,,,,,,,,,,,,,,,,,,,,,,,,,,,,,,,,,,,,,,,
,,,,,,,,,,stimuli/images/PICTURE_708.png,CLIENT,5e53aad3d4c2b63a1e7deedc,2020-06-30_19h40.09.341,proactive,2020.1.2,Win32,60,5efb791ed4cb570da489e737,5efb8711a3de8710ce9a2ea6,3,,,,,,monkey,,,,,,0,12,12,5,1,1,0,,,,,,,,,,,,,,,,,,,,,,,,,,,,,,,,,,,,,,,,,,,,,,,,,,,,,,,,,,,,,,,,,,,,,,,,,,,
,,,,,,,,,,stimuli/images/PICTURE_32.png,JUNGLE,5e53aad3d4c2b63a1e7deedc,2020-06-30_19h40.09.341,proactive,2020.1.2,Win32,60,5efb791ed4cb570da489e737,5efb8711a3de8710ce9a2ea6,3,,,,,,crown,,,,,,0,13,13,45,1,5,0,,,,,,,,,,,,,,,,,,,,,,,,,,,,,,,,,,,,,,,,,,,,,,,,,,,,,,,,,,,,,,,,,,,,,,,,,,,
,,,,,,,,,,stimuli/images/PICTURE_692.png,MONTH,5e53aad3d4c2b63a1e7deedc,2020-06-30_19h40.09.341,proactive,2020.1.2,Win32,60,5efb791ed4cb570da489e737,5efb8711a3de8710ce9a2ea6,3,,,,,,cherry,,,,,,0,14,14,16,1,2,0,,,,,,,,,,,,,,,,,,,,,,,,,,,,,,,,,,,,,,,,,,,,,,,,,,,,,,,,,,,,,,,,,,,,,,,,,,,
,,,,,,,,,,stimuli/images/PICTURE_248.png,DOZEN,5e53aad3d4c2b63a1e7deedc,2020-06-30_19h40.09.341,proactive,2020.1.2,Win32,60,5efb791ed4cb570da489e737,5efb8711a3de8710ce9a2ea6,3,,,,,,cart,,,,,,0,15,15,39,1,4,0,,,,,,,,,,,,,,,,,,,,,,,,,,,,,,,,,,,,,,,,,,,,,,,,,,,,,,,,,,,,,,,,,,,,,,,,,,,
,,,,,,,,,,stimuli/images/PICTURE_487.png,FLIGHT,5e53aad3d4c2b63a1e7deedc,2020-06-30_19h40.09.341,proactive,2020.1.2,Win32,60,5efb791ed4cb570da489e737,5efb8711a3de8710ce9a2ea6,3,,,,,,basket,,,,,,0,16,16,9,1,1,0,,,,,,,,,,,,,,,,,,,,,,,,,,,,,,,,,,,,,,,,,,,,,,,,,,,,,,,,,,,,,,,,,,,,,,,,,,,
,,,,,,,,,,stimuli/images/PICTURE_654.png,VALLEY,5e53aad3d4c2b63a1e7deedc,2020-06-30_19h40.09.341,proactive,2020.1.2,Win32,60,5efb791ed4cb570da489e737,5efb8711a3de8710ce9a2ea6,3,,,,,,pencil,,,,,,0,17,17,1,1,1,0,,,,,,,,,,,,,,,,,,,,,,,,,,,,,,,,,,,,,,,,,,,,,,,,,,,,,,,,,,,,,,,,,,,,,,,,,,,
,,,,,,,,,,stimuli/images/PICTURE_708.png,PENNY,5e53aad3d4c2b63a1e7deedc,2020-06-30_19h40.09.341,proactive,2020.1.2,Win32,60,5efb791ed4cb570da489e737,5efb8711a3de8710ce9a2ea6,3,,,,,,monkey,,,,,,0,18,18,31,1,4,0,,,,,,,,,,,,,,,,,,,,,,,,,,,,,,,,,,,,,,,,,,,,,,,,,,,,,,,,,,,,,,,,,,,,,,,,,,,
,,,,,,,,,,stimuli/images/PICTURE_151.png,GIRL,5e53aad3d4c2b63a1e7deedc,2020-06-30_19h40.09.341,proactive,2020.1.2,Win32,60,5efb791ed4cb570da489e737,5efb8711a3de8710ce9a2ea6,3,,,,,,tray,,,,,,0,19,19,19,1,2,0,,,,,,,,,,,,,,,,,,,,,,,,,,,,,,,,,,,,,,,,,,,,,,,,,,,,,,,,,,,,,,,,,,,,,,,,,,,
,,,,,,,,,,stimuli/images/PICTURE_311.png,BEAUTY,5e53aad3d4c2b63a1e7deedc,2020-06-30_19h40.09.341,proactive,2020.1.2,Win32,60,5efb791ed4cb570da489e737,5efb8711a3de8710ce9a2ea6,3,,,,,,razor,,,,,,0,20,20,13,1,2,0,,,,,,,,,,,,,,,,,,,,,,,,,,,,,,,,,,,,,,,,,,,,,,,,,,,,,,,,,,,,,,,,,,,,,,,,,,,
,,,,,,,,,,stimuli/images/PICTURE_177.png,CARS,5e53aad3d4c2b63a1e7deedc,2020-06-30_19h40.09.341,proactive,2020.1.2,Win32,60,5efb791ed4cb570da489e737,5efb8711a3de8710ce9a2ea6,3,,,,,,mushroom,,,,,,0,21,21,35,1,4,0,,,,,,,,,,,,,,,,,,,,,,,,,,,,,,,,,,,,,,,,,,,,,,,,,,,,,,,,,,,,,,,,,,,,,,,,,,,
,,,,,,,,,,stimuli/images/PICTURE_123.png,ADVICE,5e53aad3d4c2b63a1e7deedc,2020-06-30_19h40.09.341,proactive,2020.1.2,Win32,60,5efb791ed4cb570da489e737,5efb8711a3de8710ce9a2ea6,3,,,,,,dart,,,,,,0,22,22,40,1,5,0,,,,,,,,,,,,,,,,,,,,,,,,,,,,,,,,,,,,,,,,,,,,,,,,,,,,,,,,,,,,,,,,,,,,,,,,,,,
,,,,,,,,,,stimuli/images/PICTURE_467.png,DEMON,5e53aad3d4c2b63a1e7deedc,2020-06-30_19h40.09.341,proactive,2020.1.2,Win32,60,5efb791ed4cb570da489e737,5efb8711a3de8710ce9a2ea6,3,,,,,,peg,,,,,,0,23,23,23,1,3,0,,,,,,,,,,,,,,,,,,,,,,,,,,,,,,,,,,,,,,,,,,,,,,,,,,,,,,,,,,,,,,,,,,,,,,,,,,,
,,,,,,,,,,stimuli/images/PICTURE_255.png,AREA,5e53aad3d4c2b63a1e7deedc,2020-06-30_19h40.09.341,proactive,2020.1.2,Win32,60,5efb791ed4cb570da489e737,5efb8711a3de8710ce9a2ea6,3,,,,,,shovel,,,,,,0,24,24,22,1,3,0,,,,,,,,,,,,,,,,,,,,,,,,,,,,,,,,,,,,,,,,,,,,,,,,,,,,,,,,,,,,,,,,,,,,,,,,,,,
,,,,,,,,,,stimuli/images/PICTURE_667.png,BATH,5e53aad3d4c2b63a1e7deedc,2020-06-30_19h40.09.341,proactive,2020.1.2,Win32,60,5efb791ed4cb570da489e737,5efb8711a3de8710ce9a2ea6,3,,,,,,daisy,,,,,,0,25,25,4,1,1,0,,,,,,,,,,,,,,,,,,,,,,,,,,,,,,,,,,,,,,,,,,,,,,,,,,,,,,,,,,,,,,,,,,,,,,,,,,,
,,,,,,,,,,stimuli/images/PICTURE_208.png,LOTS,5e53aad3d4c2b63a1e7deedc,2020-06-30_19h40.09.341,proactive,2020.1.2,Win32,60,5efb791ed4cb570da489e737,5efb8711a3de8710ce9a2ea6,3,,,,,,microphone,,,,,,0,26,26,10,1,2,0,,,,,,,,,,,,,,,,,,,,,,,,,,,,,,,,,,,,,,,,,,,,,,,,,,,,,,,,,,,,,,,,,,,,,,,,,,,
,,,,,,,,,,stimuli/images/PICTURE_147.png,MOMENT,5e53aad3d4c2b63a1e7deedc,2020-06-30_19h40.09.341,proactive,2020.1.2,Win32,60,5efb791ed4cb570da489e737,5efb8711a3de8710ce9a2ea6,3,,,,,,hanger,,,,,,0,27,27,51,1,6,0,,,,,,,,,,,,,,,,,,,,,,,,,,,,,,,,,,,,,,,,,,,,,,,,,,,,,,,,,,,,,,,,,,,,,,,,,,,
,,,,,,,,,,stimuli/images/PICTURE_160.png,LEADER,5e53aad3d4c2b63a1e7deedc,2020-06-30_19h40.09.341,proactive,2020.1.2,Win32,60,5efb791ed4cb570da489e737,5efb8711a3de8710ce9a2ea6,3,,,,,,wheelbarrow,,,,,,0,28,28,3,1,1,0,,,,,,,,,,,,,,,,,,,,,,,,,,,,,,,,,,,,,,,,,,,,,,,,,,,,,,,,,,,,,,,,,,,,,,,,,,,
,,,,,,,,,,stimuli/images/PICTURE_380.png,PHOTO,5e53aad3d4c2b63a1e7deedc,2020-06-30_19h40.09.341,proactive,2020.1.2,Win32,60,5efb791ed4cb570da489e737,5efb8711a3de8710ce9a2ea6,3,,,,,,gorilla,,,,,,0,29,29,52,1,6,0,,,,,,,,,,,,,,,,,,,,,,,,,,,,,,,,,,,,,,,,,,,,,,,,,,,,,,,,,,,,,,,,,,,,,,,,,,,
,,,,,,,,,,stimuli/images/PICTURE_68.png,MILE,5e53aad3d4c2b63a1e7deedc,2020-06-30_19h40.09.341,proactive,2020.1.2,Win32,60,5efb791ed4cb570da489e737,5efb8711a3de8710ce9a2ea6,3,,,,,,candle,,,,,,0,30,30,44,1,5,0,,,,,,,,,,,,,,,,,,,,,,,,,,,,,,,,,,,,,,,,,,,,,,,,,,,,,,,,,,,,,,,,,,,,,,,,,,,
,,,,,,,,,,stimuli/images/PICTURE_504.png,BODY,5e53aad3d4c2b63a1e7deedc,2020-06-30_19h40.09.341,proactive,2020.1.2,Win32,60,5efb791ed4cb570da489e737,5efb8711a3de8710ce9a2ea6,3,,,,,,wheel,,,,,,0,31,31,8,1,1,0,,,,,,,,,,,,,,,,,,,,,,,,,,,,,,,,,,,,,,,,,,,,,,,,,,,,,,,,,,,,,,,,,,,,,,,,,,,
,,,,,,,,,,stimuli/images/PICTURE_160.png,FEET,5e53aad3d4c2b63a1e7deedc,2020-06-30_19h40.09.341,proactive,2020.1.2,Win32,60,5efb791ed4cb570da489e737,5efb8711a3de8710ce9a2ea6,3,,,,,,wheelbarrow,,,,,,0,32,32,58,1,6,0,,,,,,,,,,,,,,,,,,,,,,,,,,,,,,,,,,,,,,,,,,,,,,,,,,,,,,,,,,,,,,,,,,,,,,,,,,,
,,,,,,,,,,stimuli/images/PICTURE_233.png,WOMEN,5e53aad3d4c2b63a1e7deedc,2020-06-30_19h40.09.341,proactive,2020.1.2,Win32,60,5efb791ed4cb570da489e737,5efb8711a3de8710ce9a2ea6,3,,,,,,salt,,,,,,0,33,33,38,1,4,0,,,,,,,,,,,,,,,,,,,,,,,,,,,,,,,,,,,,,,,,,,,,,,,,,,,,,,,,,,,,,,,,,,,,,,,,,,,
,,,,,,,,,,stimuli/images/PICTURE_744.png,SYSTEM,5e53aad3d4c2b63a1e7deedc,2020-06-30_19h40.09.341,proactive,2020.1.2,Win32,60,5efb791ed4cb570da489e737,5efb8711a3de8710ce9a2ea6,3,,,,,,ring,,,,,,0,34,34,43,1,5,0,,,,,,,,,,,,,,,,,,,,,,,,,,,,,,,,,,,,,,,,,,,,,,,,,,,,,,,,,,,,,,,,,,,,,,,,,,,
,,,,,,,,,,stimuli/images/PICTURE_453.png,PLENTY,5e53aad3d4c2b63a1e7deedc,2020-06-30_19h40.09.341,proactive,2020.1.2,Win32,60,5efb791ed4cb570da489e737,5efb8711a3de8710ce9a2ea6,3,,,,,,scissors,,,,,,0,35,35,56,1,6,0,,,,,,,,,,,,,,,,,,,,,,,,,,,,,,,,,,,,,,,,,,,,,,,,,,,,,,,,,,,,,,,,,,,,,,,,,,,
,,,,,,,,,,stimuli/images/PICTURE_708.png,YARD,5e53aad3d4c2b63a1e7deedc,2020-06-30_19h40.09.341,proactive,2020.1.2,Win32,60,5efb791ed4cb570da489e737,5efb8711a3de8710ce9a2ea6,3,,,,,,monkey,,,,,,0,36,36,29,1,3,0,,,,,,,,,,,,,,,,,,,,,,,,,,,,,,,,,,,,,,,,,,,,,,,,,,,,,,,,,,,,,,,,,,,,,,,,,,,
,,,,,,,,,,stimuli/images/PICTURE_314.png,SAKE,5e53aad3d4c2b63a1e7deedc,2020-06-30_19h40.09.341,proactive,2020.1.2,Win32,60,5efb791ed4cb570da489e737,5efb8711a3de8710ce9a2ea6,3,,,,,,perfume,,,,,,0,37,37,7,1,1,0,,,,,,,,,,,,,,,,,,,,,,,,,,,,,,,,,,,,,,,,,,,,,,,,,,,,,,,,,,,,,,,,,,,,,,,,,,,
,,,,,,,,,,stimuli/images/PICTURE_491.png,WRITER,5e53aad3d4c2b63a1e7deedc,2020-06-30_19h40.09.341,proactive,2020.1.2,Win32,60,5efb791ed4cb570da489e737,5efb8711a3de8710ce9a2ea6,3,,,,,,rug,,,,,,0,38,38,57,1,6,0,,,,,,,,,,,,,,,,,,,,,,,,,,,,,,,,,,,,,,,,,,,,,,,,,,,,,,,,,,,,,,,,,,,,,,,,,,,
,,,,,,,,,,stimuli/images/PICTURE_348.png,SPEECH,5e53aad3d4c2b63a1e7deedc,2020-06-30_19h40.09.341,proactive,2020.1.2,Win32,60,5efb791ed4cb570da489e737,5efb8711a3de8710ce9a2ea6,3,,,,,,pepper,,,,,,0,39,39,20,1,3,0,,,,,,,,,,,,,,,,,,,,,,,,,,,,,,,,,,,,,,,,,,,,,,,,,,,,,,,,,,,,,,,,,,,,,,,,,,,
,,,,,,,,,,stimuli/images/PICTURE_233.png,IDEAS,5e53aad3d4c2b63a1e7deedc,2020-06-30_19h40.09.341,proactive,2020.1.2,Win32,60,5efb791ed4cb570da489e737,5efb8711a3de8710ce9a2ea6,3,,,,,,salt,,,,,,0,40,40,28,1,3,0,,,,,,,,,,,,,,,,,,,,,,,,,,,,,,,,,,,,,,,,,,,,,,,,,,,,,,,,,,,,,,,,,,,,,,,,,,,
,,,,,,,,,,stimuli/images/PICTURE_215.png,PLENTY,5e53aad3d4c2b63a1e7deedc,2020-06-30_19h40.09.341,proactive,2020.1.2,Win32,60,5efb791ed4cb570da489e737,5efb8711a3de8710ce9a2ea6,3,,,,,,boot,,,,,,0,41,41,37,1,4,0,,,,,,,,,,,,,,,,,,,,,,,,,,,,,,,,,,,,,,,,,,,,,,,,,,,,,,,,,,,,,,,,,,,,,,,,,,,
,,,,,,,,,,stimuli/images/PICTURE_302.png,FAMILY,5e53aad3d4c2b63a1e7deedc,2020-06-30_19h40.09.341,proactive,2020.1.2,Win32,60,5efb791ed4cb570da489e737,5efb8711a3de8710ce9a2ea6,3,,,,,,taxi,,,,,,0,42,42,18,1,2,0,,,,,,,,,,,,,,,,,,,,,,,,,,,,,,,,,,,,,,,,,,,,,,,,,,,,,,,,,,,,,,,,,,,,,,,,,,,
,,,,,,,,,,stimuli/images/PICTURE_677.png,MILE,5e53aad3d4c2b63a1e7deedc,2020-06-30_19h40.09.341,proactive,2020.1.2,Win32,60,5efb791ed4cb570da489e737,5efb8711a3de8710ce9a2ea6,3,,,,,,map,,,,,,0,43,43,30,1,4,0,,,,,,,,,,,,,,,,,,,,,,,,,,,,,,,,,,,,,,,,,,,,,,,,,,,,,,,,,,,,,,,,,,,,,,,,,,,
,,,,,,,,,,stimuli/images/PICTURE_469.png,LETTER,5e53aad3d4c2b63a1e7deedc,2020-06-30_19h40.09.341,proactive,2020.1.2,Win32,60,5efb791ed4cb570da489e737,5efb8711a3de8710ce9a2ea6,3,,,,,,stool,,,,,,0,44,44,42,1,5,0,,,,,,,,,,,,,,,,,,,,,,,,,,,,,,,,,,,,,,,,,,,,,,,,,,,,,,,,,,,,,,,,,,,,,,,,,,,
,,,,,,,,,,stimuli/images/PICTURE_744.png,SAKE,5e53aad3d4c2b63a1e7deedc,2020-06-30_19h40.09.341,proactive,2020.1.2,Win32,60,5efb791ed4cb570da489e737,5efb8711a3de8710ce9a2ea6,3,,,,,,ring,,,,,,0,45,45,17,1,2,0,,,,,,,,,,,,,,,,,,,,,,,,,,,,,,,,,,,,,,,,,,,,,,,,,,,,,,,,,,,,,,,,,,,,,,,,,,,
,,,,,,,,,,stimuli/images/PICTURE_203.png,ARTIST,5e53aad3d4c2b63a1e7deedc,2020-06-30_19h40.09.341,proactive,2020.1.2,Win32,60,5efb791ed4cb570da489e737,5efb8711a3de8710ce9a2ea6,3,,,,,,cap,,,,,,0,46,46,26,1,3,0,,,,,,,,,,,,,,,,,,,,,,,,,,,,,,,,,,,,,,,,,,,,,,,,,,,,,,,,,,,,,,,,,,,,,,,,,,,
,,,,,,,,,,stimuli/images/PICTURE_491.png,ROOF,5e53aad3d4c2b63a1e7deedc,2020-06-30_19h40.09.341,proactive,2020.1.2,Win32,60,5efb791ed4cb570da489e737,5efb8711a3de8710ce9a2ea6,3,,,,,,rug,,,,,,0,47,47,24,1,3,0,,,,,,,,,,,,,,,,,,,,,,,,,,,,,,,,,,,,,,,,,,,,,,,,,,,,,,,,,,,,,,,,,,,,,,,,,,,
,,,,,,,,,,stimuli/images/PICTURE_688.png,WOMEN,5e53aad3d4c2b63a1e7deedc,2020-06-30_19h40.09.341,proactive,2020.1.2,Win32,60,5efb791ed4cb570da489e737,5efb8711a3de8710ce9a2ea6,3,,,,,,runner,,,,,,0,48,48,14,1,2,0,,,,,,,,,,,,,,,,,,,,,,,,,,,,,,,,,,,,,,,,,,,,,,,,,,,,,,,,,,,,,,,,,,,,,,,,,,,
,,,,,,,,,,stimuli/images/PICTURE_449.png,THING,5e53aad3d4c2b63a1e7deedc,2020-06-30_19h40.09.341,proactive,2020.1.2,Win32,60,5efb791ed4cb570da489e737,5efb8711a3de8710ce9a2ea6,3,,,,,,bench,,,,,,0,49,49,59,1,6,0,,,,,,,,,,,,,,,,,,,,,,,,,,,,,,,,,,,,,,,,,,,,,,,,,,,,,,,,,,,,,,,,,,,,,,,,,,,
,,,,,,,,,,stimuli/images/PICTURE_285.png,ADVICE,5e53aad3d4c2b63a1e7deedc,2020-06-30_19h40.09.341,proactive,2020.1.2,Win32,60,5efb791ed4cb570da489e737,5efb8711a3de8710ce9a2ea6,3,,,,,,carrot,,,,,,0,50,50,12,1,2,0,,,,,,,,,,,,,,,,,,,,,,,,,,,,,,,,,,,,,,,,,,,,,,,,,,,,,,,,,,,,,,,,,,,,,,,,,,,
,,,,,,,,,,stimuli/images/PICTURE_327.png,BEAUTY,5e53aad3d4c2b63a1e7deedc,2020-06-30_19h40.09.341,proactive,2020.1.2,Win32,60,5efb791ed4cb570da489e737,5efb8711a3de8710ce9a2ea6,3,,,,,,helmet,,,,,,0,51,51,48,1,5,0,,,,,,,,,,,,,,,,,,,,,,,,,,,,,,,,,,,,,,,,,,,,,,,,,,,,,,,,,,,,,,,,,,,,,,,,,,,
,,,,,,,,,,stimuli/images/PICTURE_308.png,ESTATE,5e53aad3d4c2b63a1e7deedc,2020-06-30_19h40.09.341,proactive,2020.1.2,Win32,60,5efb791ed4cb570da489e737,5efb8711a3de8710ce9a2ea6,3,,,,,,dice,,,,,,0,52,52,46,1,5,0,,,,,,,,,,,,,,,,,,,,,,,,,,,,,,,,,,,,,,,,,,,,,,,,,,,,,,,,,,,,,,,,,,,,,,,,,,,
,,,,,,,,,,stimuli/images/PICTURE_470.png,CASINO,5e53aad3d4c2b63a1e7deedc,2020-06-30_19h40.09.341,proactive,2020.1.2,Win32,60,5efb791ed4cb570da489e737,5efb8711a3de8710ce9a2ea6,3,,,,,,motorbike,,,,,,0,53,53,36,1,4,0,,,,,,,,,,,,,,,,,,,,,,,,,,,,,,,,,,,,,,,,,,,,,,,,,,,,,,,,,,,,,,,,,,,,,,,,,,,
,,,,,,,,,,stimuli/images/PICTURE_314.png,GODS,5e53aad3d4c2b63a1e7deedc,2020-06-30_19h40.09.341,proactive,2020.1.2,Win32,60,5efb791ed4cb570da489e737,5efb8711a3de8710ce9a2ea6,3,,,,,,perfume,,,,,,0,54,54,11,1,2,0,,,,,,,,,,,,,,,,,,,,,,,,,,,,,,,,,,,,,,,,,,,,,,,,,,,,,,,,,,,,,,,,,,,,,,,,,,,
,,,,,,,,,,stimuli/images/PICTURE_208.png,THING,5e53aad3d4c2b63a1e7deedc,2020-06-30_19h40.09.341,proactive,2020.1.2,Win32,60,5efb791ed4cb570da489e737,5efb8711a3de8710ce9a2ea6,3,,,,,,microphone,,,,,,0,55,55,47,1,5,0,,,,,,,,,,,,,,,,,,,,,,,,,,,,,,,,,,,,,,,,,,,,,,,,,,,,,,,,,,,,,,,,,,,,,,,,,,,
,,,,,,,,,,stimuli/images/PICTURE_85.png,THING,5e53aad3d4c2b63a1e7deedc,2020-06-30_19h40.09.341,proactive,2020.1.2,Win32,60,5efb791ed4cb570da489e737,5efb8711a3de8710ce9a2ea6,3,,,,,,diamond,,,,,,0,56,56,15,1,2,0,,,,,,,,,,,,,,,,,,,,,,,,,,,,,,,,,,,,,,,,,,,,,,,,,,,,,,,,,,,,,,,,,,,,,,,,,,,
,,,,,,,,,,stimuli/images/PICTURE_311.png,FRIEND,5e53aad3d4c2b63a1e7deedc,2020-06-30_19h40.09.341,proactive,2020.1.2,Win32,60,5efb791ed4cb570da489e737,5efb8711a3de8710ce9a2ea6,3,,,,,,razor,,,,,,0,57,57,34,1,4,0,,,,,,,,,,,,,,,,,,,,,,,,,,,,,,,,,,,,,,,,,,,,,,,,,,,,,,,,,,,,,,,,,,,,,,,,,,,
,,,,,,,,,,stimuli/images/PICTURE_453.png,DUDE,5e53aad3d4c2b63a1e7deedc,2020-06-30_19h40.09.341,proactive,2020.1.2,Win32,60,5efb791ed4cb570da489e737,5efb8711a3de8710ce9a2ea6,3,,,,,,scissors,,,,,,0,58,58,27,1,3,0,,,,,,,,,,,,,,,,,,,,,,,,,,,,,,,,,,,,,,,,,,,,,,,,,,,,,,,,,,,,,,,,,,,,,,,,,,,
,,?,0.003595,0,,,,,,stimuli/images/PICTURE_208.png,MONTH,5e53aad3d4c2b63a1e7deedc,2020-06-30_19h40.09.341,proactive,2020.1.2,Win32,60,5efb791ed4cb570da489e737,5efb8711a3de8710ce9a2ea6,3,,,,,,microphone,,,,,,,,,,,6,0,0,0,0,53,1,,,,,,,,,,,,,,,,,,,,,,,,,,,,,,,,,,,,,,,,,,,,,,,,,,,,,,,,,,,,,,,,,,,,,,
,,?,0.002755,0,,,,,,stimuli/images/PICTURE_688.png,WOMEN,5e53aad3d4c2b63a1e7deedc,2020-06-30_19h40.09.341,proactive,2020.1.2,Win32,60,5efb791ed4cb570da489e737,5efb8711a3de8710ce9a2ea6,3,,,,,,runner,,,,,,,,,,,2,0,0,1,1,14,1,,,,,,,,,,,,,,,,,,,,,,,,,,,,,,,,,,,,,,,,,,,,,,,,,,,,,,,,,,,,,,,,,,,,,,
,,?,0.00289,0,,,,,,stimuli/images/PICTURE_123.png,ADVICE,5e53aad3d4c2b63a1e7deedc,2020-06-30_19h40.09.341,proactive,2020.1.2,Win32,60,5efb791ed4cb570da489e737,5efb8711a3de8710ce9a2ea6,3,,,,,,dart,,,,,,,,,,,6,0,0,2,2,50,1,,,,,,,,,,,,,,,,,,,,,,,,,,,,,,,,,,,,,,,,,,,,,,,,,,,,,,,,,,,,,,,,,,,,,,
,,TORTURE,7.09977,0,,,,,,stimuli/images/PICTURE_467.png,DEMON,5e53aad3d4c2b63a1e7deedc,2020-06-30_19h40.09.341,proactive,2020.1.2,Win32,60,5efb791ed4cb570da489e737,5efb8711a3de8710ce9a2ea6,3,,,,,,peg,,,,,,,,,,,3,0,0,3,3,23,1,,,,,,,,,,,,,,,,,,,,,,,,,,,,,,,,,,,,,,,,,,,,,,,,,,,,,,,,,,,,,,,,,,,,,,
,,?,0.002125,0,,,,,,stimuli/images/PICTURE_285.png,ADVICE,5e53aad3d4c2b63a1e7deedc,2020-06-30_19h40.09.341,proactive,2020.1.2,Win32,60,5efb791ed4cb570da489e737,5efb8711a3de8710ce9a2ea6,3,,,,,,carrot,,,,,,,,,,,2,0,0,4,4,12,1,,,,,,,,,,,,,,,,,,,,,,,,,,,,,,,,,,,,,,,,,,,,,,,,,,,,,,,,,,,,,,,,,,,,,,
,,?,0.00204,0,,,,,,stimuli/images/PICTURE_314.png,SAKE,5e53aad3d4c2b63a1e7deedc,2020-06-30_19h40.09.341,proactive,2020.1.2,Win32,60,5efb791ed4cb570da489e737,5efb8711a3de8710ce9a2ea6,3,,,,,,perfume,,,,,,,,,,,1,0,0,5,5,7,1,,,,,,,,,,,,,,,,,,,,,,,,,,,,,,,,,,,,,,,,,,,,,,,,,,,,,,,,,,,,,,,,,,,,,,
,,FRIEND,7.96953,0,,,,,,stimuli/images/PICTURE_348.png,SPEECH,5e53aad3d4c2b63a1e7deedc,2020-06-30_19h40.09.341,proactive,2020.1.2,Win32,60,5efb791ed4cb570da489e737,5efb8711a3de8710ce9a2ea6,3,,,,,,pepper,,,,,,,,,,,3,0,0,6,6,20,1,,,,,,,,,,,,,,,,,,,,,,,,,,,,,,,,,,,,,,,,,,,,,,,,,,,,,,,,,,,,,,,,,,,,,,
,,?,0.00801,0,,,,,,stimuli/images/PICTURE_504.png,BODY,5e53aad3d4c2b63a1e7deedc,2020-06-30_19h40.09.341,proactive,2020.1.2,Win32,60,5efb791ed4cb570da489e737,5efb8711a3de8710ce9a2ea6,3,,,,,,wheel,,,,,,,,,,,1,0,0,7,7,8,1,,,,,,,,,,,,,,,,,,,,,,,,,,,,,,,,,,,,,,,,,,,,,,,,,,,,,,,,,,,,,,,,,,,,,,
,,AREA,2.968435,1,,,,,,stimuli/images/PICTURE_255.png,AREA,5e53aad3d4c2b63a1e7deedc,2020-06-30_19h40.09.341,proactive,2020.1.2,Win32,60,5efb791ed4cb570da489e737,5efb8711a3de8710ce9a2ea6,3,,,,,,shovel,,,,,,,,,,,3,0,0,8,8,22,1,,,,,,,,,,,,,,,,,,,,,,,,,,,,,,,,,,,,,,,,,,,,,,,,,,,,,,,,,,,,,,,,,,,,,,
,,?,0.002455,0,,,,,,stimuli/images/PICTURE_68.png,MILE,5e53aad3d4c2b63a1e7deedc,2020-06-30_19h40.09.341,proactive,2020.1.2,Win32,60,5efb791ed4cb570da489e737,5efb8711a3de8710ce9a2ea6,3,,,,,,candle,,,,,,,,,,,5,0,0,9,9,44,1,,,,,,,,,,,,,,,,,,,,,,,,,,,,,,,,,,,,,,,,,,,,,,,,,,,,,,,,,,,,,,,,,,,,,,
,,AWAY,6.20702,0,,,,,,stimuli/images/PICTURE_95.png,STYLE,5e53aad3d4c2b63a1e7deedc,2020-06-30_19h40.09.341,proactive,2020.1.2,Win32,60,5efb791ed4cb570da489e737,5efb8711a3de8710ce9a2ea6,3,,,,,,suitcase,,,,,,,,,,,3,0,0,10,10,25,1,,,,,,,,,,,,,,,,,,,,,,,,,,,,,,,,,,,,,,,,,,,,,,,,,,,,,,,,,,,,,,,,,,,,,,
,,?,0.00265,0,,,,,,stimuli/images/PICTURE_675.png,WEAPON,5e53aad3d4c2b63a1e7deedc,2020-06-30_19h40.09.341,proactive,2020.1.2,Win32,60,5efb791ed4cb570da489e737,5efb8711a3de8710ce9a2ea6,3,,,,,,windmill,,,,,,,,,,,4,0,0,11,11,32,1,,,,,,,,,,,,,,,,,,,,,,,,,,,,,,,,,,,,,,,,,,,,,,,,,,,,,,,,,,,,,,,,,,,,,,
,,ARTIST,2.62435,1,,,,,,stimuli/images/PICTURE_203.png,ARTIST,5e53aad3d4c2b63a1e7deedc,2020-06-30_19h40.09.341,proactive,2020.1.2,Win32,60,5efb791ed4cb570da489e737,5efb8711a3de8710ce9a2ea6,3,,,,,,cap,,,,,,,,,,,3,0,0,12,12,26,1,,,,,,,,,,,,,,,,,,,,,,,,,,,,,,,,,,,,,,,,,,,,,,,,,,,,,,,,,,,,,,,,,,,,,,
,,?,0.001035,0,,,,,,stimuli/images/PICTURE_708.png,CLIENT,5e53aad3d4c2b63a1e7deedc,2020-06-30_19h40.09.341,proactive,2020.1.2,Win32,60,5efb791ed4cb570da489e737,5efb8711a3de8710ce9a2ea6,3,,,,,,monkey,,,,,,,,,,,1,0,0,13,13,5,1,,,,,,,,,,,,,,,,,,,,,,,,,,,,,,,,,,,,,,,,,,,,,,,,,,,,,,,,,,,,,,,,,,,,,,
,,?,0.00129,0,,,,,,stimuli/images/PICTURE_469.png,LETTER,5e53aad3d4c2b63a1e7deedc,2020-06-30_19h40.09.341,proactive,2020.1.2,Win32,60,5efb791ed4cb570da489e737,5efb8711a3de8710ce9a2ea6,3,,,,,,stool,,,,,,,,,,,5,0,0,14,14,42,1,,,,,,,,,,,,,,,,,,,,,,,,,,,,,,,,,,,,,,,,,,,,,,,,,,,,,,,,,,,,,,,,,,,,,,
,,DUDE,2.11052,1,,,,,,stimuli/images/PICTURE_453.png,DUDE,5e53aad3d4c2b63a1e7deedc,2020-06-30_19h40.09.341,proactive,2020.1.2,Win32,60,5efb791ed4cb570da489e737,5efb8711a3de8710ce9a2ea6,3,,,,,,scissors,,,,,,,,,,,3,0,0,15,15,27,1,,,,,,,,,,,,,,,,,,,,,,,,,,,,,,,,,,,,,,,,,,,,,,,,,,,,,,,,,,,,,,,,,,,,,,
,,?,0.001705,0,,,,,,stimuli/images/PICTURE_469.png,ARTIST,5e53aad3d4c2b63a1e7deedc,2020-06-30_19h40.09.341,proactive,2020.1.2,Win32,60,5efb791ed4cb570da489e737,5efb8711a3de8710ce9a2ea6,3,,,,,,stool,,,,,,,,,,,1,0,0,16,16,6,1,,,,,,,,,,,,,,,,,,,,,,,,,,,,,,,,,,,,,,,,,,,,,,,,,,,,,,,,,,,,,,,,,,,,,,
,,?,0.00168,0,,,,,,stimuli/images/PICTURE_667.png,BATH,5e53aad3d4c2b63a1e7deedc,2020-06-30_19h40.09.341,proactive,2020.1.2,Win32,60,5efb791ed4cb570da489e737,5efb8711a3de8710ce9a2ea6,3,,,,,,daisy,,,,,,,,,,,1,0,0,17,17,4,1,,,,,,,,,,,,,,,,,,,,,,,,,,,,,,,,,,,,,,,,,,,,,,,,,,,,,,,,,,,,,,,,,,,,,,
,,?,0.0016,0,,,,,,stimuli/images/PICTURE_488.png,STYLE,5e53aad3d4c2b63a1e7deedc,2020-06-30_19h40.09.341,proactive,2020.1.2,Win32,60,5efb791ed4cb570da489e737,5efb8711a3de8710ce9a2ea6,3,,,,,,sun,,,,,,,,,,,4,0,0,18,18,33,1,,,,,,,,,,,,,,,,,,,,,,,,,,,,,,,,,,,,,,,,,,,,,,,,,,,,,,,,,,,,,,,,,,,,,,
,,?,0.00183,0,,,,,,stimuli/images/PICTURE_688.png,CASINO,5e53aad3d4c2b63a1e7deedc,2020-06-30_19h40.09.341,proactive,2020.1.2,Win32,60,5efb791ed4cb570da489e737,5efb8711a3de8710ce9a2ea6,3,,,,,,runner,,,,,,,,,,,1,0,0,19,19,2,1,,,,,,,,,,,,,,,,,,,,,,,,,,,,,,,,,,,,,,,,,,,,,,,,,,,,,,,,,,,,,,,,,,,,,,
,,?,0.002105,0,,,,,,stimuli/images/PICTURE_677.png,MILE,5e53aad3d4c2b63a1e7deedc,2020-06-30_19h40.09.341,proactive,2020.1.2,Win32,60,5efb791ed4cb570da489e737,5efb8711a3de8710ce9a2ea6,3,,,,,,map,,,,,,,,,,,4,0,0,20,20,30,1,,,,,,,,,,,,,,,,,,,,,,,,,,,,,,,,,,,,,,,,,,,,,,,,,,,,,,,,,,,,,,,,,,,,,,
,,?,0.00163,0,,,,,,stimuli/images/PICTURE_453.png,PLENTY,5e53aad3d4c2b63a1e7deedc,2020-06-30_19h40.09.341,proactive,2020.1.2,Win32,60,5efb791ed4cb570da489e737,5efb8711a3de8710ce9a2ea6,3,,,,,,scissors,,,,,,,,,,,6,0,0,21,21,56,1,,,,,,,,,,,,,,,,,,,,,,,,,,,,,,,,,,,,,,,,,,,,,,,,,,,,,,,,,,,,,,,,,,,,,,
,,?,0.001645,0,,,,,,stimuli/images/PICTURE_208.png,THING,5e53aad3d4c2b63a1e7deedc,2020-06-30_19h40.09.341,proactive,2020.1.2,Win32,60,5efb791ed4cb570da489e737,5efb8711a3de8710ce9a2ea6,3,,,,,,microphone,,,,,,,,,,,5,0,0,22,22,47,1,,,,,,,,,,,,,,,,,,,,,,,,,,,,,,,,,,,,,,,,,,,,,,,,,,,,,,,,,,,,,,,,,,,,,,
,,?,0.0018,0,,,,,,stimuli/images/PICTURE_380.png,PHOTO,5e53aad3d4c2b63a1e7deedc,2020-06-30_19h40.09.341,proactive,2020.1.2,Win32,60,5efb791ed4cb570da489e737,5efb8711a3de8710ce9a2ea6,3,,,,,,gorilla,,,,,,,,,,,6,0,0,23,23,52,1,,,,,,,,,,,,,,,,,,,,,,,,,,,,,,,,,,,,,,,,,,,,,,,,,,,,,,,,,,,,,,,,,,,,,,
,,PHOTO,2.745375,1,,,,,,stimuli/images/PICTURE_509.png,PHOTO,5e53aad3d4c2b63a1e7deedc,2020-06-30_19h40.09.341,proactive,2020.1.2,Win32,60,5efb791ed4cb570da489e737,5efb8711a3de8710ce9a2ea6,3,,,,,,telephone,,,,,,,,,,,3,0,0,24,24,21,1,,,,,,,,,,,,,,,,,,,,,,,,,,,,,,,,,,,,,,,,,,,,,,,,,,,,,,,,,,,,,,,,,,,,,,
,,?,0.00187,0,,,,,,stimuli/images/PICTURE_160.png,LEADER,5e53aad3d4c2b63a1e7deedc,2020-06-30_19h40.09.341,proactive,2020.1.2,Win32,60,5efb791ed4cb570da489e737,5efb8711a3de8710ce9a2ea6,3,,,,,,wheelbarrow,,,,,,,,,,,1,0,0,25,25,3,1,,,,,,,,,,,,,,,,,,,,,,,,,,,,,,,,,,,,,,,,,,,,,,,,,,,,,,,,,,,,,,,,,,,,,,
,,?,0.00161,0,,,,,,stimuli/images/PICTURE_491.png,WRITER,5e53aad3d4c2b63a1e7deedc,2020-06-30_19h40.09.341,proactive,2020.1.2,Win32,60,5efb791ed4cb570da489e737,5efb8711a3de8710ce9a2ea6,3,,,,,,rug,,,,,,,,,,,6,0,0,26,26,57,1,,,,,,,,,,,,,,,,,,,,,,,,,,,,,,,,,,,,,,,,,,,,,,,,,,,,,,,,,,,,,,,,,,,,,,
,,?,0.001615,0,,,,,,stimuli/images/PICTURE_654.png,VALLEY,5e53aad3d4c2b63a1e7deedc,2020-06-30_19h40.09.341,proactive,2020.1.2,Win32,60,5efb791ed4cb570da489e737,5efb8711a3de8710ce9a2ea6,3,,,,,,pencil,,,,,,,,,,,1,0,0,27,27,1,1,,,,,,,,,,,,,,,,,,,,,,,,,,,,,,,,,,,,,,,,,,,,,,,,,,,,,,,,,,,,,,,,,,,,,,
,,?,0.003095,0,,,,,,stimuli/images/PICTURE_339.png,PLENTY,5e53aad3d4c2b63a1e7deedc,2020-06-30_19h40.09.341,proactive,2020.1.2,Win32,60,5efb791ed4cb570da489e737,5efb8711a3de8710ce9a2ea6,3,,,,,,backpack,,,,,,,,,,,1,0,0,28,28,0,1,,,,,,,,,,,,,,,,,,,,,,,,,,,,,,,,,,,,,,,,,,,,,,,,,,,,,,,,,,,,,,,,,,,,,,
,,?,0.00227,0,,,,,,stimuli/images/PICTURE_248.png,DOZEN,5e53aad3d4c2b63a1e7deedc,2020-06-30_19h40.09.341,proactive,2020.1.2,Win32,60,5efb791ed4cb570da489e737,5efb8711a3de8710ce9a2ea6,3,,,,,,cart,,,,,,,,,,,4,0,0,29,29,39,1,,,,,,,,,,,,,,,,,,,,,,,,,,,,,,,,,,,,,,,,,,,,,,,,,,,,,,,,,,,,,,,,,,,,,,
