consent_key.keys,consent_key.rt,recalled,recalled_rt,recall_acc,example_recall.thisRepN,example_recall.thisTrialN,example_recall.thisN,example_recall.thisIndex,example_recall.ran,file,word,participant,please enter your date of birth (dd/mm/yyyy),date,expName,psychopyVersion,OS,frameRate,STUDY_ID,SESSION_ID,list,prac_learn_study_loop.thisRepN,prac_learn_study_loop.thisTrialN,prac_learn_study_loop.thisN,prac_learn_study_loop.thisIndex,prac_learn_study_loop.ran,image,prac_learn_test_loop.thisRepN,prac_learn_test_loop.thisTrialN,prac_learn_test_loop.thisN,prac_learn_test_loop.thisIndex,prac_learn_test_loop.ran,learn_study_loop.thisRepN,learn_study_loop.thisTrialN,learn_study_loop.thisN,learn_study_loop.thisIndex,learn_study_loop.ran,list_no,block_no,learn_test_loop.thisRepN,learn_test_loop.thisTrialN,learn_test_loop.thisN,learn_test_loop.thisIndex,learn_test_loop.ran,learn_blocks.thisRepN,learn_blocks.thisTrialN,learn_blocks.thisN,learn_blocks.thisIndex,learn_blocks.ran,block_csv,key_resp_13.keys,key_resp_13.rt,learn_blocks_loop.thisRepN,learn_blocks_loop.thisTrialN,learn_blocks_loop.thisN,learn_blocks_loop.thisIndex,learn_blocks_loop.ran,final_learn_test.thisRepN,final_learn_test.thisTrialN,final_learn_test.thisN,final_learn_test.thisIndex,final_learn_test.ran,prac_wm_test_loop.thisRepN,prac_wm_test_loop.thisTrialN,prac_wm_test_loop.thisN,prac_wm_test_loop.thisIndex,prac_wm_test_loop.ran,wm_recalled1,wm_recall_rt1,wm_probed1,wm_recall_acc1,wm_recalled2,wm_recall_rt2,wm_probed2,wm_recall_acc2,wm_recalled3,wm_recall_rt3,wm_probed3,wm_recall_acc3,wm_recalled4,wm_recall_rt4,wm_probed4,wm_recall_acc4,prac_wm_trial_loop.thisRepN,prac_wm_trial_loop.thisTrialN,prac_wm_trial_loop.thisN,prac_wm_trial_loop.thisIndex,prac_wm_trial_loop.ran,word1,image1,file1,item_type1,word2,image2,file2,item_type2,word4,image4,file4,item_type4,word3,image3,file3,item_type3,wm_test_loop.thisRepN,wm_test_loop.thisTrialN,wm_test_loop.thisN,wm_test_loop.thisIndex,wm_test_loop.ran,wm_trial_loop.thisRepN,wm_trial_loop.thisTrialN,wm_trial_loop.thisN,wm_trial_loop.thisIndex,wm_trial_loop.ran
y,29.90844,TOUGH,7.740215,1,0,0,0,0,1,stimuli/images/PICTURE_747.png,TOUGH,5e5e86c4a234251abddcd29d,01/04/1951,2020-07-09_21h10.12.479,proactive,2020.1.2,MacIntel,60,5f073de81c76c3308c0e4fb3,5f07799129c3d8398306f949,6,,,,,,,,,,,,,,,,,,,,,,,,,,,,,,,,,,,,,,,,,,,,,,,,,,,,,,,,,,,,,,,,,,,,,,,,,,,,,,,,,,,,,,,,,,,,,
,,,,,,,,,,stimuli/images/PICTURE_378.png,LOSS,5e5e86c4a234251abddcd29d,01/04/1951,2020-07-09_21h10.12.479,proactive,2020.1.2,MacIntel,60,5f073de81c76c3308c0e4fb3,5f07799129c3d8398306f949,6,0,0,0,2,1,lobster,,,,,,,,,,,,,,,,,,,,,,,,,,,,,,,,,,,,,,,,,,,,,,,,,,,,,,,,,,,,,,,,,,,,,,,,,,,,,,,,,,,,,,,
,,,,,,,,,,stimuli/images/PICTURE_269.png,GENIUS,5e5e86c4a234251abddcd29d,01/04/1951,2020-07-09_21h10.12.479,proactive,2020.1.2,MacIntel,60,5f073de81c76c3308c0e4fb3,5f07799129c3d8398306f949,6,0,1,1,0,1,chameleon,,,,,,,,,,,,,,,,,,,,,,,,,,,,,,,,,,,,,,,,,,,,,,,,,,,,,,,,,,,,,,,,,,,,,,,,,,,,,,,,,,,,,,,
,,,,,,,,,,stimuli/images/PICTURE_727.png,CELL,5e5e86c4a234251abddcd29d,01/04/1951,2020-07-09_21h10.12.479,proactive,2020.1.2,MacIntel,60,5f073de81c76c3308c0e4fb3,5f07799129c3d8398306f949,6,0,2,2,1,1,hose,,,,,,,,,,,,,,,,,,,,,,,,,,,,,,,,,,,,,,,,,,,,,,,,,,,,,,,,,,,,,,,,,,,,,,,,,,,,,,,,,,,,,,,
,,,,,,,,,,stimuli/images/PICTURE_697.png,KILLER,5e5e86c4a234251abddcd29d,01/04/1951,2020-07-09_21h10.12.479,proactive,2020.1.2,MacIntel,60,5f073de81c76c3308c0e4fb3,5f07799129c3d8398306f949,6,0,3,3,4,1,peach,,,,,,,,,,,,,,,,,,,,,,,,,,,,,,,,,,,,,,,,,,,,,,,,,,,,,,,,,,,,,,,,,,,,,,,,,,,,,,,,,,,,,,,
,,KILLER,6.1965,1,,,,,,stimuli/images/PICTURE_697.png,KILLER,5e5e86c4a234251abddcd29d,01/04/1951,2020-07-09_21h10.12.479,proactive,2020.1.2,MacIntel,60,5f073de81c76c3308c0e4fb3,5f07799129c3d8398306f949,6,,,,,,peach,0,0,0,4,1,,,,,,,,,,,,,,,,,,,,,,,,,,,,,,,,,,,,,,,,,,,,,,,,,,,,,,,,,,,,,,,,,,,,,,,,,,,,,,,,,,
,,DEVIL,6.41529,1,,,,,,stimuli/images/PICTURE_658.png,DEVIL,5e5e86c4a234251abddcd29d,01/04/1951,2020-07-09_21h10.12.479,proactive,2020.1.2,MacIntel,60,5f073de81c76c3308c0e4fb3,5f07799129c3d8398306f949,6,,,,,,crow,0,1,1,3,1,,,,,,,,,,,,,,,,,,,,,,,,,,,,,,,,,,,,,,,,,,,,,,,,,,,,,,,,,,,,,,,,,,,,,,,,,,,,,,,,,,
,,LOBSTER,8.152055,0,,,,,,stimuli/images/PICTURE_378.png,LOSS,5e5e86c4a234251abddcd29d,01/04/1951,2020-07-09_21h10.12.479,proactive,2020.1.2,MacIntel,60,5f073de81c76c3308c0e4fb3,5f07799129c3d8398306f949,6,,,,,,lobster,0,2,2,2,1,,,,,,,,,,,,,,,,,,,,,,,,,,,,,,,,,,,,,,,,,,,,,,,,,,,,,,,,,,,,,,,,,,,,,,,,,,,,,,,,,,
,,GENIUS,5.980865,1,,,,,,stimuli/images/PICTURE_269.png,GENIUS,5e5e86c4a234251abddcd29d,01/04/1951,2020-07-09_21h10.12.479,proactive,2020.1.2,MacIntel,60,5f073de81c76c3308c0e4fb3,5f07799129c3d8398306f949,6,,,,,,chameleon,0,3,3,0,1,,,,,,,,,,,,,,,,,,,,,,,,,,,,,,,,,,,,,,,,,,,,,,,,,,,,,,,,,,,,,,,,,,,,,,,,,,,,,,,,,,
,,CELL,5.11642,1,,,,,,stimuli/images/PICTURE_727.png,CELL,5e5e86c4a234251abddcd29d,01/04/1951,2020-07-09_21h10.12.479,proactive,2020.1.2,MacIntel,60,5f073de81c76c3308c0e4fb3,5f07799129c3d8398306f949,6,,,,,,hose,0,4,4,1,1,,,,,,,,,,,,,,,,,,,,,,,,,,,,,,,,,,,,,,,,,,,,,,,,,,,,,,,,,,,,,,,,,,,,,,,,,,,,,,,,,,
,,,,,,,,,,stimuli/images/PICTURE_339.png,PLENTY,5e5e86c4a234251abddcd29d,01/04/1951,2020-07-09_21h10.12.479,proactive,2020.1.2,MacIntel,60,5f073de81c76c3308c0e4fb3,5f07799129c3d8398306f949,6,,,,,,backpack,,,,,,0,0,0,0,1,1,0,,,,,,,,,,,,,,,,,,,,,,,,,,,,,,,,,,,,,,,,,,,,,,,,,,,,,,,,,,,,,,,,,,,,,,,,,,,
,,,,,,,,,,stimuli/images/PICTURE_488.png,STYLE,5e5e86c4a234251abddcd29d,01/04/1951,2020-07-09_21h10.12.479,proactive,2020.1.2,MacIntel,60,5f073de81c76c3308c0e4fb3,5f07799129c3d8398306f949,6,,,,,,sun,,,,,,0,1,1,33,1,4,0,,,,,,,,,,,,,,,,,,,,,,,,,,,,,,,,,,,,,,,,,,,,,,,,,,,,,,,,,,,,,,,,,,,,,,,,,,,
,,,,,,,,,,stimuli/images/PICTURE_177.png,CARS,5e5e86c4a234251abddcd29d,01/04/1951,2020-07-09_21h10.12.479,proactive,2020.1.2,MacIntel,60,5f073de81c76c3308c0e4fb3,5f07799129c3d8398306f949,6,,,,,,mushroom,,,,,,0,2,2,35,1,4,0,,,,,,,,,,,,,,,,,,,,,,,,,,,,,,,,,,,,,,,,,,,,,,,,,,,,,,,,,,,,,,,,,,,,,,,,,,,
,,,,,,,,,,stimuli/images/PICTURE_311.png,BEAUTY,5e5e86c4a234251abddcd29d,01/04/1951,2020-07-09_21h10.12.479,proactive,2020.1.2,MacIntel,60,5f073de81c76c3308c0e4fb3,5f07799129c3d8398306f949,6,,,,,,razor,,,,,,0,3,3,13,1,2,0,,,,,,,,,,,,,,,,,,,,,,,,,,,,,,,,,,,,,,,,,,,,,,,,,,,,,,,,,,,,,,,,,,,,,,,,,,,
,,,,,,,,,,stimuli/images/PICTURE_469.png,LETTER,5e5e86c4a234251abddcd29d,01/04/1951,2020-07-09_21h10.12.479,proactive,2020.1.2,MacIntel,60,5f073de81c76c3308c0e4fb3,5f07799129c3d8398306f949,6,,,,,,stool,,,,,,0,4,4,42,1,5,0,,,,,,,,,,,,,,,,,,,,,,,,,,,,,,,,,,,,,,,,,,,,,,,,,,,,,,,,,,,,,,,,,,,,,,,,,,,
,,,,,,,,,,stimuli/images/PICTURE_255.png,AREA,5e5e86c4a234251abddcd29d,01/04/1951,2020-07-09_21h10.12.479,proactive,2020.1.2,MacIntel,60,5f073de81c76c3308c0e4fb3,5f07799129c3d8398306f949,6,,,,,,shovel,,,,,,0,5,5,22,1,3,0,,,,,,,,,,,,,,,,,,,,,,,,,,,,,,,,,,,,,,,,,,,,,,,,,,,,,,,,,,,,,,,,,,,,,,,,,,,
,,,,,,,,,,stimuli/images/PICTURE_708.png,CLIENT,5e5e86c4a234251abddcd29d,01/04/1951,2020-07-09_21h10.12.479,proactive,2020.1.2,MacIntel,60,5f073de81c76c3308c0e4fb3,5f07799129c3d8398306f949,6,,,,,,monkey,,,,,,0,6,6,5,1,1,0,,,,,,,,,,,,,,,,,,,,,,,,,,,,,,,,,,,,,,,,,,,,,,,,,,,,,,,,,,,,,,,,,,,,,,,,,,,
,,,,,,,,,,stimuli/images/PICTURE_147.png,MOMENT,5e5e86c4a234251abddcd29d,01/04/1951,2020-07-09_21h10.12.479,proactive,2020.1.2,MacIntel,60,5f073de81c76c3308c0e4fb3,5f07799129c3d8398306f949,6,,,,,,hanger,,,,,,0,7,7,51,1,6,0,,,,,,,,,,,,,,,,,,,,,,,,,,,,,,,,,,,,,,,,,,,,,,,,,,,,,,,,,,,,,,,,,,,,,,,,,,,
,,,,,,,,,,stimuli/images/PICTURE_688.png,WOMEN,5e5e86c4a234251abddcd29d,01/04/1951,2020-07-09_21h10.12.479,proactive,2020.1.2,MacIntel,60,5f073de81c76c3308c0e4fb3,5f07799129c3d8398306f949,6,,,,,,runner,,,,,,0,8,8,14,1,2,0,,,,,,,,,,,,,,,,,,,,,,,,,,,,,,,,,,,,,,,,,,,,,,,,,,,,,,,,,,,,,,,,,,,,,,,,,,,
,,,,,,,,,,stimuli/images/PICTURE_453.png,PLENTY,5e5e86c4a234251abddcd29d,01/04/1951,2020-07-09_21h10.12.479,proactive,2020.1.2,MacIntel,60,5f073de81c76c3308c0e4fb3,5f07799129c3d8398306f949,6,,,,,,scissors,,,,,,0,9,9,56,1,6,0,,,,,,,,,,,,,,,,,,,,,,,,,,,,,,,,,,,,,,,,,,,,,,,,,,,,,,,,,,,,,,,,,,,,,,,,,,,
,,,,,,,,,,stimuli/images/PICTURE_95.png,STYLE,5e5e86c4a234251abddcd29d,01/04/1951,2020-07-09_21h10.12.479,proactive,2020.1.2,MacIntel,60,5f073de81c76c3308c0e4fb3,5f07799129c3d8398306f949,6,,,,,,suitcase,,,,,,0,10,10,25,1,3,0,,,,,,,,,,,,,,,,,,,,,,,,,,,,,,,,,,,,,,,,,,,,,,,,,,,,,,,,,,,,,,,,,,,,,,,,,,,
,,,,,,,,,,stimuli/images/PICTURE_68.png,MILE,5e5e86c4a234251abddcd29d,01/04/1951,2020-07-09_21h10.12.479,proactive,2020.1.2,MacIntel,60,5f073de81c76c3308c0e4fb3,5f07799129c3d8398306f949,6,,,,,,candle,,,,,,0,11,11,44,1,5,0,,,,,,,,,,,,,,,,,,,,,,,,,,,,,,,,,,,,,,,,,,,,,,,,,,,,,,,,,,,,,,,,,,,,,,,,,,,
,,,,,,,,,,stimuli/images/PICTURE_208.png,THING,5e5e86c4a234251abddcd29d,01/04/1951,2020-07-09_21h10.12.479,proactive,2020.1.2,MacIntel,60,5f073de81c76c3308c0e4fb3,5f07799129c3d8398306f949,6,,,,,,microphone,,,,,,0,12,12,47,1,5,0,,,,,,,,,,,,,,,,,,,,,,,,,,,,,,,,,,,,,,,,,,,,,,,,,,,,,,,,,,,,,,,,,,,,,,,,,,,
,,,,,,,,,,stimuli/images/PICTURE_311.png,FRIEND,5e5e86c4a234251abddcd29d,01/04/1951,2020-07-09_21h10.12.479,proactive,2020.1.2,MacIntel,60,5f073de81c76c3308c0e4fb3,5f07799129c3d8398306f949,6,,,,,,razor,,,,,,0,13,13,34,1,4,0,,,,,,,,,,,,,,,,,,,,,,,,,,,,,,,,,,,,,,,,,,,,,,,,,,,,,,,,,,,,,,,,,,,,,,,,,,,
,,,,,,,,,,stimuli/images/PICTURE_215.png,PLENTY,5e5e86c4a234251abddcd29d,01/04/1951,2020-07-09_21h10.12.479,proactive,2020.1.2,MacIntel,60,5f073de81c76c3308c0e4fb3,5f07799129c3d8398306f949,6,,,,,,boot,,,,,,0,14,14,37,1,4,0,,,,,,,,,,,,,,,,,,,,,,,,,,,,,,,,,,,,,,,,,,,,,,,,,,,,,,,,,,,,,,,,,,,,,,,,,,,
,,,,,,,,,,stimuli/images/PICTURE_314.png,GODS,5e5e86c4a234251abddcd29d,01/04/1951,2020-07-09_21h10.12.479,proactive,2020.1.2,MacIntel,60,5f073de81c76c3308c0e4fb3,5f07799129c3d8398306f949,6,,,,,,perfume,,,,,,0,15,15,11,1,2,0,,,,,,,,,,,,,,,,,,,,,,,,,,,,,,,,,,,,,,,,,,,,,,,,,,,,,,,,,,,,,,,,,,,,,,,,,,,
,,,,,,,,,,stimuli/images/PICTURE_491.png,WRITER,5e5e86c4a234251abddcd29d,01/04/1951,2020-07-09_21h10.12.479,proactive,2020.1.2,MacIntel,60,5f073de81c76c3308c0e4fb3,5f07799129c3d8398306f949,6,,,,,,rug,,,,,,0,16,16,57,1,6,0,,,,,,,,,,,,,,,,,,,,,,,,,,,,,,,,,,,,,,,,,,,,,,,,,,,,,,,,,,,,,,,,,,,,,,,,,,,
,,,,,,,,,,stimuli/images/PICTURE_744.png,SAKE,5e5e86c4a234251abddcd29d,01/04/1951,2020-07-09_21h10.12.479,proactive,2020.1.2,MacIntel,60,5f073de81c76c3308c0e4fb3,5f07799129c3d8398306f949,6,,,,,,ring,,,,,,0,17,17,17,1,2,0,,,,,,,,,,,,,,,,,,,,,,,,,,,,,,,,,,,,,,,,,,,,,,,,,,,,,,,,,,,,,,,,,,,,,,,,,,,
,,,,,,,,,,stimuli/images/PICTURE_449.png,THING,5e5e86c4a234251abddcd29d,01/04/1951,2020-07-09_21h10.12.479,proactive,2020.1.2,MacIntel,60,5f073de81c76c3308c0e4fb3,5f07799129c3d8398306f949,6,,,,,,bench,,,,,,0,18,18,59,1,6,0,,,,,,,,,,,,,,,,,,,,,,,,,,,,,,,,,,,,,,,,,,,,,,,,,,,,,,,,,,,,,,,,,,,,,,,,,,,
,,,,,,,,,,stimuli/images/PICTURE_302.png,FAMILY,5e5e86c4a234251abddcd29d,01/04/1951,2020-07-09_21h10.12.479,proactive,2020.1.2,MacIntel,60,5f073de81c76c3308c0e4fb3,5f07799129c3d8398306f949,6,,,,,,taxi,,,,,,0,19,19,18,1,2,0,,,,,,,,,,,,,,,,,,,,,,,,,,,,,,,,,,,,,,,,,,,,,,,,,,,,,,,,,,,,,,,,,,,,,,,,,,,
,,,,,,,,,,stimuli/images/PICTURE_248.png,DOZEN,5e5e86c4a234251abddcd29d,01/04/1951,2020-07-09_21h10.12.479,proactive,2020.1.2,MacIntel,60,5f073de81c76c3308c0e4fb3,5f07799129c3d8398306f949,6,,,,,,cart,,,,,,0,20,20,39,1,4,0,,,,,,,,,,,,,,,,,,,,,,,,,,,,,,,,,,,,,,,,,,,,,,,,,,,,,,,,,,,,,,,,,,,,,,,,,,,
,,,,,,,,,,stimuli/images/PICTURE_327.png,BEAUTY,5e5e86c4a234251abddcd29d,01/04/1951,2020-07-09_21h10.12.479,proactive,2020.1.2,MacIntel,60,5f073de81c76c3308c0e4fb3,5f07799129c3d8398306f949,6,,,,,,helmet,,,,,,0,21,21,48,1,5,0,,,,,,,,,,,,,,,,,,,,,,,,,,,,,,,,,,,,,,,,,,,,,,,,,,,,,,,,,,,,,,,,,,,,,,,,,,,
,,,,,,,,,,stimuli/images/PICTURE_380.png,DEATH,5e5e86c4a234251abddcd29d,01/04/1951,2020-07-09_21h10.12.479,proactive,2020.1.2,MacIntel,60,5f073de81c76c3308c0e4fb3,5f07799129c3d8398306f949,6,,,,,,gorilla,,,,,,0,22,22,49,1,5,0,,,,,,,,,,,,,,,,,,,,,,,,,,,,,,,,,,,,,,,,,,,,,,,,,,,,,,,,,,,,,,,,,,,,,,,,,,,
,,,,,,,,,,stimuli/images/PICTURE_708.png,YARD,5e5e86c4a234251abddcd29d,01/04/1951,2020-07-09_21h10.12.479,proactive,2020.1.2,MacIntel,60,5f073de81c76c3308c0e4fb3,5f07799129c3d8398306f949,6,,,,,,monkey,,,,,,0,23,23,29,1,3,0,,,,,,,,,,,,,,,,,,,,,,,,,,,,,,,,,,,,,,,,,,,,,,,,,,,,,,,,,,,,,,,,,,,,,,,,,,,
,,,,,,,,,,stimuli/images/PICTURE_467.png,DEMON,5e5e86c4a234251abddcd29d,01/04/1951,2020-07-09_21h10.12.479,proactive,2020.1.2,MacIntel,60,5f073de81c76c3308c0e4fb3,5f07799129c3d8398306f949,6,,,,,,peg,,,,,,0,24,24,23,1,3,0,,,,,,,,,,,,,,,,,,,,,,,,,,,,,,,,,,,,,,,,,,,,,,,,,,,,,,,,,,,,,,,,,,,,,,,,,,,
,,,,,,,,,,stimuli/images/PICTURE_504.png,BODY,5e5e86c4a234251abddcd29d,01/04/1951,2020-07-09_21h10.12.479,proactive,2020.1.2,MacIntel,60,5f073de81c76c3308c0e4fb3,5f07799129c3d8398306f949,6,,,,,,wheel,,,,,,0,25,25,8,1,1,0,,,,,,,,,,,,,,,,,,,,,,,,,,,,,,,,,,,,,,,,,,,,,,,,,,,,,,,,,,,,,,,,,,,,,,,,,,,
,,,,,,,,,,stimuli/images/PICTURE_203.png,ARTIST,5e5e86c4a234251abddcd29d,01/04/1951,2020-07-09_21h10.12.479,proactive,2020.1.2,MacIntel,60,5f073de81c76c3308c0e4fb3,5f07799129c3d8398306f949,6,,,,,,cap,,,,,,0,26,26,26,1,3,0,,,,,,,,,,,,,,,,,,,,,,,,,,,,,,,,,,,,,,,,,,,,,,,,,,,,,,,,,,,,,,,,,,,,,,,,,,,
,,,,,,,,,,stimuli/images/PICTURE_470.png,CASINO,5e5e86c4a234251abddcd29d,01/04/1951,2020-07-09_21h10.12.479,proactive,2020.1.2,MacIntel,60,5f073de81c76c3308c0e4fb3,5f07799129c3d8398306f949,6,,,,,,motorbike,,,,,,0,27,27,36,1,4,0,,,,,,,,,,,,,,,,,,,,,,,,,,,,,,,,,,,,,,,,,,,,,,,,,,,,,,,,,,,,,,,,,,,,,,,,,,,
,,,,,,,,,,stimuli/images/PICTURE_85.png,THING,5e5e86c4a234251abddcd29d,01/04/1951,2020-07-09_21h10.12.479,proactive,2020.1.2,MacIntel,60,5f073de81c76c3308c0e4fb3,5f07799129c3d8398306f949,6,,,,,,diamond,,,,,,0,28,28,15,1,2,0,,,,,,,,,,,,,,,,,,,,,,,,,,,,,,,,,,,,,,,,,,,,,,,,,,,,,,,,,,,,,,,,,,,,,,,,,,,
,,,,,,,,,,stimuli/images/PICTURE_160.png,FEET,5e5e86c4a234251abddcd29d,01/04/1951,2020-07-09_21h10.12.479,proactive,2020.1.2,MacIntel,60,5f073de81c76c3308c0e4fb3,5f07799129c3d8398306f949,6,,,,,,wheelbarrow,,,,,,0,29,29,58,1,6,0,,,,,,,,,,,,,,,,,,,,,,,,,,,,,,,,,,,,,,,,,,,,,,,,,,,,,,,,,,,,,,,,,,,,,,,,,,,
,,,,,,,,,,stimuli/images/PICTURE_677.png,MILE,5e5e86c4a234251abddcd29d,01/04/1951,2020-07-09_21h10.12.479,proactive,2020.1.2,MacIntel,60,5f073de81c76c3308c0e4fb3,5f07799129c3d8398306f949,6,,,,,,map,,,,,,0,30,30,30,1,4,0,,,,,,,,,,,,,,,,,,,,,,,,,,,,,,,,,,,,,,,,,,,,,,,,,,,,,,,,,,,,,,,,,,,,,,,,,,,
,,,,,,,,,,stimuli/images/PICTURE_675.png,WEAPON,5e5e86c4a234251abddcd29d,01/04/1951,2020-07-09_21h10.12.479,proactive,2020.1.2,MacIntel,60,5f073de81c76c3308c0e4fb3,5f07799129c3d8398306f949,6,,,,,,windmill,,,,,,0,31,31,32,1,4,0,,,,,,,,,,,,,,,,,,,,,,,,,,,,,,,,,,,,,,,,,,,,,,,,,,,,,,,,,,,,,,,,,,,,,,,,,,,
,,,,,,,,,,stimuli/images/PICTURE_356.png,DANGER,5e5e86c4a234251abddcd29d,01/04/1951,2020-07-09_21h10.12.479,proactive,2020.1.2,MacIntel,60,5f073de81c76c3308c0e4fb3,5f07799129c3d8398306f949,6,,,,,,pawn,,,,,,0,32,32,55,1,6,0,,,,,,,,,,,,,,,,,,,,,,,,,,,,,,,,,,,,,,,,,,,,,,,,,,,,,,,,,,,,,,,,,,,,,,,,,,,
,,,,,,,,,,stimuli/images/PICTURE_708.png,PENNY,5e5e86c4a234251abddcd29d,01/04/1951,2020-07-09_21h10.12.479,proactive,2020.1.2,MacIntel,60,5f073de81c76c3308c0e4fb3,5f07799129c3d8398306f949,6,,,,,,monkey,,,,,,0,33,33,31,1,4,0,,,,,,,,,,,,,,,,,,,,,,,,,,,,,,,,,,,,,,,,,,,,,,,,,,,,,,,,,,,,,,,,,,,,,,,,,,,
,,,,,,,,,,stimuli/images/PICTURE_453.png,DUDE,5e5e86c4a234251abddcd29d,01/04/1951,2020-07-09_21h10.12.479,proactive,2020.1.2,MacIntel,60,5f073de81c76c3308c0e4fb3,5f07799129c3d8398306f949,6,,,,,,scissors,,,,,,0,34,34,27,1,3,0,,,,,,,,,,,,,,,,,,,,,,,,,,,,,,,,,,,,,,,,,,,,,,,,,,,,,,,,,,,,,,,,,,,,,,,,,,,
,,,,,,,,,,stimuli/images/PICTURE_509.png,PHOTO,5e5e86c4a234251abddcd29d,01/04/1951,2020-07-09_21h10.12.479,proactive,2020.1.2,MacIntel,60,5f073de81c76c3308c0e4fb3,5f07799129c3d8398306f949,6,,,,,,telephone,,,,,,0,35,35,21,1,3,0,,,,,,,,,,,,,,,,,,,,,,,,,,,,,,,,,,,,,,,,,,,,,,,,,,,,,,,,,,,,,,,,,,,,,,,,,,,
,,,,,,,,,,stimuli/images/PICTURE_233.png,IDEAS,5e5e86c4a234251abddcd29d,01/04/1951,2020-07-09_21h10.12.479,proactive,2020.1.2,MacIntel,60,5f073de81c76c3308c0e4fb3,5f07799129c3d8398306f949,6,,,,,,salt,,,,,,0,36,36,28,1,3,0,,,,,,,,,,,,,,,,,,,,,,,,,,,,,,,,,,,,,,,,,,,,,,,,,,,,,,,,,,,,,,,,,,,,,,,,,,,
,,,,,,,,,,stimuli/images/PICTURE_208.png,MONTH,5e5e86c4a234251abddcd29d,01/04/1951,2020-07-09_21h10.12.479,proactive,2020.1.2,MacIntel,60,5f073de81c76c3308c0e4fb3,5f07799129c3d8398306f949,6,,,,,,microphone,,,,,,0,37,37,53,1,6,0,,,,,,,,,,,,,,,,,,,,,,,,,,,,,,,,,,,,,,,,,,,,,,,,,,,,,,,,,,,,,,,,,,,,,,,,,,,
,,,,,,,,,,stimuli/images/PICTURE_654.png,VALLEY,5e5e86c4a234251abddcd29d,01/04/1951,2020-07-09_21h10.12.479,proactive,2020.1.2,MacIntel,60,5f073de81c76c3308c0e4fb3,5f07799129c3d8398306f949,6,,,,,,pencil,,,,,,0,38,38,1,1,1,0,,,,,,,,,,,,,,,,,,,,,,,,,,,,,,,,,,,,,,,,,,,,,,,,,,,,,,,,,,,,,,,,,,,,,,,,,,,
,,,,,,,,,,stimuli/images/PICTURE_667.png,BATH,5e5e86c4a234251abddcd29d,01/04/1951,2020-07-09_21h10.12.479,proactive,2020.1.2,MacIntel,60,5f073de81c76c3308c0e4fb3,5f07799129c3d8398306f949,6,,,,,,daisy,,,,,,0,39,39,4,1,1,0,,,,,,,,,,,,,,,,,,,,,,,,,,,,,,,,,,,,,,,,,,,,,,,,,,,,,,,,,,,,,,,,,,,,,,,,,,,
,,,,,,,,,,stimuli/images/PICTURE_208.png,LOTS,5e5e86c4a234251abddcd29d,01/04/1951,2020-07-09_21h10.12.479,proactive,2020.1.2,MacIntel,60,5f073de81c76c3308c0e4fb3,5f07799129c3d8398306f949,6,,,,,,microphone,,,,,,0,40,40,10,1,2,0,,,,,,,,,,,,,,,,,,,,,,,,,,,,,,,,,,,,,,,,,,,,,,,,,,,,,,,,,,,,,,,,,,,,,,,,,,,
,,,,,,,,,,stimuli/images/PICTURE_667.png,PLENTY,5e5e86c4a234251abddcd29d,01/04/1951,2020-07-09_21h10.12.479,proactive,2020.1.2,MacIntel,60,5f073de81c76c3308c0e4fb3,5f07799129c3d8398306f949,6,,,,,,daisy,,,,,,0,41,41,41,1,5,0,,,,,,,,,,,,,,,,,,,,,,,,,,,,,,,,,,,,,,,,,,,,,,,,,,,,,,,,,,,,,,,,,,,,,,,,,,,
,,,,,,,,,,stimuli/images/PICTURE_380.png,PHOTO,5e5e86c4a234251abddcd29d,01/04/1951,2020-07-09_21h10.12.479,proactive,2020.1.2,MacIntel,60,5f073de81c76c3308c0e4fb3,5f07799129c3d8398306f949,6,,,,,,gorilla,,,,,,0,42,42,52,1,6,0,,,,,,,,,,,,,,,,,,,,,,,,,,,,,,,,,,,,,,,,,,,,,,,,,,,,,,,,,,,,,,,,,,,,,,,,,,,
,,,,,,,,,,stimuli/images/PICTURE_692.png,MONTH,5e5e86c4a234251abddcd29d,01/04/1951,2020-07-09_21h10.12.479,proactive,2020.1.2,MacIntel,60,5f073de81c76c3308c0e4fb3,5f07799129c3d8398306f949,6,,,,,,cherry,,,,,,0,43,43,16,1,2,0,,,,,,,,,,,,,,,,,,,,,,,,,,,,,,,,,,,,,,,,,,,,,,,,,,,,,,,,,,,,,,,,,,,,,,,,,,,
,,,,,,,,,,stimuli/images/PICTURE_348.png,SPEECH,5e5e86c4a234251abddcd29d,01/04/1951,2020-07-09_21h10.12.479,proactive,2020.1.2,MacIntel,60,5f073de81c76c3308c0e4fb3,5f07799129c3d8398306f949,6,,,,,,pepper,,,,,,0,44,44,20,1,3,0,,,,,,,,,,,,,,,,,,,,,,,,,,,,,,,,,,,,,,,,,,,,,,,,,,,,,,,,,,,,,,,,,,,,,,,,,,,
,,,,,,,,,,stimuli/images/PICTURE_688.png,CASINO,5e5e86c4a234251abddcd29d,01/04/1951,2020-07-09_21h10.12.479,proactive,2020.1.2,MacIntel,60,5f073de81c76c3308c0e4fb3,5f07799129c3d8398306f949,6,,,,,,runner,,,,,,0,45,45,2,1,1,0,,,,,,,,,,,,,,,,,,,,,,,,,,,,,,,,,,,,,,,,,,,,,,,,,,,,,,,,,,,,,,,,,,,,,,,,,,,
,,,,,,,,,,stimuli/images/PICTURE_487.png,FLIGHT,5e5e86c4a234251abddcd29d,01/04/1951,2020-07-09_21h10.12.479,proactive,2020.1.2,MacIntel,60,5f073de81c76c3308c0e4fb3,5f07799129c3d8398306f949,6,,,,,,basket,,,,,,0,46,46,9,1,1,0,,,,,,,,,,,,,,,,,,,,,,,,,,,,,,,,,,,,,,,,,,,,,,,,,,,,,,,,,,,,,,,,,,,,,,,,,,,
,,,,,,,,,,stimuli/images/PICTURE_285.png,ADVICE,5e5e86c4a234251abddcd29d,01/04/1951,2020-07-09_21h10.12.479,proactive,2020.1.2,MacIntel,60,5f073de81c76c3308c0e4fb3,5f07799129c3d8398306f949,6,,,,,,carrot,,,,,,0,47,47,12,1,2,0,,,,,,,,,,,,,,,,,,,,,,,,,,,,,,,,,,,,,,,,,,,,,,,,,,,,,,,,,,,,,,,,,,,,,,,,,,,
,,,,,,,,,,stimuli/images/PICTURE_160.png,LEADER,5e5e86c4a234251abddcd29d,01/04/1951,2020-07-09_21h10.12.479,proactive,2020.1.2,MacIntel,60,5f073de81c76c3308c0e4fb3,5f07799129c3d8398306f949,6,,,,,,wheelbarrow,,,,,,0,48,48,3,1,1,0,,,,,,,,,,,,,,,,,,,,,,,,,,,,,,,,,,,,,,,,,,,,,,,,,,,,,,,,,,,,,,,,,,,,,,,,,,,
,,,,,,,,,,stimuli/images/PICTURE_491.png,ROOF,5e5e86c4a234251abddcd29d,01/04/1951,2020-07-09_21h10.12.479,proactive,2020.1.2,MacIntel,60,5f073de81c76c3308c0e4fb3,5f07799129c3d8398306f949,6,,,,,,rug,,,,,,0,49,49,24,1,3,0,,,,,,,,,,,,,,,,,,,,,,,,,,,,,,,,,,,,,,,,,,,,,,,,,,,,,,,,,,,,,,,,,,,,,,,,,,,
,,,,,,,,,,stimuli/images/PICTURE_123.png,ADVICE,5e5e86c4a234251abddcd29d,01/04/1951,2020-07-09_21h10.12.479,proactive,2020.1.2,MacIntel,60,5f073de81c76c3308c0e4fb3,5f07799129c3d8398306f949,6,,,,,,dart,,,,,,0,50,50,40,1,5,0,,,,,,,,,,,,,,,,,,,,,,,,,,,,,,,,,,,,,,,,,,,,,,,,,,,,,,,,,,,,,,,,,,,,,,,,,,,
,,,,,,,,,,stimuli/images/PICTURE_123.png,ADVICE,5e5e86c4a234251abddcd29d,01/04/1951,2020-07-09_21h10.12.479,proactive,2020.1.2,MacIntel,60,5f073de81c76c3308c0e4fb3,5f07799129c3d8398306f949,6,,,,,,dart,,,,,,0,51,51,50,1,6,0,,,,,,,,,,,,,,,,,,,,,,,,,,,,,,,,,,,,,,,,,,,,,,,,,,,,,,,,,,,,,,,,,,,,,,,,,,,
,,,,,,,,,,stimuli/images/PICTURE_151.png,GIRL,5e5e86c4a234251abddcd29d,01/04/1951,2020-07-09_21h10.12.479,proactive,2020.1.2,MacIntel,60,5f073de81c76c3308c0e4fb3,5f07799129c3d8398306f949,6,,,,,,tray,,,,,,0,52,52,19,1,2,0,,,,,,,,,,,,,,,,,,,,,,,,,,,,,,,,,,,,,,,,,,,,,,,,,,,,,,,,,,,,,,,,,,,,,,,,,,,
,,,,,,,,,,stimuli/images/PICTURE_308.png,KIND,5e5e86c4a234251abddcd29d,01/04/1951,2020-07-09_21h10.12.479,proactive,2020.1.2,MacIntel,60,5f073de81c76c3308c0e4fb3,5f07799129c3d8398306f949,6,,,,,,dice,,,,,,0,53,53,54,1,6,0,,,,,,,,,,,,,,,,,,,,,,,,,,,,,,,,,,,,,,,,,,,,,,,,,,,,,,,,,,,,,,,,,,,,,,,,,,,
,,,,,,,,,,stimuli/images/PICTURE_308.png,ESTATE,5e5e86c4a234251abddcd29d,01/04/1951,2020-07-09_21h10.12.479,proactive,2020.1.2,MacIntel,60,5f073de81c76c3308c0e4fb3,5f07799129c3d8398306f949,6,,,,,,dice,,,,,,0,54,54,46,1,5,0,,,,,,,,,,,,,,,,,,,,,,,,,,,,,,,,,,,,,,,,,,,,,,,,,,,,,,,,,,,,,,,,,,,,,,,,,,,
,,,,,,,,,,stimuli/images/PICTURE_314.png,SAKE,5e5e86c4a234251abddcd29d,01/04/1951,2020-07-09_21h10.12.479,proactive,2020.1.2,MacIntel,60,5f073de81c76c3308c0e4fb3,5f07799129c3d8398306f949,6,,,,,,perfume,,,,,,0,55,55,7,1,1,0,,,,,,,,,,,,,,,,,,,,,,,,,,,,,,,,,,,,,,,,,,,,,,,,,,,,,,,,,,,,,,,,,,,,,,,,,,,
,,,,,,,,,,stimuli/images/PICTURE_233.png,WOMEN,5e5e86c4a234251abddcd29d,01/04/1951,2020-07-09_21h10.12.479,proactive,2020.1.2,MacIntel,60,5f073de81c76c3308c0e4fb3,5f07799129c3d8398306f949,6,,,,,,salt,,,,,,0,56,56,38,1,4,0,,,,,,,,,,,,,,,,,,,,,,,,,,,,,,,,,,,,,,,,,,,,,,,,,,,,,,,,,,,,,,,,,,,,,,,,,,,
,,,,,,,,,,stimuli/images/PICTURE_469.png,ARTIST,5e5e86c4a234251abddcd29d,01/04/1951,2020-07-09_21h10.12.479,proactive,2020.1.2,MacIntel,60,5f073de81c76c3308c0e4fb3,5f07799129c3d8398306f949,6,,,,,,stool,,,,,,0,57,57,6,1,1,0,,,,,,,,,,,,,,,,,,,,,,,,,,,,,,,,,,,,,,,,,,,,,,,,,,,,,,,,,,,,,,,,,,,,,,,,,,,
,,,,,,,,,,stimuli/images/PICTURE_32.png,JUNGLE,5e5e86c4a234251abddcd29d,01/04/1951,2020-07-09_21h10.12.479,proactive,2020.1.2,MacIntel,60,5f073de81c76c3308c0e4fb3,5f07799129c3d8398306f949,6,,,,,,crown,,,,,,0,58,58,45,1,5,0,,,,,,,,,,,,,,,,,,,,,,,,,,,,,,,,,,,,,,,,,,,,,,,,,,,,,,,,,,,,,,,,,,,,,,,,,,,
,,?,0.001695,0,,,,,,stimuli/images/PICTURE_488.png,STYLE,5e5e86c4a234251abddcd29d,01/04/1951,2020-07-09_21h10.12.479,proactive,2020.1.2,MacIntel,60,5f073de81c76c3308c0e4fb3,5f07799129c3d8398306f949,6,,,,,,sun,,,,,,,,,,,4,0,0,0,0,33,1,,,,,,,,,,,,,,,,,,,,,,,,,,,,,,,,,,,,,,,,,,,,,,,,,,,,,,,,,,,,,,,,,,,,,,
,,?,0.001035,0,,,,,,stimuli/images/PICTURE_302.png,FAMILY,5e5e86c4a234251abddcd29d,01/04/1951,2020-07-09_21h10.12.479,proactive,2020.1.2,MacIntel,60,5f073de81c76c3308c0e4fb3,5f07799129c3d8398306f949,6,,,,,,taxi,,,,,,,,,,,2,0,0,1,1,18,1,,,,,,,,,,,,,,,,,,,,,,,,,,,,,,,,,,,,,,,,,,,,,,,,,,,,,,,,,,,,,,,,,,,,,,
,,?,0.001025,0,,,,,,stimuli/images/PICTURE_380.png,DEATH,5e5e86c4a234251abddcd29d,01/04/1951,2020-07-09_21h10.12.479,proactive,2020.1.2,MacIntel,60,5f073de81c76c3308c0e4fb3,5f07799129c3d8398306f949,6,,,,,,gorilla,,,,,,,,,,,5,0,0,2,2,49,1,,,,,,,,,,,,,,,,,,,,,,,,,,,,,,,,,,,,,,,,,,,,,,,,,,,,,,,,,,,,,,,,,,,,,,
,,?,0.00059,0,,,,,,stimuli/images/PICTURE_248.png,DOZEN,5e5e86c4a234251abddcd29d,01/04/1951,2020-07-09_21h10.12.479,proactive,2020.1.2,MacIntel,60,5f073de81c76c3308c0e4fb3,5f07799129c3d8398306f949,6,,,,,,cart,,,,,,,,,,,4,0,0,3,3,39,1,,,,,,,,,,,,,,,,,,,,,,,,,,,,,,,,,,,,,,,,,,,,,,,,,,,,,,,,,,,,,,,,,,,,,,
,,FEET,4.89582,1,,,,,,stimuli/images/PICTURE_160.png,FEET,5e5e86c4a234251abddcd29d,01/04/1951,2020-07-09_21h10.12.479,proactive,2020.1.2,MacIntel,60,5f073de81c76c3308c0e4fb3,5f07799129c3d8398306f949,6,,,,,,wheelbarrow,,,,,,,,,,,6,0,0,4,4,58,1,,,,,,,,,,,,,,,,,,,,,,,,,,,,,,,,,,,,,,,,,,,,,,,,,,,,,,,,,,,,,,,,,,,,,,
,,?,0.00071,0,,,,,,stimuli/images/PICTURE_654.png,VALLEY,5e5e86c4a234251abddcd29d,01/04/1951,2020-07-09_21h10.12.479,proactive,2020.1.2,MacIntel,60,5f073de81c76c3308c0e4fb3,5f07799129c3d8398306f949,6,,,,,,pencil,,,,,,,,,,,1,0,0,5,5,1,1,,,,,,,,,,,,,,,,,,,,,,,,,,,,,,,,,,,,,,,,,,,,,,,,,,,,,,,,,,,,,,,,,,,,,,
,,?,0.00053,0,,,,,,stimuli/images/PICTURE_667.png,PLENTY,5e5e86c4a234251abddcd29d,01/04/1951,2020-07-09_21h10.12.479,proactive,2020.1.2,MacIntel,60,5f073de81c76c3308c0e4fb3,5f07799129c3d8398306f949,6,,,,,,daisy,,,,,,,,,,,5,0,0,6,6,41,1,,,,,,,,,,,,,,,,,,,,,,,,,,,,,,,,,,,,,,,,,,,,,,,,,,,,,,,,,,,,,,,,,,,,,,
,,DANGEROUS,5.114465,0,,,,,,stimuli/images/PICTURE_356.png,DANGER,5e5e86c4a234251abddcd29d,01/04/1951,2020-07-09_21h10.12.479,proactive,2020.1.2,MacIntel,60,5f073de81c76c3308c0e4fb3,5f07799129c3d8398306f949,6,,,,,,pawn,,,,,,,,,,,6,0,0,7,7,55,1,,,,,,,,,,,,,,,,,,,,,,,,,,,,,,,,,,,,,,,,,,,,,,,,,,,,,,,,,,,,,,,,,,,,,,
,,?,0.00299,0,,,,,,stimuli/images/PICTURE_68.png,MILE,5e5e86c4a234251abddcd29d,01/04/1951,2020-07-09_21h10.12.479,proactive,2020.1.2,MacIntel,60,5f073de81c76c3308c0e4fb3,5f07799129c3d8398306f949,6,,,,,,candle,,,,,,,,,,,5,0,0,8,8,44,1,,,,,,,,,,,,,,,,,,,,,,,,,,,,,,,,,,,,,,,,,,,,,,,,,,,,,,,,,,,,,,,,,,,,,,
,,?,0.000845,0,,,,,,stimuli/images/PICTURE_311.png,BEAUTY,5e5e86c4a234251abddcd29d,01/04/1951,2020-07-09_21h10.12.479,proactive,2020.1.2,MacIntel,60,5f073de81c76c3308c0e4fb3,5f07799129c3d8398306f949,6,,,,,,razor,,,,,,,,,,,2,0,0,9,9,13,1,,,,,,,,,,,,,,,,,,,,,,,,,,,,,,,,,,,,,,,,,,,,,,,,,,,,,,,,,,,,,,,,,,,,,,
,,?,0.00092,0,,,,,,stimuli/images/PICTURE_509.png,PHOTO,5e5e86c4a234251abddcd29d,01/04/1951,2020-07-09_21h10.12.479,proactive,2020.1.2,MacIntel,60,5f073de81c76c3308c0e4fb3,5f07799129c3d8398306f949,6,,,,,,telephone,,,,,,,,,,,3,0,0,10,10,21,1,,,,,,,,,,,,,,,,,,,,,,,,,,,,,,,,,,,,,,,,,,,,,,,,,,,,,,,,,,,,,,,,,,,,,,
,,?,0.000725,0,,,,,,stimuli/images/PICTURE_744.png,SAKE,5e5e86c4a234251abddcd29d,01/04/1951,2020-07-09_21h10.12.479,proactive,2020.1.2,MacIntel,60,5f073de81c76c3308c0e4fb3,5f07799129c3d8398306f949,6,,,,,,ring,,,,,,,,,,,2,0,0,11,11,17,1,,,,,,,,,,,,,,,,,,,,,,,,,,,,,,,,,,,,,,,,,,,,,,,,,,,,,,,,,,,,,,,,,,,,,,
,,MONTH,7.05257,1,,,,,,stimuli/images/PICTURE_208.png,MONTH,5e5e86c4a234251abddcd29d,01/04/1951,2020-07-09_21h10.12.479,proactive,2020.1.2,MacIntel,60,5f073de81c76c3308c0e4fb3,5f07799129c3d8398306f949,6,,,,,,microphone,,,,,,,,,,,6,0,0,12,12,53,1,,,,,,,,,,,,,,,,,,,,,,,,,,,,,,,,,,,,,,,,,,,,,,,,,,,,,,,,,,,,,,,,,,,,,,
,,ADVISE,11.79861,0,,,,,,stimuli/images/PICTURE_123.png,ADVICE,5e5e86c4a234251abddcd29d,01/04/1951,2020-07-09_21h10.12.479,proactive,2020.1.2,MacIntel,60,5f073de81c76c3308c0e4fb3,5f07799129c3d8398306f949,6,,,,,,dart,,,,,,,,,,,6,0,0,13,13,50,1,,,,,,,,,,,,,,,,,,,,,,,,,,,,,,,,,,,,,,,,,,,,,,,,,,,,,,,,,,,,,,,,,,,,,,
,,?,0.00133,0,,,,,,stimuli/images/PICTURE_491.png,ROOF,5e5e86c4a234251abddcd29d,01/04/1951,2020-07-09_21h10.12.479,proactive,2020.1.2,MacIntel,60,5f073de81c76c3308c0e4fb3,5f07799129c3d8398306f949,6,,,,,,rug,,,,,,,,,,,3,0,0,14,14,24,1,,,,,,,,,,,,,,,,,,,,,,,,,,,,,,,,,,,,,,,,,,,,,,,,,,,,,,,,,,,,,,,,,,,,,,
,,?,0.001105,0,,,,,,stimuli/images/PICTURE_744.png,SYSTEM,5e5e86c4a234251abddcd29d,01/04/1951,2020-07-09_21h10.12.479,proactive,2020.1.2,MacIntel,60,5f073de81c76c3308c0e4fb3,5f07799129c3d8398306f949,6,,,,,,ring,,,,,,,,,,,5,0,0,15,15,43,1,,,,,,,,,,,,,,,,,,,,,,,,,,,,,,,,,,,,,,,,,,,,,,,,,,,,,,,,,,,,,,,,,,,,,,
,,KIND,4.807165,1,,,,,,stimuli/images/PICTURE_308.png,KIND,5e5e86c4a234251abddcd29d,01/04/1951,2020-07-09_21h10.12.479,proactive,2020.1.2,MacIntel,60,5f073de81c76c3308c0e4fb3,5f07799129c3d8398306f949,6,,,,,,dice,,,,,,,,,,,6,0,0,16,16,54,1,,,,,,,,,,,,,,,,,,,,,,,,,,,,,,,,,,,,,,,,,,,,,,,,,,,,,,,,,,,,,,,,,,,,,,
,,WRITING,3.615875,0,,,,,,stimuli/images/PICTURE_491.png,WRITER,5e5e86c4a234251abddcd29d,01/04/1951,2020-07-09_21h10.12.479,proactive,2020.1.2,MacIntel,60,5f073de81c76c3308c0e4fb3,5f07799129c3d8398306f949,6,,,,,,rug,,,,,,,,,,,6,0,0,17,17,57,1,,,,,,,,,,,,,,,,,,,,,,,,,,,,,,,,,,,,,,,,,,,,,,,,,,,,,,,,,,,,,,,,,,,,,,
,,?,0.001215,0,,,,,,stimuli/images/PICTURE_208.png,THING,5e5e86c4a234251abddcd29d,01/04/1951,2020-07-09_21h10.12.479,proactive,2020.1.2,MacIntel,60,5f073de81c76c3308c0e4fb3,5f07799129c3d8398306f949,6,,,,,,microphone,,,,,,,,,,,5,0,0,18,18,47,1,,,,,,,,,,,,,,,,,,,,,,,,,,,,,,,,,,,,,,,,,,,,,,,,,,,,,,,,,,,,,,,,,,,,,,
,,?,0.00046,0,,,,,,stimuli/images/PICTURE_692.png,MONTH,5e5e86c4a234251abddcd29d,01/04/1951,2020-07-09_21h10.12.479,proactive,2020.1.2,MacIntel,60,5f073de81c76c3308c0e4fb3,5f07799129c3d8398306f949,6,,,,,,cherry,,,,,,,,,,,2,0,0,19,19,16,1,,,,,,,,,,,,,,,,,,,,,,,,,,,,,,,,,,,,,,,,,,,,,,,,,,,,,,,,,,,,,,,,,,,,,,
,,?,0.00063,0,,,,,,stimuli/images/PICTURE_688.png,WOMEN,5e5e86c4a234251abddcd29d,01/04/1951,2020-07-09_21h10.12.479,proactive,2020.1.2,MacIntel,60,5f073de81c76c3308c0e4fb3,5f07799129c3d8398306f949,6,,,,,,runner,,,,,,,,,,,2,0,0,20,20,14,1,,,,,,,,,,,,,,,,,,,,,,,,,,,,,,,,,,,,,,,,,,,,,,,,,,,,,,,,,,,,,,,,,,,,,,
,,?,0.00047,0,,,,,,stimuli/images/PICTURE_285.png,ADVICE,5e5e86c4a234251abddcd29d,01/04/1951,2020-07-09_21h10.12.479,proactive,2020.1.2,MacIntel,60,5f073de81c76c3308c0e4fb3,5f07799129c3d8398306f949,6,,,,,,carrot,,,,,,,,,,,2,0,0,21,21,12,1,,,,,,,,,,,,,,,,,,,,,,,,,,,,,,,,,,,,,,,,,,,,,,,,,,,,,,,,,,,,,,,,,,,,,,
,,?,0.00078,0,,,,,,stimuli/images/PICTURE_470.png,CASINO,5e5e86c4a234251abddcd29d,01/04/1951,2020-07-09_21h10.12.479,proactive,2020.1.2,MacIntel,60,5f073de81c76c3308c0e4fb3,5f07799129c3d8398306f949,6,,,,,,motorbike,,,,,,,,,,,4,0,0,22,22,36,1,,,,,,,,,,,,,,,,,,,,,,,,,,,,,,,,,,,,,,,,,,,,,,,,,,,,,,,,,,,,,,,,,,,,,,
,,?,0.00047,0,,,,,,stimuli/images/PICTURE_233.png,WOMEN,5e5e86c4a234251abddcd29d,01/04/1951,2020-07-09_21h10.12.479,proactive,2020.1.2,MacIntel,60,5f073de81c76c3308c0e4fb3,5f07799129c3d8398306f949,6,,,,,,salt,,,,,,,,,,,4,0,0,23,23,38,1,,,,,,,,,,,,,,,,,,,,,,,,,,,,,,,,,,,,,,,,,,,,,,,,,,,,,,,,,,,,,,,,,,,,,,
,,?,0.0007,0,,,,,,stimuli/images/PICTURE_348.png,SPEECH,5e5e86c4a234251abddcd29d,01/04/1951,2020-07-09_21h10.12.479,proactive,2020.1.2,MacIntel,60,5f073de81c76c3308c0e4fb3,5f07799129c3d8398306f949,6,,,,,,pepper,,,,,,,,,,,3,0,0,24,24,20,1,,,,,,,,,,,,,,,,,,,,,,,,,,,,,,,,,,,,,,,,,,,,,,,,,,,,,,,,,,,,,,,,,,,,,,
,,PHOTO,3.50428,1,,,,,,stimuli/images/PICTURE_380.png,PHOTO,5e5e86c4a234251abddcd29d,01/04/1951,2020-07-09_21h10.12.479,proactive,2020.1.2,MacIntel,60,5f073de81c76c3308c0e4fb3,5f07799129c3d8398306f949,6,,,,,,gorilla,,,,,,,,,,,6,0,0,25,25,52,1,,,,,,,,,,,,,,,,,,,,,,,,,,,,,,,,,,,,,,,,,,,,,,,,,,,,,,,,,,,,,,,,,,,,,,
,,?,0.001825,0,,,,,,stimuli/images/PICTURE_327.png,BEAUTY,5e5e86c4a234251abddcd29d,01/04/1951,2020-07-09_21h10.12.479,proactive,2020.1.2,MacIntel,60,5f073de81c76c3308c0e4fb3,5f07799129c3d8398306f949,6,,,,,,helmet,,,,,,,,,,,5,0,0,26,26,48,1,,,,,,,,,,,,,,,,,,,,,,,,,,,,,,,,,,,,,,,,,,,,,,,,,,,,,,,,,,,,,,,,,,,,,,
,,?,0.00101,0,,,,,,stimuli/images/PICTURE_208.png,LOTS,5e5e86c4a234251abddcd29d,01/04/1951,2020-07-09_21h10.12.479,proactive,2020.1.2,MacIntel,60,5f073de81c76c3308c0e4fb3,5f07799129c3d8398306f949,6,,,,,,microphone,,,,,,,,,,,2,0,0,27,27,10,1,,,,,,,,,,,,,,,,,,,,,,,,,,,,,,,,,,,,,,,,,,,,,,,,,,,,,,,,,,,,,,,,,,,,,,
,,?,0.000815,0,,,,,,stimuli/images/PICTURE_255.png,AREA,5e5e86c4a234251abddcd29d,01/04/1951,2020-07-09_21h10.12.479,proactive,2020.1.2,MacIntel,60,5f073de81c76c3308c0e4fb3,5f07799129c3d8398306f949,6,,,,,,shovel,,,,,,,,,,,3,0,0,28,28,22,1,,,,,,,,,,,,,,,,,,,,,,,,,,,,,,,,,,,,,,,,,,,,,,,,,,,,,,,,,,,,,,,,,,,,,,
,,?,0.001225,0,,,,,,stimuli/images/PICTURE_123.png,ADVICE,5e5e86c4a234251abddcd29d,01/04/1951,2020-07-09_21h10.12.479,proactive,2020.1.2,MacIntel,60,5f073de81c76c3308c0e4fb3,5f07799129c3d8398306f949,6,,,,,,dart,,,,,,,,,,,5,0,0,29,29,40,1,,,,,,,,,,,,,,,,,,,,,,,,,,,,,,,,,,,,,,,,,,,,,,,,,,,,,,,,,,,,,,,,,,,,,,
,,HANGER,7.539815,0,,,,,,stimuli/images/PICTURE_147.png,MOMENT,5e5e86c4a234251abddcd29d,01/04/1951,2020-07-09_21h10.12.479,proactive,2020.1.2,MacIntel,60,5f073de81c76c3308c0e4fb3,5f07799129c3d8398306f949,6,,,,,,hanger,,,,,,,,,,,6,0,0,30,30,51,1,,,,,,,,,,,,,,,,,,,,,,,,,,,,,,,,,,,,,,,,,,,,,,,,,,,,,,,,,,,,,,,,,,,,,,
,,?,0.001715,0,,,,,,stimuli/images/PICTURE_151.png,GIRL,5e5e86c4a234251abddcd29d,01/04/1951,2020-07-09_21h10.12.479,proactive,2020.1.2,MacIntel,60,5f073de81c76c3308c0e4fb3,5f07799129c3d8398306f949,6,,,,,,tray,,,,,,,,,,,2,0,0,31,31,19,1,,,,,,,,,,,,,,,,,,,,,,,,,,,,,,,,,,,,,,,,,,,,,,,,,,,,,,,,,,,,,,,,,,,,,,
,,?,0.000785,0,,,,,,stimuli/images/PICTURE_453.png,DUDE,5e5e86c4a234251abddcd29d,01/04/1951,2020-07-09_21h10.12.479,proactive,2020.1.2,MacIntel,60,5f073de81c76c3308c0e4fb3,5f07799129c3d8398306f949,6,,,,,,scissors,,,,,,,,,,,3,0,0,32,32,27,1,,,,,,,,,,,,,,,,,,,,,,,,,,,,,,,,,,,,,,,,,,,,,,,,,,,,,,,,,,,,,,,,,,,,,,
,,?,0.000825,0,,,,,,stimuli/images/PICTURE_177.png,CARS,5e5e86c4a234251abddcd29d,01/04/1951,2020-07-09_21h10.12.479,proactive,2020.1.2,MacIntel,60,5f073de81c76c3308c0e4fb3,5f07799129c3d8398306f949,6,,,,,,mushroom,,,,,,,,,,,4,0,0,33,33,35,1,,,,,,,,,,,,,,,,,,,,,,,,,,,,,,,,,,,,,,,,,,,,,,,,,,,,,,,,,,,,,,,,,,,,,,
,,?,0.00067,0,,,,,,stimuli/images/PICTURE_469.png,ARTIST,5e5e86c4a234251abddcd29d,01/04/1951,2020-07-09_21h10.12.479,proactive,2020.1.2,MacIntel,60,5f073de81c76c3308c0e4fb3,5f07799129c3d8398306f949,6,,,,,,stool,,,,,,,,,,,1,0,0,34,34,6,1,,,,,,,,,,,,,,,,,,,,,,,,,,,,,,,,,,,,,,,,,,,,,,,,,,,,,,,,,,,,,,,,,,,,,,
,,?,0.000885,0,,,,,,stimuli/images/PICTURE_339.png,PLENTY,5e5e86c4a234251abddcd29d,01/04/1951,2020-07-09_21h10.12.479,proactive,2020.1.2,MacIntel,60,5f073de81c76c3308c0e4fb3,5f07799129c3d8398306f949,6,,,,,,backpack,,,,,,,,,,,1,0,0,35,35,0,1,,,,,,,,,,,,,,,,,,,,,,,,,,,,,,,,,,,,,,,,,,,,,,,,,,,,,,,,,,,,,,,,,,,,,,
,,?,0.00069,0,,,,,,stimuli/images/PICTURE_677.png,MILE,5e5e86c4a234251abddcd29d,01/04/1951,2020-07-09_21h10.12.479,proactive,2020.1.2,MacIntel,60,5f073de81c76c3308c0e4fb3,5f07799129c3d8398306f949,6,,,,,,map,,,,,,,,,,,4,0,0,36,36,30,1,,,,,,,,,,,,,,,,,,,,,,,,,,,,,,,,,,,,,,,,,,,,,,,,,,,,,,,,,,,,,,,,,,,,,,
,,?,0.000495,0,,,,,,stimuli/images/PICTURE_314.png,GODS,5e5e86c4a234251abddcd29d,01/04/1951,2020-07-09_21h10.12.479,proactive,2020.1.2,MacIntel,60,5f073de81c76c3308c0e4fb3,5f07799129c3d8398306f949,6,,,,,,perfume,,,,,,,,,,,2,0,0,37,37,11,1,,,,,,,,,,,,,,,,,,,,,,,,,,,,,,,,,,,,,,,,,,,,,,,,,,,,,,,,,,,,,,,,,,,,,,
,,?,0.00058,0,,,,,,stimuli/images/PICTURE_675.png,WEAPON,5e5e86c4a234251abddcd29d,01/04/1951,2020-07-09_21h10.12.479,proactive,2020.1.2,MacIntel,60,5f073de81c76c3308c0e4fb3,5f07799129c3d8398306f949,6,,,,,,windmill,,,,,,,,,,,4,0,0,38,38,32,1,,,,,,,,,,,,,,,,,,,,,,,,,,,,,,,,,,,,,,,,,,,,,,,,,,,,,,,,,,,,,,,,,,,,,,
,,?,0.0006,0,,,,,,stimuli/images/PICTURE_708.png,CLIENT,5e5e86c4a234251abddcd29d,01/04/1951,2020-07-09_21h10.12.479,proactive,2020.1.2,MacIntel,60,5f073de81c76c3308c0e4fb3,5f07799129c3d8398306f949,6,,,,,,monkey,,,,,,,,,,,1,0,0,39,39,5,1,,,,,,,,,,,,,,,,,,,,,,,,,,,,,,,,,,,,,,,,,,,,,,,,,,,,,,,,,,,,,,,,,,,,,,
,,?,0.001965,0,,,,,,stimuli/images/PICTURE_688.png,CASINO,5e5e86c4a234251abddcd29d,01/04/1951,2020-07-09_21h10.12.479,proactive,2020.1.2,MacIntel,60,5f073de81c76c3308c0e4fb3,5f07799129c3d8398306f949,6,,,,,,runner,,,,,,,,,,,1,0,0,40,40,2,1,,,,,,,,,,,,,,,,,,,,,,,,,,,,,,,,,,,,,,,,,,,,,,,,,,,,,,,,,,,,,,,,,,,,,,
,,?,0.00059,0,,,,,,stimuli/images/PICTURE_311.png,FRIEND,5e5e86c4a234251abddcd29d,01/04/1951,2020-07-09_21h10.12.479,proactive,2020.1.2,MacIntel,60,5f073de81c76c3308c0e4fb3,5f07799129c3d8398306f949,6,,,,,,razor,,,,,,,,,,,4,0,0,41,41,34,1,,,,,,,,,,,,,,,,,,,,,,,,,,,,,,,,,,,,,,,,,,,,,,,,,,,,,,,,,,,,,,,,,,,,,,
,,?,0.00096,0,,,,,,stimuli/images/PICTURE_708.png,PENNY,5e5e86c4a234251abddcd29d,01/04/1951,2020-07-09_21h10.12.479,proactive,2020.1.2,MacIntel,60,5f073de81c76c3308c0e4fb3,5f07799129c3d8398306f949,6,,,,,,monkey,,,,,,,,,,,4,0,0,42,42,31,1,,,,,,,,,,,,,,,,,,,,,,,,,,,,,,,,,,,,,,,,,,,,,,,,,,,,,,,,,,,,,,,,,,,,,,
,,?,0.00089,0,,,,,,stimuli/images/PICTURE_160.png,LEADER,5e5e86c4a234251abddcd29d,01/04/1951,2020-07-09_21h10.12.479,proactive,2020.1.2,MacIntel,60,5f073de81c76c3308c0e4fb3,5f07799129c3d8398306f949,6,,,,,,wheelbarrow,,,,,,,,,,,1,0,0,43,43,3,1,,,,,,,,,,,,,,,,,,,,,,,,,,,,,,,,,,,,,,,,,,,,,,,,,,,,,,,,,,,,,,,,,,,,,,
,,?,0.000485,0,,,,,,stimuli/images/PICTURE_667.png,BATH,5e5e86c4a234251abddcd29d,01/04/1951,2020-07-09_21h10.12.479,proactive,2020.1.2,MacIntel,60,5f073de81c76c3308c0e4fb3,5f07799129c3d8398306f949,6,,,,,,daisy,,,,,,,,,,,1,0,0,44,44,4,1,,,,,,,,,,,,,,,,,,,,,,,,,,,,,,,,,,,,,,,,,,,,,,,,,,,,,,,,,,,,,,,,,,,,,,
,,?,0.0004,0,,,,,,stimuli/images/PICTURE_85.png,THING,5e5e86c4a234251abddcd29d,01/04/1951,2020-07-09_21h10.12.479,proactive,2020.1.2,MacIntel,60,5f073de81c76c3308c0e4fb3,5f07799129c3d8398306f949,6,,,,,,diamond,,,,,,,,,,,2,0,0,45,45,15,1,,,,,,,,,,,,,,,,,,,,,,,,,,,,,,,,,,,,,,,,,,,,,,,,,,,,,,,,,,,,,,,,,,,,,,
,,?,0.00042,0,,,,,,stimuli/images/PICTURE_467.png,DEMON,5e5e86c4a234251abddcd29d,01/04/1951,2020-07-09_21h10.12.479,proactive,2020.1.2,MacIntel,60,5f073de81c76c3308c0e4fb3,5f07799129c3d8398306f949,6,,,,,,peg,,,,,,,,,,,3,0,0,46,46,23,1,,,,,,,,,,,,,,,,,,,,,,,,,,,,,,,,,,,,,,,,,,,,,,,,,,,,,,,,,,,,,,,,,,,,,,
,,?,0.00046,0,,,,,,stimuli/images/PICTURE_308.png,ESTATE,5e5e86c4a234251abddcd29d,01/04/1951,2020-07-09_21h10.12.479,proactive,2020.1.2,MacIntel,60,5f073de81c76c3308c0e4fb3,5f07799129c3d8398306f949,6,,,,,,dice,,,,,,,,,,,5,0,0,47,47,46,1,,,,,,,,,,,,,,,,,,,,,,,,,,,,,,,,,,,,,,,,,,,,,,,,,,,,,,,,,,,,,,,,,,,,,,
,,THING,2.63145,1,,,,,,stimuli/images/PICTURE_449.png,THING,5e5e86c4a234251abddcd29d,01/04/1951,2020-07-09_21h10.12.479,proactive,2020.1.2,MacIntel,60,5f073de81c76c3308c0e4fb3,5f07799129c3d8398306f949,6,,,,,,bench,,,,,,,,,,,6,0,0,48,48,59,1,,,,,,,,,,,,,,,,,,,,,,,,,,,,,,,,,,,,,,,,,,,,,,,,,,,,,,,,,,,,,,,,,,,,,,
,,PLENTY,3.36343,1,,,,,,stimuli/images/PICTURE_453.png,PLENTY,5e5e86c4a234251abddcd29d,01/04/1951,2020-07-09_21h10.12.479,proactive,2020.1.2,MacIntel,60,5f073de81c76c3308c0e4fb3,5f07799129c3d8398306f949,6,,,,,,scissors,,,,,,,,,,,6,0,0,49,49,56,1,,,,,,,,,,,,,,,,,,,,,,,,,,,,,,,,,,,,,,,,,,,,,,,,,,,,,,,,,,,,,,,,,,,,,,
,,?,0.0023,0,,,,,,stimuli/images/PICTURE_469.png,LETTER,5e5e86c4a234251abddcd29d,01/04/1951,2020-07-09_21h10.12.479,proactive,2020.1.2,MacIntel,60,5f073de81c76c3308c0e4fb3,5f07799129c3d8398306f949,6,,,,,,stool,,,,,,,,,,,5,0,0,50,50,42,1,,,,,,,,,,,,,,,,,,,,,,,,,,,,,,,,,,,,,,,,,,,,,,,,,,,,,,,,,,,,,,,,,,,,,,
,,?,0.000745,0,,,,,,stimuli/images/PICTURE_487.png,FLIGHT,5e5e86c4a234251abddcd29d,01/04/1951,2020-07-09_21h10.12.479,proactive,2020.1.2,MacIntel,60,5f073de81c76c3308c0e4fb3,5f07799129c3d8398306f949,6,,,,,,basket,,,,,,,,,,,1,0,0,51,51,9,1,,,,,,,,,,,,,,,,,,,,,,,,,,,,,,,,,,,,,,,,,,,,,,,,,,,,,,,,,,,,,,,,,,,,,,
,,?,0.000705,0,,,,,,stimuli/images/PICTURE_233.png,IDEAS,5e5e86c4a234251abddcd29d,01/04/1951,2020-07-09_21h10.12.479,proactive,2020.1.2,MacIntel,60,5f073de81c76c3308c0e4fb3,5f07799129c3d8398306f949,6,,,,,,salt,,,,,,,,,,,3,0,0,52,52,28,1,,,,,,,,,,,,,,,,,,,,,,,,,,,,,,,,,,,,,,,,,,,,,,,,,,,,,,,,,,,,,,,,,,,,,,
,,?,0.000575,0,,,,,,stimuli/images/PICTURE_203.png,ARTIST,5e5e86c4a234251abddcd29d,01/04/1951,2020-07-09_21h10.12.479,proactive,2020.1.2,MacIntel,60,5f073de81c76c3308c0e4fb3,5f07799129c3d8398306f949,6,,,,,,cap,,,,,,,,,,,3,0,0,53,53,26,1,,,,,,,,,,,,,,,,,,,,,,,,,,,,,,,,,,,,,,,,,,,,,,,,,,,,,,,,,,,,,,,,,,,,,,
,,?,0.000725,0,,,,,,stimuli/images/PICTURE_215.png,PLENTY,5e5e86c4a234251abddcd29d,01/04/1951,2020-07-09_21h10.12.479,proactive,2020.1.2,MacIntel,60,5f073de81c76c3308c0e4fb3,5f07799129c3d8398306f949,6,,,,,,boot,,,,,,,,,,,4,0,0,54,54,37,1,,,,,,,,,,,,,,,,,,,,,,,,,,,,,,,,,,,,,,,,,,,,,,,,,,,,,,,,,,,,,,,,,,,,,,
,,?,0.00049,0,,,,,,stimuli/images/PICTURE_708.png,YARD,5e5e86c4a234251abddcd29d,01/04/1951,2020-07-09_21h10.12.479,proactive,2020.1.2,MacIntel,60,5f073de81c76c3308c0e4fb3,5f07799129c3d8398306f949,6,,,,,,monkey,,,,,,,,,,,3,0,0,55,55,29,1,,,,,,,,,,,,,,,,,,,,,,,,,,,,,,,,,,,,,,,,,,,,,,,,,,,,,,,,,,,,,,,,,,,,,,
,,?,0.00051,0,,,,,,stimuli/images/PICTURE_314.png,SAKE,5e5e86c4a234251abddcd29d,01/04/1951,2020-07-09_21h10.12.479,proactive,2020.1.2,MacIntel,60,5f073de81c76c3308c0e4fb3,5f07799129c3d8398306f949,6,,,,,,perfume,,,,,,,,,,,1,0,0,56,56,7,1,,,,,,,,,,,,,,,,,,,,,,,,,,,,,,,,,,,,,,,,,,,,,,,,,,,,,,,,,,,,,,,,,,,,,,
,,?,0.000445,0,,,,,,stimuli/images/PICTURE_32.png,JUNGLE,5e5e86c4a234251abddcd29d,01/04/1951,2020-07-09_21h10.12.479,proactive,2020.1.2,MacIntel,60,5f073de81c76c3308c0e4fb3,5f07799129c3d8398306f949,6,,,,,,crown,,,,,,,,,,,5,0,0,57,57,45,1,,,,,,,,,,,,,,,,,,,,,,,,,,,,,,,,,,,,,,,,,,,,,,,,,,,,,,,,,,,,,,,,,,,,,,
,,?,0.000535,0,,,,,,stimuli/images/PICTURE_95.png,STYLE,5e5e86c4a234251abddcd29d,01/04/1951,2020-07-09_21h10.12.479,proactive,2020.1.2,MacIntel,60,5f073de81c76c3308c0e4fb3,5f07799129c3d8398306f949,6,,,,,,suitcase,,,,,,,,,,,3,0,0,58,58,25,1,,,,,,,,,,,,,,,,,,,,,,,,,,,,,,,,,,,,,,,,,,,,,,,,,,,,,,,,,,,,,,,,,,,,,,
,,?,0.0006,0,,,,,,stimuli/images/PICTURE_504.png,BODY,5e5e86c4a234251abddcd29d,01/04/1951,2020-07-09_21h10.12.479,proactive,2020.1.2,MacIntel,60,5f073de81c76c3308c0e4fb3,5f07799129c3d8398306f949,6,,,,,,wheel,,,,,,,,,,,1,0,0,59,59,8,1,,,,,,,,,,,,,,,,,,,,,,,,,,,,,,,,,,,,,,,,,,,,,,,,,,,,,,,,,,,,,,,,,,,,,,
,,,,,,,,,,,,5e5e86c4a234251abddcd29d,01/04/1951,2020-07-09_21h10.12.479,proactive,2020.1.2,MacIntel,60,5f073de81c76c3308c0e4fb3,5f07799129c3d8398306f949,6,,,,,,,,,,,,,,,,,,,,,,,,0,0,0,0,1,stimuli/learn-block1.csv,,,,,,,,,,,,,,,,,,,,,,,,,,,,,,,,,,,,,,,,,,,,,,,,,,,,,,,,,,,,,,,,
,,,,,,,,,,stimuli/images/PICTURE_564.png,BATH,5e5e86c4a234251abddcd29d,01/04/1951,2020-07-09_21h10.12.479,proactive,2020.1.2,MacIntel,60,5f073de81c76c3308c0e4fb3,5f07799129c3d8398306f949,6,,,,,,spoon,,,,,,0,0,0,26,1,3,1,,,,,,,,,,,,,,,,,,,,,,,,,,,,,,,,,,,,,,,,,,,,,,,,,,,,,,,,,,,,,,,,,,,,,,,,,,,
,,,,,,,,,,stimuli/images/PICTURE_327.png,CASINO,5e5e86c4a234251abddcd29d,01/04/1951,2020-07-09_21h10.12.479,proactive,2020.1.2,MacIntel,60,5f073de81c76c3308c0e4fb3,5f07799129c3d8398306f949,6,,,,,,helmet,,,,,,0,1,1,20,1,3,1,,,,,,,,,,,,,,,,,,,,,,,,,,,,,,,,,,,,,,,,,,,,,,,,,,,,,,,,,,,,,,,,,,,,,,,,,,,
,,,,,,,,,,stimuli/images/PICTURE_708.png,RECORD,5e5e86c4a234251abddcd29d,01/04/1951,2020-07-09_21h10.12.479,proactive,2020.1.2,MacIntel,60,5f073de81c76c3308c0e4fb3,5f07799129c3d8398306f949,6,,,,,,monkey,,,,,,0,2,2,58,1,6,1,,,,,,,,,,,,,,,,,,,,,,,,,,,,,,,,,,,,,,,,,,,,,,,,,,,,,,,,,,,,,,,,,,,,,,,,,,,
,,,,,,,,,,stimuli/images/PICTURE_339.png,CLIENT,5e5e86c4a234251abddcd29d,01/04/1951,2020-07-09_21h10.12.479,proactive,2020.1.2,MacIntel,60,5f073de81c76c3308c0e4fb3,5f07799129c3d8398306f949,6,,,,,,backpack,,,,,,0,3,3,11,1,2,1,,,,,,,,,,,,,,,,,,,,,,,,,,,,,,,,,,,,,,,,,,,,,,,,,,,,,,,,,,,,,,,,,,,,,,,,,,,
,,,,,,,,,,stimuli/images/PICTURE_380.png,HONEY,5e5e86c4a234251abddcd29d,01/04/1951,2020-07-09_21h10.12.479,proactive,2020.1.2,MacIntel,60,5f073de81c76c3308c0e4fb3,5f07799129c3d8398306f949,6,,,,,,gorilla,,,,,,0,4,4,19,1,2,1,,,,,,,,,,,,,,,,,,,,,,,,,,,,,,,,,,,,,,,,,,,,,,,,,,,,,,,,,,,,,,,,,,,,,,,,,,,
,,,,,,,,,,stimuli/images/PICTURE_750.png,HOTEL,5e5e86c4a234251abddcd29d,01/04/1951,2020-07-09_21h10.12.479,proactive,2020.1.2,MacIntel,60,5f073de81c76c3308c0e4fb3,5f07799129c3d8398306f949,6,,,,,,kettle,,,,,,0,5,5,27,1,3,1,,,,,,,,,,,,,,,,,,,,,,,,,,,,,,,,,,,,,,,,,,,,,,,,,,,,,,,,,,,,,,,,,,,,,,,,,,,
,,,,,,,,,,stimuli/images/PICTURE_68.png,ROOF,5e5e86c4a234251abddcd29d,01/04/1951,2020-07-09_21h10.12.479,proactive,2020.1.2,MacIntel,60,5f073de81c76c3308c0e4fb3,5f07799129c3d8398306f949,6,,,,,,candle,,,,,,0,6,6,38,1,4,1,,,,,,,,,,,,,,,,,,,,,,,,,,,,,,,,,,,,,,,,,,,,,,,,,,,,,,,,,,,,,,,,,,,,,,,,,,,
,,,,,,,,,,stimuli/images/PICTURE_108.png,FLIGHT,5e5e86c4a234251abddcd29d,01/04/1951,2020-07-09_21h10.12.479,proactive,2020.1.2,MacIntel,60,5f073de81c76c3308c0e4fb3,5f07799129c3d8398306f949,6,,,,,,calendar,,,,,,0,7,7,59,1,6,1,,,,,,,,,,,,,,,,,,,,,,,,,,,,,,,,,,,,,,,,,,,,,,,,,,,,,,,,,,,,,,,,,,,,,,,,,,,
,,,,,,,,,,stimuli/images/PICTURE_667.png,RIVER,5e5e86c4a234251abddcd29d,01/04/1951,2020-07-09_21h10.12.479,proactive,2020.1.2,MacIntel,60,5f073de81c76c3308c0e4fb3,5f07799129c3d8398306f949,6,,,,,,daisy,,,,,,0,8,8,10,1,2,1,,,,,,,,,,,,,,,,,,,,,,,,,,,,,,,,,,,,,,,,,,,,,,,,,,,,,,,,,,,,,,,,,,,,,,,,,,,
,,,,,,,,,,stimuli/images/PICTURE_203.png,GODS,5e5e86c4a234251abddcd29d,01/04/1951,2020-07-09_21h10.12.479,proactive,2020.1.2,MacIntel,60,5f073de81c76c3308c0e4fb3,5f07799129c3d8398306f949,6,,,,,,cap,,,,,,0,9,9,30,1,4,1,,,,,,,,,,,,,,,,,,,,,,,,,,,,,,,,,,,,,,,,,,,,,,,,,,,,,,,,,,,,,,,,,,,,,,,,,,,
,,,,,,,,,,stimuli/images/PICTURE_285.png,LIFE,5e5e86c4a234251abddcd29d,01/04/1951,2020-07-09_21h10.12.479,proactive,2020.1.2,MacIntel,60,5f073de81c76c3308c0e4fb3,5f07799129c3d8398306f949,6,,,,,,carrot,,,,,,0,10,10,33,1,4,1,,,,,,,,,,,,,,,,,,,,,,,,,,,,,,,,,,,,,,,,,,,,,,,,,,,,,,,,,,,,,,,,,,,,,,,,,,,
,,,,,,,,,,stimuli/images/PICTURE_296.png,LOTS,5e5e86c4a234251abddcd29d,01/04/1951,2020-07-09_21h10.12.479,proactive,2020.1.2,MacIntel,60,5f073de81c76c3308c0e4fb3,5f07799129c3d8398306f949,6,,,,,,bolt,,,,,,0,11,11,9,1,1,1,,,,,,,,,,,,,,,,,,,,,,,,,,,,,,,,,,,,,,,,,,,,,,,,,,,,,,,,,,,,,,,,,,,,,,,,,,,
,,,,,,,,,,stimuli/images/PICTURE_327.png,SERIES,5e5e86c4a234251abddcd29d,01/04/1951,2020-07-09_21h10.12.479,proactive,2020.1.2,MacIntel,60,5f073de81c76c3308c0e4fb3,5f07799129c3d8398306f949,6,,,,,,helmet,,,,,,0,12,12,3,1,1,1,,,,,,,,,,,,,,,,,,,,,,,,,,,,,,,,,,,,,,,,,,,,,,,,,,,,,,,,,,,,,,,,,,,,,,,,,,,
,,,,,,,,,,stimuli/images/PICTURE_491.png,GLASS,5e5e86c4a234251abddcd29d,01/04/1951,2020-07-09_21h10.12.479,proactive,2020.1.2,MacIntel,60,5f073de81c76c3308c0e4fb3,5f07799129c3d8398306f949,6,,,,,,rug,,,,,,0,13,13,14,1,2,1,,,,,,,,,,,,,,,,,,,,,,,,,,,,,,,,,,,,,,,,,,,,,,,,,,,,,,,,,,,,,,,,,,,,,,,,,,,
,,,,,,,,,,stimuli/images/PICTURE_675.png,SALE,5e5e86c4a234251abddcd29d,01/04/1951,2020-07-09_21h10.12.479,proactive,2020.1.2,MacIntel,60,5f073de81c76c3308c0e4fb3,5f07799129c3d8398306f949,6,,,,,,windmill,,,,,,0,14,14,47,1,5,1,,,,,,,,,,,,,,,,,,,,,,,,,,,,,,,,,,,,,,,,,,,,,,,,,,,,,,,,,,,,,,,,,,,,,,,,,,,
,,,,,,,,,,stimuli/images/PICTURE_32.png,KIND,5e5e86c4a234251abddcd29d,01/04/1951,2020-07-09_21h10.12.479,proactive,2020.1.2,MacIntel,60,5f073de81c76c3308c0e4fb3,5f07799129c3d8398306f949,6,,,,,,crown,,,,,,0,15,15,35,1,4,1,,,,,,,,,,,,,,,,,,,,,,,,,,,,,,,,,,,,,,,,,,,,,,,,,,,,,,,,,,,,,,,,,,,,,,,,,,,
,,,,,,,,,,stimuli/images/PICTURE_403.png,WRITER,5e5e86c4a234251abddcd29d,01/04/1951,2020-07-09_21h10.12.479,proactive,2020.1.2,MacIntel,60,5f073de81c76c3308c0e4fb3,5f07799129c3d8398306f949,6,,,,,,cathedral,,,,,,0,16,16,31,1,4,1,,,,,,,,,,,,,,,,,,,,,,,,,,,,,,,,,,,,,,,,,,,,,,,,,,,,,,,,,,,,,,,,,,,,,,,,,,,
,,,,,,,,,,stimuli/images/PICTURE_405.png,YEAR,5e5e86c4a234251abddcd29d,01/04/1951,2020-07-09_21h10.12.479,proactive,2020.1.2,MacIntel,60,5f073de81c76c3308c0e4fb3,5f07799129c3d8398306f949,6,,,,,,anchor,,,,,,0,17,17,34,1,4,1,,,,,,,,,,,,,,,,,,,,,,,,,,,,,,,,,,,,,,,,,,,,,,,,,,,,,,,,,,,,,,,,,,,,,,,,,,,
,,,,,,,,,,stimuli/images/PICTURE_147.png,YEAR,5e5e86c4a234251abddcd29d,01/04/1951,2020-07-09_21h10.12.479,proactive,2020.1.2,MacIntel,60,5f073de81c76c3308c0e4fb3,5f07799129c3d8398306f949,6,,,,,,hanger,,,,,,0,18,18,21,1,3,1,,,,,,,,,,,,,,,,,,,,,,,,,,,,,,,,,,,,,,,,,,,,,,,,,,,,,,,,,,,,,,,,,,,,,,,,,,,
,,,,,,,,,,stimuli/images/PICTURE_147.png,WOMEN,5e5e86c4a234251abddcd29d,01/04/1951,2020-07-09_21h10.12.479,proactive,2020.1.2,MacIntel,60,5f073de81c76c3308c0e4fb3,5f07799129c3d8398306f949,6,,,,,,hanger,,,,,,0,19,19,7,1,1,1,,,,,,,,,,,,,,,,,,,,,,,,,,,,,,,,,,,,,,,,,,,,,,,,,,,,,,,,,,,,,,,,,,,,,,,,,,,
,,,,,,,,,,stimuli/images/PICTURE_467.png,POLICY,5e5e86c4a234251abddcd29d,01/04/1951,2020-07-09_21h10.12.479,proactive,2020.1.2,MacIntel,60,5f073de81c76c3308c0e4fb3,5f07799129c3d8398306f949,6,,,,,,peg,,,,,,0,20,20,53,1,6,1,,,,,,,,,,,,,,,,,,,,,,,,,,,,,,,,,,,,,,,,,,,,,,,,,,,,,,,,,,,,,,,,,,,,,,,,,,,
,,,,,,,,,,stimuli/images/PICTURE_296.png,LIFE,5e5e86c4a234251abddcd29d,01/04/1951,2020-07-09_21h10.12.479,proactive,2020.1.2,MacIntel,60,5f073de81c76c3308c0e4fb3,5f07799129c3d8398306f949,6,,,,,,bolt,,,,,,0,21,21,57,1,6,1,,,,,,,,,,,,,,,,,,,,,,,,,,,,,,,,,,,,,,,,,,,,,,,,,,,,,,,,,,,,,,,,,,,,,,,,,,,
,,,,,,,,,,stimuli/images/PICTURE_677.png,APPLE,5e5e86c4a234251abddcd29d,01/04/1951,2020-07-09_21h10.12.479,proactive,2020.1.2,MacIntel,60,5f073de81c76c3308c0e4fb3,5f07799129c3d8398306f949,6,,,,,,map,,,,,,0,22,22,43,1,5,1,,,,,,,,,,,,,,,,,,,,,,,,,,,,,,,,,,,,,,,,,,,,,,,,,,,,,,,,,,,,,,,,,,,,,,,,,,,
,,,,,,,,,,stimuli/images/PICTURE_177.png,WRITER,5e5e86c4a234251abddcd29d,01/04/1951,2020-07-09_21h10.12.479,proactive,2020.1.2,MacIntel,60,5f073de81c76c3308c0e4fb3,5f07799129c3d8398306f949,6,,,,,,mushroom,,,,,,0,23,23,41,1,5,1,,,,,,,,,,,,,,,,,,,,,,,,,,,,,,,,,,,,,,,,,,,,,,,,,,,,,,,,,,,,,,,,,,,,,,,,,,,
,,,,,,,,,,stimuli/images/PICTURE_449.png,DUDE,5e5e86c4a234251abddcd29d,01/04/1951,2020-07-09_21h10.12.479,proactive,2020.1.2,MacIntel,60,5f073de81c76c3308c0e4fb3,5f07799129c3d8398306f949,6,,,,,,bench,,,,,,0,24,24,17,1,2,1,,,,,,,,,,,,,,,,,,,,,,,,,,,,,,,,,,,,,,,,,,,,,,,,,,,,,,,,,,,,,,,,,,,,,,,,,,,
,,,,,,,,,,stimuli/images/PICTURE_85.png,NATION,5e5e86c4a234251abddcd29d,01/04/1951,2020-07-09_21h10.12.479,proactive,2020.1.2,MacIntel,60,5f073de81c76c3308c0e4fb3,5f07799129c3d8398306f949,6,,,,,,diamond,,,,,,0,25,25,5,1,1,1,,,,,,,,,,,,,,,,,,,,,,,,,,,,,,,,,,,,,,,,,,,,,,,,,,,,,,,,,,,,,,,,,,,,,,,,,,,
,,,,,,,,,,stimuli/images/PICTURE_233.png,LOTS,5e5e86c4a234251abddcd29d,01/04/1951,2020-07-09_21h10.12.479,proactive,2020.1.2,MacIntel,60,5f073de81c76c3308c0e4fb3,5f07799129c3d8398306f949,6,,,,,,salt,,,,,,0,26,26,42,1,5,1,,,,,,,,,,,,,,,,,,,,,,,,,,,,,,,,,,,,,,,,,,,,,,,,,,,,,,,,,,,,,,,,,,,,,,,,,,,
,,,,,,,,,,stimuli/images/PICTURE_308.png,FAMILY,5e5e86c4a234251abddcd29d,01/04/1951,2020-07-09_21h10.12.479,proactive,2020.1.2,MacIntel,60,5f073de81c76c3308c0e4fb3,5f07799129c3d8398306f949,6,,,,,,dice,,,,,,0,27,27,36,1,4,1,,,,,,,,,,,,,,,,,,,,,,,,,,,,,,,,,,,,,,,,,,,,,,,,,,,,,,,,,,,,,,,,,,,,,,,,,,,
,,,,,,,,,,stimuli/images/PICTURE_95.png,MILLER,5e5e86c4a234251abddcd29d,01/04/1951,2020-07-09_21h10.12.479,proactive,2020.1.2,MacIntel,60,5f073de81c76c3308c0e4fb3,5f07799129c3d8398306f949,6,,,,,,suitcase,,,,,,0,28,28,56,1,6,1,,,,,,,,,,,,,,,,,,,,,,,,,,,,,,,,,,,,,,,,,,,,,,,,,,,,,,,,,,,,,,,,,,,,,,,,,,,
,,,,,,,,,,stimuli/images/PICTURE_469.png,AGENT,5e5e86c4a234251abddcd29d,01/04/1951,2020-07-09_21h10.12.479,proactive,2020.1.2,MacIntel,60,5f073de81c76c3308c0e4fb3,5f07799129c3d8398306f949,6,,,,,,stool,,,,,,0,29,29,16,1,2,1,,,,,,,,,,,,,,,,,,,,,,,,,,,,,,,,,,,,,,,,,,,,,,,,,,,,,,,,,,,,,,,,,,,,,,,,,,,
,,,,,,,,,,stimuli/images/PICTURE_108.png,POLICY,5e5e86c4a234251abddcd29d,01/04/1951,2020-07-09_21h10.12.479,proactive,2020.1.2,MacIntel,60,5f073de81c76c3308c0e4fb3,5f07799129c3d8398306f949,6,,,,,,calendar,,,,,,0,30,30,22,1,3,1,,,,,,,,,,,,,,,,,,,,,,,,,,,,,,,,,,,,,,,,,,,,,,,,,,,,,,,,,,,,,,,,,,,,,,,,,,,
,,,,,,,,,,stimuli/images/PICTURE_491.png,RIVER,5e5e86c4a234251abddcd29d,01/04/1951,2020-07-09_21h10.12.479,proactive,2020.1.2,MacIntel,60,5f073de81c76c3308c0e4fb3,5f07799129c3d8398306f949,6,,,,,,rug,,,,,,0,31,31,6,1,1,1,,,,,,,,,,,,,,,,,,,,,,,,,,,,,,,,,,,,,,,,,,,,,,,,,,,,,,,,,,,,,,,,,,,,,,,,,,,
,,,,,,,,,,stimuli/images/PICTURE_655.png,TOILET,5e5e86c4a234251abddcd29d,01/04/1951,2020-07-09_21h10.12.479,proactive,2020.1.2,MacIntel,60,5f073de81c76c3308c0e4fb3,5f07799129c3d8398306f949,6,,,,,,megaphone,,,,,,0,32,32,12,1,2,1,,,,,,,,,,,,,,,,,,,,,,,,,,,,,,,,,,,,,,,,,,,,,,,,,,,,,,,,,,,,,,,,,,,,,,,,,,,
,,,,,,,,,,stimuli/images/PICTURE_504.png,COPS,5e5e86c4a234251abddcd29d,01/04/1951,2020-07-09_21h10.12.479,proactive,2020.1.2,MacIntel,60,5f073de81c76c3308c0e4fb3,5f07799129c3d8398306f949,6,,,,,,wheel,,,,,,0,33,33,52,1,6,1,,,,,,,,,,,,,,,,,,,,,,,,,,,,,,,,,,,,,,,,,,,,,,,,,,,,,,,,,,,,,,,,,,,,,,,,,,,
,,,,,,,,,,stimuli/images/PICTURE_403.png,RIVER,5e5e86c4a234251abddcd29d,01/04/1951,2020-07-09_21h10.12.479,proactive,2020.1.2,MacIntel,60,5f073de81c76c3308c0e4fb3,5f07799129c3d8398306f949,6,,,,,,cathedral,,,,,,0,34,34,40,1,5,1,,,,,,,,,,,,,,,,,,,,,,,,,,,,,,,,,,,,,,,,,,,,,,,,,,,,,,,,,,,,,,,,,,,,,,,,,,,
,,,,,,,,,,stimuli/images/PICTURE_744.png,WEAPON,5e5e86c4a234251abddcd29d,01/04/1951,2020-07-09_21h10.12.479,proactive,2020.1.2,MacIntel,60,5f073de81c76c3308c0e4fb3,5f07799129c3d8398306f949,6,,,,,,ring,,,,,,0,35,35,50,1,6,1,,,,,,,,,,,,,,,,,,,,,,,,,,,,,,,,,,,,,,,,,,,,,,,,,,,,,,,,,,,,,,,,,,,,,,,,,,,
,,,,,,,,,,stimuli/images/PICTURE_487.png,GIRL,5e5e86c4a234251abddcd29d,01/04/1951,2020-07-09_21h10.12.479,proactive,2020.1.2,MacIntel,60,5f073de81c76c3308c0e4fb3,5f07799129c3d8398306f949,6,,,,,,basket,,,,,,0,36,36,45,1,5,1,,,,,,,,,,,,,,,,,,,,,,,,,,,,,,,,,,,,,,,,,,,,,,,,,,,,,,,,,,,,,,,,,,,,,,,,,,,
,,,,,,,,,,stimuli/images/PICTURE_95.png,BOYS,5e5e86c4a234251abddcd29d,01/04/1951,2020-07-09_21h10.12.479,proactive,2020.1.2,MacIntel,60,5f073de81c76c3308c0e4fb3,5f07799129c3d8398306f949,6,,,,,,suitcase,,,,,,0,37,37,1,1,1,1,,,,,,,,,,,,,,,,,,,,,,,,,,,,,,,,,,,,,,,,,,,,,,,,,,,,,,,,,,,,,,,,,,,,,,,,,,,
,,,,,,,,,,stimuli/images/PICTURE_33.png,FRIEND,5e5e86c4a234251abddcd29d,01/04/1951,2020-07-09_21h10.12.479,proactive,2020.1.2,MacIntel,60,5f073de81c76c3308c0e4fb3,5f07799129c3d8398306f949,6,,,,,,frame,,,,,,0,38,38,8,1,1,1,,,,,,,,,,,,,,,,,,,,,,,,,,,,,,,,,,,,,,,,,,,,,,,,,,,,,,,,,,,,,,,,,,,,,,,,,,,
,,,,,,,,,,stimuli/images/PICTURE_340.png,LETTER,5e5e86c4a234251abddcd29d,01/04/1951,2020-07-09_21h10.12.479,proactive,2020.1.2,MacIntel,60,5f073de81c76c3308c0e4fb3,5f07799129c3d8398306f949,6,,,,,,mirror,,,,,,0,39,39,24,1,3,1,,,,,,,,,,,,,,,,,,,,,,,,,,,,,,,,,,,,,,,,,,,,,,,,,,,,,,,,,,,,,,,,,,,,,,,,,,,
,,,,,,,,,,stimuli/images/PICTURE_42.png,BOYS,5e5e86c4a234251abddcd29d,01/04/1951,2020-07-09_21h10.12.479,proactive,2020.1.2,MacIntel,60,5f073de81c76c3308c0e4fb3,5f07799129c3d8398306f949,6,,,,,,pear,,,,,,0,40,40,55,1,6,1,,,,,,,,,,,,,,,,,,,,,,,,,,,,,,,,,,,,,,,,,,,,,,,,,,,,,,,,,,,,,,,,,,,,,,,,,,,
,,,,,,,,,,stimuli/images/PICTURE_2.png,FLIGHT,5e5e86c4a234251abddcd29d,01/04/1951,2020-07-09_21h10.12.479,proactive,2020.1.2,MacIntel,60,5f073de81c76c3308c0e4fb3,5f07799129c3d8398306f949,6,,,,,,tyre,,,,,,0,41,41,15,1,2,1,,,,,,,,,,,,,,,,,,,,,,,,,,,,,,,,,,,,,,,,,,,,,,,,,,,,,,,,,,,,,,,,,,,,,,,,,,,
,,,,,,,,,,stimuli/images/PICTURE_504.png,YEAR,5e5e86c4a234251abddcd29d,01/04/1951,2020-07-09_21h10.12.479,proactive,2020.1.2,MacIntel,60,5f073de81c76c3308c0e4fb3,5f07799129c3d8398306f949,6,,,,,,wheel,,,,,,0,42,42,13,1,2,1,,,,,,,,,,,,,,,,,,,,,,,,,,,,,,,,,,,,,,,,,,,,,,,,,,,,,,,,,,,,,,,,,,,,,,,,,,,
,,,,,,,,,,stimuli/images/PICTURE_403.png,TOILET,5e5e86c4a234251abddcd29d,01/04/1951,2020-07-09_21h10.12.479,proactive,2020.1.2,MacIntel,60,5f073de81c76c3308c0e4fb3,5f07799129c3d8398306f949,6,,,,,,cathedral,,,,,,0,43,43,25,1,3,1,,,,,,,,,,,,,,,,,,,,,,,,,,,,,,,,,,,,,,,,,,,,,,,,,,,,,,,,,,,,,,,,,,,,,,,,,,,
,,,,,,,,,,stimuli/images/PICTURE_383.png,WRITER,5e5e86c4a234251abddcd29d,01/04/1951,2020-07-09_21h10.12.479,proactive,2020.1.2,MacIntel,60,5f073de81c76c3308c0e4fb3,5f07799129c3d8398306f949,6,,,,,,coin,,,,,,0,44,44,28,1,3,1,,,,,,,,,,,,,,,,,,,,,,,,,,,,,,,,,,,,,,,,,,,,,,,,,,,,,,,,,,,,,,,,,,,,,,,,,,,
,,,,,,,,,,stimuli/images/PICTURE_208.png,SYSTEM,5e5e86c4a234251abddcd29d,01/04/1951,2020-07-09_21h10.12.479,proactive,2020.1.2,MacIntel,60,5f073de81c76c3308c0e4fb3,5f07799129c3d8398306f949,6,,,,,,microphone,,,,,,0,45,45,32,1,4,1,,,,,,,,,,,,,,,,,,,,,,,,,,,,,,,,,,,,,,,,,,,,,,,,,,,,,,,,,,,,,,,,,,,,,,,,,,,
,,,,,,,,,,stimuli/images/PICTURE_85.png,TOILET,5e5e86c4a234251abddcd29d,01/04/1951,2020-07-09_21h10.12.479,proactive,2020.1.2,MacIntel,60,5f073de81c76c3308c0e4fb3,5f07799129c3d8398306f949,6,,,,,,diamond,,,,,,0,46,46,48,1,5,1,,,,,,,,,,,,,,,,,,,,,,,,,,,,,,,,,,,,,,,,,,,,,,,,,,,,,,,,,,,,,,,,,,,,,,,,,,,
,,,,,,,,,,stimuli/images/PICTURE_383.png,SERIES,5e5e86c4a234251abddcd29d,01/04/1951,2020-07-09_21h10.12.479,proactive,2020.1.2,MacIntel,60,5f073de81c76c3308c0e4fb3,5f07799129c3d8398306f949,6,,,,,,coin,,,,,,0,47,47,46,1,5,1,,,,,,,,,,,,,,,,,,,,,,,,,,,,,,,,,,,,,,,,,,,,,,,,,,,,,,,,,,,,,,,,,,,,,,,,,,,
,,,,,,,,,,stimuli/images/PICTURE_297.png,RIVER,5e5e86c4a234251abddcd29d,01/04/1951,2020-07-09_21h10.12.479,proactive,2020.1.2,MacIntel,60,5f073de81c76c3308c0e4fb3,5f07799129c3d8398306f949,6,,,,,,aeroplane,,,,,,0,48,48,39,1,4,1,,,,,,,,,,,,,,,,,,,,,,,,,,,,,,,,,,,,,,,,,,,,,,,,,,,,,,,,,,,,,,,,,,,,,,,,,,,
,,,,,,,,,,stimuli/images/PICTURE_405.png,PLENTY,5e5e86c4a234251abddcd29d,01/04/1951,2020-07-09_21h10.12.479,proactive,2020.1.2,MacIntel,60,5f073de81c76c3308c0e4fb3,5f07799129c3d8398306f949,6,,,,,,anchor,,,,,,0,49,49,23,1,3,1,,,,,,,,,,,,,,,,,,,,,,,,,,,,,,,,,,,,,,,,,,,,,,,,,,,,,,,,,,,,,,,,,,,,,,,,,,,
,,,,,,,,,,stimuli/images/PICTURE_504.png,ARTIST,5e5e86c4a234251abddcd29d,01/04/1951,2020-07-09_21h10.12.479,proactive,2020.1.2,MacIntel,60,5f073de81c76c3308c0e4fb3,5f07799129c3d8398306f949,6,,,,,,wheel,,,,,,0,50,50,49,1,5,1,,,,,,,,,,,,,,,,,,,,,,,,,,,,,,,,,,,,,,,,,,,,,,,,,,,,,,,,,,,,,,,,,,,,,,,,,,,
,,,,,,,,,,stimuli/images/PICTURE_654.png,MONTH,5e5e86c4a234251abddcd29d,01/04/1951,2020-07-09_21h10.12.479,proactive,2020.1.2,MacIntel,60,5f073de81c76c3308c0e4fb3,5f07799129c3d8398306f949,6,,,,,,pencil,,,,,,0,51,51,29,1,3,1,,,,,,,,,,,,,,,,,,,,,,,,,,,,,,,,,,,,,,,,,,,,,,,,,,,,,,,,,,,,,,,,,,,,,,,,,,,
,,,,,,,,,,stimuli/images/PICTURE_685.png,PENNY,5e5e86c4a234251abddcd29d,01/04/1951,2020-07-09_21h10.12.479,proactive,2020.1.2,MacIntel,60,5f073de81c76c3308c0e4fb3,5f07799129c3d8398306f949,6,,,,,,goose,,,,,,0,52,52,4,1,1,1,,,,,,,,,,,,,,,,,,,,,,,,,,,,,,,,,,,,,,,,,,,,,,,,,,,,,,,,,,,,,,,,,,,,,,,,,,,
,,,,,,,,,,stimuli/images/PICTURE_32.png,PILLS,5e5e86c4a234251abddcd29d,01/04/1951,2020-07-09_21h10.12.479,proactive,2020.1.2,MacIntel,60,5f073de81c76c3308c0e4fb3,5f07799129c3d8398306f949,6,,,,,,crown,,,,,,0,53,53,18,1,2,1,,,,,,,,,,,,,,,,,,,,,,,,,,,,,,,,,,,,,,,,,,,,,,,,,,,,,,,,,,,,,,,,,,,,,,,,,,,
,,,,,,,,,,stimuli/images/PICTURE_57.png,MOMENT,5e5e86c4a234251abddcd29d,01/04/1951,2020-07-09_21h10.12.479,proactive,2020.1.2,MacIntel,60,5f073de81c76c3308c0e4fb3,5f07799129c3d8398306f949,6,,,,,,stamp,,,,,,0,54,54,37,1,4,1,,,,,,,,,,,,,,,,,,,,,,,,,,,,,,,,,,,,,,,,,,,,,,,,,,,,,,,,,,,,,,,,,,,,,,,,,,,
,,,,,,,,,,stimuli/images/PICTURE_203.png,NIGHT,5e5e86c4a234251abddcd29d,01/04/1951,2020-07-09_21h10.12.479,proactive,2020.1.2,MacIntel,60,5f073de81c76c3308c0e4fb3,5f07799129c3d8398306f949,6,,,,,,cap,,,,,,0,55,55,2,1,1,1,,,,,,,,,,,,,,,,,,,,,,,,,,,,,,,,,,,,,,,,,,,,,,,,,,,,,,,,,,,,,,,,,,,,,,,,,,,
,,,,,,,,,,stimuli/images/PICTURE_380.png,CANDY,5e5e86c4a234251abddcd29d,01/04/1951,2020-07-09_21h10.12.479,proactive,2020.1.2,MacIntel,60,5f073de81c76c3308c0e4fb3,5f07799129c3d8398306f949,6,,,,,,gorilla,,,,,,0,56,56,0,1,1,1,,,,,,,,,,,,,,,,,,,,,,,,,,,,,,,,,,,,,,,,,,,,,,,,,,,,,,,,,,,,,,,,,,,,,,,,,,,
,,,,,,,,,,stimuli/images/PICTURE_340.png,VALLEY,5e5e86c4a234251abddcd29d,01/04/1951,2020-07-09_21h10.12.479,proactive,2020.1.2,MacIntel,60,5f073de81c76c3308c0e4fb3,5f07799129c3d8398306f949,6,,,,,,mirror,,,,,,0,57,57,54,1,6,1,,,,,,,,,,,,,,,,,,,,,,,,,,,,,,,,,,,,,,,,,,,,,,,,,,,,,,,,,,,,,,,,,,,,,,,,,,,
,,,,,,,,,,stimuli/images/PICTURE_68.png,MILE,5e5e86c4a234251abddcd29d,01/04/1951,2020-07-09_21h10.12.479,proactive,2020.1.2,MacIntel,60,5f073de81c76c3308c0e4fb3,5f07799129c3d8398306f949,6,,,,,,candle,,,,,,0,58,58,51,1,6,1,,,,,,,,,,,,,,,,,,,,,,,,,,,,,,,,,,,,,,,,,,,,,,,,,,,,,,,,,,,,,,,,,,,,,,,,,,,
,,?,0.00109,0,,,,,,stimuli/images/PICTURE_491.png,GLASS,5e5e86c4a234251abddcd29d,01/04/1951,2020-07-09_21h10.12.479,proactive,2020.1.2,MacIntel,60,5f073de81c76c3308c0e4fb3,5f07799129c3d8398306f949,6,,,,,,rug,,,,,,,,,,,2,1,0,0,0,14,1,,,,,,,,,,,,,,,,,,,,,,,,,,,,,,,,,,,,,,,,,,,,,,,,,,,,,,,,,,,,,,,,,,,,,,
,,?,0.00056,0,,,,,,stimuli/images/PICTURE_383.png,WRITER,5e5e86c4a234251abddcd29d,01/04/1951,2020-07-09_21h10.12.479,proactive,2020.1.2,MacIntel,60,5f073de81c76c3308c0e4fb3,5f07799129c3d8398306f949,6,,,,,,coin,,,,,,,,,,,3,1,0,1,1,28,1,,,,,,,,,,,,,,,,,,,,,,,,,,,,,,,,,,,,,,,,,,,,,,,,,,,,,,,,,,,,,,,,,,,,,,
,,?,0.000505,0,,,,,,stimuli/images/PICTURE_32.png,KIND,5e5e86c4a234251abddcd29d,01/04/1951,2020-07-09_21h10.12.479,proactive,2020.1.2,MacIntel,60,5f073de81c76c3308c0e4fb3,5f07799129c3d8398306f949,6,,,,,,crown,,,,,,,,,,,4,1,0,2,2,35,1,,,,,,,,,,,,,,,,,,,,,,,,,,,,,,,,,,,,,,,,,,,,,,,,,,,,,,,,,,,,,,,,,,,,,,
,,?,0.00073,0,,,,,,stimuli/images/PICTURE_504.png,ARTIST,5e5e86c4a234251abddcd29d,01/04/1951,2020-07-09_21h10.12.479,proactive,2020.1.2,MacIntel,60,5f073de81c76c3308c0e4fb3,5f07799129c3d8398306f949,6,,,,,,wheel,,,,,,,,,,,5,1,0,3,3,49,1,,,,,,,,,,,,,,,,,,,,,,,,,,,,,,,,,,,,,,,,,,,,,,,,,,,,,,,,,,,,,,,,,,,,,,
,,?,0.000555,0,,,,,,stimuli/images/PICTURE_147.png,YEAR,5e5e86c4a234251abddcd29d,01/04/1951,2020-07-09_21h10.12.479,proactive,2020.1.2,MacIntel,60,5f073de81c76c3308c0e4fb3,5f07799129c3d8398306f949,6,,,,,,hanger,,,,,,,,,,,3,1,0,4,4,21,1,,,,,,,,,,,,,,,,,,,,,,,,,,,,,,,,,,,,,,,,,,,,,,,,,,,,,,,,,,,,,,,,,,,,,,
,,BOYS,4.048815,1,,,,,,stimuli/images/PICTURE_42.png,BOYS,5e5e86c4a234251abddcd29d,01/04/1951,2020-07-09_21h10.12.479,proactive,2020.1.2,MacIntel,60,5f073de81c76c3308c0e4fb3,5f07799129c3d8398306f949,6,,,,,,pear,,,,,,,,,,,6,1,0,5,5,55,1,,,,,,,,,,,,,,,,,,,,,,,,,,,,,,,,,,,,,,,,,,,,,,,,,,,,,,,,,,,,,,,,,,,,,,
,,?,0.00125,0,,,,,,stimuli/images/PICTURE_285.png,LIFE,5e5e86c4a234251abddcd29d,01/04/1951,2020-07-09_21h10.12.479,proactive,2020.1.2,MacIntel,60,5f073de81c76c3308c0e4fb3,5f07799129c3d8398306f949,6,,,,,,carrot,,,,,,,,,,,4,1,0,6,6,33,1,,,,,,,,,,,,,,,,,,,,,,,,,,,,,,,,,,,,,,,,,,,,,,,,,,,,,,,,,,,,,,,,,,,,,,
,,?,0.001105,0,,,,,,stimuli/images/PICTURE_750.png,HOTEL,5e5e86c4a234251abddcd29d,01/04/1951,2020-07-09_21h10.12.479,proactive,2020.1.2,MacIntel,60,5f073de81c76c3308c0e4fb3,5f07799129c3d8398306f949,6,,,,,,kettle,,,,,,,,,,,3,1,0,7,7,27,1,,,,,,,,,,,,,,,,,,,,,,,,,,,,,,,,,,,,,,,,,,,,,,,,,,,,,,,,,,,,,,,,,,,,,,
,,?,0.00091,0,,,,,,stimuli/images/PICTURE_504.png,YEAR,5e5e86c4a234251abddcd29d,01/04/1951,2020-07-09_21h10.12.479,proactive,2020.1.2,MacIntel,60,5f073de81c76c3308c0e4fb3,5f07799129c3d8398306f949,6,,,,,,wheel,,,,,,,,,,,2,1,0,8,8,13,1,,,,,,,,,,,,,,,,,,,,,,,,,,,,,,,,,,,,,,,,,,,,,,,,,,,,,,,,,,,,,,,,,,,,,,
,,?,0.00073,0,,,,,,stimuli/images/PICTURE_405.png,PLENTY,5e5e86c4a234251abddcd29d,01/04/1951,2020-07-09_21h10.12.479,proactive,2020.1.2,MacIntel,60,5f073de81c76c3308c0e4fb3,5f07799129c3d8398306f949,6,,,,,,anchor,,,,,,,,,,,3,1,0,9,9,23,1,,,,,,,,,,,,,,,,,,,,,,,,,,,,,,,,,,,,,,,,,,,,,,,,,,,,,,,,,,,,,,,,,,,,,,
,,?,0.000665,0,,,,,,stimuli/images/PICTURE_655.png,TOILET,5e5e86c4a234251abddcd29d,01/04/1951,2020-07-09_21h10.12.479,proactive,2020.1.2,MacIntel,60,5f073de81c76c3308c0e4fb3,5f07799129c3d8398306f949,6,,,,,,megaphone,,,,,,,,,,,2,1,0,10,10,12,1,,,,,,,,,,,,,,,,,,,,,,,,,,,,,,,,,,,,,,,,,,,,,,,,,,,,,,,,,,,,,,,,,,,,,,
,,MILLER,3.420425,1,,,,,,stimuli/images/PICTURE_95.png,MILLER,5e5e86c4a234251abddcd29d,01/04/1951,2020-07-09_21h10.12.479,proactive,2020.1.2,MacIntel,60,5f073de81c76c3308c0e4fb3,5f07799129c3d8398306f949,6,,,,,,suitcase,,,,,,,,,,,6,1,0,11,11,56,1,,,,,,,,,,,,,,,,,,,,,,,,,,,,,,,,,,,,,,,,,,,,,,,,,,,,,,,,,,,,,,,,,,,,,,
,,?,0.00269,0,,,,,,stimuli/images/PICTURE_95.png,HONEY,5e5e86c4a234251abddcd29d,01/04/1951,2020-07-09_21h10.12.479,proactive,2020.1.2,MacIntel,60,5f073de81c76c3308c0e4fb3,5f07799129c3d8398306f949,6,,,,,,suitcase,,,,,,,,,,,5,1,0,12,12,44,1,,,,,,,,,,,,,,,,,,,,,,,,,,,,,,,,,,,,,,,,,,,,,,,,,,,,,,,,,,,,,,,,,,,,,,
,,VICE,4.278095,0,,,,,,stimuli/images/PICTURE_340.png,VALLEY,5e5e86c4a234251abddcd29d,01/04/1951,2020-07-09_21h10.12.479,proactive,2020.1.2,MacIntel,60,5f073de81c76c3308c0e4fb3,5f07799129c3d8398306f949,6,,,,,,mirror,,,,,,,,,,,6,1,0,13,13,54,1,,,,,,,,,,,,,,,,,,,,,,,,,,,,,,,,,,,,,,,,,,,,,,,,,,,,,,,,,,,,,,,,,,,,,,
,,?,0.001195,0,,,,,,stimuli/images/PICTURE_95.png,BOYS,5e5e86c4a234251abddcd29d,01/04/1951,2020-07-09_21h10.12.479,proactive,2020.1.2,MacIntel,60,5f073de81c76c3308c0e4fb3,5f07799129c3d8398306f949,6,,,,,,suitcase,,,,,,,,,,,1,1,0,14,14,1,1,,,,,,,,,,,,,,,,,,,,,,,,,,,,,,,,,,,,,,,,,,,,,,,,,,,,,,,,,,,,,,,,,,,,,,
,,?,0.000995,0,,,,,,stimuli/images/PICTURE_68.png,ROOF,5e5e86c4a234251abddcd29d,01/04/1951,2020-07-09_21h10.12.479,proactive,2020.1.2,MacIntel,60,5f073de81c76c3308c0e4fb3,5f07799129c3d8398306f949,6,,,,,,candle,,,,,,,,,,,4,1,0,15,15,38,1,,,,,,,,,,,,,,,,,,,,,,,,,,,,,,,,,,,,,,,,,,,,,,,,,,,,,,,,,,,,,,,,,,,,,,
,,?,0.00306,0,,,,,,stimuli/images/PICTURE_403.png,RIVER,5e5e86c4a234251abddcd29d,01/04/1951,2020-07-09_21h10.12.479,proactive,2020.1.2,MacIntel,60,5f073de81c76c3308c0e4fb3,5f07799129c3d8398306f949,6,,,,,,cathedral,,,,,,,,,,,5,1,0,16,16,40,1,,,,,,,,,,,,,,,,,,,,,,,,,,,,,,,,,,,,,,,,,,,,,,,,,,,,,,,,,,,,,,,,,,,,,,
,,?,0.00091,0,,,,,,stimuli/images/PICTURE_327.png,SERIES,5e5e86c4a234251abddcd29d,01/04/1951,2020-07-09_21h10.12.479,proactive,2020.1.2,MacIntel,60,5f073de81c76c3308c0e4fb3,5f07799129c3d8398306f949,6,,,,,,helmet,,,,,,,,,,,1,1,0,17,17,3,1,,,,,,,,,,,,,,,,,,,,,,,,,,,,,,,,,,,,,,,,,,,,,,,,,,,,,,,,,,,,,,,,,,,,,,
,,?,0.0005,0,,,,,,stimuli/images/PICTURE_340.png,LETTER,5e5e86c4a234251abddcd29d,01/04/1951,2020-07-09_21h10.12.479,proactive,2020.1.2,MacIntel,60,5f073de81c76c3308c0e4fb3,5f07799129c3d8398306f949,6,,,,,,mirror,,,,,,,,,,,3,1,0,18,18,24,1,,,,,,,,,,,,,,,,,,,,,,,,,,,,,,,,,,,,,,,,,,,,,,,,,,,,,,,,,,,,,,,,,,,,,,
,,?,0.0007,0,,,,,,stimuli/images/PICTURE_57.png,MOMENT,5e5e86c4a234251abddcd29d,01/04/1951,2020-07-09_21h10.12.479,proactive,2020.1.2,MacIntel,60,5f073de81c76c3308c0e4fb3,5f07799129c3d8398306f949,6,,,,,,stamp,,,,,,,,,,,4,1,0,19,19,37,1,,,,,,,,,,,,,,,,,,,,,,,,,,,,,,,,,,,,,,,,,,,,,,,,,,,,,,,,,,,,,,,,,,,,,,
,,?,0.00074,0,,,,,,stimuli/images/PICTURE_147.png,WOMEN,5e5e86c4a234251abddcd29d,01/04/1951,2020-07-09_21h10.12.479,proactive,2020.1.2,MacIntel,60,5f073de81c76c3308c0e4fb3,5f07799129c3d8398306f949,6,,,,,,hanger,,,,,,,,,,,1,1,0,20,20,7,1,,,,,,,,,,,,,,,,,,,,,,,,,,,,,,,,,,,,,,,,,,,,,,,,,,,,,,,,,,,,,,,,,,,,,,
,,?,0.000585,0,,,,,,stimuli/images/PICTURE_675.png,SALE,5e5e86c4a234251abddcd29d,01/04/1951,2020-07-09_21h10.12.479,proactive,2020.1.2,MacIntel,60,5f073de81c76c3308c0e4fb3,5f07799129c3d8398306f949,6,,,,,,windmill,,,,,,,,,,,5,1,0,21,21,47,1,,,,,,,,,,,,,,,,,,,,,,,,,,,,,,,,,,,,,,,,,,,,,,,,,,,,,,,,,,,,,,,,,,,,,,
,,?,0.000615,0,,,,,,stimuli/images/PICTURE_380.png,HONEY,5e5e86c4a234251abddcd29d,01/04/1951,2020-07-09_21h10.12.479,proactive,2020.1.2,MacIntel,60,5f073de81c76c3308c0e4fb3,5f07799129c3d8398306f949,6,,,,,,gorilla,,,,,,,,,,,2,1,0,22,22,19,1,,,,,,,,,,,,,,,,,,,,,,,,,,,,,,,,,,,,,,,,,,,,,,,,,,,,,,,,,,,,,,,,,,,,,,
,,?,0.00049,0,,,,,,stimuli/images/PICTURE_32.png,PILLS,5e5e86c4a234251abddcd29d,01/04/1951,2020-07-09_21h10.12.479,proactive,2020.1.2,MacIntel,60,5f073de81c76c3308c0e4fb3,5f07799129c3d8398306f949,6,,,,,,crown,,,,,,,,,,,2,1,0,23,23,18,1,,,,,,,,,,,,,,,,,,,,,,,,,,,,,,,,,,,,,,,,,,,,,,,,,,,,,,,,,,,,,,,,,,,,,,
,,?,0.00053,0,,,,,,stimuli/images/PICTURE_108.png,POLICY,5e5e86c4a234251abddcd29d,01/04/1951,2020-07-09_21h10.12.479,proactive,2020.1.2,MacIntel,60,5f073de81c76c3308c0e4fb3,5f07799129c3d8398306f949,6,,,,,,calendar,,,,,,,,,,,3,1,0,24,24,22,1,,,,,,,,,,,,,,,,,,,,,,,,,,,,,,,,,,,,,,,,,,,,,,,,,,,,,,,,,,,,,,,,,,,,,,
,,?,0.000455,0,,,,,,stimuli/images/PICTURE_233.png,LOTS,5e5e86c4a234251abddcd29d,01/04/1951,2020-07-09_21h10.12.479,proactive,2020.1.2,MacIntel,60,5f073de81c76c3308c0e4fb3,5f07799129c3d8398306f949,6,,,,,,salt,,,,,,,,,,,5,1,0,25,25,42,1,,,,,,,,,,,,,,,,,,,,,,,,,,,,,,,,,,,,,,,,,,,,,,,,,,,,,,,,,,,,,,,,,,,,,,
,,?,0.000455,0,,,,,,stimuli/images/PICTURE_677.png,APPLE,5e5e86c4a234251abddcd29d,01/04/1951,2020-07-09_21h10.12.479,proactive,2020.1.2,MacIntel,60,5f073de81c76c3308c0e4fb3,5f07799129c3d8398306f949,6,,,,,,map,,,,,,,,,,,5,1,0,26,26,43,1,,,,,,,,,,,,,,,,,,,,,,,,,,,,,,,,,,,,,,,,,,,,,,,,,,,,,,,,,,,,,,,,,,,,,,
,,VICE,3.057655,0,,,,,,stimuli/images/PICTURE_744.png,WEAPON,5e5e86c4a234251abddcd29d,01/04/1951,2020-07-09_21h10.12.479,proactive,2020.1.2,MacIntel,60,5f073de81c76c3308c0e4fb3,5f07799129c3d8398306f949,6,,,,,,ring,,,,,,,,,,,6,1,0,27,27,50,1,,,,,,,,,,,,,,,,,,,,,,,,,,,,,,,,,,,,,,,,,,,,,,,,,,,,,,,,,,,,,,,,,,,,,,
,,POLICY,13.41461,1,,,,,,stimuli/images/PICTURE_467.png,POLICY,5e5e86c4a234251abddcd29d,01/04/1951,2020-07-09_21h10.12.479,proactive,2020.1.2,MacIntel,60,5f073de81c76c3308c0e4fb3,5f07799129c3d8398306f949,6,,,,,,peg,,,,,,,,,,,6,1,0,28,28,53,1,,,,,,,,,,,,,,,,,,,,,,,,,,,,,,,,,,,,,,,,,,,,,,,,,,,,,,,,,,,,,,,,,,,,,,
,,?,0.001335,0,,,,,,stimuli/images/PICTURE_297.png,RIVER,5e5e86c4a234251abddcd29d,01/04/1951,2020-07-09_21h10.12.479,proactive,2020.1.2,MacIntel,60,5f073de81c76c3308c0e4fb3,5f07799129c3d8398306f949,6,,,,,,aeroplane,,,,,,,,,,,4,1,0,29,29,39,1,,,,,,,,,,,,,,,,,,,,,,,,,,,,,,,,,,,,,,,,,,,,,,,,,,,,,,,,,,,,,,,,,,,,,,
,,?,0.000815,0,,,,,,stimuli/images/PICTURE_383.png,SERIES,5e5e86c4a234251abddcd29d,01/04/1951,2020-07-09_21h10.12.479,proactive,2020.1.2,MacIntel,60,5f073de81c76c3308c0e4fb3,5f07799129c3d8398306f949,6,,,,,,coin,,,,,,,,,,,5,1,0,30,30,46,1,,,,,,,,,,,,,,,,,,,,,,,,,,,,,,,,,,,,,,,,,,,,,,,,,,,,,,,,,,,,,,,,,,,,,,
,,?,0.000595,0,,,,,,stimuli/images/PICTURE_85.png,NATION,5e5e86c4a234251abddcd29d,01/04/1951,2020-07-09_21h10.12.479,proactive,2020.1.2,MacIntel,60,5f073de81c76c3308c0e4fb3,5f07799129c3d8398306f949,6,,,,,,diamond,,,,,,,,,,,1,1,0,31,31,5,1,,,,,,,,,,,,,,,,,,,,,,,,,,,,,,,,,,,,,,,,,,,,,,,,,,,,,,,,,,,,,,,,,,,,,,
,,?,0.00057,0,,,,,,stimuli/images/PICTURE_491.png,RIVER,5e5e86c4a234251abddcd29d,01/04/1951,2020-07-09_21h10.12.479,proactive,2020.1.2,MacIntel,60,5f073de81c76c3308c0e4fb3,5f07799129c3d8398306f949,6,,,,,,rug,,,,,,,,,,,1,1,0,32,32,6,1,,,,,,,,,,,,,,,,,,,,,,,,,,,,,,,,,,,,,,,,,,,,,,,,,,,,,,,,,,,,,,,,,,,,,,
,,?,0.000585,0,,,,,,stimuli/images/PICTURE_327.png,CASINO,5e5e86c4a234251abddcd29d,01/04/1951,2020-07-09_21h10.12.479,proactive,2020.1.2,MacIntel,60,5f073de81c76c3308c0e4fb3,5f07799129c3d8398306f949,6,,,,,,helmet,,,,,,,,,,,3,1,0,33,33,20,1,,,,,,,,,,,,,,,,,,,,,,,,,,,,,,,,,,,,,,,,,,,,,,,,,,,,,,,,,,,,,,,,,,,,,,
,,?,0.000605,0,,,,,,stimuli/images/PICTURE_469.png,AGENT,5e5e86c4a234251abddcd29d,01/04/1951,2020-07-09_21h10.12.479,proactive,2020.1.2,MacIntel,60,5f073de81c76c3308c0e4fb3,5f07799129c3d8398306f949,6,,,,,,stool,,,,,,,,,,,2,1,0,34,34,16,1,,,,,,,,,,,,,,,,,,,,,,,,,,,,,,,,,,,,,,,,,,,,,,,,,,,,,,,,,,,,,,,,,,,,,,
,,?,0.00057,0,,,,,,stimuli/images/PICTURE_203.png,NIGHT,5e5e86c4a234251abddcd29d,01/04/1951,2020-07-09_21h10.12.479,proactive,2020.1.2,MacIntel,60,5f073de81c76c3308c0e4fb3,5f07799129c3d8398306f949,6,,,,,,cap,,,,,,,,,,,1,1,0,35,35,2,1,,,,,,,,,,,,,,,,,,,,,,,,,,,,,,,,,,,,,,,,,,,,,,,,,,,,,,,,,,,,,,,,,,,,,,
,,?,0.00059,0,,,,,,stimuli/images/PICTURE_85.png,TOILET,5e5e86c4a234251abddcd29d,01/04/1951,2020-07-09_21h10.12.479,proactive,2020.1.2,MacIntel,60,5f073de81c76c3308c0e4fb3,5f07799129c3d8398306f949,6,,,,,,diamond,,,,,,,,,,,5,1,0,36,36,48,1,,,,,,,,,,,,,,,,,,,,,,,,,,,,,,,,,,,,,,,,,,,,,,,,,,,,,,,,,,,,,,,,,,,,,,
,,?,0.00106,0,,,,,,stimuli/images/PICTURE_487.png,GIRL,5e5e86c4a234251abddcd29d,01/04/1951,2020-07-09_21h10.12.479,proactive,2020.1.2,MacIntel,60,5f073de81c76c3308c0e4fb3,5f07799129c3d8398306f949,6,,,,,,basket,,,,,,,,,,,5,1,0,37,37,45,1,,,,,,,,,,,,,,,,,,,,,,,,,,,,,,,,,,,,,,,,,,,,,,,,,,,,,,,,,,,,,,,,,,,,,,
,,?,0.000595,0,,,,,,stimuli/images/PICTURE_654.png,MONTH,5e5e86c4a234251abddcd29d,01/04/1951,2020-07-09_21h10.12.479,proactive,2020.1.2,MacIntel,60,5f073de81c76c3308c0e4fb3,5f07799129c3d8398306f949,6,,,,,,pencil,,,,,,,,,,,3,1,0,38,38,29,1,,,,,,,,,,,,,,,,,,,,,,,,,,,,,,,,,,,,,,,,,,,,,,,,,,,,,,,,,,,,,,,,,,,,,,
,,?,0.00058,0,,,,,,stimuli/images/PICTURE_296.png,LOTS,5e5e86c4a234251abddcd29d,01/04/1951,2020-07-09_21h10.12.479,proactive,2020.1.2,MacIntel,60,5f073de81c76c3308c0e4fb3,5f07799129c3d8398306f949,6,,,,,,bolt,,,,,,,,,,,1,1,0,39,39,9,1,,,,,,,,,,,,,,,,,,,,,,,,,,,,,,,,,,,,,,,,,,,,,,,,,,,,,,,,,,,,,,,,,,,,,,
,,MILES,13.59556,0,,,,,,stimuli/images/PICTURE_68.png,MILE,5e5e86c4a234251abddcd29d,01/04/1951,2020-07-09_21h10.12.479,proactive,2020.1.2,MacIntel,60,5f073de81c76c3308c0e4fb3,5f07799129c3d8398306f949,6,,,,,,candle,,,,,,,,,,,6,1,0,40,40,51,1,,,,,,,,,,,,,,,,,,,,,,,,,,,,,,,,,,,,,,,,,,,,,,,,,,,,,,,,,,,,,,,,,,,,,,
,,?,0.001215,0,,,,,,stimuli/images/PICTURE_403.png,TOILET,5e5e86c4a234251abddcd29d,01/04/1951,2020-07-09_21h10.12.479,proactive,2020.1.2,MacIntel,60,5f073de81c76c3308c0e4fb3,5f07799129c3d8398306f949,6,,,,,,cathedral,,,,,,,,,,,3,1,0,41,41,25,1,,,,,,,,,,,,,,,,,,,,,,,,,,,,,,,,,,,,,,,,,,,,,,,,,,,,,,,,,,,,,,,,,,,,,,
,,PHOTO,4.844815,0,,,,,,stimuli/images/PICTURE_708.png,RECORD,5e5e86c4a234251abddcd29d,01/04/1951,2020-07-09_21h10.12.479,proactive,2020.1.2,MacIntel,60,5f073de81c76c3308c0e4fb3,5f07799129c3d8398306f949,6,,,,,,monkey,,,,,,,,,,,6,1,0,42,42,58,1,,,,,,,,,,,,,,,,,,,,,,,,,,,,,,,,,,,,,,,,,,,,,,,,,,,,,,,,,,,,,,,,,,,,,,
,,?,0.001325,0,,,,,,stimuli/images/PICTURE_308.png,FAMILY,5e5e86c4a234251abddcd29d,01/04/1951,2020-07-09_21h10.12.479,proactive,2020.1.2,MacIntel,60,5f073de81c76c3308c0e4fb3,5f07799129c3d8398306f949,6,,,,,,dice,,,,,,,,,,,4,1,0,43,43,36,1,,,,,,,,,,,,,,,,,,,,,,,,,,,,,,,,,,,,,,,,,,,,,,,,,,,,,,,,,,,,,,,,,,,,,,
,,?,0.00102,0,,,,,,stimuli/images/PICTURE_667.png,RIVER,5e5e86c4a234251abddcd29d,01/04/1951,2020-07-09_21h10.12.479,proactive,2020.1.2,MacIntel,60,5f073de81c76c3308c0e4fb3,5f07799129c3d8398306f949,6,,,,,,daisy,,,,,,,,,,,2,1,0,44,44,10,1,,,,,,,,,,,,,,,,,,,,,,,,,,,,,,,,,,,,,,,,,,,,,,,,,,,,,,,,,,,,,,,,,,,,,,
,,?,0.000765,0,,,,,,stimuli/images/PICTURE_203.png,GODS,5e5e86c4a234251abddcd29d,01/04/1951,2020-07-09_21h10.12.479,proactive,2020.1.2,MacIntel,60,5f073de81c76c3308c0e4fb3,5f07799129c3d8398306f949,6,,,,,,cap,,,,,,,,,,,4,1,0,45,45,30,1,,,,,,,,,,,,,,,,,,,,,,,,,,,,,,,,,,,,,,,,,,,,,,,,,,,,,,,,,,,,,,,,,,,,,,
,,COPS,3.42523,1,,,,,,stimuli/images/PICTURE_504.png,COPS,5e5e86c4a234251abddcd29d,01/04/1951,2020-07-09_21h10.12.479,proactive,2020.1.2,MacIntel,60,5f073de81c76c3308c0e4fb3,5f07799129c3d8398306f949,6,,,,,,wheel,,,,,,,,,,,6,1,0,46,46,52,1,,,,,,,,,,,,,,,,,,,,,,,,,,,,,,,,,,,,,,,,,,,,,,,,,,,,,,,,,,,,,,,,,,,,,,
,,?,0.001345,0,,,,,,stimuli/images/PICTURE_339.png,CLIENT,5e5e86c4a234251abddcd29d,01/04/1951,2020-07-09_21h10.12.479,proactive,2020.1.2,MacIntel,60,5f073de81c76c3308c0e4fb3,5f07799129c3d8398306f949,6,,,,,,backpack,,,,,,,,,,,2,1,0,47,47,11,1,,,,,,,,,,,,,,,,,,,,,,,,,,,,,,,,,,,,,,,,,,,,,,,,,,,,,,,,,,,,,,,,,,,,,,
,,?,0.00115,0,,,,,,stimuli/images/PICTURE_33.png,FRIEND,5e5e86c4a234251abddcd29d,01/04/1951,2020-07-09_21h10.12.479,proactive,2020.1.2,MacIntel,60,5f073de81c76c3308c0e4fb3,5f07799129c3d8398306f949,6,,,,,,frame,,,,,,,,,,,1,1,0,48,48,8,1,,,,,,,,,,,,,,,,,,,,,,,,,,,,,,,,,,,,,,,,,,,,,,,,,,,,,,,,,,,,,,,,,,,,,,
,,?,0.000685,0,,,,,,stimuli/images/PICTURE_564.png,BATH,5e5e86c4a234251abddcd29d,01/04/1951,2020-07-09_21h10.12.479,proactive,2020.1.2,MacIntel,60,5f073de81c76c3308c0e4fb3,5f07799129c3d8398306f949,6,,,,,,spoon,,,,,,,,,,,3,1,0,49,49,26,1,,,,,,,,,,,,,,,,,,,,,,,,,,,,,,,,,,,,,,,,,,,,,,,,,,,,,,,,,,,,,,,,,,,,,,
,,?,0.00068,0,,,,,,stimuli/images/PICTURE_208.png,SYSTEM,5e5e86c4a234251abddcd29d,01/04/1951,2020-07-09_21h10.12.479,proactive,2020.1.2,MacIntel,60,5f073de81c76c3308c0e4fb3,5f07799129c3d8398306f949,6,,,,,,microphone,,,,,,,,,,,4,1,0,50,50,32,1,,,,,,,,,,,,,,,,,,,,,,,,,,,,,,,,,,,,,,,,,,,,,,,,,,,,,,,,,,,,,,,,,,,,,,
,,?,0.00048,0,,,,,,stimuli/images/PICTURE_403.png,WRITER,5e5e86c4a234251abddcd29d,01/04/1951,2020-07-09_21h10.12.479,proactive,2020.1.2,MacIntel,60,5f073de81c76c3308c0e4fb3,5f07799129c3d8398306f949,6,,,,,,cathedral,,,,,,,,,,,4,1,0,51,51,31,1,,,,,,,,,,,,,,,,,,,,,,,,,,,,,,,,,,,,,,,,,,,,,,,,,,,,,,,,,,,,,,,,,,,,,,
,,?,0.000495,0,,,,,,stimuli/images/PICTURE_449.png,DUDE,5e5e86c4a234251abddcd29d,01/04/1951,2020-07-09_21h10.12.479,proactive,2020.1.2,MacIntel,60,5f073de81c76c3308c0e4fb3,5f07799129c3d8398306f949,6,,,,,,bench,,,,,,,,,,,2,1,0,52,52,17,1,,,,,,,,,,,,,,,,,,,,,,,,,,,,,,,,,,,,,,,,,,,,,,,,,,,,,,,,,,,,,,,,,,,,,,
,,LIVE,12.417875,0,,,,,,stimuli/images/PICTURE_296.png,LIFE,5e5e86c4a234251abddcd29d,01/04/1951,2020-07-09_21h10.12.479,proactive,2020.1.2,MacIntel,60,5f073de81c76c3308c0e4fb3,5f07799129c3d8398306f949,6,,,,,,bolt,,,,,,,,,,,6,1,0,53,53,57,1,,,,,,,,,,,,,,,,,,,,,,,,,,,,,,,,,,,,,,,,,,,,,,,,,,,,,,,,,,,,,,,,,,,,,,
,,?,0.001585,0,,,,,,stimuli/images/PICTURE_405.png,YEAR,5e5e86c4a234251abddcd29d,01/04/1951,2020-07-09_21h10.12.479,proactive,2020.1.2,MacIntel,60,5f073de81c76c3308c0e4fb3,5f07799129c3d8398306f949,6,,,,,,anchor,,,,,,,,,,,4,1,0,54,54,34,1,,,,,,,,,,,,,,,,,,,,,,,,,,,,,,,,,,,,,,,,,,,,,,,,,,,,,,,,,,,,,,,,,,,,,,
,,?,0.001025,0,,,,,,stimuli/images/PICTURE_380.png,CANDY,5e5e86c4a234251abddcd29d,01/04/1951,2020-07-09_21h10.12.479,proactive,2020.1.2,MacIntel,60,5f073de81c76c3308c0e4fb3,5f07799129c3d8398306f949,6,,,,,,gorilla,,,,,,,,,,,1,1,0,55,55,0,1,,,,,,,,,,,,,,,,,,,,,,,,,,,,,,,,,,,,,,,,,,,,,,,,,,,,,,,,,,,,,,,,,,,,,,
,,?,0.001035,0,,,,,,stimuli/images/PICTURE_177.png,WRITER,5e5e86c4a234251abddcd29d,01/04/1951,2020-07-09_21h10.12.479,proactive,2020.1.2,MacIntel,60,5f073de81c76c3308c0e4fb3,5f07799129c3d8398306f949,6,,,,,,mushroom,,,,,,,,,,,5,1,0,56,56,41,1,,,,,,,,,,,,,,,,,,,,,,,,,,,,,,,,,,,,,,,,,,,,,,,,,,,,,,,,,,,,,,,,,,,,,,
,,?,0.000725,0,,,,,,stimuli/images/PICTURE_2.png,FLIGHT,5e5e86c4a234251abddcd29d,01/04/1951,2020-07-09_21h10.12.479,proactive,2020.1.2,MacIntel,60,5f073de81c76c3308c0e4fb3,5f07799129c3d8398306f949,6,,,,,,tyre,,,,,,,,,,,2,1,0,57,57,15,1,,,,,,,,,,,,,,,,,,,,,,,,,,,,,,,,,,,,,,,,,,,,,,,,,,,,,,,,,,,,,,,,,,,,,,
,,HOLIDAY,3.83663,0,,,,,,stimuli/images/PICTURE_108.png,FLIGHT,5e5e86c4a234251abddcd29d,01/04/1951,2020-07-09_21h10.12.479,proactive,2020.1.2,MacIntel,60,5f073de81c76c3308c0e4fb3,5f07799129c3d8398306f949,6,,,,,,calendar,,,,,,,,,,,6,1,0,58,58,59,1,,,,,,,,,,,,,,,,,,,,,,,,,,,,,,,,,,,,,,,,,,,,,,,,,,,,,,,,,,,,,,,,,,,,,,
,,?,0.0014,0,,,,,,stimuli/images/PICTURE_685.png,PENNY,5e5e86c4a234251abddcd29d,01/04/1951,2020-07-09_21h10.12.479,proactive,2020.1.2,MacIntel,60,5f073de81c76c3308c0e4fb3,5f07799129c3d8398306f949,6,,,,,,goose,,,,,,,,,,,1,1,0,59,59,4,1,,,,,,,,,,,,,,,,,,,,,,,,,,,,,,,,,,,,,,,,,,,,,,,,,,,,,,,,,,,,,,,,,,,,,,
,,,,,,,,,,,,5e5e86c4a234251abddcd29d,01/04/1951,2020-07-09_21h10.12.479,proactive,2020.1.2,MacIntel,60,5f073de81c76c3308c0e4fb3,5f07799129c3d8398306f949,6,,,,,,,,,,,,,,,,,,,,,,,,0,1,1,1,1,stimuli/learn-block2.csv,,,,,,,,,,,,,,,,,,,,,,,,,,,,,,,,,,,,,,,,,,,,,,,,,,,,,,,,,,,,,,,,
,,,,,,,,,,stimuli/images/PICTURE_509.png,MILLER,5e5e86c4a234251abddcd29d,01/04/1951,2020-07-09_21h10.12.479,proactive,2020.1.2,MacIntel,60,5f073de81c76c3308c0e4fb3,5f07799129c3d8398306f949,6,,,,,,telephone,,,,,,0,0,0,49,1,5,2,,,,,,,,,,,,,,,,,,,,,,,,,,,,,,,,,,,,,,,,,,,,,,,,,,,,,,,,,,,,,,,,,,,,,,,,,,,
,,,,,,,,,,stimuli/images/PICTURE_504.png,HOUSE,5e5e86c4a234251abddcd29d,01/04/1951,2020-07-09_21h10.12.479,proactive,2020.1.2,MacIntel,60,5f073de81c76c3308c0e4fb3,5f07799129c3d8398306f949,6,,,,,,wheel,,,,,,0,1,1,36,1,4,2,,,,,,,,,,,,,,,,,,,,,,,,,,,,,,,,,,,,,,,,,,,,,,,,,,,,,,,,,,,,,,,,,,,,,,,,,,,
,,,,,,,,,,stimuli/images/PICTURE_215.png,BOYS,5e5e86c4a234251abddcd29d,01/04/1951,2020-07-09_21h10.12.479,proactive,2020.1.2,MacIntel,60,5f073de81c76c3308c0e4fb3,5f07799129c3d8398306f949,6,,,,,,boot,,,,,,0,2,2,24,1,3,2,,,,,,,,,,,,,,,,,,,,,,,,,,,,,,,,,,,,,,,,,,,,,,,,,,,,,,,,,,,,,,,,,,,,,,,,,,,
,,,,,,,,,,stimuli/images/PICTURE_32.png,LETTER,5e5e86c4a234251abddcd29d,01/04/1951,2020-07-09_21h10.12.479,proactive,2020.1.2,MacIntel,60,5f073de81c76c3308c0e4fb3,5f07799129c3d8398306f949,6,,,,,,crown,,,,,,0,3,3,56,1,6,2,,,,,,,,,,,,,,,,,,,,,,,,,,,,,,,,,,,,,,,,,,,,,,,,,,,,,,,,,,,,,,,,,,,,,,,,,,,
,,,,,,,,,,stimuli/images/PICTURE_470.png,BEAUTY,5e5e86c4a234251abddcd29d,01/04/1951,2020-07-09_21h10.12.479,proactive,2020.1.2,MacIntel,60,5f073de81c76c3308c0e4fb3,5f07799129c3d8398306f949,6,,,,,,motorbike,,,,,,0,4,4,26,1,3,2,,,,,,,,,,,,,,,,,,,,,,,,,,,,,,,,,,,,,,,,,,,,,,,,,,,,,,,,,,,,,,,,,,,,,,,,,,,
,,,,,,,,,,stimuli/images/PICTURE_68.png,KIND,5e5e86c4a234251abddcd29d,01/04/1951,2020-07-09_21h10.12.479,proactive,2020.1.2,MacIntel,60,5f073de81c76c3308c0e4fb3,5f07799129c3d8398306f949,6,,,,,,candle,,,,,,0,5,5,23,1,3,2,,,,,,,,,,,,,,,,,,,,,,,,,,,,,,,,,,,,,,,,,,,,,,,,,,,,,,,,,,,,,,,,,,,,,,,,,,,
,,,,,,,,,,stimuli/images/PICTURE_327.png,LEADER,5e5e86c4a234251abddcd29d,01/04/1951,2020-07-09_21h10.12.479,proactive,2020.1.2,MacIntel,60,5f073de81c76c3308c0e4fb3,5f07799129c3d8398306f949,6,,,,,,helmet,,,,,,0,6,6,17,1,2,2,,,,,,,,,,,,,,,,,,,,,,,,,,,,,,,,,,,,,,,,,,,,,,,,,,,,,,,,,,,,,,,,,,,,,,,,,,,
,,,,,,,,,,stimuli/images/PICTURE_452.png,COPS,5e5e86c4a234251abddcd29d,01/04/1951,2020-07-09_21h10.12.479,proactive,2020.1.2,MacIntel,60,5f073de81c76c3308c0e4fb3,5f07799129c3d8398306f949,6,,,,,,watch,,,,,,0,7,7,0,1,1,2,,,,,,,,,,,,,,,,,,,,,,,,,,,,,,,,,,,,,,,,,,,,,,,,,,,,,,,,,,,,,,,,,,,,,,,,,,,
,,,,,,,,,,stimuli/images/PICTURE_311.png,FLESH,5e5e86c4a234251abddcd29d,01/04/1951,2020-07-09_21h10.12.479,proactive,2020.1.2,MacIntel,60,5f073de81c76c3308c0e4fb3,5f07799129c3d8398306f949,6,,,,,,razor,,,,,,0,8,8,3,1,1,2,,,,,,,,,,,,,,,,,,,,,,,,,,,,,,,,,,,,,,,,,,,,,,,,,,,,,,,,,,,,,,,,,,,,,,,,,,,
,,,,,,,,,,stimuli/images/PICTURE_677.png,FAMILY,5e5e86c4a234251abddcd29d,01/04/1951,2020-07-09_21h10.12.479,proactive,2020.1.2,MacIntel,60,5f073de81c76c3308c0e4fb3,5f07799129c3d8398306f949,6,,,,,,map,,,,,,0,9,9,53,1,6,2,,,,,,,,,,,,,,,,,,,,,,,,,,,,,,,,,,,,,,,,,,,,,,,,,,,,,,,,,,,,,,,,,,,,,,,,,,,
,,,,,,,,,,stimuli/images/PICTURE_2.png,AREA,5e5e86c4a234251abddcd29d,01/04/1951,2020-07-09_21h10.12.479,proactive,2020.1.2,MacIntel,60,5f073de81c76c3308c0e4fb3,5f07799129c3d8398306f949,6,,,,,,tyre,,,,,,0,10,10,32,1,4,2,,,,,,,,,,,,,,,,,,,,,,,,,,,,,,,,,,,,,,,,,,,,,,,,,,,,,,,,,,,,,,,,,,,,,,,,,,,
,,,,,,,,,,stimuli/images/PICTURE_667.png,GLASS,5e5e86c4a234251abddcd29d,01/04/1951,2020-07-09_21h10.12.479,proactive,2020.1.2,MacIntel,60,5f073de81c76c3308c0e4fb3,5f07799129c3d8398306f949,6,,,,,,daisy,,,,,,0,11,11,27,1,3,2,,,,,,,,,,,,,,,,,,,,,,,,,,,,,,,,,,,,,,,,,,,,,,,,,,,,,,,,,,,,,,,,,,,,,,,,,,,
,,,,,,,,,,stimuli/images/PICTURE_18.png,RIVER,5e5e86c4a234251abddcd29d,01/04/1951,2020-07-09_21h10.12.479,proactive,2020.1.2,MacIntel,60,5f073de81c76c3308c0e4fb3,5f07799129c3d8398306f949,6,,,,,,planet,,,,,,0,12,12,22,1,3,2,,,,,,,,,,,,,,,,,,,,,,,,,,,,,,,,,,,,,,,,,,,,,,,,,,,,,,,,,,,,,,,,,,,,,,,,,,,
,,,,,,,,,,stimuli/images/PICTURE_487.png,ROOF,5e5e86c4a234251abddcd29d,01/04/1951,2020-07-09_21h10.12.479,proactive,2020.1.2,MacIntel,60,5f073de81c76c3308c0e4fb3,5f07799129c3d8398306f949,6,,,,,,basket,,,,,,0,13,13,50,1,6,2,,,,,,,,,,,,,,,,,,,,,,,,,,,,,,,,,,,,,,,,,,,,,,,,,,,,,,,,,,,,,,,,,,,,,,,,,,,
,,,,,,,,,,stimuli/images/PICTURE_564.png,PLENTY,5e5e86c4a234251abddcd29d,01/04/1951,2020-07-09_21h10.12.479,proactive,2020.1.2,MacIntel,60,5f073de81c76c3308c0e4fb3,5f07799129c3d8398306f949,6,,,,,,spoon,,,,,,0,14,14,11,1,2,2,,,,,,,,,,,,,,,,,,,,,,,,,,,,,,,,,,,,,,,,,,,,,,,,,,,,,,,,,,,,,,,,,,,,,,,,,,,
,,,,,,,,,,stimuli/images/PICTURE_509.png,SHOTS,5e5e86c4a234251abddcd29d,01/04/1951,2020-07-09_21h10.12.479,proactive,2020.1.2,MacIntel,60,5f073de81c76c3308c0e4fb3,5f07799129c3d8398306f949,6,,,,,,telephone,,,,,,0,15,15,7,1,1,2,,,,,,,,,,,,,,,,,,,,,,,,,,,,,,,,,,,,,,,,,,,,,,,,,,,,,,,,,,,,,,,,,,,,,,,,,,,
,,,,,,,,,,stimuli/images/PICTURE_208.png,SPIRIT,5e5e86c4a234251abddcd29d,01/04/1951,2020-07-09_21h10.12.479,proactive,2020.1.2,MacIntel,60,5f073de81c76c3308c0e4fb3,5f07799129c3d8398306f949,6,,,,,,microphone,,,,,,0,16,16,28,1,3,2,,,,,,,,,,,,,,,,,,,,,,,,,,,,,,,,,,,,,,,,,,,,,,,,,,,,,,,,,,,,,,,,,,,,,,,,,,,
,,,,,,,,,,stimuli/images/PICTURE_403.png,FAMILY,5e5e86c4a234251abddcd29d,01/04/1951,2020-07-09_21h10.12.479,proactive,2020.1.2,MacIntel,60,5f073de81c76c3308c0e4fb3,5f07799129c3d8398306f949,6,,,,,,cathedral,,,,,,0,17,17,9,1,1,2,,,,,,,,,,,,,,,,,,,,,,,,,,,,,,,,,,,,,,,,,,,,,,,,,,,,,,,,,,,,,,,,,,,,,,,,,,,
,,,,,,,,,,stimuli/images/PICTURE_654.png,YEAR,5e5e86c4a234251abddcd29d,01/04/1951,2020-07-09_21h10.12.479,proactive,2020.1.2,MacIntel,60,5f073de81c76c3308c0e4fb3,5f07799129c3d8398306f949,6,,,,,,pencil,,,,,,0,18,18,41,1,5,2,,,,,,,,,,,,,,,,,,,,,,,,,,,,,,,,,,,,,,,,,,,,,,,,,,,,,,,,,,,,,,,,,,,,,,,,,,,
,,,,,,,,,,stimuli/images/PICTURE_677.png,PHOTO,5e5e86c4a234251abddcd29d,01/04/1951,2020-07-09_21h10.12.479,proactive,2020.1.2,MacIntel,60,5f073de81c76c3308c0e4fb3,5f07799129c3d8398306f949,6,,,,,,map,,,,,,0,19,19,14,1,2,2,,,,,,,,,,,,,,,,,,,,,,,,,,,,,,,,,,,,,,,,,,,,,,,,,,,,,,,,,,,,,,,,,,,,,,,,,,,
,,,,,,,,,,stimuli/images/PICTURE_57.png,CASINO,5e5e86c4a234251abddcd29d,01/04/1951,2020-07-09_21h10.12.479,proactive,2020.1.2,MacIntel,60,5f073de81c76c3308c0e4fb3,5f07799129c3d8398306f949,6,,,,,,stamp,,,,,,0,20,20,12,1,2,2,,,,,,,,,,,,,,,,,,,,,,,,,,,,,,,,,,,,,,,,,,,,,,,,,,,,,,,,,,,,,,,,,,,,,,,,,,,
,,,,,,,,,,stimuli/images/PICTURE_348.png,DUDE,5e5e86c4a234251abddcd29d,01/04/1951,2020-07-09_21h10.12.479,proactive,2020.1.2,MacIntel,60,5f073de81c76c3308c0e4fb3,5f07799129c3d8398306f949,6,,,,,,pepper,,,,,,0,21,21,59,1,6,2,,,,,,,,,,,,,,,,,,,,,,,,,,,,,,,,,,,,,,,,,,,,,,,,,,,,,,,,,,,,,,,,,,,,,,,,,,,
,,,,,,,,,,stimuli/images/PICTURE_405.png,HOUSE,5e5e86c4a234251abddcd29d,01/04/1951,2020-07-09_21h10.12.479,proactive,2020.1.2,MacIntel,60,5f073de81c76c3308c0e4fb3,5f07799129c3d8398306f949,6,,,,,,anchor,,,,,,0,22,22,2,1,1,2,,,,,,,,,,,,,,,,,,,,,,,,,,,,,,,,,,,,,,,,,,,,,,,,,,,,,,,,,,,,,,,,,,,,,,,,,,,
,,,,,,,,,,stimuli/images/PICTURE_348.png,TOILET,5e5e86c4a234251abddcd29d,01/04/1951,2020-07-09_21h10.12.479,proactive,2020.1.2,MacIntel,60,5f073de81c76c3308c0e4fb3,5f07799129c3d8398306f949,6,,,,,,pepper,,,,,,0,23,23,4,1,1,2,,,,,,,,,,,,,,,,,,,,,,,,,,,,,,,,,,,,,,,,,,,,,,,,,,,,,,,,,,,,,,,,,,,,,,,,,,,
,,,,,,,,,,stimuli/images/PICTURE_285.png,WRITER,5e5e86c4a234251abddcd29d,01/04/1951,2020-07-09_21h10.12.479,proactive,2020.1.2,MacIntel,60,5f073de81c76c3308c0e4fb3,5f07799129c3d8398306f949,6,,,,,,carrot,,,,,,0,24,24,6,1,1,2,,,,,,,,,,,,,,,,,,,,,,,,,,,,,,,,,,,,,,,,,,,,,,,,,,,,,,,,,,,,,,,,,,,,,,,,,,,
,,,,,,,,,,stimuli/images/PICTURE_177.png,HOUSE,5e5e86c4a234251abddcd29d,01/04/1951,2020-07-09_21h10.12.479,proactive,2020.1.2,MacIntel,60,5f073de81c76c3308c0e4fb3,5f07799129c3d8398306f949,6,,,,,,mushroom,,,,,,0,25,25,25,1,3,2,,,,,,,,,,,,,,,,,,,,,,,,,,,,,,,,,,,,,,,,,,,,,,,,,,,,,,,,,,,,,,,,,,,,,,,,,,,
,,,,,,,,,,stimuli/images/PICTURE_750.png,POLICY,5e5e86c4a234251abddcd29d,01/04/1951,2020-07-09_21h10.12.479,proactive,2020.1.2,MacIntel,60,5f073de81c76c3308c0e4fb3,5f07799129c3d8398306f949,6,,,,,,kettle,,,,,,0,26,26,44,1,5,2,,,,,,,,,,,,,,,,,,,,,,,,,,,,,,,,,,,,,,,,,,,,,,,,,,,,,,,,,,,,,,,,,,,,,,,,,,,
,,,,,,,,,,stimuli/images/PICTURE_215.png,FOOD,5e5e86c4a234251abddcd29d,01/04/1951,2020-07-09_21h10.12.479,proactive,2020.1.2,MacIntel,60,5f073de81c76c3308c0e4fb3,5f07799129c3d8398306f949,6,,,,,,boot,,,,,,0,27,27,5,1,1,2,,,,,,,,,,,,,,,,,,,,,,,,,,,,,,,,,,,,,,,,,,,,,,,,,,,,,,,,,,,,,,,,,,,,,,,,,,,
,,,,,,,,,,stimuli/images/PICTURE_215.png,LEADER,5e5e86c4a234251abddcd29d,01/04/1951,2020-07-09_21h10.12.479,proactive,2020.1.2,MacIntel,60,5f073de81c76c3308c0e4fb3,5f07799129c3d8398306f949,6,,,,,,boot,,,,,,0,28,28,43,1,5,2,,,,,,,,,,,,,,,,,,,,,,,,,,,,,,,,,,,,,,,,,,,,,,,,,,,,,,,,,,,,,,,,,,,,,,,,,,,
,,,,,,,,,,stimuli/images/PICTURE_255.png,PENNY,5e5e86c4a234251abddcd29d,01/04/1951,2020-07-09_21h10.12.479,proactive,2020.1.2,MacIntel,60,5f073de81c76c3308c0e4fb3,5f07799129c3d8398306f949,6,,,,,,shovel,,,,,,0,29,29,19,1,2,2,,,,,,,,,,,,,,,,,,,,,,,,,,,,,,,,,,,,,,,,,,,,,,,,,,,,,,,,,,,,,,,,,,,,,,,,,,,
,,,,,,,,,,stimuli/images/PICTURE_57.png,CANDY,5e5e86c4a234251abddcd29d,01/04/1951,2020-07-09_21h10.12.479,proactive,2020.1.2,MacIntel,60,5f073de81c76c3308c0e4fb3,5f07799129c3d8398306f949,6,,,,,,stamp,,,,,,0,30,30,52,1,6,2,,,,,,,,,,,,,,,,,,,,,,,,,,,,,,,,,,,,,,,,,,,,,,,,,,,,,,,,,,,,,,,,,,,,,,,,,,,
,,,,,,,,,,stimuli/images/PICTURE_688.png,CLOCK,5e5e86c4a234251abddcd29d,01/04/1951,2020-07-09_21h10.12.479,proactive,2020.1.2,MacIntel,60,5f073de81c76c3308c0e4fb3,5f07799129c3d8398306f949,6,,,,,,runner,,,,,,0,31,31,42,1,5,2,,,,,,,,,,,,,,,,,,,,,,,,,,,,,,,,,,,,,,,,,,,,,,,,,,,,,,,,,,,,,,,,,,,,,,,,,,,
,,,,,,,,,,stimuli/images/PICTURE_296.png,CLOCK,5e5e86c4a234251abddcd29d,01/04/1951,2020-07-09_21h10.12.479,proactive,2020.1.2,MacIntel,60,5f073de81c76c3308c0e4fb3,5f07799129c3d8398306f949,6,,,,,,bolt,,,,,,0,32,32,18,1,2,2,,,,,,,,,,,,,,,,,,,,,,,,,,,,,,,,,,,,,,,,,,,,,,,,,,,,,,,,,,,,,,,,,,,,,,,,,,,
,,,,,,,,,,stimuli/images/PICTURE_692.png,DUDE,5e5e86c4a234251abddcd29d,01/04/1951,2020-07-09_21h10.12.479,proactive,2020.1.2,MacIntel,60,5f073de81c76c3308c0e4fb3,5f07799129c3d8398306f949,6,,,,,,cherry,,,,,,0,33,33,47,1,5,2,,,,,,,,,,,,,,,,,,,,,,,,,,,,,,,,,,,,,,,,,,,,,,,,,,,,,,,,,,,,,,,,,,,,,,,,,,,
,,,,,,,,,,stimuli/images/PICTURE_2.png,YARD,5e5e86c4a234251abddcd29d,01/04/1951,2020-07-09_21h10.12.479,proactive,2020.1.2,MacIntel,60,5f073de81c76c3308c0e4fb3,5f07799129c3d8398306f949,6,,,,,,tyre,,,,,,0,34,34,55,1,6,2,,,,,,,,,,,,,,,,,,,,,,,,,,,,,,,,,,,,,,,,,,,,,,,,,,,,,,,,,,,,,,,,,,,,,,,,,,,
,,,,,,,,,,stimuli/images/PICTURE_33.png,COPS,5e5e86c4a234251abddcd29d,01/04/1951,2020-07-09_21h10.12.479,proactive,2020.1.2,MacIntel,60,5f073de81c76c3308c0e4fb3,5f07799129c3d8398306f949,6,,,,,,frame,,,,,,0,35,35,29,1,3,2,,,,,,,,,,,,,,,,,,,,,,,,,,,,,,,,,,,,,,,,,,,,,,,,,,,,,,,,,,,,,,,,,,,,,,,,,,,
,,,,,,,,,,stimuli/images/PICTURE_470.png,MOMENT,5e5e86c4a234251abddcd29d,01/04/1951,2020-07-09_21h10.12.479,proactive,2020.1.2,MacIntel,60,5f073de81c76c3308c0e4fb3,5f07799129c3d8398306f949,6,,,,,,motorbike,,,,,,0,36,36,40,1,5,2,,,,,,,,,,,,,,,,,,,,,,,,,,,,,,,,,,,,,,,,,,,,,,,,,,,,,,,,,,,,,,,,,,,,,,,,,,,
,,,,,,,,,,stimuli/images/PICTURE_453.png,FAMILY,5e5e86c4a234251abddcd29d,01/04/1951,2020-07-09_21h10.12.479,proactive,2020.1.2,MacIntel,60,5f073de81c76c3308c0e4fb3,5f07799129c3d8398306f949,6,,,,,,scissors,,,,,,0,37,37,48,1,5,2,,,,,,,,,,,,,,,,,,,,,,,,,,,,,,,,,,,,,,,,,,,,,,,,,,,,,,,,,,,,,,,,,,,,,,,,,,,
,,,,,,,,,,stimuli/images/PICTURE_491.png,SERIES,5e5e86c4a234251abddcd29d,01/04/1951,2020-07-09_21h10.12.479,proactive,2020.1.2,MacIntel,60,5f073de81c76c3308c0e4fb3,5f07799129c3d8398306f949,6,,,,,,rug,,,,,,0,38,38,39,1,4,2,,,,,,,,,,,,,,,,,,,,,,,,,,,,,,,,,,,,,,,,,,,,,,,,,,,,,,,,,,,,,,,,,,,,,,,,,,,
,,,,,,,,,,stimuli/images/PICTURE_487.png,POLICY,5e5e86c4a234251abddcd29d,01/04/1951,2020-07-09_21h10.12.479,proactive,2020.1.2,MacIntel,60,5f073de81c76c3308c0e4fb3,5f07799129c3d8398306f949,6,,,,,,basket,,,,,,0,39,39,34,1,4,2,,,,,,,,,,,,,,,,,,,,,,,,,,,,,,,,,,,,,,,,,,,,,,,,,,,,,,,,,,,,,,,,,,,,,,,,,,,
,,,,,,,,,,stimuli/images/PICTURE_160.png,HOTEL,5e5e86c4a234251abddcd29d,01/04/1951,2020-07-09_21h10.12.479,proactive,2020.1.2,MacIntel,60,5f073de81c76c3308c0e4fb3,5f07799129c3d8398306f949,6,,,,,,wheelbarrow,,,,,,0,40,40,16,1,2,2,,,,,,,,,,,,,,,,,,,,,,,,,,,,,,,,,,,,,,,,,,,,,,,,,,,,,,,,,,,,,,,,,,,,,,,,,,,
,,,,,,,,,,stimuli/images/PICTURE_405.png,JUNGLE,5e5e86c4a234251abddcd29d,01/04/1951,2020-07-09_21h10.12.479,proactive,2020.1.2,MacIntel,60,5f073de81c76c3308c0e4fb3,5f07799129c3d8398306f949,6,,,,,,anchor,,,,,,0,41,41,13,1,2,2,,,,,,,,,,,,,,,,,,,,,,,,,,,,,,,,,,,,,,,,,,,,,,,,,,,,,,,,,,,,,,,,,,,,,,,,,,,
,,,,,,,,,,stimuli/images/PICTURE_356.png,CANDY,5e5e86c4a234251abddcd29d,01/04/1951,2020-07-09_21h10.12.479,proactive,2020.1.2,MacIntel,60,5f073de81c76c3308c0e4fb3,5f07799129c3d8398306f949,6,,,,,,pawn,,,,,,0,42,42,46,1,5,2,,,,,,,,,,,,,,,,,,,,,,,,,,,,,,,,,,,,,,,,,,,,,,,,,,,,,,,,,,,,,,,,,,,,,,,,,,,
,,,,,,,,,,stimuli/images/PICTURE_654.png,COPS,5e5e86c4a234251abddcd29d,01/04/1951,2020-07-09_21h10.12.479,proactive,2020.1.2,MacIntel,60,5f073de81c76c3308c0e4fb3,5f07799129c3d8398306f949,6,,,,,,pencil,,,,,,0,43,43,10,1,2,2,,,,,,,,,,,,,,,,,,,,,,,,,,,,,,,,,,,,,,,,,,,,,,,,,,,,,,,,,,,,,,,,,,,,,,,,,,,
,,,,,,,,,,stimuli/images/PICTURE_405.png,JUNGLE,5e5e86c4a234251abddcd29d,01/04/1951,2020-07-09_21h10.12.479,proactive,2020.1.2,MacIntel,60,5f073de81c76c3308c0e4fb3,5f07799129c3d8398306f949,6,,,,,,anchor,,,,,,0,44,44,58,1,6,2,,,,,,,,,,,,,,,,,,,,,,,,,,,,,,,,,,,,,,,,,,,,,,,,,,,,,,,,,,,,,,,,,,,,,,,,,,,
,,,,,,,,,,stimuli/images/PICTURE_57.png,NATION,5e5e86c4a234251abddcd29d,01/04/1951,2020-07-09_21h10.12.479,proactive,2020.1.2,MacIntel,60,5f073de81c76c3308c0e4fb3,5f07799129c3d8398306f949,6,,,,,,stamp,,,,,,0,45,45,21,1,3,2,,,,,,,,,,,,,,,,,,,,,,,,,,,,,,,,,,,,,,,,,,,,,,,,,,,,,,,,,,,,,,,,,,,,,,,,,,,
,,,,,,,,,,stimuli/images/PICTURE_147.png,LEADER,5e5e86c4a234251abddcd29d,01/04/1951,2020-07-09_21h10.12.479,proactive,2020.1.2,MacIntel,60,5f073de81c76c3308c0e4fb3,5f07799129c3d8398306f949,6,,,,,,hanger,,,,,,0,46,46,33,1,4,2,,,,,,,,,,,,,,,,,,,,,,,,,,,,,,,,,,,,,,,,,,,,,,,,,,,,,,,,,,,,,,,,,,,,,,,,,,,
,,,,,,,,,,stimuli/images/PICTURE_314.png,SPEECH,5e5e86c4a234251abddcd29d,01/04/1951,2020-07-09_21h10.12.479,proactive,2020.1.2,MacIntel,60,5f073de81c76c3308c0e4fb3,5f07799129c3d8398306f949,6,,,,,,perfume,,,,,,0,47,47,35,1,4,2,,,,,,,,,,,,,,,,,,,,,,,,,,,,,,,,,,,,,,,,,,,,,,,,,,,,,,,,,,,,,,,,,,,,,,,,,,,
,,,,,,,,,,stimuli/images/PICTURE_655.png,SALE,5e5e86c4a234251abddcd29d,01/04/1951,2020-07-09_21h10.12.479,proactive,2020.1.2,MacIntel,60,5f073de81c76c3308c0e4fb3,5f07799129c3d8398306f949,6,,,,,,megaphone,,,,,,0,48,48,57,1,6,2,,,,,,,,,,,,,,,,,,,,,,,,,,,,,,,,,,,,,,,,,,,,,,,,,,,,,,,,,,,,,,,,,,,,,,,,,,,
,,,,,,,,,,stimuli/images/PICTURE_311.png,TOILET,5e5e86c4a234251abddcd29d,01/04/1951,2020-07-09_21h10.12.479,proactive,2020.1.2,MacIntel,60,5f073de81c76c3308c0e4fb3,5f07799129c3d8398306f949,6,,,,,,razor,,,,,,0,49,49,54,1,6,2,,,,,,,,,,,,,,,,,,,,,,,,,,,,,,,,,,,,,,,,,,,,,,,,,,,,,,,,,,,,,,,,,,,,,,,,,,,
,,,,,,,,,,stimuli/images/PICTURE_141.png,CLIENT,5e5e86c4a234251abddcd29d,01/04/1951,2020-07-09_21h10.12.479,proactive,2020.1.2,MacIntel,60,5f073de81c76c3308c0e4fb3,5f07799129c3d8398306f949,6,,,,,,sunflower,,,,,,0,50,50,30,1,4,2,,,,,,,,,,,,,,,,,,,,,,,,,,,,,,,,,,,,,,,,,,,,,,,,,,,,,,,,,,,,,,,,,,,,,,,,,,,
,,,,,,,,,,stimuli/images/PICTURE_93.png,GIRL,5e5e86c4a234251abddcd29d,01/04/1951,2020-07-09_21h10.12.479,proactive,2020.1.2,MacIntel,60,5f073de81c76c3308c0e4fb3,5f07799129c3d8398306f949,6,,,,,,skateboard,,,,,,0,51,51,31,1,4,2,,,,,,,,,,,,,,,,,,,,,,,,,,,,,,,,,,,,,,,,,,,,,,,,,,,,,,,,,,,,,,,,,,,,,,,,,,,
,,,,,,,,,,stimuli/images/PICTURE_708.png,VALLEY,5e5e86c4a234251abddcd29d,01/04/1951,2020-07-09_21h10.12.479,proactive,2020.1.2,MacIntel,60,5f073de81c76c3308c0e4fb3,5f07799129c3d8398306f949,6,,,,,,monkey,,,,,,0,52,52,45,1,5,2,,,,,,,,,,,,,,,,,,,,,,,,,,,,,,,,,,,,,,,,,,,,,,,,,,,,,,,,,,,,,,,,,,,,,,,,,,,
,,,,,,,,,,stimuli/images/PICTURE_285.png,PRINCE,5e5e86c4a234251abddcd29d,01/04/1951,2020-07-09_21h10.12.479,proactive,2020.1.2,MacIntel,60,5f073de81c76c3308c0e4fb3,5f07799129c3d8398306f949,6,,,,,,carrot,,,,,,0,53,53,20,1,3,2,,,,,,,,,,,,,,,,,,,,,,,,,,,,,,,,,,,,,,,,,,,,,,,,,,,,,,,,,,,,,,,,,,,,,,,,,,,
,,,,,,,,,,stimuli/images/PICTURE_95.png,NIGHT,5e5e86c4a234251abddcd29d,01/04/1951,2020-07-09_21h10.12.479,proactive,2020.1.2,MacIntel,60,5f073de81c76c3308c0e4fb3,5f07799129c3d8398306f949,6,,,,,,suitcase,,,,,,0,54,54,37,1,4,2,,,,,,,,,,,,,,,,,,,,,,,,,,,,,,,,,,,,,,,,,,,,,,,,,,,,,,,,,,,,,,,,,,,,,,,,,,,
,,,,,,,,,,stimuli/images/PICTURE_297.png,BODY,5e5e86c4a234251abddcd29d,01/04/1951,2020-07-09_21h10.12.479,proactive,2020.1.2,MacIntel,60,5f073de81c76c3308c0e4fb3,5f07799129c3d8398306f949,6,,,,,,aeroplane,,,,,,0,55,55,51,1,6,2,,,,,,,,,,,,,,,,,,,,,,,,,,,,,,,,,,,,,,,,,,,,,,,,,,,,,,,,,,,,,,,,,,,,,,,,,,,
,,,,,,,,,,stimuli/images/PICTURE_509.png,APPLE,5e5e86c4a234251abddcd29d,01/04/1951,2020-07-09_21h10.12.479,proactive,2020.1.2,MacIntel,60,5f073de81c76c3308c0e4fb3,5f07799129c3d8398306f949,6,,,,,,telephone,,,,,,0,56,56,38,1,4,2,,,,,,,,,,,,,,,,,,,,,,,,,,,,,,,,,,,,,,,,,,,,,,,,,,,,,,,,,,,,,,,,,,,,,,,,,,,
,,,,,,,,,,stimuli/images/PICTURE_123.png,SALE,5e5e86c4a234251abddcd29d,01/04/1951,2020-07-09_21h10.12.479,proactive,2020.1.2,MacIntel,60,5f073de81c76c3308c0e4fb3,5f07799129c3d8398306f949,6,,,,,,dart,,,,,,0,57,57,8,1,1,2,,,,,,,,,,,,,,,,,,,,,,,,,,,,,,,,,,,,,,,,,,,,,,,,,,,,,,,,,,,,,,,,,,,,,,,,,,,
,,,,,,,,,,stimuli/images/PICTURE_509.png,BATH,5e5e86c4a234251abddcd29d,01/04/1951,2020-07-09_21h10.12.479,proactive,2020.1.2,MacIntel,60,5f073de81c76c3308c0e4fb3,5f07799129c3d8398306f949,6,,,,,,telephone,,,,,,0,58,58,15,1,2,2,,,,,,,,,,,,,,,,,,,,,,,,,,,,,,,,,,,,,,,,,,,,,,,,,,,,,,,,,,,,,,,,,,,,,,,,,,,
,,?,0.001795,0,,,,,,stimuli/images/PICTURE_509.png,SHOTS,5e5e86c4a234251abddcd29d,01/04/1951,2020-07-09_21h10.12.479,proactive,2020.1.2,MacIntel,60,5f073de81c76c3308c0e4fb3,5f07799129c3d8398306f949,6,,,,,,telephone,,,,,,,,,,,1,2,0,0,0,7,1,,,,,,,,,,,,,,,,,,,,,,,,,,,,,,,,,,,,,,,,,,,,,,,,,,,,,,,,,,,,,,,,,,,,,,
,,?,0.000575,0,,,,,,stimuli/images/PICTURE_147.png,LEADER,5e5e86c4a234251abddcd29d,01/04/1951,2020-07-09_21h10.12.479,proactive,2020.1.2,MacIntel,60,5f073de81c76c3308c0e4fb3,5f07799129c3d8398306f949,6,,,,,,hanger,,,,,,,,,,,4,2,0,1,1,33,1,,,,,,,,,,,,,,,,,,,,,,,,,,,,,,,,,,,,,,,,,,,,,,,,,,,,,,,,,,,,,,,,,,,,,,
,,?,0.00077,0,,,,,,stimuli/images/PICTURE_208.png,SPIRIT,5e5e86c4a234251abddcd29d,01/04/1951,2020-07-09_21h10.12.479,proactive,2020.1.2,MacIntel,60,5f073de81c76c3308c0e4fb3,5f07799129c3d8398306f949,6,,,,,,microphone,,,,,,,,,,,3,2,0,2,2,28,1,,,,,,,,,,,,,,,,,,,,,,,,,,,,,,,,,,,,,,,,,,,,,,,,,,,,,,,,,,,,,,,,,,,,,,
,,?,0.000565,0,,,,,,stimuli/images/PICTURE_68.png,KIND,5e5e86c4a234251abddcd29d,01/04/1951,2020-07-09_21h10.12.479,proactive,2020.1.2,MacIntel,60,5f073de81c76c3308c0e4fb3,5f07799129c3d8398306f949,6,,,,,,candle,,,,,,,,,,,3,2,0,3,3,23,1,,,,,,,,,,,,,,,,,,,,,,,,,,,,,,,,,,,,,,,,,,,,,,,,,,,,,,,,,,,,,,,,,,,,,,
,,?,0.000555,0,,,,,,stimuli/images/PICTURE_403.png,FAMILY,5e5e86c4a234251abddcd29d,01/04/1951,2020-07-09_21h10.12.479,proactive,2020.1.2,MacIntel,60,5f073de81c76c3308c0e4fb3,5f07799129c3d8398306f949,6,,,,,,cathedral,,,,,,,,,,,1,2,0,4,4,9,1,,,,,,,,,,,,,,,,,,,,,,,,,,,,,,,,,,,,,,,,,,,,,,,,,,,,,,,,,,,,,,,,,,,,,,
,,?,0.000625,0,,,,,,stimuli/images/PICTURE_509.png,APPLE,5e5e86c4a234251abddcd29d,01/04/1951,2020-07-09_21h10.12.479,proactive,2020.1.2,MacIntel,60,5f073de81c76c3308c0e4fb3,5f07799129c3d8398306f949,6,,,,,,telephone,,,,,,,,,,,4,2,0,5,5,38,1,,,,,,,,,,,,,,,,,,,,,,,,,,,,,,,,,,,,,,,,,,,,,,,,,,,,,,,,,,,,,,,,,,,,,,
,,?,0.000525,0,,,,,,stimuli/images/PICTURE_93.png,GIRL,5e5e86c4a234251abddcd29d,01/04/1951,2020-07-09_21h10.12.479,proactive,2020.1.2,MacIntel,60,5f073de81c76c3308c0e4fb3,5f07799129c3d8398306f949,6,,,,,,skateboard,,,,,,,,,,,4,2,0,6,6,31,1,,,,,,,,,,,,,,,,,,,,,,,,,,,,,,,,,,,,,,,,,,,,,,,,,,,,,,,,,,,,,,,,,,,,,,
,,BODY,4.28468,1,,,,,,stimuli/images/PICTURE_297.png,BODY,5e5e86c4a234251abddcd29d,01/04/1951,2020-07-09_21h10.12.479,proactive,2020.1.2,MacIntel,60,5f073de81c76c3308c0e4fb3,5f07799129c3d8398306f949,6,,,,,,aeroplane,,,,,,,,,,,6,2,0,7,7,51,1,,,,,,,,,,,,,,,,,,,,,,,,,,,,,,,,,,,,,,,,,,,,,,,,,,,,,,,,,,,,,,,,,,,,,,
,,SALE,6.247215,1,,,,,,stimuli/images/PICTURE_655.png,SALE,5e5e86c4a234251abddcd29d,01/04/1951,2020-07-09_21h10.12.479,proactive,2020.1.2,MacIntel,60,5f073de81c76c3308c0e4fb3,5f07799129c3d8398306f949,6,,,,,,megaphone,,,,,,,,,,,6,2,0,8,8,57,1,,,,,,,,,,,,,,,,,,,,,,,,,,,,,,,,,,,,,,,,,,,,,,,,,,,,,,,,,,,,,,,,,,,,,,
,,?,0.002815,0,,,,,,stimuli/images/PICTURE_708.png,VALLEY,5e5e86c4a234251abddcd29d,01/04/1951,2020-07-09_21h10.12.479,proactive,2020.1.2,MacIntel,60,5f073de81c76c3308c0e4fb3,5f07799129c3d8398306f949,6,,,,,,monkey,,,,,,,,,,,5,2,0,9,9,45,1,,,,,,,,,,,,,,,,,,,,,,,,,,,,,,,,,,,,,,,,,,,,,,,,,,,,,,,,,,,,,,,,,,,,,,
,,?,0.00108,0,,,,,,stimuli/images/PICTURE_688.png,CLOCK,5e5e86c4a234251abddcd29d,01/04/1951,2020-07-09_21h10.12.479,proactive,2020.1.2,MacIntel,60,5f073de81c76c3308c0e4fb3,5f07799129c3d8398306f949,6,,,,,,runner,,,,,,,,,,,5,2,0,10,10,42,1,,,,,,,,,,,,,,,,,,,,,,,,,,,,,,,,,,,,,,,,,,,,,,,,,,,,,,,,,,,,,,,,,,,,,,
,,?,0.00092,0,,,,,,stimuli/images/PICTURE_509.png,BATH,5e5e86c4a234251abddcd29d,01/04/1951,2020-07-09_21h10.12.479,proactive,2020.1.2,MacIntel,60,5f073de81c76c3308c0e4fb3,5f07799129c3d8398306f949,6,,,,,,telephone,,,,,,,,,,,2,2,0,11,11,15,1,,,,,,,,,,,,,,,,,,,,,,,,,,,,,,,,,,,,,,,,,,,,,,,,,,,,,,,,,,,,,,,,,,,,,,
,,?,0.0007,0,,,,,,stimuli/images/PICTURE_141.png,CLIENT,5e5e86c4a234251abddcd29d,01/04/1951,2020-07-09_21h10.12.479,proactive,2020.1.2,MacIntel,60,5f073de81c76c3308c0e4fb3,5f07799129c3d8398306f949,6,,,,,,sunflower,,,,,,,,,,,4,2,0,12,12,30,1,,,,,,,,,,,,,,,,,,,,,,,,,,,,,,,,,,,,,,,,,,,,,,,,,,,,,,,,,,,,,,,,,,,,,,
,,?,0.00064,0,,,,,,stimuli/images/PICTURE_215.png,BOYS,5e5e86c4a234251abddcd29d,01/04/1951,2020-07-09_21h10.12.479,proactive,2020.1.2,MacIntel,60,5f073de81c76c3308c0e4fb3,5f07799129c3d8398306f949,6,,,,,,boot,,,,,,,,,,,3,2,0,13,13,24,1,,,,,,,,,,,,,,,,,,,,,,,,,,,,,,,,,,,,,,,,,,,,,,,,,,,,,,,,,,,,,,,,,,,,,,
