consent_key.keys,consent_key.rt,recalled,recalled_rt,recall_acc,example_recall.thisRepN,example_recall.thisTrialN,example_recall.thisN,example_recall.thisIndex,example_recall.ran,file,word,participant,date,expName,psychopyVersion,OS,frameRate,STUDY_ID,SESSION_ID,list,prac_learn_study_loop.thisRepN,prac_learn_study_loop.thisTrialN,prac_learn_study_loop.thisN,prac_learn_study_loop.thisIndex,prac_learn_study_loop.ran,image,prac_learn_test_loop.thisRepN,prac_learn_test_loop.thisTrialN,prac_learn_test_loop.thisN,prac_learn_test_loop.thisIndex,prac_learn_test_loop.ran,learn_study_loop.thisRepN,learn_study_loop.thisTrialN,learn_study_loop.thisN,learn_study_loop.thisIndex,learn_study_loop.ran,list_no,block_no,learn_test_loop.thisRepN,learn_test_loop.thisTrialN,learn_test_loop.thisN,learn_test_loop.thisIndex,learn_test_loop.ran,learn_blocks.thisRepN,learn_blocks.thisTrialN,learn_blocks.thisN,learn_blocks.thisIndex,learn_blocks.ran,block_csv,key_resp_13.keys,key_resp_13.rt,learn_blocks_loop.thisRepN,learn_blocks_loop.thisTrialN,learn_blocks_loop.thisN,learn_blocks_loop.thisIndex,learn_blocks_loop.ran,final_learn_test.thisRepN,final_learn_test.thisTrialN,final_learn_test.thisN,final_learn_test.thisIndex,final_learn_test.ran,prac_wm_test_loop.thisRepN,prac_wm_test_loop.thisTrialN,prac_wm_test_loop.thisN,prac_wm_test_loop.thisIndex,prac_wm_test_loop.ran,wm_recalled1,wm_recall_rt1,wm_probed1,wm_recall_acc1,wm_recalled2,wm_recall_rt2,wm_probed2,wm_recall_acc2,wm_recalled3,wm_recall_rt3,wm_probed3,wm_recall_acc3,wm_recalled4,wm_recall_rt4,wm_probed4,wm_recall_acc4,prac_wm_trial_loop.thisRepN,prac_wm_trial_loop.thisTrialN,prac_wm_trial_loop.thisN,prac_wm_trial_loop.thisIndex,prac_wm_trial_loop.ran,word1,image1,file1,item_type1,word2,image2,file2,item_type2,word4,image4,file4,item_type4,word3,image3,file3,item_type3,wm_test_loop.thisRepN,wm_test_loop.thisTrialN,wm_test_loop.thisN,wm_test_loop.thisIndex,wm_test_loop.ran,wm_trial_loop.thisRepN,wm_trial_loop.thisTrialN,wm_trial_loop.thisN,wm_trial_loop.thisIndex,wm_trial_loop.ran
y,62.017805,TOUGH,2.74106,1,0,0,0,0,1,stimuli/images/PICTURE_747.png,TOUGH,5e8b3b6444fa88056eaae254,2020-06-30_19h54.12.009,proactive,2020.1.2,Win32,60,5efb791ed4cb570da489e737,5efb870df7a52c0ff0eee259,2,,,,,,,,,,,,,,,,,,,,,,,,,,,,,,,,,,,,,,,,,,,,,,,,,,,,,,,,,,,,,,,,,,,,,,,,,,,,,,,,,,,,,,,,,,,,,
,,,,,,,,,,stimuli/images/PICTURE_658.png,DEVIL,5e8b3b6444fa88056eaae254,2020-06-30_19h54.12.009,proactive,2020.1.2,Win32,60,5efb791ed4cb570da489e737,5efb870df7a52c0ff0eee259,2,0,0,0,3,1,crow,,,,,,,,,,,,,,,,,,,,,,,,,,,,,,,,,,,,,,,,,,,,,,,,,,,,,,,,,,,,,,,,,,,,,,,,,,,,,,,,,,,,,,,
,,,,,,,,,,stimuli/images/PICTURE_697.png,KILLER,5e8b3b6444fa88056eaae254,2020-06-30_19h54.12.009,proactive,2020.1.2,Win32,60,5efb791ed4cb570da489e737,5efb870df7a52c0ff0eee259,2,0,1,1,4,1,peach,,,,,,,,,,,,,,,,,,,,,,,,,,,,,,,,,,,,,,,,,,,,,,,,,,,,,,,,,,,,,,,,,,,,,,,,,,,,,,,,,,,,,,,
,,,,,,,,,,stimuli/images/PICTURE_727.png,CELL,5e8b3b6444fa88056eaae254,2020-06-30_19h54.12.009,proactive,2020.1.2,Win32,60,5efb791ed4cb570da489e737,5efb870df7a52c0ff0eee259,2,0,2,2,1,1,hose,,,,,,,,,,,,,,,,,,,,,,,,,,,,,,,,,,,,,,,,,,,,,,,,,,,,,,,,,,,,,,,,,,,,,,,,,,,,,,,,,,,,,,,
,,,,,,,,,,stimuli/images/PICTURE_269.png,GENIUS,5e8b3b6444fa88056eaae254,2020-06-30_19h54.12.009,proactive,2020.1.2,Win32,60,5efb791ed4cb570da489e737,5efb870df7a52c0ff0eee259,2,0,3,3,0,1,chameleon,,,,,,,,,,,,,,,,,,,,,,,,,,,,,,,,,,,,,,,,,,,,,,,,,,,,,,,,,,,,,,,,,,,,,,,,,,,,,,,,,,,,,,,
,,?,10.013015,0,,,,,,stimuli/images/PICTURE_727.png,CELL,5e8b3b6444fa88056eaae254,2020-06-30_19h54.12.009,proactive,2020.1.2,Win32,60,5efb791ed4cb570da489e737,5efb870df7a52c0ff0eee259,2,,,,,,hose,0,0,0,1,1,,,,,,,,,,,,,,,,,,,,,,,,,,,,,,,,,,,,,,,,,,,,,,,,,,,,,,,,,,,,,,,,,,,,,,,,,,,,,,,,,,
,,DEVIL,6.115135,1,,,,,,stimuli/images/PICTURE_658.png,DEVIL,5e8b3b6444fa88056eaae254,2020-06-30_19h54.12.009,proactive,2020.1.2,Win32,60,5efb791ed4cb570da489e737,5efb870df7a52c0ff0eee259,2,,,,,,crow,0,1,1,3,1,,,,,,,,,,,,,,,,,,,,,,,,,,,,,,,,,,,,,,,,,,,,,,,,,,,,,,,,,,,,,,,,,,,,,,,,,,,,,,,,,,
,,GENIUS,4.26474,1,,,,,,stimuli/images/PICTURE_269.png,GENIUS,5e8b3b6444fa88056eaae254,2020-06-30_19h54.12.009,proactive,2020.1.2,Win32,60,5efb791ed4cb570da489e737,5efb870df7a52c0ff0eee259,2,,,,,,chameleon,0,2,2,0,1,,,,,,,,,,,,,,,,,,,,,,,,,,,,,,,,,,,,,,,,,,,,,,,,,,,,,,,,,,,,,,,,,,,,,,,,,,,,,,,,,,
,,TOSS,5.565305,0,,,,,,stimuli/images/PICTURE_378.png,LOSS,5e8b3b6444fa88056eaae254,2020-06-30_19h54.12.009,proactive,2020.1.2,Win32,60,5efb791ed4cb570da489e737,5efb870df7a52c0ff0eee259,2,,,,,,lobster,0,3,3,2,1,,,,,,,,,,,,,,,,,,,,,,,,,,,,,,,,,,,,,,,,,,,,,,,,,,,,,,,,,,,,,,,,,,,,,,,,,,,,,,,,,,
,,KILLER,1.915005,1,,,,,,stimuli/images/PICTURE_697.png,KILLER,5e8b3b6444fa88056eaae254,2020-06-30_19h54.12.009,proactive,2020.1.2,Win32,60,5efb791ed4cb570da489e737,5efb870df7a52c0ff0eee259,2,,,,,,peach,0,4,4,4,1,,,,,,,,,,,,,,,,,,,,,,,,,,,,,,,,,,,,,,,,,,,,,,,,,,,,,,,,,,,,,,,,,,,,,,,,,,,,,,,,,,
,,,,,,,,,,stimuli/images/PICTURE_311.png,BEAUTY,5e8b3b6444fa88056eaae254,2020-06-30_19h54.12.009,proactive,2020.1.2,Win32,60,5efb791ed4cb570da489e737,5efb870df7a52c0ff0eee259,2,,,,,,razor,,,,,,0,0,0,13,1,2,0,,,,,,,,,,,,,,,,,,,,,,,,,,,,,,,,,,,,,,,,,,,,,,,,,,,,,,,,,,,,,,,,,,,,,,,,,,,
,,,,,,,,,,stimuli/images/PICTURE_469.png,LETTER,5e8b3b6444fa88056eaae254,2020-06-30_19h54.12.009,proactive,2020.1.2,Win32,60,5efb791ed4cb570da489e737,5efb870df7a52c0ff0eee259,2,,,,,,stool,,,,,,0,1,1,42,1,5,0,,,,,,,,,,,,,,,,,,,,,,,,,,,,,,,,,,,,,,,,,,,,,,,,,,,,,,,,,,,,,,,,,,,,,,,,,,,
,,,,,,,,,,stimuli/images/PICTURE_147.png,MOMENT,5e8b3b6444fa88056eaae254,2020-06-30_19h54.12.009,proactive,2020.1.2,Win32,60,5efb791ed4cb570da489e737,5efb870df7a52c0ff0eee259,2,,,,,,hanger,,,,,,0,2,2,51,1,6,0,,,,,,,,,,,,,,,,,,,,,,,,,,,,,,,,,,,,,,,,,,,,,,,,,,,,,,,,,,,,,,,,,,,,,,,,,,,
,,,,,,,,,,stimuli/images/PICTURE_744.png,SYSTEM,5e8b3b6444fa88056eaae254,2020-06-30_19h54.12.009,proactive,2020.1.2,Win32,60,5efb791ed4cb570da489e737,5efb870df7a52c0ff0eee259,2,,,,,,ring,,,,,,0,3,3,43,1,5,0,,,,,,,,,,,,,,,,,,,,,,,,,,,,,,,,,,,,,,,,,,,,,,,,,,,,,,,,,,,,,,,,,,,,,,,,,,,
,,,,,,,,,,stimuli/images/PICTURE_308.png,KIND,5e8b3b6444fa88056eaae254,2020-06-30_19h54.12.009,proactive,2020.1.2,Win32,60,5efb791ed4cb570da489e737,5efb870df7a52c0ff0eee259,2,,,,,,dice,,,,,,0,4,4,54,1,6,0,,,,,,,,,,,,,,,,,,,,,,,,,,,,,,,,,,,,,,,,,,,,,,,,,,,,,,,,,,,,,,,,,,,,,,,,,,,
,,,,,,,,,,stimuli/images/PICTURE_308.png,ESTATE,5e8b3b6444fa88056eaae254,2020-06-30_19h54.12.009,proactive,2020.1.2,Win32,60,5efb791ed4cb570da489e737,5efb870df7a52c0ff0eee259,2,,,,,,dice,,,,,,0,5,5,46,1,5,0,,,,,,,,,,,,,,,,,,,,,,,,,,,,,,,,,,,,,,,,,,,,,,,,,,,,,,,,,,,,,,,,,,,,,,,,,,,
,,,,,,,,,,stimuli/images/PICTURE_469.png,ARTIST,5e8b3b6444fa88056eaae254,2020-06-30_19h54.12.009,proactive,2020.1.2,Win32,60,5efb791ed4cb570da489e737,5efb870df7a52c0ff0eee259,2,,,,,,stool,,,,,,0,6,6,6,1,1,0,,,,,,,,,,,,,,,,,,,,,,,,,,,,,,,,,,,,,,,,,,,,,,,,,,,,,,,,,,,,,,,,,,,,,,,,,,,
,,,,,,,,,,stimuli/images/PICTURE_708.png,CLIENT,5e8b3b6444fa88056eaae254,2020-06-30_19h54.12.009,proactive,2020.1.2,Win32,60,5efb791ed4cb570da489e737,5efb870df7a52c0ff0eee259,2,,,,,,monkey,,,,,,0,7,7,5,1,1,0,,,,,,,,,,,,,,,,,,,,,,,,,,,,,,,,,,,,,,,,,,,,,,,,,,,,,,,,,,,,,,,,,,,,,,,,,,,
,,,,,,,,,,stimuli/images/PICTURE_488.png,STYLE,5e8b3b6444fa88056eaae254,2020-06-30_19h54.12.009,proactive,2020.1.2,Win32,60,5efb791ed4cb570da489e737,5efb870df7a52c0ff0eee259,2,,,,,,sun,,,,,,0,8,8,33,1,4,0,,,,,,,,,,,,,,,,,,,,,,,,,,,,,,,,,,,,,,,,,,,,,,,,,,,,,,,,,,,,,,,,,,,,,,,,,,,
,,,,,,,,,,stimuli/images/PICTURE_177.png,CARS,5e8b3b6444fa88056eaae254,2020-06-30_19h54.12.009,proactive,2020.1.2,Win32,60,5efb791ed4cb570da489e737,5efb870df7a52c0ff0eee259,2,,,,,,mushroom,,,,,,0,9,9,35,1,4,0,,,,,,,,,,,,,,,,,,,,,,,,,,,,,,,,,,,,,,,,,,,,,,,,,,,,,,,,,,,,,,,,,,,,,,,,,,,
,,,,,,,,,,stimuli/images/PICTURE_491.png,WRITER,5e8b3b6444fa88056eaae254,2020-06-30_19h54.12.009,proactive,2020.1.2,Win32,60,5efb791ed4cb570da489e737,5efb870df7a52c0ff0eee259,2,,,,,,rug,,,,,,0,10,10,57,1,6,0,,,,,,,,,,,,,,,,,,,,,,,,,,,,,,,,,,,,,,,,,,,,,,,,,,,,,,,,,,,,,,,,,,,,,,,,,,,
,,,,,,,,,,stimuli/images/PICTURE_208.png,MONTH,5e8b3b6444fa88056eaae254,2020-06-30_19h54.12.009,proactive,2020.1.2,Win32,60,5efb791ed4cb570da489e737,5efb870df7a52c0ff0eee259,2,,,,,,microphone,,,,,,0,11,11,53,1,6,0,,,,,,,,,,,,,,,,,,,,,,,,,,,,,,,,,,,,,,,,,,,,,,,,,,,,,,,,,,,,,,,,,,,,,,,,,,,
,,,,,,,,,,stimuli/images/PICTURE_248.png,DOZEN,5e8b3b6444fa88056eaae254,2020-06-30_19h54.12.009,proactive,2020.1.2,Win32,60,5efb791ed4cb570da489e737,5efb870df7a52c0ff0eee259,2,,,,,,cart,,,,,,0,12,12,39,1,4,0,,,,,,,,,,,,,,,,,,,,,,,,,,,,,,,,,,,,,,,,,,,,,,,,,,,,,,,,,,,,,,,,,,,,,,,,,,,
,,,,,,,,,,stimuli/images/PICTURE_203.png,ARTIST,5e8b3b6444fa88056eaae254,2020-06-30_19h54.12.009,proactive,2020.1.2,Win32,60,5efb791ed4cb570da489e737,5efb870df7a52c0ff0eee259,2,,,,,,cap,,,,,,0,13,13,26,1,3,0,,,,,,,,,,,,,,,,,,,,,,,,,,,,,,,,,,,,,,,,,,,,,,,,,,,,,,,,,,,,,,,,,,,,,,,,,,,
,,,,,,,,,,stimuli/images/PICTURE_123.png,ADVICE,5e8b3b6444fa88056eaae254,2020-06-30_19h54.12.009,proactive,2020.1.2,Win32,60,5efb791ed4cb570da489e737,5efb870df7a52c0ff0eee259,2,,,,,,dart,,,,,,0,14,14,50,1,6,0,,,,,,,,,,,,,,,,,,,,,,,,,,,,,,,,,,,,,,,,,,,,,,,,,,,,,,,,,,,,,,,,,,,,,,,,,,,
,,,,,,,,,,stimuli/images/PICTURE_667.png,BATH,5e8b3b6444fa88056eaae254,2020-06-30_19h54.12.009,proactive,2020.1.2,Win32,60,5efb791ed4cb570da489e737,5efb870df7a52c0ff0eee259,2,,,,,,daisy,,,,,,0,15,15,4,1,1,0,,,,,,,,,,,,,,,,,,,,,,,,,,,,,,,,,,,,,,,,,,,,,,,,,,,,,,,,,,,,,,,,,,,,,,,,,,,
,,,,,,,,,,stimuli/images/PICTURE_85.png,THING,5e8b3b6444fa88056eaae254,2020-06-30_19h54.12.009,proactive,2020.1.2,Win32,60,5efb791ed4cb570da489e737,5efb870df7a52c0ff0eee259,2,,,,,,diamond,,,,,,0,16,16,15,1,2,0,,,,,,,,,,,,,,,,,,,,,,,,,,,,,,,,,,,,,,,,,,,,,,,,,,,,,,,,,,,,,,,,,,,,,,,,,,,
,,,,,,,,,,stimuli/images/PICTURE_509.png,PHOTO,5e8b3b6444fa88056eaae254,2020-06-30_19h54.12.009,proactive,2020.1.2,Win32,60,5efb791ed4cb570da489e737,5efb870df7a52c0ff0eee259,2,,,,,,telephone,,,,,,0,17,17,21,1,3,0,,,,,,,,,,,,,,,,,,,,,,,,,,,,,,,,,,,,,,,,,,,,,,,,,,,,,,,,,,,,,,,,,,,,,,,,,,,
,,,,,,,,,,stimuli/images/PICTURE_233.png,WOMEN,5e8b3b6444fa88056eaae254,2020-06-30_19h54.12.009,proactive,2020.1.2,Win32,60,5efb791ed4cb570da489e737,5efb870df7a52c0ff0eee259,2,,,,,,salt,,,,,,0,18,18,38,1,4,0,,,,,,,,,,,,,,,,,,,,,,,,,,,,,,,,,,,,,,,,,,,,,,,,,,,,,,,,,,,,,,,,,,,,,,,,,,,
,,,,,,,,,,stimuli/images/PICTURE_68.png,MILE,5e8b3b6444fa88056eaae254,2020-06-30_19h54.12.009,proactive,2020.1.2,Win32,60,5efb791ed4cb570da489e737,5efb870df7a52c0ff0eee259,2,,,,,,candle,,,,,,0,19,19,44,1,5,0,,,,,,,,,,,,,,,,,,,,,,,,,,,,,,,,,,,,,,,,,,,,,,,,,,,,,,,,,,,,,,,,,,,,,,,,,,,
,,,,,,,,,,stimuli/images/PICTURE_380.png,DEATH,5e8b3b6444fa88056eaae254,2020-06-30_19h54.12.009,proactive,2020.1.2,Win32,60,5efb791ed4cb570da489e737,5efb870df7a52c0ff0eee259,2,,,,,,gorilla,,,,,,0,20,20,49,1,5,0,,,,,,,,,,,,,,,,,,,,,,,,,,,,,,,,,,,,,,,,,,,,,,,,,,,,,,,,,,,,,,,,,,,,,,,,,,,
,,,,,,,,,,stimuli/images/PICTURE_504.png,BODY,5e8b3b6444fa88056eaae254,2020-06-30_19h54.12.009,proactive,2020.1.2,Win32,60,5efb791ed4cb570da489e737,5efb870df7a52c0ff0eee259,2,,,,,,wheel,,,,,,0,21,21,8,1,1,0,,,,,,,,,,,,,,,,,,,,,,,,,,,,,,,,,,,,,,,,,,,,,,,,,,,,,,,,,,,,,,,,,,,,,,,,,,,
,,,,,,,,,,stimuli/images/PICTURE_356.png,DANGER,5e8b3b6444fa88056eaae254,2020-06-30_19h54.12.009,proactive,2020.1.2,Win32,60,5efb791ed4cb570da489e737,5efb870df7a52c0ff0eee259,2,,,,,,pawn,,,,,,0,22,22,55,1,6,0,,,,,,,,,,,,,,,,,,,,,,,,,,,,,,,,,,,,,,,,,,,,,,,,,,,,,,,,,,,,,,,,,,,,,,,,,,,
,,,,,,,,,,stimuli/images/PICTURE_688.png,CASINO,5e8b3b6444fa88056eaae254,2020-06-30_19h54.12.009,proactive,2020.1.2,Win32,60,5efb791ed4cb570da489e737,5efb870df7a52c0ff0eee259,2,,,,,,runner,,,,,,0,23,23,2,1,1,0,,,,,,,,,,,,,,,,,,,,,,,,,,,,,,,,,,,,,,,,,,,,,,,,,,,,,,,,,,,,,,,,,,,,,,,,,,,
,,,,,,,,,,stimuli/images/PICTURE_708.png,PENNY,5e8b3b6444fa88056eaae254,2020-06-30_19h54.12.009,proactive,2020.1.2,Win32,60,5efb791ed4cb570da489e737,5efb870df7a52c0ff0eee259,2,,,,,,monkey,,,,,,0,24,24,31,1,4,0,,,,,,,,,,,,,,,,,,,,,,,,,,,,,,,,,,,,,,,,,,,,,,,,,,,,,,,,,,,,,,,,,,,,,,,,,,,
,,,,,,,,,,stimuli/images/PICTURE_208.png,THING,5e8b3b6444fa88056eaae254,2020-06-30_19h54.12.009,proactive,2020.1.2,Win32,60,5efb791ed4cb570da489e737,5efb870df7a52c0ff0eee259,2,,,,,,microphone,,,,,,0,25,25,47,1,5,0,,,,,,,,,,,,,,,,,,,,,,,,,,,,,,,,,,,,,,,,,,,,,,,,,,,,,,,,,,,,,,,,,,,,,,,,,,,
,,,,,,,,,,stimuli/images/PICTURE_339.png,PLENTY,5e8b3b6444fa88056eaae254,2020-06-30_19h54.12.009,proactive,2020.1.2,Win32,60,5efb791ed4cb570da489e737,5efb870df7a52c0ff0eee259,2,,,,,,backpack,,,,,,0,26,26,0,1,1,0,,,,,,,,,,,,,,,,,,,,,,,,,,,,,,,,,,,,,,,,,,,,,,,,,,,,,,,,,,,,,,,,,,,,,,,,,,,
,,,,,,,,,,stimuli/images/PICTURE_314.png,GODS,5e8b3b6444fa88056eaae254,2020-06-30_19h54.12.009,proactive,2020.1.2,Win32,60,5efb791ed4cb570da489e737,5efb870df7a52c0ff0eee259,2,,,,,,perfume,,,,,,0,27,27,11,1,2,0,,,,,,,,,,,,,,,,,,,,,,,,,,,,,,,,,,,,,,,,,,,,,,,,,,,,,,,,,,,,,,,,,,,,,,,,,,,
,,,,,,,,,,stimuli/images/PICTURE_688.png,WOMEN,5e8b3b6444fa88056eaae254,2020-06-30_19h54.12.009,proactive,2020.1.2,Win32,60,5efb791ed4cb570da489e737,5efb870df7a52c0ff0eee259,2,,,,,,runner,,,,,,0,28,28,14,1,2,0,,,,,,,,,,,,,,,,,,,,,,,,,,,,,,,,,,,,,,,,,,,,,,,,,,,,,,,,,,,,,,,,,,,,,,,,,,,
,,,,,,,,,,stimuli/images/PICTURE_449.png,THING,5e8b3b6444fa88056eaae254,2020-06-30_19h54.12.009,proactive,2020.1.2,Win32,60,5efb791ed4cb570da489e737,5efb870df7a52c0ff0eee259,2,,,,,,bench,,,,,,0,29,29,59,1,6,0,,,,,,,,,,,,,,,,,,,,,,,,,,,,,,,,,,,,,,,,,,,,,,,,,,,,,,,,,,,,,,,,,,,,,,,,,,,
,,,,,,,,,,stimuli/images/PICTURE_151.png,GIRL,5e8b3b6444fa88056eaae254,2020-06-30_19h54.12.009,proactive,2020.1.2,Win32,60,5efb791ed4cb570da489e737,5efb870df7a52c0ff0eee259,2,,,,,,tray,,,,,,0,30,30,19,1,2,0,,,,,,,,,,,,,,,,,,,,,,,,,,,,,,,,,,,,,,,,,,,,,,,,,,,,,,,,,,,,,,,,,,,,,,,,,,,
,,,,,,,,,,stimuli/images/PICTURE_487.png,FLIGHT,5e8b3b6444fa88056eaae254,2020-06-30_19h54.12.009,proactive,2020.1.2,Win32,60,5efb791ed4cb570da489e737,5efb870df7a52c0ff0eee259,2,,,,,,basket,,,,,,0,31,31,9,1,1,0,,,,,,,,,,,,,,,,,,,,,,,,,,,,,,,,,,,,,,,,,,,,,,,,,,,,,,,,,,,,,,,,,,,,,,,,,,,
,,,,,,,,,,stimuli/images/PICTURE_453.png,PLENTY,5e8b3b6444fa88056eaae254,2020-06-30_19h54.12.009,proactive,2020.1.2,Win32,60,5efb791ed4cb570da489e737,5efb870df7a52c0ff0eee259,2,,,,,,scissors,,,,,,0,32,32,56,1,6,0,,,,,,,,,,,,,,,,,,,,,,,,,,,,,,,,,,,,,,,,,,,,,,,,,,,,,,,,,,,,,,,,,,,,,,,,,,,
,,,,,,,,,,stimuli/images/PICTURE_467.png,DEMON,5e8b3b6444fa88056eaae254,2020-06-30_19h54.12.009,proactive,2020.1.2,Win32,60,5efb791ed4cb570da489e737,5efb870df7a52c0ff0eee259,2,,,,,,peg,,,,,,0,33,33,23,1,3,0,,,,,,,,,,,,,,,,,,,,,,,,,,,,,,,,,,,,,,,,,,,,,,,,,,,,,,,,,,,,,,,,,,,,,,,,,,,
,,,,,,,,,,stimuli/images/PICTURE_654.png,VALLEY,5e8b3b6444fa88056eaae254,2020-06-30_19h54.12.009,proactive,2020.1.2,Win32,60,5efb791ed4cb570da489e737,5efb870df7a52c0ff0eee259,2,,,,,,pencil,,,,,,0,34,34,1,1,1,0,,,,,,,,,,,,,,,,,,,,,,,,,,,,,,,,,,,,,,,,,,,,,,,,,,,,,,,,,,,,,,,,,,,,,,,,,,,
,,,,,,,,,,stimuli/images/PICTURE_32.png,JUNGLE,5e8b3b6444fa88056eaae254,2020-06-30_19h54.12.009,proactive,2020.1.2,Win32,60,5efb791ed4cb570da489e737,5efb870df7a52c0ff0eee259,2,,,,,,crown,,,,,,0,35,35,45,1,5,0,,,,,,,,,,,,,,,,,,,,,,,,,,,,,,,,,,,,,,,,,,,,,,,,,,,,,,,,,,,,,,,,,,,,,,,,,,,
,,,,,,,,,,stimuli/images/PICTURE_667.png,PLENTY,5e8b3b6444fa88056eaae254,2020-06-30_19h54.12.009,proactive,2020.1.2,Win32,60,5efb791ed4cb570da489e737,5efb870df7a52c0ff0eee259,2,,,,,,daisy,,,,,,0,36,36,41,1,5,0,,,,,,,,,,,,,,,,,,,,,,,,,,,,,,,,,,,,,,,,,,,,,,,,,,,,,,,,,,,,,,,,,,,,,,,,,,,
,,,,,,,,,,stimuli/images/PICTURE_470.png,CASINO,5e8b3b6444fa88056eaae254,2020-06-30_19h54.12.009,proactive,2020.1.2,Win32,60,5efb791ed4cb570da489e737,5efb870df7a52c0ff0eee259,2,,,,,,motorbike,,,,,,0,37,37,36,1,4,0,,,,,,,,,,,,,,,,,,,,,,,,,,,,,,,,,,,,,,,,,,,,,,,,,,,,,,,,,,,,,,,,,,,,,,,,,,,
,,,,,,,,,,stimuli/images/PICTURE_160.png,LEADER,5e8b3b6444fa88056eaae254,2020-06-30_19h54.12.009,proactive,2020.1.2,Win32,60,5efb791ed4cb570da489e737,5efb870df7a52c0ff0eee259,2,,,,,,wheelbarrow,,,,,,0,38,38,3,1,1,0,,,,,,,,,,,,,,,,,,,,,,,,,,,,,,,,,,,,,,,,,,,,,,,,,,,,,,,,,,,,,,,,,,,,,,,,,,,
,,,,,,,,,,stimuli/images/PICTURE_348.png,SPEECH,5e8b3b6444fa88056eaae254,2020-06-30_19h54.12.009,proactive,2020.1.2,Win32,60,5efb791ed4cb570da489e737,5efb870df7a52c0ff0eee259,2,,,,,,pepper,,,,,,0,39,39,20,1,3,0,,,,,,,,,,,,,,,,,,,,,,,,,,,,,,,,,,,,,,,,,,,,,,,,,,,,,,,,,,,,,,,,,,,,,,,,,,,
,,,,,,,,,,stimuli/images/PICTURE_255.png,AREA,5e8b3b6444fa88056eaae254,2020-06-30_19h54.12.009,proactive,2020.1.2,Win32,60,5efb791ed4cb570da489e737,5efb870df7a52c0ff0eee259,2,,,,,,shovel,,,,,,0,40,40,22,1,3,0,,,,,,,,,,,,,,,,,,,,,,,,,,,,,,,,,,,,,,,,,,,,,,,,,,,,,,,,,,,,,,,,,,,,,,,,,,,
,,,,,,,,,,stimuli/images/PICTURE_675.png,WEAPON,5e8b3b6444fa88056eaae254,2020-06-30_19h54.12.009,proactive,2020.1.2,Win32,60,5efb791ed4cb570da489e737,5efb870df7a52c0ff0eee259,2,,,,,,windmill,,,,,,0,41,41,32,1,4,0,,,,,,,,,,,,,,,,,,,,,,,,,,,,,,,,,,,,,,,,,,,,,,,,,,,,,,,,,,,,,,,,,,,,,,,,,,,
,,,,,,,,,,stimuli/images/PICTURE_677.png,MILE,5e8b3b6444fa88056eaae254,2020-06-30_19h54.12.009,proactive,2020.1.2,Win32,60,5efb791ed4cb570da489e737,5efb870df7a52c0ff0eee259,2,,,,,,map,,,,,,0,42,42,30,1,4,0,,,,,,,,,,,,,,,,,,,,,,,,,,,,,,,,,,,,,,,,,,,,,,,,,,,,,,,,,,,,,,,,,,,,,,,,,,,
,,,,,,,,,,stimuli/images/PICTURE_311.png,FRIEND,5e8b3b6444fa88056eaae254,2020-06-30_19h54.12.009,proactive,2020.1.2,Win32,60,5efb791ed4cb570da489e737,5efb870df7a52c0ff0eee259,2,,,,,,razor,,,,,,0,43,43,34,1,4,0,,,,,,,,,,,,,,,,,,,,,,,,,,,,,,,,,,,,,,,,,,,,,,,,,,,,,,,,,,,,,,,,,,,,,,,,,,,
,,,,,,,,,,stimuli/images/PICTURE_314.png,SAKE,5e8b3b6444fa88056eaae254,2020-06-30_19h54.12.009,proactive,2020.1.2,Win32,60,5efb791ed4cb570da489e737,5efb870df7a52c0ff0eee259,2,,,,,,perfume,,,,,,0,44,44,7,1,1,0,,,,,,,,,,,,,,,,,,,,,,,,,,,,,,,,,,,,,,,,,,,,,,,,,,,,,,,,,,,,,,,,,,,,,,,,,,,
,,,,,,,,,,stimuli/images/PICTURE_327.png,BEAUTY,5e8b3b6444fa88056eaae254,2020-06-30_19h54.12.009,proactive,2020.1.2,Win32,60,5efb791ed4cb570da489e737,5efb870df7a52c0ff0eee259,2,,,,,,helmet,,,,,,0,45,45,48,1,5,0,,,,,,,,,,,,,,,,,,,,,,,,,,,,,,,,,,,,,,,,,,,,,,,,,,,,,,,,,,,,,,,,,,,,,,,,,,,
,,,,,,,,,,stimuli/images/PICTURE_285.png,ADVICE,5e8b3b6444fa88056eaae254,2020-06-30_19h54.12.009,proactive,2020.1.2,Win32,60,5efb791ed4cb570da489e737,5efb870df7a52c0ff0eee259,2,,,,,,carrot,,,,,,0,46,46,12,1,2,0,,,,,,,,,,,,,,,,,,,,,,,,,,,,,,,,,,,,,,,,,,,,,,,,,,,,,,,,,,,,,,,,,,,,,,,,,,,
,,,,,,,,,,stimuli/images/PICTURE_233.png,IDEAS,5e8b3b6444fa88056eaae254,2020-06-30_19h54.12.009,proactive,2020.1.2,Win32,60,5efb791ed4cb570da489e737,5efb870df7a52c0ff0eee259,2,,,,,,salt,,,,,,0,47,47,28,1,3,0,,,,,,,,,,,,,,,,,,,,,,,,,,,,,,,,,,,,,,,,,,,,,,,,,,,,,,,,,,,,,,,,,,,,,,,,,,,
,,,,,,,,,,stimuli/images/PICTURE_215.png,PLENTY,5e8b3b6444fa88056eaae254,2020-06-30_19h54.12.009,proactive,2020.1.2,Win32,60,5efb791ed4cb570da489e737,5efb870df7a52c0ff0eee259,2,,,,,,boot,,,,,,0,48,48,37,1,4,0,,,,,,,,,,,,,,,,,,,,,,,,,,,,,,,,,,,,,,,,,,,,,,,,,,,,,,,,,,,,,,,,,,,,,,,,,,,
,,,,,,,,,,stimuli/images/PICTURE_692.png,MONTH,5e8b3b6444fa88056eaae254,2020-06-30_19h54.12.009,proactive,2020.1.2,Win32,60,5efb791ed4cb570da489e737,5efb870df7a52c0ff0eee259,2,,,,,,cherry,,,,,,0,49,49,16,1,2,0,,,,,,,,,,,,,,,,,,,,,,,,,,,,,,,,,,,,,,,,,,,,,,,,,,,,,,,,,,,,,,,,,,,,,,,,,,,
,,,,,,,,,,stimuli/images/PICTURE_491.png,ROOF,5e8b3b6444fa88056eaae254,2020-06-30_19h54.12.009,proactive,2020.1.2,Win32,60,5efb791ed4cb570da489e737,5efb870df7a52c0ff0eee259,2,,,,,,rug,,,,,,0,50,50,24,1,3,0,,,,,,,,,,,,,,,,,,,,,,,,,,,,,,,,,,,,,,,,,,,,,,,,,,,,,,,,,,,,,,,,,,,,,,,,,,,
,,,,,,,,,,stimuli/images/PICTURE_708.png,YARD,5e8b3b6444fa88056eaae254,2020-06-30_19h54.12.009,proactive,2020.1.2,Win32,60,5efb791ed4cb570da489e737,5efb870df7a52c0ff0eee259,2,,,,,,monkey,,,,,,0,51,51,29,1,3,0,,,,,,,,,,,,,,,,,,,,,,,,,,,,,,,,,,,,,,,,,,,,,,,,,,,,,,,,,,,,,,,,,,,,,,,,,,,
,,,,,,,,,,stimuli/images/PICTURE_453.png,DUDE,5e8b3b6444fa88056eaae254,2020-06-30_19h54.12.009,proactive,2020.1.2,Win32,60,5efb791ed4cb570da489e737,5efb870df7a52c0ff0eee259,2,,,,,,scissors,,,,,,0,52,52,27,1,3,0,,,,,,,,,,,,,,,,,,,,,,,,,,,,,,,,,,,,,,,,,,,,,,,,,,,,,,,,,,,,,,,,,,,,,,,,,,,
,,,,,,,,,,stimuli/images/PICTURE_160.png,FEET,5e8b3b6444fa88056eaae254,2020-06-30_19h54.12.009,proactive,2020.1.2,Win32,60,5efb791ed4cb570da489e737,5efb870df7a52c0ff0eee259,2,,,,,,wheelbarrow,,,,,,0,53,53,58,1,6,0,,,,,,,,,,,,,,,,,,,,,,,,,,,,,,,,,,,,,,,,,,,,,,,,,,,,,,,,,,,,,,,,,,,,,,,,,,,
,,,,,,,,,,stimuli/images/PICTURE_380.png,PHOTO,5e8b3b6444fa88056eaae254,2020-06-30_19h54.12.009,proactive,2020.1.2,Win32,60,5efb791ed4cb570da489e737,5efb870df7a52c0ff0eee259,2,,,,,,gorilla,,,,,,0,54,54,52,1,6,0,,,,,,,,,,,,,,,,,,,,,,,,,,,,,,,,,,,,,,,,,,,,,,,,,,,,,,,,,,,,,,,,,,,,,,,,,,,
,,,,,,,,,,stimuli/images/PICTURE_95.png,STYLE,5e8b3b6444fa88056eaae254,2020-06-30_19h54.12.009,proactive,2020.1.2,Win32,60,5efb791ed4cb570da489e737,5efb870df7a52c0ff0eee259,2,,,,,,suitcase,,,,,,0,55,55,25,1,3,0,,,,,,,,,,,,,,,,,,,,,,,,,,,,,,,,,,,,,,,,,,,,,,,,,,,,,,,,,,,,,,,,,,,,,,,,,,,
,,,,,,,,,,stimuli/images/PICTURE_744.png,SAKE,5e8b3b6444fa88056eaae254,2020-06-30_19h54.12.009,proactive,2020.1.2,Win32,60,5efb791ed4cb570da489e737,5efb870df7a52c0ff0eee259,2,,,,,,ring,,,,,,0,56,56,17,1,2,0,,,,,,,,,,,,,,,,,,,,,,,,,,,,,,,,,,,,,,,,,,,,,,,,,,,,,,,,,,,,,,,,,,,,,,,,,,,
,,,,,,,,,,stimuli/images/PICTURE_302.png,FAMILY,5e8b3b6444fa88056eaae254,2020-06-30_19h54.12.009,proactive,2020.1.2,Win32,60,5efb791ed4cb570da489e737,5efb870df7a52c0ff0eee259,2,,,,,,taxi,,,,,,0,57,57,18,1,2,0,,,,,,,,,,,,,,,,,,,,,,,,,,,,,,,,,,,,,,,,,,,,,,,,,,,,,,,,,,,,,,,,,,,,,,,,,,,
,,,,,,,,,,stimuli/images/PICTURE_123.png,ADVICE,5e8b3b6444fa88056eaae254,2020-06-30_19h54.12.009,proactive,2020.1.2,Win32,60,5efb791ed4cb570da489e737,5efb870df7a52c0ff0eee259,2,,,,,,dart,,,,,,0,58,58,40,1,5,0,,,,,,,,,,,,,,,,,,,,,,,,,,,,,,,,,,,,,,,,,,,,,,,,,,,,,,,,,,,,,,,,,,,,,,,,,,,
,,?,0.000825,0,,,,,,stimuli/images/PICTURE_356.png,DANGER,5e8b3b6444fa88056eaae254,2020-06-30_19h54.12.009,proactive,2020.1.2,Win32,60,5efb791ed4cb570da489e737,5efb870df7a52c0ff0eee259,2,,,,,,pawn,,,,,,,,,,,6,0,0,0,0,55,1,,,,,,,,,,,,,,,,,,,,,,,,,,,,,,,,,,,,,,,,,,,,,,,,,,,,,,,,,,,,,,,,,,,,,,
,,?,0.000595,0,,,,,,stimuli/images/PICTURE_203.png,ARTIST,5e8b3b6444fa88056eaae254,2020-06-30_19h54.12.009,proactive,2020.1.2,Win32,60,5efb791ed4cb570da489e737,5efb870df7a52c0ff0eee259,2,,,,,,cap,,,,,,,,,,,3,0,0,1,1,26,1,,,,,,,,,,,,,,,,,,,,,,,,,,,,,,,,,,,,,,,,,,,,,,,,,,,,,,,,,,,,,,,,,,,,,,
,,?,0.0006,0,,,,,,stimuli/images/PICTURE_675.png,WEAPON,5e8b3b6444fa88056eaae254,2020-06-30_19h54.12.009,proactive,2020.1.2,Win32,60,5efb791ed4cb570da489e737,5efb870df7a52c0ff0eee259,2,,,,,,windmill,,,,,,,,,,,4,0,0,2,2,32,1,,,,,,,,,,,,,,,,,,,,,,,,,,,,,,,,,,,,,,,,,,,,,,,,,,,,,,,,,,,,,,,,,,,,,,
,,?,0.0005,0,,,,,,stimuli/images/PICTURE_123.png,ADVICE,5e8b3b6444fa88056eaae254,2020-06-30_19h54.12.009,proactive,2020.1.2,Win32,60,5efb791ed4cb570da489e737,5efb870df7a52c0ff0eee259,2,,,,,,dart,,,,,,,,,,,5,0,0,3,3,40,1,,,,,,,,,,,,,,,,,,,,,,,,,,,,,,,,,,,,,,,,,,,,,,,,,,,,,,,,,,,,,,,,,,,,,,
,,?,0.000425,0,,,,,,stimuli/images/PICTURE_327.png,BEAUTY,5e8b3b6444fa88056eaae254,2020-06-30_19h54.12.009,proactive,2020.1.2,Win32,60,5efb791ed4cb570da489e737,5efb870df7a52c0ff0eee259,2,,,,,,helmet,,,,,,,,,,,5,0,0,4,4,48,1,,,,,,,,,,,,,,,,,,,,,,,,,,,,,,,,,,,,,,,,,,,,,,,,,,,,,,,,,,,,,,,,,,,,,,
,,?,0.00039,0,,,,,,stimuli/images/PICTURE_469.png,LETTER,5e8b3b6444fa88056eaae254,2020-06-30_19h54.12.009,proactive,2020.1.2,Win32,60,5efb791ed4cb570da489e737,5efb870df7a52c0ff0eee259,2,,,,,,stool,,,,,,,,,,,5,0,0,5,5,42,1,,,,,,,,,,,,,,,,,,,,,,,,,,,,,,,,,,,,,,,,,,,,,,,,,,,,,,,,,,,,,,,,,,,,,,
,,FAMILY,4.66876,1,,,,,,stimuli/images/PICTURE_302.png,FAMILY,5e8b3b6444fa88056eaae254,2020-06-30_19h54.12.009,proactive,2020.1.2,Win32,60,5efb791ed4cb570da489e737,5efb870df7a52c0ff0eee259,2,,,,,,taxi,,,,,,,,,,,2,0,0,6,6,18,1,,,,,,,,,,,,,,,,,,,,,,,,,,,,,,,,,,,,,,,,,,,,,,,,,,,,,,,,,,,,,,,,,,,,,,
,,?,0.00073,0,,,,,,stimuli/images/PICTURE_504.png,BODY,5e8b3b6444fa88056eaae254,2020-06-30_19h54.12.009,proactive,2020.1.2,Win32,60,5efb791ed4cb570da489e737,5efb870df7a52c0ff0eee259,2,,,,,,wheel,,,,,,,,,,,1,0,0,7,7,8,1,,,,,,,,,,,,,,,,,,,,,,,,,,,,,,,,,,,,,,,,,,,,,,,,,,,,,,,,,,,,,,,,,,,,,,
,,?,0.00052,0,,,,,,stimuli/images/PICTURE_380.png,PHOTO,5e8b3b6444fa88056eaae254,2020-06-30_19h54.12.009,proactive,2020.1.2,Win32,60,5efb791ed4cb570da489e737,5efb870df7a52c0ff0eee259,2,,,,,,gorilla,,,,,,,,,,,6,0,0,8,8,52,1,,,,,,,,,,,,,,,,,,,,,,,,,,,,,,,,,,,,,,,,,,,,,,,,,,,,,,,,,,,,,,,,,,,,,,
,,?,0.00054,0,,,,,,stimuli/images/PICTURE_509.png,PHOTO,5e8b3b6444fa88056eaae254,2020-06-30_19h54.12.009,proactive,2020.1.2,Win32,60,5efb791ed4cb570da489e737,5efb870df7a52c0ff0eee259,2,,,,,,telephone,,,,,,,,,,,3,0,0,9,9,21,1,,,,,,,,,,,,,,,,,,,,,,,,,,,,,,,,,,,,,,,,,,,,,,,,,,,,,,,,,,,,,,,,,,,,,,
,,?,0.000515,0,,,,,,stimuli/images/PICTURE_744.png,SYSTEM,5e8b3b6444fa88056eaae254,2020-06-30_19h54.12.009,proactive,2020.1.2,Win32,60,5efb791ed4cb570da489e737,5efb870df7a52c0ff0eee259,2,,,,,,ring,,,,,,,,,,,5,0,0,10,10,43,1,,,,,,,,,,,,,,,,,,,,,,,,,,,,,,,,,,,,,,,,,,,,,,,,,,,,,,,,,,,,,,,,,,,,,,
,,?,0.000585,0,,,,,,stimuli/images/PICTURE_255.png,AREA,5e8b3b6444fa88056eaae254,2020-06-30_19h54.12.009,proactive,2020.1.2,Win32,60,5efb791ed4cb570da489e737,5efb870df7a52c0ff0eee259,2,,,,,,shovel,,,,,,,,,,,3,0,0,11,11,22,1,,,,,,,,,,,,,,,,,,,,,,,,,,,,,,,,,,,,,,,,,,,,,,,,,,,,,,,,,,,,,,,,,,,,,,
,,BEAUTY,6.808345,1,,,,,,stimuli/images/PICTURE_311.png,BEAUTY,5e8b3b6444fa88056eaae254,2020-06-30_19h54.12.009,proactive,2020.1.2,Win32,60,5efb791ed4cb570da489e737,5efb870df7a52c0ff0eee259,2,,,,,,razor,,,,,,,,,,,2,0,0,12,12,13,1,,,,,,,,,,,,,,,,,,,,,,,,,,,,,,,,,,,,,,,,,,,,,,,,,,,,,,,,,,,,,,,,,,,,,,
,,?,0.000735,0,,,,,,stimuli/images/PICTURE_308.png,KIND,5e8b3b6444fa88056eaae254,2020-06-30_19h54.12.009,proactive,2020.1.2,Win32,60,5efb791ed4cb570da489e737,5efb870df7a52c0ff0eee259,2,,,,,,dice,,,,,,,,,,,6,0,0,13,13,54,1,,,,,,,,,,,,,,,,,,,,,,,,,,,,,,,,,,,,,,,,,,,,,,,,,,,,,,,,,,,,,,,,,,,,,,
,,?,0.0005,0,,,,,,stimuli/images/PICTURE_32.png,JUNGLE,5e8b3b6444fa88056eaae254,2020-06-30_19h54.12.009,proactive,2020.1.2,Win32,60,5efb791ed4cb570da489e737,5efb870df7a52c0ff0eee259,2,,,,,,crown,,,,,,,,,,,5,0,0,14,14,45,1,,,,,,,,,,,,,,,,,,,,,,,,,,,,,,,,,,,,,,,,,,,,,,,,,,,,,,,,,,,,,,,,,,,,,,
,,?,0.00038,0,,,,,,stimuli/images/PICTURE_453.png,PLENTY,5e8b3b6444fa88056eaae254,2020-06-30_19h54.12.009,proactive,2020.1.2,Win32,60,5efb791ed4cb570da489e737,5efb870df7a52c0ff0eee259,2,,,,,,scissors,,,,,,,,,,,6,0,0,15,15,56,1,,,,,,,,,,,,,,,,,,,,,,,,,,,,,,,,,,,,,,,,,,,,,,,,,,,,,,,,,,,,,,,,,,,,,,
,,?,0.00037,0,,,,,,stimuli/images/PICTURE_469.png,ARTIST,5e8b3b6444fa88056eaae254,2020-06-30_19h54.12.009,proactive,2020.1.2,Win32,60,5efb791ed4cb570da489e737,5efb870df7a52c0ff0eee259,2,,,,,,stool,,,,,,,,,,,1,0,0,16,16,6,1,,,,,,,,,,,,,,,,,,,,,,,,,,,,,,,,,,,,,,,,,,,,,,,,,,,,,,,,,,,,,,,,,,,,,,
,,?,0.000405,0,,,,,,stimuli/images/PICTURE_708.png,YARD,5e8b3b6444fa88056eaae254,2020-06-30_19h54.12.009,proactive,2020.1.2,Win32,60,5efb791ed4cb570da489e737,5efb870df7a52c0ff0eee259,2,,,,,,monkey,,,,,,,,,,,3,0,0,17,17,29,1,,,,,,,,,,,,,,,,,,,,,,,,,,,,,,,,,,,,,,,,,,,,,,,,,,,,,,,,,,,,,,,,,,,,,,
,,?,0.0004,0,,,,,,stimuli/images/PICTURE_677.png,MILE,5e8b3b6444fa88056eaae254,2020-06-30_19h54.12.009,proactive,2020.1.2,Win32,60,5efb791ed4cb570da489e737,5efb870df7a52c0ff0eee259,2,,,,,,map,,,,,,,,,,,4,0,0,18,18,30,1,,,,,,,,,,,,,,,,,,,,,,,,,,,,,,,,,,,,,,,,,,,,,,,,,,,,,,,,,,,,,,,,,,,,,,
,,?,0.000405,0,,,,,,stimuli/images/PICTURE_233.png,IDEAS,5e8b3b6444fa88056eaae254,2020-06-30_19h54.12.009,proactive,2020.1.2,Win32,60,5efb791ed4cb570da489e737,5efb870df7a52c0ff0eee259,2,,,,,,salt,,,,,,,,,,,3,0,0,19,19,28,1,,,,,,,,,,,,,,,,,,,,,,,,,,,,,,,,,,,,,,,,,,,,,,,,,,,,,,,,,,,,,,,,,,,,,,
,,?,0.00038,0,,,,,,stimuli/images/PICTURE_95.png,STYLE,5e8b3b6444fa88056eaae254,2020-06-30_19h54.12.009,proactive,2020.1.2,Win32,60,5efb791ed4cb570da489e737,5efb870df7a52c0ff0eee259,2,,,,,,suitcase,,,,,,,,,,,3,0,0,20,20,25,1,,,,,,,,,,,,,,,,,,,,,,,,,,,,,,,,,,,,,,,,,,,,,,,,,,,,,,,,,,,,,,,,,,,,,,
,,?,0.000385,0,,,,,,stimuli/images/PICTURE_215.png,PLENTY,5e8b3b6444fa88056eaae254,2020-06-30_19h54.12.009,proactive,2020.1.2,Win32,60,5efb791ed4cb570da489e737,5efb870df7a52c0ff0eee259,2,,,,,,boot,,,,,,,,,,,4,0,0,21,21,37,1,,,,,,,,,,,,,,,,,,,,,,,,,,,,,,,,,,,,,,,,,,,,,,,,,,,,,,,,,,,,,,,,,,,,,,
,,?,0.00046,0,,,,,,stimuli/images/PICTURE_380.png,DEATH,5e8b3b6444fa88056eaae254,2020-06-30_19h54.12.009,proactive,2020.1.2,Win32,60,5efb791ed4cb570da489e737,5efb870df7a52c0ff0eee259,2,,,,,,gorilla,,,,,,,,,,,5,0,0,22,22,49,1,,,,,,,,,,,,,,,,,,,,,,,,,,,,,,,,,,,,,,,,,,,,,,,,,,,,,,,,,,,,,,,,,,,,,,
,,?,0.00037,0,,,,,,stimuli/images/PICTURE_68.png,MILE,5e8b3b6444fa88056eaae254,2020-06-30_19h54.12.009,proactive,2020.1.2,Win32,60,5efb791ed4cb570da489e737,5efb870df7a52c0ff0eee259,2,,,,,,candle,,,,,,,,,,,5,0,0,23,23,44,1,,,,,,,,,,,,,,,,,,,,,,,,,,,,,,,,,,,,,,,,,,,,,,,,,,,,,,,,,,,,,,,,,,,,,,
,,?,0.000375,0,,,,,,stimuli/images/PICTURE_467.png,DEMON,5e8b3b6444fa88056eaae254,2020-06-30_19h54.12.009,proactive,2020.1.2,Win32,60,5efb791ed4cb570da489e737,5efb870df7a52c0ff0eee259,2,,,,,,peg,,,,,,,,,,,3,0,0,24,24,23,1,,,,,,,,,,,,,,,,,,,,,,,,,,,,,,,,,,,,,,,,,,,,,,,,,,,,,,,,,,,,,,,,,,,,,,
,,?,0.00036,0,,,,,,stimuli/images/PICTURE_123.png,ADVICE,5e8b3b6444fa88056eaae254,2020-06-30_19h54.12.009,proactive,2020.1.2,Win32,60,5efb791ed4cb570da489e737,5efb870df7a52c0ff0eee259,2,,,,,,dart,,,,,,,,,,,6,0,0,25,25,50,1,,,,,,,,,,,,,,,,,,,,,,,,,,,,,,,,,,,,,,,,,,,,,,,,,,,,,,,,,,,,,,,,,,,,,,
,,?,0.000355,0,,,,,,stimuli/images/PICTURE_248.png,DOZEN,5e8b3b6444fa88056eaae254,2020-06-30_19h54.12.009,proactive,2020.1.2,Win32,60,5efb791ed4cb570da489e737,5efb870df7a52c0ff0eee259,2,,,,,,cart,,,,,,,,,,,4,0,0,26,26,39,1,,,,,,,,,,,,,,,,,,,,,,,,,,,,,,,,,,,,,,,,,,,,,,,,,,,,,,,,,,,,,,,,,,,,,,
,,?,0.000365,0,,,,,,stimuli/images/PICTURE_470.png,CASINO,5e8b3b6444fa88056eaae254,2020-06-30_19h54.12.009,proactive,2020.1.2,Win32,60,5efb791ed4cb570da489e737,5efb870df7a52c0ff0eee259,2,,,,,,motorbike,,,,,,,,,,,4,0,0,27,27,36,1,,,,,,,,,,,,,,,,,,,,,,,,,,,,,,,,,,,,,,,,,,,,,,,,,,,,,,,,,,,,,,,,,,,,,,
,,?,0.001195,0,,,,,,stimuli/images/PICTURE_160.png,LEADER,5e8b3b6444fa88056eaae254,2020-06-30_19h54.12.009,proactive,2020.1.2,Win32,60,5efb791ed4cb570da489e737,5efb870df7a52c0ff0eee259,2,,,,,,wheelbarrow,,,,,,,,,,,1,0,0,28,28,3,1,,,,,,,,,,,,,,,,,,,,,,,,,,,,,,,,,,,,,,,,,,,,,,,,,,,,,,,,,,,,,,,,,,,,,,
,,THING,2.23205,1,,,,,,stimuli/images/PICTURE_85.png,THING,5e8b3b6444fa88056eaae254,2020-06-30_19h54.12.009,proactive,2020.1.2,Win32,60,5efb791ed4cb570da489e737,5efb870df7a52c0ff0eee259,2,,,,,,diamond,,,,,,,,,,,2,0,0,29,29,15,1,,,,,,,,,,,,,,,,,,,,,,,,,,,,,,,,,,,,,,,,,,,,,,,,,,,,,,,,,,,,,,,,,,,,,,
,,?,0.0007,0,,,,,,stimuli/images/PICTURE_308.png,ESTATE,5e8b3b6444fa88056eaae254,2020-06-30_19h54.12.009,proactive,2020.1.2,Win32,60,5efb791ed4cb570da489e737,5efb870df7a52c0ff0eee259,2,,,,,,dice,,,,,,,,,,,5,0,0,30,30,46,1,,,,,,,,,,,,,,,,,,,,,,,,,,,,,,,,,,,,,,,,,,,,,,,,,,,,,,,,,,,,,,,,,,,,,,
,,?,0.000515,0,,,,,,stimuli/images/PICTURE_491.png,ROOF,5e8b3b6444fa88056eaae254,2020-06-30_19h54.12.009,proactive,2020.1.2,Win32,60,5efb791ed4cb570da489e737,5efb870df7a52c0ff0eee259,2,,,,,,rug,,,,,,,,,,,3,0,0,31,31,24,1,,,,,,,,,,,,,,,,,,,,,,,,,,,,,,,,,,,,,,,,,,,,,,,,,,,,,,,,,,,,,,,,,,,,,,
,,?,0.000555,0,,,,,,stimuli/images/PICTURE_314.png,SAKE,5e8b3b6444fa88056eaae254,2020-06-30_19h54.12.009,proactive,2020.1.2,Win32,60,5efb791ed4cb570da489e737,5efb870df7a52c0ff0eee259,2,,,,,,perfume,,,,,,,,,,,1,0,0,32,32,7,1,,,,,,,,,,,,,,,,,,,,,,,,,,,,,,,,,,,,,,,,,,,,,,,,,,,,,,,,,,,,,,,,,,,,,,
,,?,0.00159,0,,,,,,stimuli/images/PICTURE_654.png,VALLEY,5e8b3b6444fa88056eaae254,2020-06-30_19h54.12.009,proactive,2020.1.2,Win32,60,5efb791ed4cb570da489e737,5efb870df7a52c0ff0eee259,2,,,,,,pencil,,,,,,,,,,,1,0,0,33,33,1,1,,,,,,,,,,,,,,,,,,,,,,,,,,,,,,,,,,,,,,,,,,,,,,,,,,,,,,,,,,,,,,,,,,,,,,
,,?,0.00051,0,,,,,,stimuli/images/PICTURE_449.png,THING,5e8b3b6444fa88056eaae254,2020-06-30_19h54.12.009,proactive,2020.1.2,Win32,60,5efb791ed4cb570da489e737,5efb870df7a52c0ff0eee259,2,,,,,,bench,,,,,,,,,,,6,0,0,34,34,59,1,,,,,,,,,,,,,,,,,,,,,,,,,,,,,,,,,,,,,,,,,,,,,,,,,,,,,,,,,,,,,,,,,,,,,,
,,GIRL,2.07478,1,,,,,,stimuli/images/PICTURE_151.png,GIRL,5e8b3b6444fa88056eaae254,2020-06-30_19h54.12.009,proactive,2020.1.2,Win32,60,5efb791ed4cb570da489e737,5efb870df7a52c0ff0eee259,2,,,,,,tray,,,,,,,,,,,2,0,0,35,35,19,1,,,,,,,,,,,,,,,,,,,,,,,,,,,,,,,,,,,,,,,,,,,,,,,,,,,,,,,,,,,,,,,,,,,,,,
,,?,0.00069,0,,,,,,stimuli/images/PICTURE_233.png,WOMEN,5e8b3b6444fa88056eaae254,2020-06-30_19h54.12.009,proactive,2020.1.2,Win32,60,5efb791ed4cb570da489e737,5efb870df7a52c0ff0eee259,2,,,,,,salt,,,,,,,,,,,4,0,0,36,36,38,1,,,,,,,,,,,,,,,,,,,,,,,,,,,,,,,,,,,,,,,,,,,,,,,,,,,,,,,,,,,,,,,,,,,,,,
,,?,0.00064,0,,,,,,stimuli/images/PICTURE_453.png,DUDE,5e8b3b6444fa88056eaae254,2020-06-30_19h54.12.009,proactive,2020.1.2,Win32,60,5efb791ed4cb570da489e737,5efb870df7a52c0ff0eee259,2,,,,,,scissors,,,,,,,,,,,3,0,0,37,37,27,1,,,,,,,,,,,,,,,,,,,,,,,,,,,,,,,,,,,,,,,,,,,,,,,,,,,,,,,,,,,,,,,,,,,,,,
,,?,0.00053,0,,,,,,stimuli/images/PICTURE_348.png,SPEECH,5e8b3b6444fa88056eaae254,2020-06-30_19h54.12.009,proactive,2020.1.2,Win32,60,5efb791ed4cb570da489e737,5efb870df7a52c0ff0eee259,2,,,,,,pepper,,,,,,,,,,,3,0,0,38,38,20,1,,,,,,,,,,,,,,,,,,,,,,,,,,,,,,,,,,,,,,,,,,,,,,,,,,,,,,,,,,,,,,,,,,,,,,
,,?,0.00052,0,,,,,,stimuli/images/PICTURE_177.png,CARS,5e8b3b6444fa88056eaae254,2020-06-30_19h54.12.009,proactive,2020.1.2,Win32,60,5efb791ed4cb570da489e737,5efb870df7a52c0ff0eee259,2,,,,,,mushroom,,,,,,,,,,,4,0,0,39,39,35,1,,,,,,,,,,,,,,,,,,,,,,,,,,,,,,,,,,,,,,,,,,,,,,,,,,,,,,,,,,,,,,,,,,,,,,
,,?,0.00053,0,,,,,,stimuli/images/PICTURE_708.png,CLIENT,5e8b3b6444fa88056eaae254,2020-06-30_19h54.12.009,proactive,2020.1.2,Win32,60,5efb791ed4cb570da489e737,5efb870df7a52c0ff0eee259,2,,,,,,monkey,,,,,,,,,,,1,0,0,40,40,5,1,,,,,,,,,,,,,,,,,,,,,,,,,,,,,,,,,,,,,,,,,,,,,,,,,,,,,,,,,,,,,,,,,,,,,,
,,MONTH,3.658785,1,,,,,,stimuli/images/PICTURE_692.png,MONTH,5e8b3b6444fa88056eaae254,2020-06-30_19h54.12.009,proactive,2020.1.2,Win32,60,5efb791ed4cb570da489e737,5efb870df7a52c0ff0eee259,2,,,,,,cherry,,,,,,,,,,,2,0,0,41,41,16,1,,,,,,,,,,,,,,,,,,,,,,,,,,,,,,,,,,,,,,,,,,,,,,,,,,,,,,,,,,,,,,,,,,,,,,
,,LOTS,4.115275,1,,,,,,stimuli/images/PICTURE_208.png,LOTS,5e8b3b6444fa88056eaae254,2020-06-30_19h54.12.009,proactive,2020.1.2,Win32,60,5efb791ed4cb570da489e737,5efb870df7a52c0ff0eee259,2,,,,,,microphone,,,,,,,,,,,2,0,0,42,42,10,1,,,,,,,,,,,,,,,,,,,,,,,,,,,,,,,,,,,,,,,,,,,,,,,,,,,,,,,,,,,,,,,,,,,,,,
,,?,0.00065,0,,,,,,stimuli/images/PICTURE_160.png,FEET,5e8b3b6444fa88056eaae254,2020-06-30_19h54.12.009,proactive,2020.1.2,Win32,60,5efb791ed4cb570da489e737,5efb870df7a52c0ff0eee259,2,,,,,,wheelbarrow,,,,,,,,,,,6,0,0,43,43,58,1,,,,,,,,,,,,,,,,,,,,,,,,,,,,,,,,,,,,,,,,,,,,,,,,,,,,,,,,,,,,,,,,,,,,,,
,,?,0.000465,0,,,,,,stimuli/images/PICTURE_208.png,THING,5e8b3b6444fa88056eaae254,2020-06-30_19h54.12.009,proactive,2020.1.2,Win32,60,5efb791ed4cb570da489e737,5efb870df7a52c0ff0eee259,2,,,,,,microphone,,,,,,,,,,,5,0,0,44,44,47,1,,,,,,,,,,,,,,,,,,,,,,,,,,,,,,,,,,,,,,,,,,,,,,,,,,,,,,,,,,,,,,,,,,,,,,
,,?,0.00046,0,,,,,,stimuli/images/PICTURE_667.png,BATH,5e8b3b6444fa88056eaae254,2020-06-30_19h54.12.009,proactive,2020.1.2,Win32,60,5efb791ed4cb570da489e737,5efb870df7a52c0ff0eee259,2,,,,,,daisy,,,,,,,,,,,1,0,0,45,45,4,1,,,,,,,,,,,,,,,,,,,,,,,,,,,,,,,,,,,,,,,,,,,,,,,,,,,,,,,,,,,,,,,,,,,,,,
,,GODS,5.645575,1,,,,,,stimuli/images/PICTURE_314.png,GODS,5e8b3b6444fa88056eaae254,2020-06-30_19h54.12.009,proactive,2020.1.2,Win32,60,5efb791ed4cb570da489e737,5efb870df7a52c0ff0eee259,2,,,,,,perfume,,,,,,,,,,,2,0,0,46,46,11,1,,,,,,,,,,,,,,,,,,,,,,,,,,,,,,,,,,,,,,,,,,,,,,,,,,,,,,,,,,,,,,,,,,,,,,
,,?,0.000705,0,,,,,,stimuli/images/PICTURE_487.png,FLIGHT,5e8b3b6444fa88056eaae254,2020-06-30_19h54.12.009,proactive,2020.1.2,Win32,60,5efb791ed4cb570da489e737,5efb870df7a52c0ff0eee259,2,,,,,,basket,,,,,,,,,,,1,0,0,47,47,9,1,,,,,,,,,,,,,,,,,,,,,,,,,,,,,,,,,,,,,,,,,,,,,,,,,,,,,,,,,,,,,,,,,,,,,,
,,?,0.00051,0,,,,,,stimuli/images/PICTURE_208.png,MONTH,5e8b3b6444fa88056eaae254,2020-06-30_19h54.12.009,proactive,2020.1.2,Win32,60,5efb791ed4cb570da489e737,5efb870df7a52c0ff0eee259,2,,,,,,microphone,,,,,,,,,,,6,0,0,48,48,53,1,,,,,,,,,,,,,,,,,,,,,,,,,,,,,,,,,,,,,,,,,,,,,,,,,,,,,,,,,,,,,,,,,,,,,,
,,?,0.00051,0,,,,,,stimuli/images/PICTURE_708.png,PENNY,5e8b3b6444fa88056eaae254,2020-06-30_19h54.12.009,proactive,2020.1.2,Win32,60,5efb791ed4cb570da489e737,5efb870df7a52c0ff0eee259,2,,,,,,monkey,,,,,,,,,,,4,0,0,49,49,31,1,,,,,,,,,,,,,,,,,,,,,,,,,,,,,,,,,,,,,,,,,,,,,,,,,,,,,,,,,,,,,,,,,,,,,,
,,?,0.00049,0,,,,,,stimuli/images/PICTURE_147.png,MOMENT,5e8b3b6444fa88056eaae254,2020-06-30_19h54.12.009,proactive,2020.1.2,Win32,60,5efb791ed4cb570da489e737,5efb870df7a52c0ff0eee259,2,,,,,,hanger,,,,,,,,,,,6,0,0,50,50,51,1,,,,,,,,,,,,,,,,,,,,,,,,,,,,,,,,,,,,,,,,,,,,,,,,,,,,,,,,,,,,,,,,,,,,,,
,,?,0.000525,0,,,,,,stimuli/images/PICTURE_688.png,CASINO,5e8b3b6444fa88056eaae254,2020-06-30_19h54.12.009,proactive,2020.1.2,Win32,60,5efb791ed4cb570da489e737,5efb870df7a52c0ff0eee259,2,,,,,,runner,,,,,,,,,,,1,0,0,51,51,2,1,,,,,,,,,,,,,,,,,,,,,,,,,,,,,,,,,,,,,,,,,,,,,,,,,,,,,,,,,,,,,,,,,,,,,,
,,?,0.000505,0,,,,,,stimuli/images/PICTURE_488.png,STYLE,5e8b3b6444fa88056eaae254,2020-06-30_19h54.12.009,proactive,2020.1.2,Win32,60,5efb791ed4cb570da489e737,5efb870df7a52c0ff0eee259,2,,,,,,sun,,,,,,,,,,,4,0,0,52,52,33,1,,,,,,,,,,,,,,,,,,,,,,,,,,,,,,,,,,,,,,,,,,,,,,,,,,,,,,,,,,,,,,,,,,,,,,
,,WOMEN,2.172985,1,,,,,,stimuli/images/PICTURE_688.png,WOMEN,5e8b3b6444fa88056eaae254,2020-06-30_19h54.12.009,proactive,2020.1.2,Win32,60,5efb791ed4cb570da489e737,5efb870df7a52c0ff0eee259,2,,,,,,runner,,,,,,,,,,,2,0,0,53,53,14,1,,,,,,,,,,,,,,,,,,,,,,,,,,,,,,,,,,,,,,,,,,,,,,,,,,,,,,,,,,,,,,,,,,,,,,
,,?,0.00064,0,,,,,,stimuli/images/PICTURE_491.png,WRITER,5e8b3b6444fa88056eaae254,2020-06-30_19h54.12.009,proactive,2020.1.2,Win32,60,5efb791ed4cb570da489e737,5efb870df7a52c0ff0eee259,2,,,,,,rug,,,,,,,,,,,6,0,0,54,54,57,1,,,,,,,,,,,,,,,,,,,,,,,,,,,,,,,,,,,,,,,,,,,,,,,,,,,,,,,,,,,,,,,,,,,,,,
,,?,0.00048,0,,,,,,stimuli/images/PICTURE_339.png,PLENTY,5e8b3b6444fa88056eaae254,2020-06-30_19h54.12.009,proactive,2020.1.2,Win32,60,5efb791ed4cb570da489e737,5efb870df7a52c0ff0eee259,2,,,,,,backpack,,,,,,,,,,,1,0,0,55,55,0,1,,,,,,,,,,,,,,,,,,,,,,,,,,,,,,,,,,,,,,,,,,,,,,,,,,,,,,,,,,,,,,,,,,,,,,
,,?,0.00048,0,,,,,,stimuli/images/PICTURE_311.png,FRIEND,5e8b3b6444fa88056eaae254,2020-06-30_19h54.12.009,proactive,2020.1.2,Win32,60,5efb791ed4cb570da489e737,5efb870df7a52c0ff0eee259,2,,,,,,razor,,,,,,,,,,,4,0,0,56,56,34,1,,,,,,,,,,,,,,,,,,,,,,,,,,,,,,,,,,,,,,,,,,,,,,,,,,,,,,,,,,,,,,,,,,,,,,
,,?,0.000505,0,,,,,,stimuli/images/PICTURE_667.png,PLENTY,5e8b3b6444fa88056eaae254,2020-06-30_19h54.12.009,proactive,2020.1.2,Win32,60,5efb791ed4cb570da489e737,5efb870df7a52c0ff0eee259,2,,,,,,daisy,,,,,,,,,,,5,0,0,57,57,41,1,,,,,,,,,,,,,,,,,,,,,,,,,,,,,,,,,,,,,,,,,,,,,,,,,,,,,,,,,,,,,,,,,,,,,,
,,SAKE,3.69411,1,,,,,,stimuli/images/PICTURE_744.png,SAKE,5e8b3b6444fa88056eaae254,2020-06-30_19h54.12.009,proactive,2020.1.2,Win32,60,5efb791ed4cb570da489e737,5efb870df7a52c0ff0eee259,2,,,,,,ring,,,,,,,,,,,2,0,0,58,58,17,1,,,,,,,,,,,,,,,,,,,,,,,,,,,,,,,,,,,,,,,,,,,,,,,,,,,,,,,,,,,,,,,,,,,,,,
,,ADVICE,4.982225,1,,,,,,stimuli/images/PICTURE_285.png,ADVICE,5e8b3b6444fa88056eaae254,2020-06-30_19h54.12.009,proactive,2020.1.2,Win32,60,5efb791ed4cb570da489e737,5efb870df7a52c0ff0eee259,2,,,,,,carrot,,,,,,,,,,,2,0,0,59,59,12,1,,,,,,,,,,,,,,,,,,,,,,,,,,,,,,,,,,,,,,,,,,,,,,,,,,,,,,,,,,,,,,,,,,,,,,
,,,,,,,,,,,,5e8b3b6444fa88056eaae254,2020-06-30_19h54.12.009,proactive,2020.1.2,Win32,60,5efb791ed4cb570da489e737,5efb870df7a52c0ff0eee259,2,,,,,,,,,,,,,,,,,,,,,,,,0,0,0,0,1,stimuli/learn-block1.csv,,,,,,,,,,,,,,,,,,,,,,,,,,,,,,,,,,,,,,,,,,,,,,,,,,,,,,,,,,,,,,,,
,,,,,,,,,,stimuli/images/PICTURE_348.png,TOILET,5e8b3b6444fa88056eaae254,2020-06-30_19h54.12.009,proactive,2020.1.2,Win32,60,5efb791ed4cb570da489e737,5efb870df7a52c0ff0eee259,2,,,,,,pepper,,,,,,0,0,0,4,1,1,2,,,,,,,,,,,,,,,,,,,,,,,,,,,,,,,,,,,,,,,,,,,,,,,,,,,,,,,,,,,,,,,,,,,,,,,,,,,
,,,,,,,,,,stimuli/images/PICTURE_509.png,SHOTS,5e8b3b6444fa88056eaae254,2020-06-30_19h54.12.009,proactive,2020.1.2,Win32,60,5efb791ed4cb570da489e737,5efb870df7a52c0ff0eee259,2,,,,,,telephone,,,,,,0,1,1,7,1,1,2,,,,,,,,,,,,,,,,,,,,,,,,,,,,,,,,,,,,,,,,,,,,,,,,,,,,,,,,,,,,,,,,,,,,,,,,,,,
,,,,,,,,,,stimuli/images/PICTURE_57.png,CASINO,5e8b3b6444fa88056eaae254,2020-06-30_19h54.12.009,proactive,2020.1.2,Win32,60,5efb791ed4cb570da489e737,5efb870df7a52c0ff0eee259,2,,,,,,stamp,,,,,,0,2,2,12,1,2,2,,,,,,,,,,,,,,,,,,,,,,,,,,,,,,,,,,,,,,,,,,,,,,,,,,,,,,,,,,,,,,,,,,,,,,,,,,,
,,,,,,,,,,stimuli/images/PICTURE_160.png,HOTEL,5e8b3b6444fa88056eaae254,2020-06-30_19h54.12.009,proactive,2020.1.2,Win32,60,5efb791ed4cb570da489e737,5efb870df7a52c0ff0eee259,2,,,,,,wheelbarrow,,,,,,0,3,3,16,1,2,2,,,,,,,,,,,,,,,,,,,,,,,,,,,,,,,,,,,,,,,,,,,,,,,,,,,,,,,,,,,,,,,,,,,,,,,,,,,
,,,,,,,,,,stimuli/images/PICTURE_285.png,PRINCE,5e8b3b6444fa88056eaae254,2020-06-30_19h54.12.009,proactive,2020.1.2,Win32,60,5efb791ed4cb570da489e737,5efb870df7a52c0ff0eee259,2,,,,,,carrot,,,,,,0,4,4,20,1,3,2,,,,,,,,,,,,,,,,,,,,,,,,,,,,,,,,,,,,,,,,,,,,,,,,,,,,,,,,,,,,,,,,,,,,,,,,,,,
,,,,,,,,,,stimuli/images/PICTURE_654.png,YEAR,5e8b3b6444fa88056eaae254,2020-06-30_19h54.12.009,proactive,2020.1.2,Win32,60,5efb791ed4cb570da489e737,5efb870df7a52c0ff0eee259,2,,,,,,pencil,,,,,,0,5,5,41,1,5,2,,,,,,,,,,,,,,,,,,,,,,,,,,,,,,,,,,,,,,,,,,,,,,,,,,,,,,,,,,,,,,,,,,,,,,,,,,,
,,,,,,,,,,stimuli/images/PICTURE_18.png,RIVER,5e8b3b6444fa88056eaae254,2020-06-30_19h54.12.009,proactive,2020.1.2,Win32,60,5efb791ed4cb570da489e737,5efb870df7a52c0ff0eee259,2,,,,,,planet,,,,,,0,6,6,22,1,3,2,,,,,,,,,,,,,,,,,,,,,,,,,,,,,,,,,,,,,,,,,,,,,,,,,,,,,,,,,,,,,,,,,,,,,,,,,,,
,,,,,,,,,,stimuli/images/PICTURE_33.png,COPS,5e8b3b6444fa88056eaae254,2020-06-30_19h54.12.009,proactive,2020.1.2,Win32,60,5efb791ed4cb570da489e737,5efb870df7a52c0ff0eee259,2,,,,,,frame,,,,,,0,7,7,29,1,3,2,,,,,,,,,,,,,,,,,,,,,,,,,,,,,,,,,,,,,,,,,,,,,,,,,,,,,,,,,,,,,,,,,,,,,,,,,,,
,,,,,,,,,,stimuli/images/PICTURE_311.png,FLESH,5e8b3b6444fa88056eaae254,2020-06-30_19h54.12.009,proactive,2020.1.2,Win32,60,5efb791ed4cb570da489e737,5efb870df7a52c0ff0eee259,2,,,,,,razor,,,,,,0,8,8,3,1,1,2,,,,,,,,,,,,,,,,,,,,,,,,,,,,,,,,,,,,,,,,,,,,,,,,,,,,,,,,,,,,,,,,,,,,,,,,,,,
,,,,,,,,,,stimuli/images/PICTURE_296.png,CLOCK,5e8b3b6444fa88056eaae254,2020-06-30_19h54.12.009,proactive,2020.1.2,Win32,60,5efb791ed4cb570da489e737,5efb870df7a52c0ff0eee259,2,,,,,,bolt,,,,,,0,9,9,18,1,2,2,,,,,,,,,,,,,,,,,,,,,,,,,,,,,,,,,,,,,,,,,,,,,,,,,,,,,,,,,,,,,,,,,,,,,,,,,,,
,,,,,,,,,,stimuli/images/PICTURE_403.png,FAMILY,5e8b3b6444fa88056eaae254,2020-06-30_19h54.12.009,proactive,2020.1.2,Win32,60,5efb791ed4cb570da489e737,5efb870df7a52c0ff0eee259,2,,,,,,cathedral,,,,,,0,10,10,9,1,1,2,,,,,,,,,,,,,,,,,,,,,,,,,,,,,,,,,,,,,,,,,,,,,,,,,,,,,,,,,,,,,,,,,,,,,,,,,,,
,,,,,,,,,,stimuli/images/PICTURE_655.png,SALE,5e8b3b6444fa88056eaae254,2020-06-30_19h54.12.009,proactive,2020.1.2,Win32,60,5efb791ed4cb570da489e737,5efb870df7a52c0ff0eee259,2,,,,,,megaphone,,,,,,0,11,11,57,1,6,2,,,,,,,,,,,,,,,,,,,,,,,,,,,,,,,,,,,,,,,,,,,,,,,,,,,,,,,,,,,,,,,,,,,,,,,,,,,
,,,,,,,,,,stimuli/images/PICTURE_32.png,LETTER,5e8b3b6444fa88056eaae254,2020-06-30_19h54.12.009,proactive,2020.1.2,Win32,60,5efb791ed4cb570da489e737,5efb870df7a52c0ff0eee259,2,,,,,,crown,,,,,,0,12,12,56,1,6,2,,,,,,,,,,,,,,,,,,,,,,,,,,,,,,,,,,,,,,,,,,,,,,,,,,,,,,,,,,,,,,,,,,,,,,,,,,,
,,,,,,,,,,stimuli/images/PICTURE_93.png,GIRL,5e8b3b6444fa88056eaae254,2020-06-30_19h54.12.009,proactive,2020.1.2,Win32,60,5efb791ed4cb570da489e737,5efb870df7a52c0ff0eee259,2,,,,,,skateboard,,,,,,0,13,13,31,1,4,2,,,,,,,,,,,,,,,,,,,,,,,,,,,,,,,,,,,,,,,,,,,,,,,,,,,,,,,,,,,,,,,,,,,,,,,,,,,
,,,,,,,,,,stimuli/images/PICTURE_405.png,JUNGLE,5e8b3b6444fa88056eaae254,2020-06-30_19h54.12.009,proactive,2020.1.2,Win32,60,5efb791ed4cb570da489e737,5efb870df7a52c0ff0eee259,2,,,,,,anchor,,,,,,0,14,14,58,1,6,2,,,,,,,,,,,,,,,,,,,,,,,,,,,,,,,,,,,,,,,,,,,,,,,,,,,,,,,,,,,,,,,,,,,,,,,,,,,
,,,,,,,,,,stimuli/images/PICTURE_208.png,SPIRIT,5e8b3b6444fa88056eaae254,2020-06-30_19h54.12.009,proactive,2020.1.2,Win32,60,5efb791ed4cb570da489e737,5efb870df7a52c0ff0eee259,2,,,,,,microphone,,,,,,0,15,15,28,1,3,2,,,,,,,,,,,,,,,,,,,,,,,,,,,,,,,,,,,,,,,,,,,,,,,,,,,,,,,,,,,,,,,,,,,,,,,,,,,
,,,,,,,,,,stimuli/images/PICTURE_2.png,JUNGLE,5e8b3b6444fa88056eaae254,2020-06-30_19h54.12.009,proactive,2020.1.2,Win32,60,5efb791ed4cb570da489e737,5efb870df7a52c0ff0eee259,2,,,,,,tyre,,,,,,0,16,16,1,1,1,2,,,,,,,,,,,,,,,,,,,,,,,,,,,,,,,,,,,,,,,,,,,,,,,,,,,,,,,,,,,,,,,,,,,,,,,,,,,
,,,,,,,,,,stimuli/images/PICTURE_95.png,NIGHT,5e8b3b6444fa88056eaae254,2020-06-30_19h54.12.009,proactive,2020.1.2,Win32,60,5efb791ed4cb570da489e737,5efb870df7a52c0ff0eee259,2,,,,,,suitcase,,,,,,0,17,17,37,1,4,2,,,,,,,,,,,,,,,,,,,,,,,,,,,,,,,,,,,,,,,,,,,,,,,,,,,,,,,,,,,,,,,,,,,,,,,,,,,
,,,,,,,,,,stimuli/images/PICTURE_348.png,DUDE,5e8b3b6444fa88056eaae254,2020-06-30_19h54.12.009,proactive,2020.1.2,Win32,60,5efb791ed4cb570da489e737,5efb870df7a52c0ff0eee259,2,,,,,,pepper,,,,,,0,18,18,59,1,6,2,,,,,,,,,,,,,,,,,,,,,,,,,,,,,,,,,,,,,,,,,,,,,,,,,,,,,,,,,,,,,,,,,,,,,,,,,,,
,,,,,,,,,,stimuli/images/PICTURE_504.png,HOUSE,5e8b3b6444fa88056eaae254,2020-06-30_19h54.12.009,proactive,2020.1.2,Win32,60,5efb791ed4cb570da489e737,5efb870df7a52c0ff0eee259,2,,,,,,wheel,,,,,,0,19,19,36,1,4,2,,,,,,,,,,,,,,,,,,,,,,,,,,,,,,,,,,,,,,,,,,,,,,,,,,,,,,,,,,,,,,,,,,,,,,,,,,,
,,,,,,,,,,stimuli/images/PICTURE_123.png,SALE,5e8b3b6444fa88056eaae254,2020-06-30_19h54.12.009,proactive,2020.1.2,Win32,60,5efb791ed4cb570da489e737,5efb870df7a52c0ff0eee259,2,,,,,,dart,,,,,,0,20,20,8,1,1,2,,,,,,,,,,,,,,,,,,,,,,,,,,,,,,,,,,,,,,,,,,,,,,,,,,,,,,,,,,,,,,,,,,,,,,,,,,,
,,,,,,,,,,stimuli/images/PICTURE_147.png,LEADER,5e8b3b6444fa88056eaae254,2020-06-30_19h54.12.009,proactive,2020.1.2,Win32,60,5efb791ed4cb570da489e737,5efb870df7a52c0ff0eee259,2,,,,,,hanger,,,,,,0,21,21,33,1,4,2,,,,,,,,,,,,,,,,,,,,,,,,,,,,,,,,,,,,,,,,,,,,,,,,,,,,,,,,,,,,,,,,,,,,,,,,,,,
,,,,,,,,,,stimuli/images/PICTURE_487.png,ROOF,5e8b3b6444fa88056eaae254,2020-06-30_19h54.12.009,proactive,2020.1.2,Win32,60,5efb791ed4cb570da489e737,5efb870df7a52c0ff0eee259,2,,,,,,basket,,,,,,0,22,22,50,1,6,2,,,,,,,,,,,,,,,,,,,,,,,,,,,,,,,,,,,,,,,,,,,,,,,,,,,,,,,,,,,,,,,,,,,,,,,,,,,
,,,,,,,,,,stimuli/images/PICTURE_453.png,FAMILY,5e8b3b6444fa88056eaae254,2020-06-30_19h54.12.009,proactive,2020.1.2,Win32,60,5efb791ed4cb570da489e737,5efb870df7a52c0ff0eee259,2,,,,,,scissors,,,,,,0,23,23,48,1,5,2,,,,,,,,,,,,,,,,,,,,,,,,,,,,,,,,,,,,,,,,,,,,,,,,,,,,,,,,,,,,,,,,,,,,,,,,,,,
,,,,,,,,,,stimuli/images/PICTURE_215.png,LEADER,5e8b3b6444fa88056eaae254,2020-06-30_19h54.12.009,proactive,2020.1.2,Win32,60,5efb791ed4cb570da489e737,5efb870df7a52c0ff0eee259,2,,,,,,boot,,,,,,0,24,24,43,1,5,2,,,,,,,,,,,,,,,,,,,,,,,,,,,,,,,,,,,,,,,,,,,,,,,,,,,,,,,,,,,,,,,,,,,,,,,,,,,
,,,,,,,,,,stimuli/images/PICTURE_2.png,AREA,5e8b3b6444fa88056eaae254,2020-06-30_19h54.12.009,proactive,2020.1.2,Win32,60,5efb791ed4cb570da489e737,5efb870df7a52c0ff0eee259,2,,,,,,tyre,,,,,,0,25,25,32,1,4,2,,,,,,,,,,,,,,,,,,,,,,,,,,,,,,,,,,,,,,,,,,,,,,,,,,,,,,,,,,,,,,,,,,,,,,,,,,,
,,,,,,,,,,stimuli/images/PICTURE_692.png,DUDE,5e8b3b6444fa88056eaae254,2020-06-30_19h54.12.009,proactive,2020.1.2,Win32,60,5efb791ed4cb570da489e737,5efb870df7a52c0ff0eee259,2,,,,,,cherry,,,,,,0,26,26,47,1,5,2,,,,,,,,,,,,,,,,,,,,,,,,,,,,,,,,,,,,,,,,,,,,,,,,,,,,,,,,,,,,,,,,,,,,,,,,,,,
,,,,,,,,,,stimuli/images/PICTURE_405.png,JUNGLE,5e8b3b6444fa88056eaae254,2020-06-30_19h54.12.009,proactive,2020.1.2,Win32,60,5efb791ed4cb570da489e737,5efb870df7a52c0ff0eee259,2,,,,,,anchor,,,,,,0,27,27,13,1,2,2,,,,,,,,,,,,,,,,,,,,,,,,,,,,,,,,,,,,,,,,,,,,,,,,,,,,,,,,,,,,,,,,,,,,,,,,,,,
,,,,,,,,,,stimuli/images/PICTURE_57.png,NATION,5e8b3b6444fa88056eaae254,2020-06-30_19h54.12.009,proactive,2020.1.2,Win32,60,5efb791ed4cb570da489e737,5efb870df7a52c0ff0eee259,2,,,,,,stamp,,,,,,0,28,28,21,1,3,2,,,,,,,,,,,,,,,,,,,,,,,,,,,,,,,,,,,,,,,,,,,,,,,,,,,,,,,,,,,,,,,,,,,,,,,,,,,
,,,,,,,,,,stimuli/images/PICTURE_177.png,HOUSE,5e8b3b6444fa88056eaae254,2020-06-30_19h54.12.009,proactive,2020.1.2,Win32,60,5efb791ed4cb570da489e737,5efb870df7a52c0ff0eee259,2,,,,,,mushroom,,,,,,0,29,29,25,1,3,2,,,,,,,,,,,,,,,,,,,,,,,,,,,,,,,,,,,,,,,,,,,,,,,,,,,,,,,,,,,,,,,,,,,,,,,,,,,
,,,,,,,,,,stimuli/images/PICTURE_327.png,LEADER,5e8b3b6444fa88056eaae254,2020-06-30_19h54.12.009,proactive,2020.1.2,Win32,60,5efb791ed4cb570da489e737,5efb870df7a52c0ff0eee259,2,,,,,,helmet,,,,,,0,30,30,17,1,2,2,,,,,,,,,,,,,,,,,,,,,,,,,,,,,,,,,,,,,,,,,,,,,,,,,,,,,,,,,,,,,,,,,,,,,,,,,,,
,,,,,,,,,,stimuli/images/PICTURE_255.png,PENNY,5e8b3b6444fa88056eaae254,2020-06-30_19h54.12.009,proactive,2020.1.2,Win32,60,5efb791ed4cb570da489e737,5efb870df7a52c0ff0eee259,2,,,,,,shovel,,,,,,0,31,31,19,1,2,2,,,,,,,,,,,,,,,,,,,,,,,,,,,,,,,,,,,,,,,,,,,,,,,,,,,,,,,,,,,,,,,,,,,,,,,,,,,
,,,,,,,,,,stimuli/images/PICTURE_405.png,HOUSE,5e8b3b6444fa88056eaae254,2020-06-30_19h54.12.009,proactive,2020.1.2,Win32,60,5efb791ed4cb570da489e737,5efb870df7a52c0ff0eee259,2,,,,,,anchor,,,,,,0,32,32,2,1,1,2,,,,,,,,,,,,,,,,,,,,,,,,,,,,,,,,,,,,,,,,,,,,,,,,,,,,,,,,,,,,,,,,,,,,,,,,,,,
,,,,,,,,,,stimuli/images/PICTURE_356.png,CANDY,5e8b3b6444fa88056eaae254,2020-06-30_19h54.12.009,proactive,2020.1.2,Win32,60,5efb791ed4cb570da489e737,5efb870df7a52c0ff0eee259,2,,,,,,pawn,,,,,,0,33,33,46,1,5,2,,,,,,,,,,,,,,,,,,,,,,,,,,,,,,,,,,,,,,,,,,,,,,,,,,,,,,,,,,,,,,,,,,,,,,,,,,,
,,,,,,,,,,stimuli/images/PICTURE_68.png,KIND,5e8b3b6444fa88056eaae254,2020-06-30_19h54.12.009,proactive,2020.1.2,Win32,60,5efb791ed4cb570da489e737,5efb870df7a52c0ff0eee259,2,,,,,,candle,,,,,,0,34,34,23,1,3,2,,,,,,,,,,,,,,,,,,,,,,,,,,,,,,,,,,,,,,,,,,,,,,,,,,,,,,,,,,,,,,,,,,,,,,,,,,,
,,,,,,,,,,stimuli/images/PICTURE_509.png,BATH,5e8b3b6444fa88056eaae254,2020-06-30_19h54.12.009,proactive,2020.1.2,Win32,60,5efb791ed4cb570da489e737,5efb870df7a52c0ff0eee259,2,,,,,,telephone,,,,,,0,35,35,15,1,2,2,,,,,,,,,,,,,,,,,,,,,,,,,,,,,,,,,,,,,,,,,,,,,,,,,,,,,,,,,,,,,,,,,,,,,,,,,,,
,,,,,,,,,,stimuli/images/PICTURE_654.png,COPS,5e8b3b6444fa88056eaae254,2020-06-30_19h54.12.009,proactive,2020.1.2,Win32,60,5efb791ed4cb570da489e737,5efb870df7a52c0ff0eee259,2,,,,,,pencil,,,,,,0,36,36,10,1,2,2,,,,,,,,,,,,,,,,,,,,,,,,,,,,,,,,,,,,,,,,,,,,,,,,,,,,,,,,,,,,,,,,,,,,,,,,,,,
,,,,,,,,,,stimuli/images/PICTURE_311.png,TOILET,5e8b3b6444fa88056eaae254,2020-06-30_19h54.12.009,proactive,2020.1.2,Win32,60,5efb791ed4cb570da489e737,5efb870df7a52c0ff0eee259,2,,,,,,razor,,,,,,0,37,37,54,1,6,2,,,,,,,,,,,,,,,,,,,,,,,,,,,,,,,,,,,,,,,,,,,,,,,,,,,,,,,,,,,,,,,,,,,,,,,,,,,
,,,,,,,,,,stimuli/images/PICTURE_677.png,FAMILY,5e8b3b6444fa88056eaae254,2020-06-30_19h54.12.009,proactive,2020.1.2,Win32,60,5efb791ed4cb570da489e737,5efb870df7a52c0ff0eee259,2,,,,,,map,,,,,,0,38,38,53,1,6,2,,,,,,,,,,,,,,,,,,,,,,,,,,,,,,,,,,,,,,,,,,,,,,,,,,,,,,,,,,,,,,,,,,,,,,,,,,,
,,,,,,,,,,stimuli/images/PICTURE_141.png,CLIENT,5e8b3b6444fa88056eaae254,2020-06-30_19h54.12.009,proactive,2020.1.2,Win32,60,5efb791ed4cb570da489e737,5efb870df7a52c0ff0eee259,2,,,,,,sunflower,,,,,,0,39,39,30,1,4,2,,,,,,,,,,,,,,,,,,,,,,,,,,,,,,,,,,,,,,,,,,,,,,,,,,,,,,,,,,,,,,,,,,,,,,,,,,,
,,,,,,,,,,stimuli/images/PICTURE_509.png,APPLE,5e8b3b6444fa88056eaae254,2020-06-30_19h54.12.009,proactive,2020.1.2,Win32,60,5efb791ed4cb570da489e737,5efb870df7a52c0ff0eee259,2,,,,,,telephone,,,,,,0,40,40,38,1,4,2,,,,,,,,,,,,,,,,,,,,,,,,,,,,,,,,,,,,,,,,,,,,,,,,,,,,,,,,,,,,,,,,,,,,,,,,,,,
,,,,,,,,,,stimuli/images/PICTURE_215.png,FOOD,5e8b3b6444fa88056eaae254,2020-06-30_19h54.12.009,proactive,2020.1.2,Win32,60,5efb791ed4cb570da489e737,5efb870df7a52c0ff0eee259,2,,,,,,boot,,,,,,0,41,41,5,1,1,2,,,,,,,,,,,,,,,,,,,,,,,,,,,,,,,,,,,,,,,,,,,,,,,,,,,,,,,,,,,,,,,,,,,,,,,,,,,
,,,,,,,,,,stimuli/images/PICTURE_470.png,MOMENT,5e8b3b6444fa88056eaae254,2020-06-30_19h54.12.009,proactive,2020.1.2,Win32,60,5efb791ed4cb570da489e737,5efb870df7a52c0ff0eee259,2,,,,,,motorbike,,,,,,0,42,42,40,1,5,2,,,,,,,,,,,,,,,,,,,,,,,,,,,,,,,,,,,,,,,,,,,,,,,,,,,,,,,,,,,,,,,,,,,,,,,,,,,
,,,,,,,,,,stimuli/images/PICTURE_667.png,GLASS,5e8b3b6444fa88056eaae254,2020-06-30_19h54.12.009,proactive,2020.1.2,Win32,60,5efb791ed4cb570da489e737,5efb870df7a52c0ff0eee259,2,,,,,,daisy,,,,,,0,43,43,27,1,3,2,,,,,,,,,,,,,,,,,,,,,,,,,,,,,,,,,,,,,,,,,,,,,,,,,,,,,,,,,,,,,,,,,,,,,,,,,,,
,,,,,,,,,,stimuli/images/PICTURE_688.png,CLOCK,5e8b3b6444fa88056eaae254,2020-06-30_19h54.12.009,proactive,2020.1.2,Win32,60,5efb791ed4cb570da489e737,5efb870df7a52c0ff0eee259,2,,,,,,runner,,,,,,0,44,44,42,1,5,2,,,,,,,,,,,,,,,,,,,,,,,,,,,,,,,,,,,,,,,,,,,,,,,,,,,,,,,,,,,,,,,,,,,,,,,,,,,
,,,,,,,,,,stimuli/images/PICTURE_491.png,SERIES,5e8b3b6444fa88056eaae254,2020-06-30_19h54.12.009,proactive,2020.1.2,Win32,60,5efb791ed4cb570da489e737,5efb870df7a52c0ff0eee259,2,,,,,,rug,,,,,,0,45,45,39,1,4,2,,,,,,,,,,,,,,,,,,,,,,,,,,,,,,,,,,,,,,,,,,,,,,,,,,,,,,,,,,,,,,,,,,,,,,,,,,,
,,,,,,,,,,stimuli/images/PICTURE_487.png,POLICY,5e8b3b6444fa88056eaae254,2020-06-30_19h54.12.009,proactive,2020.1.2,Win32,60,5efb791ed4cb570da489e737,5efb870df7a52c0ff0eee259,2,,,,,,basket,,,,,,0,46,46,34,1,4,2,,,,,,,,,,,,,,,,,,,,,,,,,,,,,,,,,,,,,,,,,,,,,,,,,,,,,,,,,,,,,,,,,,,,,,,,,,,
,,,,,,,,,,stimuli/images/PICTURE_2.png,YARD,5e8b3b6444fa88056eaae254,2020-06-30_19h54.12.009,proactive,2020.1.2,Win32,60,5efb791ed4cb570da489e737,5efb870df7a52c0ff0eee259,2,,,,,,tyre,,,,,,0,47,47,55,1,6,2,,,,,,,,,,,,,,,,,,,,,,,,,,,,,,,,,,,,,,,,,,,,,,,,,,,,,,,,,,,,,,,,,,,,,,,,,,,
,,,,,,,,,,stimuli/images/PICTURE_677.png,PHOTO,5e8b3b6444fa88056eaae254,2020-06-30_19h54.12.009,proactive,2020.1.2,Win32,60,5efb791ed4cb570da489e737,5efb870df7a52c0ff0eee259,2,,,,,,map,,,,,,0,48,48,14,1,2,2,,,,,,,,,,,,,,,,,,,,,,,,,,,,,,,,,,,,,,,,,,,,,,,,,,,,,,,,,,,,,,,,,,,,,,,,,,,
,,,,,,,,,,stimuli/images/PICTURE_215.png,BOYS,5e8b3b6444fa88056eaae254,2020-06-30_19h54.12.009,proactive,2020.1.2,Win32,60,5efb791ed4cb570da489e737,5efb870df7a52c0ff0eee259,2,,,,,,boot,,,,,,0,49,49,24,1,3,2,,,,,,,,,,,,,,,,,,,,,,,,,,,,,,,,,,,,,,,,,,,,,,,,,,,,,,,,,,,,,,,,,,,,,,,,,,,
,,,,,,,,,,stimuli/images/PICTURE_285.png,WRITER,5e8b3b6444fa88056eaae254,2020-06-30_19h54.12.009,proactive,2020.1.2,Win32,60,5efb791ed4cb570da489e737,5efb870df7a52c0ff0eee259,2,,,,,,carrot,,,,,,0,50,50,6,1,1,2,,,,,,,,,,,,,,,,,,,,,,,,,,,,,,,,,,,,,,,,,,,,,,,,,,,,,,,,,,,,,,,,,,,,,,,,,,,
,,,,,,,,,,stimuli/images/PICTURE_708.png,VALLEY,5e8b3b6444fa88056eaae254,2020-06-30_19h54.12.009,proactive,2020.1.2,Win32,60,5efb791ed4cb570da489e737,5efb870df7a52c0ff0eee259,2,,,,,,monkey,,,,,,0,51,51,45,1,5,2,,,,,,,,,,,,,,,,,,,,,,,,,,,,,,,,,,,,,,,,,,,,,,,,,,,,,,,,,,,,,,,,,,,,,,,,,,,
,,,,,,,,,,stimuli/images/PICTURE_314.png,SPEECH,5e8b3b6444fa88056eaae254,2020-06-30_19h54.12.009,proactive,2020.1.2,Win32,60,5efb791ed4cb570da489e737,5efb870df7a52c0ff0eee259,2,,,,,,perfume,,,,,,0,52,52,35,1,4,2,,,,,,,,,,,,,,,,,,,,,,,,,,,,,,,,,,,,,,,,,,,,,,,,,,,,,,,,,,,,,,,,,,,,,,,,,,,
,,,,,,,,,,stimuli/images/PICTURE_452.png,COPS,5e8b3b6444fa88056eaae254,2020-06-30_19h54.12.009,proactive,2020.1.2,Win32,60,5efb791ed4cb570da489e737,5efb870df7a52c0ff0eee259,2,,,,,,watch,,,,,,0,53,53,0,1,1,2,,,,,,,,,,,,,,,,,,,,,,,,,,,,,,,,,,,,,,,,,,,,,,,,,,,,,,,,,,,,,,,,,,,,,,,,,,,
,,,,,,,,,,stimuli/images/PICTURE_564.png,PLENTY,5e8b3b6444fa88056eaae254,2020-06-30_19h54.12.009,proactive,2020.1.2,Win32,60,5efb791ed4cb570da489e737,5efb870df7a52c0ff0eee259,2,,,,,,spoon,,,,,,0,54,54,11,1,2,2,,,,,,,,,,,,,,,,,,,,,,,,,,,,,,,,,,,,,,,,,,,,,,,,,,,,,,,,,,,,,,,,,,,,,,,,,,,
,,,,,,,,,,stimuli/images/PICTURE_509.png,MILLER,5e8b3b6444fa88056eaae254,2020-06-30_19h54.12.009,proactive,2020.1.2,Win32,60,5efb791ed4cb570da489e737,5efb870df7a52c0ff0eee259,2,,,,,,telephone,,,,,,0,55,55,49,1,5,2,,,,,,,,,,,,,,,,,,,,,,,,,,,,,,,,,,,,,,,,,,,,,,,,,,,,,,,,,,,,,,,,,,,,,,,,,,,
,,,,,,,,,,stimuli/images/PICTURE_297.png,BODY,5e8b3b6444fa88056eaae254,2020-06-30_19h54.12.009,proactive,2020.1.2,Win32,60,5efb791ed4cb570da489e737,5efb870df7a52c0ff0eee259,2,,,,,,aeroplane,,,,,,0,56,56,51,1,6,2,,,,,,,,,,,,,,,,,,,,,,,,,,,,,,,,,,,,,,,,,,,,,,,,,,,,,,,,,,,,,,,,,,,,,,,,,,,
,,,,,,,,,,stimuli/images/PICTURE_57.png,CANDY,5e8b3b6444fa88056eaae254,2020-06-30_19h54.12.009,proactive,2020.1.2,Win32,60,5efb791ed4cb570da489e737,5efb870df7a52c0ff0eee259,2,,,,,,stamp,,,,,,0,57,57,52,1,6,2,,,,,,,,,,,,,,,,,,,,,,,,,,,,,,,,,,,,,,,,,,,,,,,,,,,,,,,,,,,,,,,,,,,,,,,,,,,
,,,,,,,,,,stimuli/images/PICTURE_750.png,POLICY,5e8b3b6444fa88056eaae254,2020-06-30_19h54.12.009,proactive,2020.1.2,Win32,60,5efb791ed4cb570da489e737,5efb870df7a52c0ff0eee259,2,,,,,,kettle,,,,,,0,58,58,44,1,5,2,,,,,,,,,,,,,,,,,,,,,,,,,,,,,,,,,,,,,,,,,,,,,,,,,,,,,,,,,,,,,,,,,,,,,,,,,,,
,,?,0.001455,0,,,,,,stimuli/images/PICTURE_297.png,BODY,5e8b3b6444fa88056eaae254,2020-06-30_19h54.12.009,proactive,2020.1.2,Win32,60,5efb791ed4cb570da489e737,5efb870df7a52c0ff0eee259,2,,,,,,aeroplane,,,,,,,,,,,6,2,0,0,0,51,1,,,,,,,,,,,,,,,,,,,,,,,,,,,,,,,,,,,,,,,,,,,,,,,,,,,,,,,,,,,,,,,,,,,,,,
,,?,0.000345,0,,,,,,stimuli/images/PICTURE_348.png,TOILET,5e8b3b6444fa88056eaae254,2020-06-30_19h54.12.009,proactive,2020.1.2,Win32,60,5efb791ed4cb570da489e737,5efb870df7a52c0ff0eee259,2,,,,,,pepper,,,,,,,,,,,1,2,0,1,1,4,1,,,,,,,,,,,,,,,,,,,,,,,,,,,,,,,,,,,,,,,,,,,,,,,,,,,,,,,,,,,,,,,,,,,,,,
,,?,0.000355,0,,,,,,stimuli/images/PICTURE_311.png,FLESH,5e8b3b6444fa88056eaae254,2020-06-30_19h54.12.009,proactive,2020.1.2,Win32,60,5efb791ed4cb570da489e737,5efb870df7a52c0ff0eee259,2,,,,,,razor,,,,,,,,,,,1,2,0,2,2,3,1,,,,,,,,,,,,,,,,,,,,,,,,,,,,,,,,,,,,,,,,,,,,,,,,,,,,,,,,,,,,,,,,,,,,,,
,,?,0.00038,0,,,,,,stimuli/images/PICTURE_677.png,FAMILY,5e8b3b6444fa88056eaae254,2020-06-30_19h54.12.009,proactive,2020.1.2,Win32,60,5efb791ed4cb570da489e737,5efb870df7a52c0ff0eee259,2,,,,,,map,,,,,,,,,,,6,2,0,3,3,53,1,,,,,,,,,,,,,,,,,,,,,,,,,,,,,,,,,,,,,,,,,,,,,,,,,,,,,,,,,,,,,,,,,,,,,,
,,?,0.000375,0,,,,,,stimuli/images/PICTURE_2.png,JUNGLE,5e8b3b6444fa88056eaae254,2020-06-30_19h54.12.009,proactive,2020.1.2,Win32,60,5efb791ed4cb570da489e737,5efb870df7a52c0ff0eee259,2,,,,,,tyre,,,,,,,,,,,1,2,0,4,4,1,1,,,,,,,,,,,,,,,,,,,,,,,,,,,,,,,,,,,,,,,,,,,,,,,,,,,,,,,,,,,,,,,,,,,,,,
,,?,0.000375,0,,,,,,stimuli/images/PICTURE_18.png,RIVER,5e8b3b6444fa88056eaae254,2020-06-30_19h54.12.009,proactive,2020.1.2,Win32,60,5efb791ed4cb570da489e737,5efb870df7a52c0ff0eee259,2,,,,,,planet,,,,,,,,,,,3,2,0,5,5,22,1,,,,,,,,,,,,,,,,,,,,,,,,,,,,,,,,,,,,,,,,,,,,,,,,,,,,,,,,,,,,,,,,,,,,,,
,,?,0.00039,0,,,,,,stimuli/images/PICTURE_509.png,SHOTS,5e8b3b6444fa88056eaae254,2020-06-30_19h54.12.009,proactive,2020.1.2,Win32,60,5efb791ed4cb570da489e737,5efb870df7a52c0ff0eee259,2,,,,,,telephone,,,,,,,,,,,1,2,0,6,6,7,1,,,,,,,,,,,,,,,,,,,,,,,,,,,,,,,,,,,,,,,,,,,,,,,,,,,,,,,,,,,,,,,,,,,,,,
,,?,0.000375,0,,,,,,stimuli/images/PICTURE_356.png,CANDY,5e8b3b6444fa88056eaae254,2020-06-30_19h54.12.009,proactive,2020.1.2,Win32,60,5efb791ed4cb570da489e737,5efb870df7a52c0ff0eee259,2,,,,,,pawn,,,,,,,,,,,5,2,0,7,7,46,1,,,,,,,,,,,,,,,,,,,,,,,,,,,,,,,,,,,,,,,,,,,,,,,,,,,,,,,,,,,,,,,,,,,,,,
,,?,0.00038,0,,,,,,stimuli/images/PICTURE_215.png,FOOD,5e8b3b6444fa88056eaae254,2020-06-30_19h54.12.009,proactive,2020.1.2,Win32,60,5efb791ed4cb570da489e737,5efb870df7a52c0ff0eee259,2,,,,,,boot,,,,,,,,,,,1,2,0,8,8,5,1,,,,,,,,,,,,,,,,,,,,,,,,,,,,,,,,,,,,,,,,,,,,,,,,,,,,,,,,,,,,,,,,,,,,,,
,,?,0.00038,0,,,,,,stimuli/images/PICTURE_57.png,CANDY,5e8b3b6444fa88056eaae254,2020-06-30_19h54.12.009,proactive,2020.1.2,Win32,60,5efb791ed4cb570da489e737,5efb870df7a52c0ff0eee259,2,,,,,,stamp,,,,,,,,,,,6,2,0,9,9,52,1,,,,,,,,,,,,,,,,,,,,,,,,,,,,,,,,,,,,,,,,,,,,,,,,,,,,,,,,,,,,,,,,,,,,,,
,,?,0.000365,0,,,,,,stimuli/images/PICTURE_57.png,NATION,5e8b3b6444fa88056eaae254,2020-06-30_19h54.12.009,proactive,2020.1.2,Win32,60,5efb791ed4cb570da489e737,5efb870df7a52c0ff0eee259,2,,,,,,stamp,,,,,,,,,,,3,2,0,10,10,21,1,,,,,,,,,,,,,,,,,,,,,,,,,,,,,,,,,,,,,,,,,,,,,,,,,,,,,,,,,,,,,,,,,,,,,,
,,?,0.000365,0,,,,,,stimuli/images/PICTURE_208.png,SPIRIT,5e8b3b6444fa88056eaae254,2020-06-30_19h54.12.009,proactive,2020.1.2,Win32,60,5efb791ed4cb570da489e737,5efb870df7a52c0ff0eee259,2,,,,,,microphone,,,,,,,,,,,3,2,0,11,11,28,1,,,,,,,,,,,,,,,,,,,,,,,,,,,,,,,,,,,,,,,,,,,,,,,,,,,,,,,,,,,,,,,,,,,,,,
,,?,0.000385,0,,,,,,stimuli/images/PICTURE_147.png,LEADER,5e8b3b6444fa88056eaae254,2020-06-30_19h54.12.009,proactive,2020.1.2,Win32,60,5efb791ed4cb570da489e737,5efb870df7a52c0ff0eee259,2,,,,,,hanger,,,,,,,,,,,4,2,0,12,12,33,1,,,,,,,,,,,,,,,,,,,,,,,,,,,,,,,,,,,,,,,,,,,,,,,,,,,,,,,,,,,,,,,,,,,,,,
,,?,0.000375,0,,,,,,stimuli/images/PICTURE_285.png,PRINCE,5e8b3b6444fa88056eaae254,2020-06-30_19h54.12.009,proactive,2020.1.2,Win32,60,5efb791ed4cb570da489e737,5efb870df7a52c0ff0eee259,2,,,,,,carrot,,,,,,,,,,,3,2,0,13,13,20,1,,,,,,,,,,,,,,,,,,,,,,,,,,,,,,,,,,,,,,,,,,,,,,,,,,,,,,,,,,,,,,,,,,,,,,
,,LEADER,6.730645,1,,,,,,stimuli/images/PICTURE_327.png,LEADER,5e8b3b6444fa88056eaae254,2020-06-30_19h54.12.009,proactive,2020.1.2,Win32,60,5efb791ed4cb570da489e737,5efb870df7a52c0ff0eee259,2,,,,,,helmet,,,,,,,,,,,2,2,0,14,14,17,1,,,,,,,,,,,,,,,,,,,,,,,,,,,,,,,,,,,,,,,,,,,,,,,,,,,,,,,,,,,,,,,,,,,,,,
,,?,0.000665,0,,,,,,stimuli/images/PICTURE_141.png,CLIENT,5e8b3b6444fa88056eaae254,2020-06-30_19h54.12.009,proactive,2020.1.2,Win32,60,5efb791ed4cb570da489e737,5efb870df7a52c0ff0eee259,2,,,,,,sunflower,,,,,,,,,,,4,2,0,15,15,30,1,,,,,,,,,,,,,,,,,,,,,,,,,,,,,,,,,,,,,,,,,,,,,,,,,,,,,,,,,,,,,,,,,,,,,,
,,?,0.000475,0,,,,,,stimuli/images/PICTURE_688.png,CLOCK,5e8b3b6444fa88056eaae254,2020-06-30_19h54.12.009,proactive,2020.1.2,Win32,60,5efb791ed4cb570da489e737,5efb870df7a52c0ff0eee259,2,,,,,,runner,,,,,,,,,,,5,2,0,16,16,42,1,,,,,,,,,,,,,,,,,,,,,,,,,,,,,,,,,,,,,,,,,,,,,,,,,,,,,,,,,,,,,,,,,,,,,,
,,?,0.00048,0,,,,,,stimuli/images/PICTURE_215.png,BOYS,5e8b3b6444fa88056eaae254,2020-06-30_19h54.12.009,proactive,2020.1.2,Win32,60,5efb791ed4cb570da489e737,5efb870df7a52c0ff0eee259,2,,,,,,boot,,,,,,,,,,,3,2,0,17,17,24,1,,,,,,,,,,,,,,,,,,,,,,,,,,,,,,,,,,,,,,,,,,,,,,,,,,,,,,,,,,,,,,,,,,,,,,
,,?,0.00047,0,,,,,,stimuli/images/PICTURE_453.png,FAMILY,5e8b3b6444fa88056eaae254,2020-06-30_19h54.12.009,proactive,2020.1.2,Win32,60,5efb791ed4cb570da489e737,5efb870df7a52c0ff0eee259,2,,,,,,scissors,,,,,,,,,,,5,2,0,18,18,48,1,,,,,,,,,,,,,,,,,,,,,,,,,,,,,,,,,,,,,,,,,,,,,,,,,,,,,,,,,,,,,,,,,,,,,,
,,?,0.000475,0,,,,,,stimuli/images/PICTURE_93.png,GIRL,5e8b3b6444fa88056eaae254,2020-06-30_19h54.12.009,proactive,2020.1.2,Win32,60,5efb791ed4cb570da489e737,5efb870df7a52c0ff0eee259,2,,,,,,skateboard,,,,,,,,,,,4,2,0,19,19,31,1,,,,,,,,,,,,,,,,,,,,,,,,,,,,,,,,,,,,,,,,,,,,,,,,,,,,,,,,,,,,,,,,,,,,,,
,,?,0.000515,0,,,,,,stimuli/images/PICTURE_348.png,DUDE,5e8b3b6444fa88056eaae254,2020-06-30_19h54.12.009,proactive,2020.1.2,Win32,60,5efb791ed4cb570da489e737,5efb870df7a52c0ff0eee259,2,,,,,,pepper,,,,,,,,,,,6,2,0,20,20,59,1,,,,,,,,,,,,,,,,,,,,,,,,,,,,,,,,,,,,,,,,,,,,,,,,,,,,,,,,,,,,,,,,,,,,,,
,,?,0.000475,0,,,,,,stimuli/images/PICTURE_655.png,SALE,5e8b3b6444fa88056eaae254,2020-06-30_19h54.12.009,proactive,2020.1.2,Win32,60,5efb791ed4cb570da489e737,5efb870df7a52c0ff0eee259,2,,,,,,megaphone,,,,,,,,,,,6,2,0,21,21,57,1,,,,,,,,,,,,,,,,,,,,,,,,,,,,,,,,,,,,,,,,,,,,,,,,,,,,,,,,,,,,,,,,,,,,,,
,,?,0.00087,0,,,,,,stimuli/images/PICTURE_692.png,DUDE,5e8b3b6444fa88056eaae254,2020-06-30_19h54.12.009,proactive,2020.1.2,Win32,60,5efb791ed4cb570da489e737,5efb870df7a52c0ff0eee259,2,,,,,,cherry,,,,,,,,,,,5,2,0,22,22,47,1,,,,,,,,,,,,,,,,,,,,,,,,,,,,,,,,,,,,,,,,,,,,,,,,,,,,,,,,,,,,,,,,,,,,,,
,,?,0.000565,0,,,,,,stimuli/images/PICTURE_314.png,SPEECH,5e8b3b6444fa88056eaae254,2020-06-30_19h54.12.009,proactive,2020.1.2,Win32,60,5efb791ed4cb570da489e737,5efb870df7a52c0ff0eee259,2,,,,,,perfume,,,,,,,,,,,4,2,0,23,23,35,1,,,,,,,,,,,,,,,,,,,,,,,,,,,,,,,,,,,,,,,,,,,,,,,,,,,,,,,,,,,,,,,,,,,,,,
,,?,0.00048,0,,,,,,stimuli/images/PICTURE_177.png,HOUSE,5e8b3b6444fa88056eaae254,2020-06-30_19h54.12.009,proactive,2020.1.2,Win32,60,5efb791ed4cb570da489e737,5efb870df7a52c0ff0eee259,2,,,,,,mushroom,,,,,,,,,,,3,2,0,24,24,25,1,,,,,,,,,,,,,,,,,,,,,,,,,,,,,,,,,,,,,,,,,,,,,,,,,,,,,,,,,,,,,,,,,,,,,,
,,?,0.000475,0,,,,,,stimuli/images/PICTURE_33.png,COPS,5e8b3b6444fa88056eaae254,2020-06-30_19h54.12.009,proactive,2020.1.2,Win32,60,5efb791ed4cb570da489e737,5efb870df7a52c0ff0eee259,2,,,,,,frame,,,,,,,,,,,3,2,0,25,25,29,1,,,,,,,,,,,,,,,,,,,,,,,,,,,,,,,,,,,,,,,,,,,,,,,,,,,,,,,,,,,,,,,,,,,,,,
,,?,0.00156,0,,,,,,stimuli/images/PICTURE_95.png,NIGHT,5e8b3b6444fa88056eaae254,2020-06-30_19h54.12.009,proactive,2020.1.2,Win32,60,5efb791ed4cb570da489e737,5efb870df7a52c0ff0eee259,2,,,,,,suitcase,,,,,,,,,,,4,2,0,26,26,37,1,,,,,,,,,,,,,,,,,,,,,,,,,,,,,,,,,,,,,,,,,,,,,,,,,,,,,,,,,,,,,,,,,,,,,,
,,CLOCK,4.915725,1,,,,,,stimuli/images/PICTURE_296.png,CLOCK,5e8b3b6444fa88056eaae254,2020-06-30_19h54.12.009,proactive,2020.1.2,Win32,60,5efb791ed4cb570da489e737,5efb870df7a52c0ff0eee259,2,,,,,,bolt,,,,,,,,,,,2,2,0,27,27,18,1,,,,,,,,,,,,,,,,,,,,,,,,,,,,,,,,,,,,,,,,,,,,,,,,,,,,,,,,,,,,,,,,,,,,,,
,,?,0.000675,0,,,,,,stimuli/images/PICTURE_487.png,POLICY,5e8b3b6444fa88056eaae254,2020-06-30_19h54.12.009,proactive,2020.1.2,Win32,60,5efb791ed4cb570da489e737,5efb870df7a52c0ff0eee259,2,,,,,,basket,,,,,,,,,,,4,2,0,28,28,34,1,,,,,,,,,,,,,,,,,,,,,,,,,,,,,,,,,,,,,,,,,,,,,,,,,,,,,,,,,,,,,,,,,,,,,,
,,?,0.00052,0,,,,,,stimuli/images/PICTURE_654.png,YEAR,5e8b3b6444fa88056eaae254,2020-06-30_19h54.12.009,proactive,2020.1.2,Win32,60,5efb791ed4cb570da489e737,5efb870df7a52c0ff0eee259,2,,,,,,pencil,,,,,,,,,,,5,2,0,29,29,41,1,,,,,,,,,,,,,,,,,,,,,,,,,,,,,,,,,,,,,,,,,,,,,,,,,,,,,,,,,,,,,,,,,,,,,,
,,?,0.000495,0,,,,,,stimuli/images/PICTURE_403.png,FAMILY,5e8b3b6444fa88056eaae254,2020-06-30_19h54.12.009,proactive,2020.1.2,Win32,60,5efb791ed4cb570da489e737,5efb870df7a52c0ff0eee259,2,,,,,,cathedral,,,,,,,,,,,1,2,0,30,30,9,1,,,,,,,,,,,,,,,,,,,,,,,,,,,,,,,,,,,,,,,,,,,,,,,,,,,,,,,,,,,,,,,,,,,,,,
,,?,0.000475,0,,,,,,stimuli/images/PICTURE_509.png,APPLE,5e8b3b6444fa88056eaae254,2020-06-30_19h54.12.009,proactive,2020.1.2,Win32,60,5efb791ed4cb570da489e737,5efb870df7a52c0ff0eee259,2,,,,,,telephone,,,,,,,,,,,4,2,0,31,31,38,1,,,,,,,,,,,,,,,,,,,,,,,,,,,,,,,,,,,,,,,,,,,,,,,,,,,,,,,,,,,,,,,,,,,,,,
,,?,0.00034,0,,,,,,stimuli/images/PICTURE_509.png,MILLER,5e8b3b6444fa88056eaae254,2020-06-30_19h54.12.009,proactive,2020.1.2,Win32,60,5efb791ed4cb570da489e737,5efb870df7a52c0ff0eee259,2,,,,,,telephone,,,,,,,,,,,5,2,0,32,32,49,1,,,,,,,,,,,,,,,,,,,,,,,,,,,,,,,,,,,,,,,,,,,,,,,,,,,,,,,,,,,,,,,,,,,,,,
,,?,0.000345,0,,,,,,stimuli/images/PICTURE_470.png,BEAUTY,5e8b3b6444fa88056eaae254,2020-06-30_19h54.12.009,proactive,2020.1.2,Win32,60,5efb791ed4cb570da489e737,5efb870df7a52c0ff0eee259,2,,,,,,motorbike,,,,,,,,,,,3,2,0,33,33,26,1,,,,,,,,,,,,,,,,,,,,,,,,,,,,,,,,,,,,,,,,,,,,,,,,,,,,,,,,,,,,,,,,,,,,,,
,,?,0.000345,0,,,,,,stimuli/images/PICTURE_215.png,LEADER,5e8b3b6444fa88056eaae254,2020-06-30_19h54.12.009,proactive,2020.1.2,Win32,60,5efb791ed4cb570da489e737,5efb870df7a52c0ff0eee259,2,,,,,,boot,,,,,,,,,,,5,2,0,34,34,43,1,,,,,,,,,,,,,,,,,,,,,,,,,,,,,,,,,,,,,,,,,,,,,,,,,,,,,,,,,,,,,,,,,,,,,,
,,?,0.00034,0,,,,,,stimuli/images/PICTURE_68.png,KIND,5e8b3b6444fa88056eaae254,2020-06-30_19h54.12.009,proactive,2020.1.2,Win32,60,5efb791ed4cb570da489e737,5efb870df7a52c0ff0eee259,2,,,,,,candle,,,,,,,,,,,3,2,0,35,35,23,1,,,,,,,,,,,,,,,,,,,,,,,,,,,,,,,,,,,,,,,,,,,,,,,,,,,,,,,,,,,,,,,,,,,,,,
,,?,0.00123,0,,,,,,stimuli/images/PICTURE_667.png,GLASS,5e8b3b6444fa88056eaae254,2020-06-30_19h54.12.009,proactive,2020.1.2,Win32,60,5efb791ed4cb570da489e737,5efb870df7a52c0ff0eee259,2,,,,,,daisy,,,,,,,,,,,3,2,0,36,36,27,1,,,,,,,,,,,,,,,,,,,,,,,,,,,,,,,,,,,,,,,,,,,,,,,,,,,,,,,,,,,,,,,,,,,,,,
,,?,0.00035,0,,,,,,stimuli/images/PICTURE_405.png,HOUSE,5e8b3b6444fa88056eaae254,2020-06-30_19h54.12.009,proactive,2020.1.2,Win32,60,5efb791ed4cb570da489e737,5efb870df7a52c0ff0eee259,2,,,,,,anchor,,,,,,,,,,,1,2,0,37,37,2,1,,,,,,,,,,,,,,,,,,,,,,,,,,,,,,,,,,,,,,,,,,,,,,,,,,,,,,,,,,,,,,,,,,,,,,
,,?,0.000365,0,,,,,,stimuli/images/PICTURE_311.png,TOILET,5e8b3b6444fa88056eaae254,2020-06-30_19h54.12.009,proactive,2020.1.2,Win32,60,5efb791ed4cb570da489e737,5efb870df7a52c0ff0eee259,2,,,,,,razor,,,,,,,,,,,6,2,0,38,38,54,1,,,,,,,,,,,,,,,,,,,,,,,,,,,,,,,,,,,,,,,,,,,,,,,,,,,,,,,,,,,,,,,,,,,,,,
,,?,0.000325,0,,,,,,stimuli/images/PICTURE_504.png,HOUSE,5e8b3b6444fa88056eaae254,2020-06-30_19h54.12.009,proactive,2020.1.2,Win32,60,5efb791ed4cb570da489e737,5efb870df7a52c0ff0eee259,2,,,,,,wheel,,,,,,,,,,,4,2,0,39,39,36,1,,,,,,,,,,,,,,,,,,,,,,,,,,,,,,,,,,,,,,,,,,,,,,,,,,,,,,,,,,,,,,,,,,,,,,
,,?,0.00033,0,,,,,,stimuli/images/PICTURE_2.png,YARD,5e8b3b6444fa88056eaae254,2020-06-30_19h54.12.009,proactive,2020.1.2,Win32,60,5efb791ed4cb570da489e737,5efb870df7a52c0ff0eee259,2,,,,,,tyre,,,,,,,,,,,6,2,0,40,40,55,1,,,,,,,,,,,,,,,,,,,,,,,,,,,,,,,,,,,,,,,,,,,,,,,,,,,,,,,,,,,,,,,,,,,,,,
,,?,0.000325,0,,,,,,stimuli/images/PICTURE_470.png,MOMENT,5e8b3b6444fa88056eaae254,2020-06-30_19h54.12.009,proactive,2020.1.2,Win32,60,5efb791ed4cb570da489e737,5efb870df7a52c0ff0eee259,2,,,,,,motorbike,,,,,,,,,,,5,2,0,41,41,40,1,,,,,,,,,,,,,,,,,,,,,,,,,,,,,,,,,,,,,,,,,,,,,,,,,,,,,,,,,,,,,,,,,,,,,,
,,PHOTO,2.934555,1,,,,,,stimuli/images/PICTURE_677.png,PHOTO,5e8b3b6444fa88056eaae254,2020-06-30_19h54.12.009,proactive,2020.1.2,Win32,60,5efb791ed4cb570da489e737,5efb870df7a52c0ff0eee259,2,,,,,,map,,,,,,,,,,,2,2,0,42,42,14,1,,,,,,,,,,,,,,,,,,,,,,,,,,,,,,,,,,,,,,,,,,,,,,,,,,,,,,,,,,,,,,,,,,,,,,
,,BATH,5.981745,1,,,,,,stimuli/images/PICTURE_509.png,BATH,5e8b3b6444fa88056eaae254,2020-06-30_19h54.12.009,proactive,2020.1.2,Win32,60,5efb791ed4cb570da489e737,5efb870df7a52c0ff0eee259,2,,,,,,telephone,,,,,,,,,,,2,2,0,43,43,15,1,,,,,,,,,,,,,,,,,,,,,,,,,,,,,,,,,,,,,,,,,,,,,,,,,,,,,,,,,,,,,,,,,,,,,,
,,?,0.000615,0,,,,,,stimuli/images/PICTURE_452.png,COPS,5e8b3b6444fa88056eaae254,2020-06-30_19h54.12.009,proactive,2020.1.2,Win32,60,5efb791ed4cb570da489e737,5efb870df7a52c0ff0eee259,2,,,,,,watch,,,,,,,,,,,1,2,0,44,44,0,1,,,,,,,,,,,,,,,,,,,,,,,,,,,,,,,,,,,,,,,,,,,,,,,,,,,,,,,,,,,,,,,,,,,,,,
,,PENNY,3.59771,1,,,,,,stimuli/images/PICTURE_255.png,PENNY,5e8b3b6444fa88056eaae254,2020-06-30_19h54.12.009,proactive,2020.1.2,Win32,60,5efb791ed4cb570da489e737,5efb870df7a52c0ff0eee259,2,,,,,,shovel,,,,,,,,,,,2,2,0,45,45,19,1,,,,,,,,,,,,,,,,,,,,,,,,,,,,,,,,,,,,,,,,,,,,,,,,,,,,,,,,,,,,,,,,,,,,,,
,,CASINO,4.715605,1,,,,,,stimuli/images/PICTURE_57.png,CASINO,5e8b3b6444fa88056eaae254,2020-06-30_19h54.12.009,proactive,2020.1.2,Win32,60,5efb791ed4cb570da489e737,5efb870df7a52c0ff0eee259,2,,,,,,stamp,,,,,,,,,,,2,2,0,46,46,12,1,,,,,,,,,,,,,,,,,,,,,,,,,,,,,,,,,,,,,,,,,,,,,,,,,,,,,,,,,,,,,,,,,,,,,,
,,?,0.00069,0,,,,,,stimuli/images/PICTURE_2.png,AREA,5e8b3b6444fa88056eaae254,2020-06-30_19h54.12.009,proactive,2020.1.2,Win32,60,5efb791ed4cb570da489e737,5efb870df7a52c0ff0eee259,2,,,,,,tyre,,,,,,,,,,,4,2,0,47,47,32,1,,,,,,,,,,,,,,,,,,,,,,,,,,,,,,,,,,,,,,,,,,,,,,,,,,,,,,,,,,,,,,,,,,,,,,
,,COPS,4.76401,1,,,,,,stimuli/images/PICTURE_654.png,COPS,5e8b3b6444fa88056eaae254,2020-06-30_19h54.12.009,proactive,2020.1.2,Win32,60,5efb791ed4cb570da489e737,5efb870df7a52c0ff0eee259,2,,,,,,pencil,,,,,,,,,,,2,2,0,48,48,10,1,,,,,,,,,,,,,,,,,,,,,,,,,,,,,,,,,,,,,,,,,,,,,,,,,,,,,,,,,,,,,,,,,,,,,,
,,JUNGLE,5.132235,1,,,,,,stimuli/images/PICTURE_405.png,JUNGLE,5e8b3b6444fa88056eaae254,2020-06-30_19h54.12.009,proactive,2020.1.2,Win32,60,5efb791ed4cb570da489e737,5efb870df7a52c0ff0eee259,2,,,,,,anchor,,,,,,,,,,,2,2,0,49,49,13,1,,,,,,,,,,,,,,,,,,,,,,,,,,,,,,,,,,,,,,,,,,,,,,,,,,,,,,,,,,,,,,,,,,,,,,
,,?,0.00048,0,,,,,,stimuli/images/PICTURE_487.png,ROOF,5e8b3b6444fa88056eaae254,2020-06-30_19h54.12.009,proactive,2020.1.2,Win32,60,5efb791ed4cb570da489e737,5efb870df7a52c0ff0eee259,2,,,,,,basket,,,,,,,,,,,6,2,0,50,50,50,1,,,,,,,,,,,,,,,,,,,,,,,,,,,,,,,,,,,,,,,,,,,,,,,,,,,,,,,,,,,,,,,,,,,,,,
,,?,0.000335,0,,,,,,stimuli/images/PICTURE_405.png,JUNGLE,5e8b3b6444fa88056eaae254,2020-06-30_19h54.12.009,proactive,2020.1.2,Win32,60,5efb791ed4cb570da489e737,5efb870df7a52c0ff0eee259,2,,,,,,anchor,,,,,,,,,,,6,2,0,51,51,58,1,,,,,,,,,,,,,,,,,,,,,,,,,,,,,,,,,,,,,,,,,,,,,,,,,,,,,,,,,,,,,,,,,,,,,,
,,?,0.00035,0,,,,,,stimuli/images/PICTURE_32.png,LETTER,5e8b3b6444fa88056eaae254,2020-06-30_19h54.12.009,proactive,2020.1.2,Win32,60,5efb791ed4cb570da489e737,5efb870df7a52c0ff0eee259,2,,,,,,crown,,,,,,,,,,,6,2,0,52,52,56,1,,,,,,,,,,,,,,,,,,,,,,,,,,,,,,,,,,,,,,,,,,,,,,,,,,,,,,,,,,,,,,,,,,,,,,
,,HOTEL,8.22921,1,,,,,,stimuli/images/PICTURE_160.png,HOTEL,5e8b3b6444fa88056eaae254,2020-06-30_19h54.12.009,proactive,2020.1.2,Win32,60,5efb791ed4cb570da489e737,5efb870df7a52c0ff0eee259,2,,,,,,wheelbarrow,,,,,,,,,,,2,2,0,53,53,16,1,,,,,,,,,,,,,,,,,,,,,,,,,,,,,,,,,,,,,,,,,,,,,,,,,,,,,,,,,,,,,,,,,,,,,,
,,?,0.000685,0,,,,,,stimuli/images/PICTURE_750.png,POLICY,5e8b3b6444fa88056eaae254,2020-06-30_19h54.12.009,proactive,2020.1.2,Win32,60,5efb791ed4cb570da489e737,5efb870df7a52c0ff0eee259,2,,,,,,kettle,,,,,,,,,,,5,2,0,54,54,44,1,,,,,,,,,,,,,,,,,,,,,,,,,,,,,,,,,,,,,,,,,,,,,,,,,,,,,,,,,,,,,,,,,,,,,,
,,?,0.000465,0,,,,,,stimuli/images/PICTURE_491.png,SERIES,5e8b3b6444fa88056eaae254,2020-06-30_19h54.12.009,proactive,2020.1.2,Win32,60,5efb791ed4cb570da489e737,5efb870df7a52c0ff0eee259,2,,,,,,rug,,,,,,,,,,,4,2,0,55,55,39,1,,,,,,,,,,,,,,,,,,,,,,,,,,,,,,,,,,,,,,,,,,,,,,,,,,,,,,,,,,,,,,,,,,,,,,
,,?,0.000455,0,,,,,,stimuli/images/PICTURE_285.png,WRITER,5e8b3b6444fa88056eaae254,2020-06-30_19h54.12.009,proactive,2020.1.2,Win32,60,5efb791ed4cb570da489e737,5efb870df7a52c0ff0eee259,2,,,,,,carrot,,,,,,,,,,,1,2,0,56,56,6,1,,,,,,,,,,,,,,,,,,,,,,,,,,,,,,,,,,,,,,,,,,,,,,,,,,,,,,,,,,,,,,,,,,,,,,
,,?,0.00045,0,,,,,,stimuli/images/PICTURE_123.png,SALE,5e8b3b6444fa88056eaae254,2020-06-30_19h54.12.009,proactive,2020.1.2,Win32,60,5efb791ed4cb570da489e737,5efb870df7a52c0ff0eee259,2,,,,,,dart,,,,,,,,,,,1,2,0,57,57,8,1,,,,,,,,,,,,,,,,,,,,,,,,,,,,,,,,,,,,,,,,,,,,,,,,,,,,,,,,,,,,,,,,,,,,,,
,,PLENTY,2.427435,1,,,,,,stimuli/images/PICTURE_564.png,PLENTY,5e8b3b6444fa88056eaae254,2020-06-30_19h54.12.009,proactive,2020.1.2,Win32,60,5efb791ed4cb570da489e737,5efb870df7a52c0ff0eee259,2,,,,,,spoon,,,,,,,,,,,2,2,0,58,58,11,1,,,,,,,,,,,,,,,,,,,,,,,,,,,,,,,,,,,,,,,,,,,,,,,,,,,,,,,,,,,,,,,,,,,,,,
,,?,0.00063,0,,,,,,stimuli/images/PICTURE_708.png,VALLEY,5e8b3b6444fa88056eaae254,2020-06-30_19h54.12.009,proactive,2020.1.2,Win32,60,5efb791ed4cb570da489e737,5efb870df7a52c0ff0eee259,2,,,,,,monkey,,,,,,,,,,,5,2,0,59,59,45,1,,,,,,,,,,,,,,,,,,,,,,,,,,,,,,,,,,,,,,,,,,,,,,,,,,,,,,,,,,,,,,,,,,,,,,
,,,,,,,,,,,,5e8b3b6444fa88056eaae254,2020-06-30_19h54.12.009,proactive,2020.1.2,Win32,60,5efb791ed4cb570da489e737,5efb870df7a52c0ff0eee259,2,,,,,,,,,,,,,,,,,,,,,,,,0,1,1,2,1,stimuli/learn-block3.csv,,,,,,,,,,,,,,,,,,,,,,,,,,,,,,,,,,,,,,,,,,,,,,,,,,,,,,,,,,,,,,,,
,,,,,,,,,,stimuli/images/PICTURE_327.png,SERIES,5e8b3b6444fa88056eaae254,2020-06-30_19h54.12.009,proactive,2020.1.2,Win32,60,5efb791ed4cb570da489e737,5efb870df7a52c0ff0eee259,2,,,,,,helmet,,,,,,0,0,0,3,1,1,1,,,,,,,,,,,,,,,,,,,,,,,,,,,,,,,,,,,,,,,,,,,,,,,,,,,,,,,,,,,,,,,,,,,,,,,,,,,
,,,,,,,,,,stimuli/images/PICTURE_85.png,NATION,5e8b3b6444fa88056eaae254,2020-06-30_19h54.12.009,proactive,2020.1.2,Win32,60,5efb791ed4cb570da489e737,5efb870df7a52c0ff0eee259,2,,,,,,diamond,,,,,,0,1,1,5,1,1,1,,,,,,,,,,,,,,,,,,,,,,,,,,,,,,,,,,,,,,,,,,,,,,,,,,,,,,,,,,,,,,,,,,,,,,,,,,,
,,,,,,,,,,stimuli/images/PICTURE_95.png,HONEY,5e8b3b6444fa88056eaae254,2020-06-30_19h54.12.009,proactive,2020.1.2,Win32,60,5efb791ed4cb570da489e737,5efb870df7a52c0ff0eee259,2,,,,,,suitcase,,,,,,0,2,2,44,1,5,1,,,,,,,,,,,,,,,,,,,,,,,,,,,,,,,,,,,,,,,,,,,,,,,,,,,,,,,,,,,,,,,,,,,,,,,,,,,
,,,,,,,,,,stimuli/images/PICTURE_339.png,CLIENT,5e8b3b6444fa88056eaae254,2020-06-30_19h54.12.009,proactive,2020.1.2,Win32,60,5efb791ed4cb570da489e737,5efb870df7a52c0ff0eee259,2,,,,,,backpack,,,,,,0,3,3,11,1,2,1,,,,,,,,,,,,,,,,,,,,,,,,,,,,,,,,,,,,,,,,,,,,,,,,,,,,,,,,,,,,,,,,,,,,,,,,,,,
,,,,,,,,,,stimuli/images/PICTURE_95.png,BOYS,5e8b3b6444fa88056eaae254,2020-06-30_19h54.12.009,proactive,2020.1.2,Win32,60,5efb791ed4cb570da489e737,5efb870df7a52c0ff0eee259,2,,,,,,suitcase,,,,,,0,4,4,1,1,1,1,,,,,,,,,,,,,,,,,,,,,,,,,,,,,,,,,,,,,,,,,,,,,,,,,,,,,,,,,,,,,,,,,,,,,,,,,,,
,,,,,,,,,,stimuli/images/PICTURE_203.png,NIGHT,5e8b3b6444fa88056eaae254,2020-06-30_19h54.12.009,proactive,2020.1.2,Win32,60,5efb791ed4cb570da489e737,5efb870df7a52c0ff0eee259,2,,,,,,cap,,,,,,0,5,5,2,1,1,1,,,,,,,,,,,,,,,,,,,,,,,,,,,,,,,,,,,,,,,,,,,,,,,,,,,,,,,,,,,,,,,,,,,,,,,,,,,
,,,,,,,,,,stimuli/images/PICTURE_654.png,MONTH,5e8b3b6444fa88056eaae254,2020-06-30_19h54.12.009,proactive,2020.1.2,Win32,60,5efb791ed4cb570da489e737,5efb870df7a52c0ff0eee259,2,,,,,,pencil,,,,,,0,6,6,29,1,3,1,,,,,,,,,,,,,,,,,,,,,,,,,,,,,,,,,,,,,,,,,,,,,,,,,,,,,,,,,,,,,,,,,,,,,,,,,,,
,,,,,,,,,,stimuli/images/PICTURE_491.png,GLASS,5e8b3b6444fa88056eaae254,2020-06-30_19h54.12.009,proactive,2020.1.2,Win32,60,5efb791ed4cb570da489e737,5efb870df7a52c0ff0eee259,2,,,,,,rug,,,,,,0,7,7,14,1,2,1,,,,,,,,,,,,,,,,,,,,,,,,,,,,,,,,,,,,,,,,,,,,,,,,,,,,,,,,,,,,,,,,,,,,,,,,,,,
,,,,,,,,,,stimuli/images/PICTURE_42.png,BOYS,5e8b3b6444fa88056eaae254,2020-06-30_19h54.12.009,proactive,2020.1.2,Win32,60,5efb791ed4cb570da489e737,5efb870df7a52c0ff0eee259,2,,,,,,pear,,,,,,0,8,8,55,1,6,1,,,,,,,,,,,,,,,,,,,,,,,,,,,,,,,,,,,,,,,,,,,,,,,,,,,,,,,,,,,,,,,,,,,,,,,,,,,
,,,,,,,,,,stimuli/images/PICTURE_68.png,MILE,5e8b3b6444fa88056eaae254,2020-06-30_19h54.12.009,proactive,2020.1.2,Win32,60,5efb791ed4cb570da489e737,5efb870df7a52c0ff0eee259,2,,,,,,candle,,,,,,0,9,9,51,1,6,1,,,,,,,,,,,,,,,,,,,,,,,,,,,,,,,,,,,,,,,,,,,,,,,,,,,,,,,,,,,,,,,,,,,,,,,,,,,
,,,,,,,,,,stimuli/images/PICTURE_504.png,ARTIST,5e8b3b6444fa88056eaae254,2020-06-30_19h54.12.009,proactive,2020.1.2,Win32,60,5efb791ed4cb570da489e737,5efb870df7a52c0ff0eee259,2,,,,,,wheel,,,,,,0,10,10,49,1,5,1,,,,,,,,,,,,,,,,,,,,,,,,,,,,,,,,,,,,,,,,,,,,,,,,,,,,,,,,,,,,,,,,,,,,,,,,,,,
,,,,,,,,,,stimuli/images/PICTURE_57.png,MOMENT,5e8b3b6444fa88056eaae254,2020-06-30_19h54.12.009,proactive,2020.1.2,Win32,60,5efb791ed4cb570da489e737,5efb870df7a52c0ff0eee259,2,,,,,,stamp,,,,,,0,11,11,37,1,4,1,,,,,,,,,,,,,,,,,,,,,,,,,,,,,,,,,,,,,,,,,,,,,,,,,,,,,,,,,,,,,,,,,,,,,,,,,,,
,,,,,,,,,,stimuli/images/PICTURE_383.png,WRITER,5e8b3b6444fa88056eaae254,2020-06-30_19h54.12.009,proactive,2020.1.2,Win32,60,5efb791ed4cb570da489e737,5efb870df7a52c0ff0eee259,2,,,,,,coin,,,,,,0,12,12,28,1,3,1,,,,,,,,,,,,,,,,,,,,,,,,,,,,,,,,,,,,,,,,,,,,,,,,,,,,,,,,,,,,,,,,,,,,,,,,,,,
,,,,,,,,,,stimuli/images/PICTURE_685.png,PENNY,5e8b3b6444fa88056eaae254,2020-06-30_19h54.12.009,proactive,2020.1.2,Win32,60,5efb791ed4cb570da489e737,5efb870df7a52c0ff0eee259,2,,,,,,goose,,,,,,0,13,13,4,1,1,1,,,,,,,,,,,,,,,,,,,,,,,,,,,,,,,,,,,,,,,,,,,,,,,,,,,,,,,,,,,,,,,,,,,,,,,,,,,
,,,,,,,,,,stimuli/images/PICTURE_32.png,KIND,5e8b3b6444fa88056eaae254,2020-06-30_19h54.12.009,proactive,2020.1.2,Win32,60,5efb791ed4cb570da489e737,5efb870df7a52c0ff0eee259,2,,,,,,crown,,,,,,0,14,14,35,1,4,1,,,,,,,,,,,,,,,,,,,,,,,,,,,,,,,,,,,,,,,,,,,,,,,,,,,,,,,,,,,,,,,,,,,,,,,,,,,
,,,,,,,,,,stimuli/images/PICTURE_327.png,CASINO,5e8b3b6444fa88056eaae254,2020-06-30_19h54.12.009,proactive,2020.1.2,Win32,60,5efb791ed4cb570da489e737,5efb870df7a52c0ff0eee259,2,,,,,,helmet,,,,,,0,15,15,20,1,3,1,,,,,,,,,,,,,,,,,,,,,,,,,,,,,,,,,,,,,,,,,,,,,,,,,,,,,,,,,,,,,,,,,,,,,,,,,,,
,,,,,,,,,,stimuli/images/PICTURE_203.png,GODS,5e8b3b6444fa88056eaae254,2020-06-30_19h54.12.009,proactive,2020.1.2,Win32,60,5efb791ed4cb570da489e737,5efb870df7a52c0ff0eee259,2,,,,,,cap,,,,,,0,16,16,30,1,4,1,,,,,,,,,,,,,,,,,,,,,,,,,,,,,,,,,,,,,,,,,,,,,,,,,,,,,,,,,,,,,,,,,,,,,,,,,,,
,,,,,,,,,,stimuli/images/PICTURE_297.png,RIVER,5e8b3b6444fa88056eaae254,2020-06-30_19h54.12.009,proactive,2020.1.2,Win32,60,5efb791ed4cb570da489e737,5efb870df7a52c0ff0eee259,2,,,,,,aeroplane,,,,,,0,17,17,39,1,4,1,,,,,,,,,,,,,,,,,,,,,,,,,,,,,,,,,,,,,,,,,,,,,,,,,,,,,,,,,,,,,,,,,,,,,,,,,,,
,,,,,,,,,,stimuli/images/PICTURE_405.png,PLENTY,5e8b3b6444fa88056eaae254,2020-06-30_19h54.12.009,proactive,2020.1.2,Win32,60,5efb791ed4cb570da489e737,5efb870df7a52c0ff0eee259,2,,,,,,anchor,,,,,,0,18,18,23,1,3,1,,,,,,,,,,,,,,,,,,,,,,,,,,,,,,,,,,,,,,,,,,,,,,,,,,,,,,,,,,,,,,,,,,,,,,,,,,,
,,,,,,,,,,stimuli/images/PICTURE_467.png,POLICY,5e8b3b6444fa88056eaae254,2020-06-30_19h54.12.009,proactive,2020.1.2,Win32,60,5efb791ed4cb570da489e737,5efb870df7a52c0ff0eee259,2,,,,,,peg,,,,,,0,19,19,53,1,6,1,,,,,,,,,,,,,,,,,,,,,,,,,,,,,,,,,,,,,,,,,,,,,,,,,,,,,,,,,,,,,,,,,,,,,,,,,,,
,,,,,,,,,,stimuli/images/PICTURE_504.png,COPS,5e8b3b6444fa88056eaae254,2020-06-30_19h54.12.009,proactive,2020.1.2,Win32,60,5efb791ed4cb570da489e737,5efb870df7a52c0ff0eee259,2,,,,,,wheel,,,,,,0,20,20,52,1,6,1,,,,,,,,,,,,,,,,,,,,,,,,,,,,,,,,,,,,,,,,,,,,,,,,,,,,,,,,,,,,,,,,,,,,,,,,,,,
,,,,,,,,,,stimuli/images/PICTURE_177.png,WRITER,5e8b3b6444fa88056eaae254,2020-06-30_19h54.12.009,proactive,2020.1.2,Win32,60,5efb791ed4cb570da489e737,5efb870df7a52c0ff0eee259,2,,,,,,mushroom,,,,,,0,21,21,41,1,5,1,,,,,,,,,,,,,,,,,,,,,,,,,,,,,,,,,,,,,,,,,,,,,,,,,,,,,,,,,,,,,,,,,,,,,,,,,,,
,,,,,,,,,,stimuli/images/PICTURE_449.png,DUDE,5e8b3b6444fa88056eaae254,2020-06-30_19h54.12.009,proactive,2020.1.2,Win32,60,5efb791ed4cb570da489e737,5efb870df7a52c0ff0eee259,2,,,,,,bench,,,,,,0,22,22,17,1,2,1,,,,,,,,,,,,,,,,,,,,,,,,,,,,,,,,,,,,,,,,,,,,,,,,,,,,,,,,,,,,,,,,,,,,,,,,,,,
,,,,,,,,,,stimuli/images/PICTURE_285.png,LIFE,5e8b3b6444fa88056eaae254,2020-06-30_19h54.12.009,proactive,2020.1.2,Win32,60,5efb791ed4cb570da489e737,5efb870df7a52c0ff0eee259,2,,,,,,carrot,,,,,,0,23,23,33,1,4,1,,,,,,,,,,,,,,,,,,,,,,,,,,,,,,,,,,,,,,,,,,,,,,,,,,,,,,,,,,,,,,,,,,,,,,,,,,,
,,,,,,,,,,stimuli/images/PICTURE_403.png,WRITER,5e8b3b6444fa88056eaae254,2020-06-30_19h54.12.009,proactive,2020.1.2,Win32,60,5efb791ed4cb570da489e737,5efb870df7a52c0ff0eee259,2,,,,,,cathedral,,,,,,0,24,24,31,1,4,1,,,,,,,,,,,,,,,,,,,,,,,,,,,,,,,,,,,,,,,,,,,,,,,,,,,,,,,,,,,,,,,,,,,,,,,,,,,
,,,,,,,,,,stimuli/images/PICTURE_487.png,GIRL,5e8b3b6444fa88056eaae254,2020-06-30_19h54.12.009,proactive,2020.1.2,Win32,60,5efb791ed4cb570da489e737,5efb870df7a52c0ff0eee259,2,,,,,,basket,,,,,,0,25,25,45,1,5,1,,,,,,,,,,,,,,,,,,,,,,,,,,,,,,,,,,,,,,,,,,,,,,,,,,,,,,,,,,,,,,,,,,,,,,,,,,,
,,,,,,,,,,stimuli/images/PICTURE_340.png,LETTER,5e8b3b6444fa88056eaae254,2020-06-30_19h54.12.009,proactive,2020.1.2,Win32,60,5efb791ed4cb570da489e737,5efb870df7a52c0ff0eee259,2,,,,,,mirror,,,,,,0,26,26,24,1,3,1,,,,,,,,,,,,,,,,,,,,,,,,,,,,,,,,,,,,,,,,,,,,,,,,,,,,,,,,,,,,,,,,,,,,,,,,,,,
,,,,,,,,,,stimuli/images/PICTURE_208.png,SYSTEM,5e8b3b6444fa88056eaae254,2020-06-30_19h54.12.009,proactive,2020.1.2,Win32,60,5efb791ed4cb570da489e737,5efb870df7a52c0ff0eee259,2,,,,,,microphone,,,,,,0,27,27,32,1,4,1,,,,,,,,,,,,,,,,,,,,,,,,,,,,,,,,,,,,,,,,,,,,,,,,,,,,,,,,,,,,,,,,,,,,,,,,,,,
,,,,,,,,,,stimuli/images/PICTURE_95.png,MILLER,5e8b3b6444fa88056eaae254,2020-06-30_19h54.12.009,proactive,2020.1.2,Win32,60,5efb791ed4cb570da489e737,5efb870df7a52c0ff0eee259,2,,,,,,suitcase,,,,,,0,28,28,56,1,6,1,,,,,,,,,,,,,,,,,,,,,,,,,,,,,,,,,,,,,,,,,,,,,,,,,,,,,,,,,,,,,,,,,,,,,,,,,,,
,,,,,,,,,,stimuli/images/PICTURE_296.png,LIFE,5e8b3b6444fa88056eaae254,2020-06-30_19h54.12.009,proactive,2020.1.2,Win32,60,5efb791ed4cb570da489e737,5efb870df7a52c0ff0eee259,2,,,,,,bolt,,,,,,0,29,29,57,1,6,1,,,,,,,,,,,,,,,,,,,,,,,,,,,,,,,,,,,,,,,,,,,,,,,,,,,,,,,,,,,,,,,,,,,,,,,,,,,
,,,,,,,,,,stimuli/images/PICTURE_32.png,PILLS,5e8b3b6444fa88056eaae254,2020-06-30_19h54.12.009,proactive,2020.1.2,Win32,60,5efb791ed4cb570da489e737,5efb870df7a52c0ff0eee259,2,,,,,,crown,,,,,,0,30,30,18,1,2,1,,,,,,,,,,,,,,,,,,,,,,,,,,,,,,,,,,,,,,,,,,,,,,,,,,,,,,,,,,,,,,,,,,,,,,,,,,,
,,,,,,,,,,stimuli/images/PICTURE_380.png,HONEY,5e8b3b6444fa88056eaae254,2020-06-30_19h54.12.009,proactive,2020.1.2,Win32,60,5efb791ed4cb570da489e737,5efb870df7a52c0ff0eee259,2,,,,,,gorilla,,,,,,0,31,31,19,1,2,1,,,,,,,,,,,,,,,,,,,,,,,,,,,,,,,,,,,,,,,,,,,,,,,,,,,,,,,,,,,,,,,,,,,,,,,,,,,
,,,,,,,,,,stimuli/images/PICTURE_564.png,BATH,5e8b3b6444fa88056eaae254,2020-06-30_19h54.12.009,proactive,2020.1.2,Win32,60,5efb791ed4cb570da489e737,5efb870df7a52c0ff0eee259,2,,,,,,spoon,,,,,,0,32,32,26,1,3,1,,,,,,,,,,,,,,,,,,,,,,,,,,,,,,,,,,,,,,,,,,,,,,,,,,,,,,,,,,,,,,,,,,,,,,,,,,,
,,,,,,,,,,stimuli/images/PICTURE_108.png,POLICY,5e8b3b6444fa88056eaae254,2020-06-30_19h54.12.009,proactive,2020.1.2,Win32,60,5efb791ed4cb570da489e737,5efb870df7a52c0ff0eee259,2,,,,,,calendar,,,,,,0,33,33,22,1,3,1,,,,,,,,,,,,,,,,,,,,,,,,,,,,,,,,,,,,,,,,,,,,,,,,,,,,,,,,,,,,,,,,,,,,,,,,,,,
,,,,,,,,,,stimuli/images/PICTURE_667.png,RIVER,5e8b3b6444fa88056eaae254,2020-06-30_19h54.12.009,proactive,2020.1.2,Win32,60,5efb791ed4cb570da489e737,5efb870df7a52c0ff0eee259,2,,,,,,daisy,,,,,,0,34,34,10,1,2,1,,,,,,,,,,,,,,,,,,,,,,,,,,,,,,,,,,,,,,,,,,,,,,,,,,,,,,,,,,,,,,,,,,,,,,,,,,,
,,,,,,,,,,stimuli/images/PICTURE_147.png,WOMEN,5e8b3b6444fa88056eaae254,2020-06-30_19h54.12.009,proactive,2020.1.2,Win32,60,5efb791ed4cb570da489e737,5efb870df7a52c0ff0eee259,2,,,,,,hanger,,,,,,0,35,35,7,1,1,1,,,,,,,,,,,,,,,,,,,,,,,,,,,,,,,,,,,,,,,,,,,,,,,,,,,,,,,,,,,,,,,,,,,,,,,,,,,
,,,,,,,,,,stimuli/images/PICTURE_296.png,LOTS,5e8b3b6444fa88056eaae254,2020-06-30_19h54.12.009,proactive,2020.1.2,Win32,60,5efb791ed4cb570da489e737,5efb870df7a52c0ff0eee259,2,,,,,,bolt,,,,,,0,36,36,9,1,1,1,,,,,,,,,,,,,,,,,,,,,,,,,,,,,,,,,,,,,,,,,,,,,,,,,,,,,,,,,,,,,,,,,,,,,,,,,,,
,,,,,,,,,,stimuli/images/PICTURE_469.png,AGENT,5e8b3b6444fa88056eaae254,2020-06-30_19h54.12.009,proactive,2020.1.2,Win32,60,5efb791ed4cb570da489e737,5efb870df7a52c0ff0eee259,2,,,,,,stool,,,,,,0,37,37,16,1,2,1,,,,,,,,,,,,,,,,,,,,,,,,,,,,,,,,,,,,,,,,,,,,,,,,,,,,,,,,,,,,,,,,,,,,,,,,,,,
,,,,,,,,,,stimuli/images/PICTURE_708.png,RECORD,5e8b3b6444fa88056eaae254,2020-06-30_19h54.12.009,proactive,2020.1.2,Win32,60,5efb791ed4cb570da489e737,5efb870df7a52c0ff0eee259,2,,,,,,monkey,,,,,,0,38,38,58,1,6,1,,,,,,,,,,,,,,,,,,,,,,,,,,,,,,,,,,,,,,,,,,,,,,,,,,,,,,,,,,,,,,,,,,,,,,,,,,,
,,,,,,,,,,stimuli/images/PICTURE_405.png,YEAR,5e8b3b6444fa88056eaae254,2020-06-30_19h54.12.009,proactive,2020.1.2,Win32,60,5efb791ed4cb570da489e737,5efb870df7a52c0ff0eee259,2,,,,,,anchor,,,,,,0,39,39,34,1,4,1,,,,,,,,,,,,,,,,,,,,,,,,,,,,,,,,,,,,,,,,,,,,,,,,,,,,,,,,,,,,,,,,,,,,,,,,,,,
,,,,,,,,,,stimuli/images/PICTURE_108.png,FLIGHT,5e8b3b6444fa88056eaae254,2020-06-30_19h54.12.009,proactive,2020.1.2,Win32,60,5efb791ed4cb570da489e737,5efb870df7a52c0ff0eee259,2,,,,,,calendar,,,,,,0,40,40,59,1,6,1,,,,,,,,,,,,,,,,,,,,,,,,,,,,,,,,,,,,,,,,,,,,,,,,,,,,,,,,,,,,,,,,,,,,,,,,,,,
,,,,,,,,,,stimuli/images/PICTURE_68.png,ROOF,5e8b3b6444fa88056eaae254,2020-06-30_19h54.12.009,proactive,2020.1.2,Win32,60,5efb791ed4cb570da489e737,5efb870df7a52c0ff0eee259,2,,,,,,candle,,,,,,0,41,41,38,1,4,1,,,,,,,,,,,,,,,,,,,,,,,,,,,,,,,,,,,,,,,,,,,,,,,,,,,,,,,,,,,,,,,,,,,,,,,,,,,
,,,,,,,,,,stimuli/images/PICTURE_380.png,CANDY,5e8b3b6444fa88056eaae254,2020-06-30_19h54.12.009,proactive,2020.1.2,Win32,60,5efb791ed4cb570da489e737,5efb870df7a52c0ff0eee259,2,,,,,,gorilla,,,,,,0,42,42,0,1,1,1,,,,,,,,,,,,,,,,,,,,,,,,,,,,,,,,,,,,,,,,,,,,,,,,,,,,,,,,,,,,,,,,,,,,,,,,,,,
,,,,,,,,,,stimuli/images/PICTURE_233.png,LOTS,5e8b3b6444fa88056eaae254,2020-06-30_19h54.12.009,proactive,2020.1.2,Win32,60,5efb791ed4cb570da489e737,5efb870df7a52c0ff0eee259,2,,,,,,salt,,,,,,0,43,43,42,1,5,1,,,,,,,,,,,,,,,,,,,,,,,,,,,,,,,,,,,,,,,,,,,,,,,,,,,,,,,,,,,,,,,,,,,,,,,,,,,
,,,,,,,,,,stimuli/images/PICTURE_85.png,TOILET,5e8b3b6444fa88056eaae254,2020-06-30_19h54.12.009,proactive,2020.1.2,Win32,60,5efb791ed4cb570da489e737,5efb870df7a52c0ff0eee259,2,,,,,,diamond,,,,,,0,44,44,48,1,5,1,,,,,,,,,,,,,,,,,,,,,,,,,,,,,,,,,,,,,,,,,,,,,,,,,,,,,,,,,,,,,,,,,,,,,,,,,,,
,,,,,,,,,,stimuli/images/PICTURE_655.png,TOILET,5e8b3b6444fa88056eaae254,2020-06-30_19h54.12.009,proactive,2020.1.2,Win32,60,5efb791ed4cb570da489e737,5efb870df7a52c0ff0eee259,2,,,,,,megaphone,,,,,,0,45,45,12,1,2,1,,,,,,,,,,,,,,,,,,,,,,,,,,,,,,,,,,,,,,,,,,,,,,,,,,,,,,,,,,,,,,,,,,,,,,,,,,,
,,,,,,,,,,stimuli/images/PICTURE_491.png,RIVER,5e8b3b6444fa88056eaae254,2020-06-30_19h54.12.009,proactive,2020.1.2,Win32,60,5efb791ed4cb570da489e737,5efb870df7a52c0ff0eee259,2,,,,,,rug,,,,,,0,46,46,6,1,1,1,,,,,,,,,,,,,,,,,,,,,,,,,,,,,,,,,,,,,,,,,,,,,,,,,,,,,,,,,,,,,,,,,,,,,,,,,,,
,,,,,,,,,,stimuli/images/PICTURE_2.png,FLIGHT,5e8b3b6444fa88056eaae254,2020-06-30_19h54.12.009,proactive,2020.1.2,Win32,60,5efb791ed4cb570da489e737,5efb870df7a52c0ff0eee259,2,,,,,,tyre,,,,,,0,47,47,15,1,2,1,,,,,,,,,,,,,,,,,,,,,,,,,,,,,,,,,,,,,,,,,,,,,,,,,,,,,,,,,,,,,,,,,,,,,,,,,,,
,,,,,,,,,,stimuli/images/PICTURE_33.png,FRIEND,5e8b3b6444fa88056eaae254,2020-06-30_19h54.12.009,proactive,2020.1.2,Win32,60,5efb791ed4cb570da489e737,5efb870df7a52c0ff0eee259,2,,,,,,frame,,,,,,0,48,48,8,1,1,1,,,,,,,,,,,,,,,,,,,,,,,,,,,,,,,,,,,,,,,,,,,,,,,,,,,,,,,,,,,,,,,,,,,,,,,,,,,
,,,,,,,,,,stimuli/images/PICTURE_504.png,YEAR,5e8b3b6444fa88056eaae254,2020-06-30_19h54.12.009,proactive,2020.1.2,Win32,60,5efb791ed4cb570da489e737,5efb870df7a52c0ff0eee259,2,,,,,,wheel,,,,,,0,49,49,13,1,2,1,,,,,,,,,,,,,,,,,,,,,,,,,,,,,,,,,,,,,,,,,,,,,,,,,,,,,,,,,,,,,,,,,,,,,,,,,,,
,,,,,,,,,,stimuli/images/PICTURE_677.png,APPLE,5e8b3b6444fa88056eaae254,2020-06-30_19h54.12.009,proactive,2020.1.2,Win32,60,5efb791ed4cb570da489e737,5efb870df7a52c0ff0eee259,2,,,,,,map,,,,,,0,50,50,43,1,5,1,,,,,,,,,,,,,,,,,,,,,,,,,,,,,,,,,,,,,,,,,,,,,,,,,,,,,,,,,,,,,,,,,,,,,,,,,,,
,,,,,,,,,,stimuli/images/PICTURE_403.png,TOILET,5e8b3b6444fa88056eaae254,2020-06-30_19h54.12.009,proactive,2020.1.2,Win32,60,5efb791ed4cb570da489e737,5efb870df7a52c0ff0eee259,2,,,,,,cathedral,,,,,,0,51,51,25,1,3,1,,,,,,,,,,,,,,,,,,,,,,,,,,,,,,,,,,,,,,,,,,,,,,,,,,,,,,,,,,,,,,,,,,,,,,,,,,,
,,,,,,,,,,stimuli/images/PICTURE_403.png,RIVER,5e8b3b6444fa88056eaae254,2020-06-30_19h54.12.009,proactive,2020.1.2,Win32,60,5efb791ed4cb570da489e737,5efb870df7a52c0ff0eee259,2,,,,,,cathedral,,,,,,0,52,52,40,1,5,1,,,,,,,,,,,,,,,,,,,,,,,,,,,,,,,,,,,,,,,,,,,,,,,,,,,,,,,,,,,,,,,,,,,,,,,,,,,
,,,,,,,,,,stimuli/images/PICTURE_308.png,FAMILY,5e8b3b6444fa88056eaae254,2020-06-30_19h54.12.009,proactive,2020.1.2,Win32,60,5efb791ed4cb570da489e737,5efb870df7a52c0ff0eee259,2,,,,,,dice,,,,,,0,53,53,36,1,4,1,,,,,,,,,,,,,,,,,,,,,,,,,,,,,,,,,,,,,,,,,,,,,,,,,,,,,,,,,,,,,,,,,,,,,,,,,,,
,,,,,,,,,,stimuli/images/PICTURE_340.png,VALLEY,5e8b3b6444fa88056eaae254,2020-06-30_19h54.12.009,proactive,2020.1.2,Win32,60,5efb791ed4cb570da489e737,5efb870df7a52c0ff0eee259,2,,,,,,mirror,,,,,,0,54,54,54,1,6,1,,,,,,,,,,,,,,,,,,,,,,,,,,,,,,,,,,,,,,,,,,,,,,,,,,,,,,,,,,,,,,,,,,,,,,,,,,,
,,,,,,,,,,stimuli/images/PICTURE_383.png,SERIES,5e8b3b6444fa88056eaae254,2020-06-30_19h54.12.009,proactive,2020.1.2,Win32,60,5efb791ed4cb570da489e737,5efb870df7a52c0ff0eee259,2,,,,,,coin,,,,,,0,55,55,46,1,5,1,,,,,,,,,,,,,,,,,,,,,,,,,,,,,,,,,,,,,,,,,,,,,,,,,,,,,,,,,,,,,,,,,,,,,,,,,,,
,,,,,,,,,,stimuli/images/PICTURE_744.png,WEAPON,5e8b3b6444fa88056eaae254,2020-06-30_19h54.12.009,proactive,2020.1.2,Win32,60,5efb791ed4cb570da489e737,5efb870df7a52c0ff0eee259,2,,,,,,ring,,,,,,0,56,56,50,1,6,1,,,,,,,,,,,,,,,,,,,,,,,,,,,,,,,,,,,,,,,,,,,,,,,,,,,,,,,,,,,,,,,,,,,,,,,,,,,
,,,,,,,,,,stimuli/images/PICTURE_147.png,YEAR,5e8b3b6444fa88056eaae254,2020-06-30_19h54.12.009,proactive,2020.1.2,Win32,60,5efb791ed4cb570da489e737,5efb870df7a52c0ff0eee259,2,,,,,,hanger,,,,,,0,57,57,21,1,3,1,,,,,,,,,,,,,,,,,,,,,,,,,,,,,,,,,,,,,,,,,,,,,,,,,,,,,,,,,,,,,,,,,,,,,,,,,,,
,,,,,,,,,,stimuli/images/PICTURE_675.png,SALE,5e8b3b6444fa88056eaae254,2020-06-30_19h54.12.009,proactive,2020.1.2,Win32,60,5efb791ed4cb570da489e737,5efb870df7a52c0ff0eee259,2,,,,,,windmill,,,,,,0,58,58,47,1,5,1,,,,,,,,,,,,,,,,,,,,,,,,,,,,,,,,,,,,,,,,,,,,,,,,,,,,,,,,,,,,,,,,,,,,,,,,,,,
,,?,0.000635,0,,,,,,stimuli/images/PICTURE_504.png,COPS,5e8b3b6444fa88056eaae254,2020-06-30_19h54.12.009,proactive,2020.1.2,Win32,60,5efb791ed4cb570da489e737,5efb870df7a52c0ff0eee259,2,,,,,,wheel,,,,,,,,,,,6,1,0,0,0,52,1,,,,,,,,,,,,,,,,,,,,,,,,,,,,,,,,,,,,,,,,,,,,,,,,,,,,,,,,,,,,,,,,,,,,,,
,,?,0.00046,0,,,,,,stimuli/images/PICTURE_403.png,WRITER,5e8b3b6444fa88056eaae254,2020-06-30_19h54.12.009,proactive,2020.1.2,Win32,60,5efb791ed4cb570da489e737,5efb870df7a52c0ff0eee259,2,,,,,,cathedral,,,,,,,,,,,4,1,0,1,1,31,1,,,,,,,,,,,,,,,,,,,,,,,,,,,,,,,,,,,,,,,,,,,,,,,,,,,,,,,,,,,,,,,,,,,,,,
,,?,0.00049,0,,,,,,stimuli/images/PICTURE_57.png,MOMENT,5e8b3b6444fa88056eaae254,2020-06-30_19h54.12.009,proactive,2020.1.2,Win32,60,5efb791ed4cb570da489e737,5efb870df7a52c0ff0eee259,2,,,,,,stamp,,,,,,,,,,,4,1,0,2,2,37,1,,,,,,,,,,,,,,,,,,,,,,,,,,,,,,,,,,,,,,,,,,,,,,,,,,,,,,,,,,,,,,,,,,,,,,
,,?,0.00045,0,,,,,,stimuli/images/PICTURE_95.png,BOYS,5e8b3b6444fa88056eaae254,2020-06-30_19h54.12.009,proactive,2020.1.2,Win32,60,5efb791ed4cb570da489e737,5efb870df7a52c0ff0eee259,2,,,,,,suitcase,,,,,,,,,,,1,1,0,3,3,1,1,,,,,,,,,,,,,,,,,,,,,,,,,,,,,,,,,,,,,,,,,,,,,,,,,,,,,,,,,,,,,,,,,,,,,,
,,?,0.00047,0,,,,,,stimuli/images/PICTURE_68.png,ROOF,5e8b3b6444fa88056eaae254,2020-06-30_19h54.12.009,proactive,2020.1.2,Win32,60,5efb791ed4cb570da489e737,5efb870df7a52c0ff0eee259,2,,,,,,candle,,,,,,,,,,,4,1,0,4,4,38,1,,,,,,,,,,,,,,,,,,,,,,,,,,,,,,,,,,,,,,,,,,,,,,,,,,,,,,,,,,,,,,,,,,,,,,
,,?,0.000455,0,,,,,,stimuli/images/PICTURE_654.png,MONTH,5e8b3b6444fa88056eaae254,2020-06-30_19h54.12.009,proactive,2020.1.2,Win32,60,5efb791ed4cb570da489e737,5efb870df7a52c0ff0eee259,2,,,,,,pencil,,,,,,,,,,,3,1,0,5,5,29,1,,,,,,,,,,,,,,,,,,,,,,,,,,,,,,,,,,,,,,,,,,,,,,,,,,,,,,,,,,,,,,,,,,,,,,
,,?,0.000455,0,,,,,,stimuli/images/PICTURE_383.png,WRITER,5e8b3b6444fa88056eaae254,2020-06-30_19h54.12.009,proactive,2020.1.2,Win32,60,5efb791ed4cb570da489e737,5efb870df7a52c0ff0eee259,2,,,,,,coin,,,,,,,,,,,3,1,0,6,6,28,1,,,,,,,,,,,,,,,,,,,,,,,,,,,,,,,,,,,,,,,,,,,,,,,,,,,,,,,,,,,,,,,,,,,,,,
,,CLIENT,3.58568,1,,,,,,stimuli/images/PICTURE_339.png,CLIENT,5e8b3b6444fa88056eaae254,2020-06-30_19h54.12.009,proactive,2020.1.2,Win32,60,5efb791ed4cb570da489e737,5efb870df7a52c0ff0eee259,2,,,,,,backpack,,,,,,,,,,,2,1,0,7,7,11,1,,,,,,,,,,,,,,,,,,,,,,,,,,,,,,,,,,,,,,,,,,,,,,,,,,,,,,,,,,,,,,,,,,,,,,
,,?,0.00066,0,,,,,,stimuli/images/PICTURE_203.png,NIGHT,5e8b3b6444fa88056eaae254,2020-06-30_19h54.12.009,proactive,2020.1.2,Win32,60,5efb791ed4cb570da489e737,5efb870df7a52c0ff0eee259,2,,,,,,cap,,,,,,,,,,,1,1,0,8,8,2,1,,,,,,,,,,,,,,,,,,,,,,,,,,,,,,,,,,,,,,,,,,,,,,,,,,,,,,,,,,,,,,,,,,,,,,
,,?,0.000455,0,,,,,,stimuli/images/PICTURE_403.png,RIVER,5e8b3b6444fa88056eaae254,2020-06-30_19h54.12.009,proactive,2020.1.2,Win32,60,5efb791ed4cb570da489e737,5efb870df7a52c0ff0eee259,2,,,,,,cathedral,,,,,,,,,,,5,1,0,9,9,40,1,,,,,,,,,,,,,,,,,,,,,,,,,,,,,,,,,,,,,,,,,,,,,,,,,,,,,,,,,,,,,,,,,,,,,,
,,GLASS,3.84618,1,,,,,,stimuli/images/PICTURE_491.png,GLASS,5e8b3b6444fa88056eaae254,2020-06-30_19h54.12.009,proactive,2020.1.2,Win32,60,5efb791ed4cb570da489e737,5efb870df7a52c0ff0eee259,2,,,,,,rug,,,,,,,,,,,2,1,0,10,10,14,1,,,,,,,,,,,,,,,,,,,,,,,,,,,,,,,,,,,,,,,,,,,,,,,,,,,,,,,,,,,,,,,,,,,,,,
,,?,0.000635,0,,,,,,stimuli/images/PICTURE_327.png,SERIES,5e8b3b6444fa88056eaae254,2020-06-30_19h54.12.009,proactive,2020.1.2,Win32,60,5efb791ed4cb570da489e737,5efb870df7a52c0ff0eee259,2,,,,,,helmet,,,,,,,,,,,1,1,0,11,11,3,1,,,,,,,,,,,,,,,,,,,,,,,,,,,,,,,,,,,,,,,,,,,,,,,,,,,,,,,,,,,,,,,,,,,,,,
,,?,0.00048,0,,,,,,stimuli/images/PICTURE_95.png,MILLER,5e8b3b6444fa88056eaae254,2020-06-30_19h54.12.009,proactive,2020.1.2,Win32,60,5efb791ed4cb570da489e737,5efb870df7a52c0ff0eee259,2,,,,,,suitcase,,,,,,,,,,,6,1,0,12,12,56,1,,,,,,,,,,,,,,,,,,,,,,,,,,,,,,,,,,,,,,,,,,,,,,,,,,,,,,,,,,,,,,,,,,,,,,
,,?,0.00046,0,,,,,,stimuli/images/PICTURE_33.png,FRIEND,5e8b3b6444fa88056eaae254,2020-06-30_19h54.12.009,proactive,2020.1.2,Win32,60,5efb791ed4cb570da489e737,5efb870df7a52c0ff0eee259,2,,,,,,frame,,,,,,,,,,,1,1,0,13,13,8,1,,,,,,,,,,,,,,,,,,,,,,,,,,,,,,,,,,,,,,,,,,,,,,,,,,,,,,,,,,,,,,,,,,,,,,
,,AGENT,5.37823,1,,,,,,stimuli/images/PICTURE_469.png,AGENT,5e8b3b6444fa88056eaae254,2020-06-30_19h54.12.009,proactive,2020.1.2,Win32,60,5efb791ed4cb570da489e737,5efb870df7a52c0ff0eee259,2,,,,,,stool,,,,,,,,,,,2,1,0,14,14,16,1,,,,,,,,,,,,,,,,,,,,,,,,,,,,,,,,,,,,,,,,,,,,,,,,,,,,,,,,,,,,,,,,,,,,,,
,,?,0.00067,0,,,,,,stimuli/images/PICTURE_744.png,WEAPON,5e8b3b6444fa88056eaae254,2020-06-30_19h54.12.009,proactive,2020.1.2,Win32,60,5efb791ed4cb570da489e737,5efb870df7a52c0ff0eee259,2,,,,,,ring,,,,,,,,,,,6,1,0,15,15,50,1,,,,,,,,,,,,,,,,,,,,,,,,,,,,,,,,,,,,,,,,,,,,,,,,,,,,,,,,,,,,,,,,,,,,,,
,,?,0.00046,0,,,,,,stimuli/images/PICTURE_405.png,PLENTY,5e8b3b6444fa88056eaae254,2020-06-30_19h54.12.009,proactive,2020.1.2,Win32,60,5efb791ed4cb570da489e737,5efb870df7a52c0ff0eee259,2,,,,,,anchor,,,,,,,,,,,3,1,0,16,16,23,1,,,,,,,,,,,,,,,,,,,,,,,,,,,,,,,,,,,,,,,,,,,,,,,,,,,,,,,,,,,,,,,,,,,,,,
,,PILLS,4.962015,1,,,,,,stimuli/images/PICTURE_32.png,PILLS,5e8b3b6444fa88056eaae254,2020-06-30_19h54.12.009,proactive,2020.1.2,Win32,60,5efb791ed4cb570da489e737,5efb870df7a52c0ff0eee259,2,,,,,,crown,,,,,,,,,,,2,1,0,17,17,18,1,,,,,,,,,,,,,,,,,,,,,,,,,,,,,,,,,,,,,,,,,,,,,,,,,,,,,,,,,,,,,,,,,,,,,,
,,?,0.000695,0,,,,,,stimuli/images/PICTURE_467.png,POLICY,5e8b3b6444fa88056eaae254,2020-06-30_19h54.12.009,proactive,2020.1.2,Win32,60,5efb791ed4cb570da489e737,5efb870df7a52c0ff0eee259,2,,,,,,peg,,,,,,,,,,,6,1,0,18,18,53,1,,,,,,,,,,,,,,,,,,,,,,,,,,,,,,,,,,,,,,,,,,,,,,,,,,,,,,,,,,,,,,,,,,,,,,
,,?,0.000465,0,,,,,,stimuli/images/PICTURE_564.png,BATH,5e8b3b6444fa88056eaae254,2020-06-30_19h54.12.009,proactive,2020.1.2,Win32,60,5efb791ed4cb570da489e737,5efb870df7a52c0ff0eee259,2,,,,,,spoon,,,,,,,,,,,3,1,0,19,19,26,1,,,,,,,,,,,,,,,,,,,,,,,,,,,,,,,,,,,,,,,,,,,,,,,,,,,,,,,,,,,,,,,,,,,,,,
,,?,0.000465,0,,,,,,stimuli/images/PICTURE_208.png,SYSTEM,5e8b3b6444fa88056eaae254,2020-06-30_19h54.12.009,proactive,2020.1.2,Win32,60,5efb791ed4cb570da489e737,5efb870df7a52c0ff0eee259,2,,,,,,microphone,,,,,,,,,,,4,1,0,20,20,32,1,,,,,,,,,,,,,,,,,,,,,,,,,,,,,,,,,,,,,,,,,,,,,,,,,,,,,,,,,,,,,,,,,,,,,,
,,?,0.00047,0,,,,,,stimuli/images/PICTURE_108.png,FLIGHT,5e8b3b6444fa88056eaae254,2020-06-30_19h54.12.009,proactive,2020.1.2,Win32,60,5efb791ed4cb570da489e737,5efb870df7a52c0ff0eee259,2,,,,,,calendar,,,,,,,,,,,6,1,0,21,21,59,1,,,,,,,,,,,,,,,,,,,,,,,,,,,,,,,,,,,,,,,,,,,,,,,,,,,,,,,,,,,,,,,,,,,,,,
,,?,0.00053,0,,,,,,stimuli/images/PICTURE_85.png,NATION,5e8b3b6444fa88056eaae254,2020-06-30_19h54.12.009,proactive,2020.1.2,Win32,60,5efb791ed4cb570da489e737,5efb870df7a52c0ff0eee259,2,,,,,,diamond,,,,,,,,,,,1,1,0,22,22,5,1,,,,,,,,,,,,,,,,,,,,,,,,,,,,,,,,,,,,,,,,,,,,,,,,,,,,,,,,,,,,,,,,,,,,,,
,,?,0.00046,0,,,,,,stimuli/images/PICTURE_32.png,KIND,5e8b3b6444fa88056eaae254,2020-06-30_19h54.12.009,proactive,2020.1.2,Win32,60,5efb791ed4cb570da489e737,5efb870df7a52c0ff0eee259,2,,,,,,crown,,,,,,,,,,,4,1,0,23,23,35,1,,,,,,,,,,,,,,,,,,,,,,,,,,,,,,,,,,,,,,,,,,,,,,,,,,,,,,,,,,,,,,,,,,,,,,
,,?,0.000445,0,,,,,,stimuli/images/PICTURE_708.png,RECORD,5e8b3b6444fa88056eaae254,2020-06-30_19h54.12.009,proactive,2020.1.2,Win32,60,5efb791ed4cb570da489e737,5efb870df7a52c0ff0eee259,2,,,,,,monkey,,,,,,,,,,,6,1,0,24,24,58,1,,,,,,,,,,,,,,,,,,,,,,,,,,,,,,,,,,,,,,,,,,,,,,,,,,,,,,,,,,,,,,,,,,,,,,
,,?,0.000435,0,,,,,,stimuli/images/PICTURE_42.png,BOYS,5e8b3b6444fa88056eaae254,2020-06-30_19h54.12.009,proactive,2020.1.2,Win32,60,5efb791ed4cb570da489e737,5efb870df7a52c0ff0eee259,2,,,,,,pear,,,,,,,,,,,6,1,0,25,25,55,1,,,,,,,,,,,,,,,,,,,,,,,,,,,,,,,,,,,,,,,,,,,,,,,,,,,,,,,,,,,,,,,,,,,,,,
,,?,0.00048,0,,,,,,stimuli/images/PICTURE_487.png,GIRL,5e8b3b6444fa88056eaae254,2020-06-30_19h54.12.009,proactive,2020.1.2,Win32,60,5efb791ed4cb570da489e737,5efb870df7a52c0ff0eee259,2,,,,,,basket,,,,,,,,,,,5,1,0,26,26,45,1,,,,,,,,,,,,,,,,,,,,,,,,,,,,,,,,,,,,,,,,,,,,,,,,,,,,,,,,,,,,,,,,,,,,,,
,,?,0.00045,0,,,,,,stimuli/images/PICTURE_203.png,GODS,5e8b3b6444fa88056eaae254,2020-06-30_19h54.12.009,proactive,2020.1.2,Win32,60,5efb791ed4cb570da489e737,5efb870df7a52c0ff0eee259,2,,,,,,cap,,,,,,,,,,,4,1,0,27,27,30,1,,,,,,,,,,,,,,,,,,,,,,,,,,,,,,,,,,,,,,,,,,,,,,,,,,,,,,,,,,,,,,,,,,,,,,
,,RIVER,3.82037,1,,,,,,stimuli/images/PICTURE_667.png,RIVER,5e8b3b6444fa88056eaae254,2020-06-30_19h54.12.009,proactive,2020.1.2,Win32,60,5efb791ed4cb570da489e737,5efb870df7a52c0ff0eee259,2,,,,,,daisy,,,,,,,,,,,2,1,0,28,28,10,1,,,,,,,,,,,,,,,,,,,,,,,,,,,,,,,,,,,,,,,,,,,,,,,,,,,,,,,,,,,,,,,,,,,,,,
,,?,0.00068,0,,,,,,stimuli/images/PICTURE_308.png,FAMILY,5e8b3b6444fa88056eaae254,2020-06-30_19h54.12.009,proactive,2020.1.2,Win32,60,5efb791ed4cb570da489e737,5efb870df7a52c0ff0eee259,2,,,,,,dice,,,,,,,,,,,4,1,0,29,29,36,1,,,,,,,,,,,,,,,,,,,,,,,,,,,,,,,,,,,,,,,,,,,,,,,,,,,,,,,,,,,,,,,,,,,,,,
