consent_key.keys,consent_key.rt,recalled,recalled_rt,recall_acc,example_recall.thisRepN,example_recall.thisTrialN,example_recall.thisN,example_recall.thisIndex,example_recall.ran,file,word,participant,please enter your date of birth (dd/mm/yyyy),date,expName,psychopyVersion,OS,frameRate,STUDY_ID,SESSION_ID,list,prac_learn_study_loop.thisRepN,prac_learn_study_loop.thisTrialN,prac_learn_study_loop.thisN,prac_learn_study_loop.thisIndex,prac_learn_study_loop.ran,image,prac_learn_test_loop.thisRepN,prac_learn_test_loop.thisTrialN,prac_learn_test_loop.thisN,prac_learn_test_loop.thisIndex,prac_learn_test_loop.ran,learn_study_loop.thisRepN,learn_study_loop.thisTrialN,learn_study_loop.thisN,learn_study_loop.thisIndex,learn_study_loop.ran,list_no,block_no,learn_test_loop.thisRepN,learn_test_loop.thisTrialN,learn_test_loop.thisN,learn_test_loop.thisIndex,learn_test_loop.ran,learn_blocks.thisRepN,learn_blocks.thisTrialN,learn_blocks.thisN,learn_blocks.thisIndex,learn_blocks.ran,block_csv,key_resp_13.keys,key_resp_13.rt,learn_blocks_loop.thisRepN,learn_blocks_loop.thisTrialN,learn_blocks_loop.thisN,learn_blocks_loop.thisIndex,learn_blocks_loop.ran,final_learn_test.thisRepN,final_learn_test.thisTrialN,final_learn_test.thisN,final_learn_test.thisIndex,final_learn_test.ran,prac_wm_test_loop.thisRepN,prac_wm_test_loop.thisTrialN,prac_wm_test_loop.thisN,prac_wm_test_loop.thisIndex,prac_wm_test_loop.ran,wm_recalled1,wm_recall_rt1,wm_probed1,wm_recall_acc1,wm_recalled2,wm_recall_rt2,wm_probed2,wm_recall_acc2,wm_recalled3,wm_recall_rt3,wm_probed3,wm_recall_acc3,wm_recalled4,wm_recall_rt4,wm_probed4,wm_recall_acc4,prac_wm_trial_loop.thisRepN,prac_wm_trial_loop.thisTrialN,prac_wm_trial_loop.thisN,prac_wm_trial_loop.thisIndex,prac_wm_trial_loop.ran,word1,image1,file1,item_type1,word2,image2,file2,item_type2,word4,image4,file4,item_type4,word3,image3,file3,item_type3,wm_test_loop.thisRepN,wm_test_loop.thisTrialN,wm_test_loop.thisN,wm_test_loop.thisIndex,wm_test_loop.ran,wm_trial_loop.thisRepN,wm_trial_loop.thisTrialN,wm_trial_loop.thisN,wm_trial_loop.thisIndex,wm_trial_loop.ran
y,43.924,TOUGH,5.817,1,0,0,0,0,1,stimuli/images/PICTURE_747.png,TOUGH,5e911cfaefd95445d5a6c890,09/10/1950,2020-07-09_13h47.46.889,proactive,2020.1.2,Win32,60,5f073de81c76c3308c0e4fb3,5f0758116a759d115b9053cd,4,,,,,,,,,,,,,,,,,,,,,,,,,,,,,,,,,,,,,,,,,,,,,,,,,,,,,,,,,,,,,,,,,,,,,,,,,,,,,,,,,,,,,,,,,,,,,
,,,,,,,,,,stimuli/images/PICTURE_727.png,CELL,5e911cfaefd95445d5a6c890,09/10/1950,2020-07-09_13h47.46.889,proactive,2020.1.2,Win32,60,5f073de81c76c3308c0e4fb3,5f0758116a759d115b9053cd,4,0,0,0,1,1,hose,,,,,,,,,,,,,,,,,,,,,,,,,,,,,,,,,,,,,,,,,,,,,,,,,,,,,,,,,,,,,,,,,,,,,,,,,,,,,,,,,,,,,,,
,,,,,,,,,,stimuli/images/PICTURE_269.png,GENIUS,5e911cfaefd95445d5a6c890,09/10/1950,2020-07-09_13h47.46.889,proactive,2020.1.2,Win32,60,5f073de81c76c3308c0e4fb3,5f0758116a759d115b9053cd,4,0,1,1,0,1,chameleon,,,,,,,,,,,,,,,,,,,,,,,,,,,,,,,,,,,,,,,,,,,,,,,,,,,,,,,,,,,,,,,,,,,,,,,,,,,,,,,,,,,,,,,
,,,,,,,,,,stimuli/images/PICTURE_658.png,DEVIL,5e911cfaefd95445d5a6c890,09/10/1950,2020-07-09_13h47.46.889,proactive,2020.1.2,Win32,60,5f073de81c76c3308c0e4fb3,5f0758116a759d115b9053cd,4,0,2,2,3,1,crow,,,,,,,,,,,,,,,,,,,,,,,,,,,,,,,,,,,,,,,,,,,,,,,,,,,,,,,,,,,,,,,,,,,,,,,,,,,,,,,,,,,,,,,
,,,,,,,,,,stimuli/images/PICTURE_697.png,KILLER,5e911cfaefd95445d5a6c890,09/10/1950,2020-07-09_13h47.46.889,proactive,2020.1.2,Win32,60,5f073de81c76c3308c0e4fb3,5f0758116a759d115b9053cd,4,0,3,3,4,1,peach,,,,,,,,,,,,,,,,,,,,,,,,,,,,,,,,,,,,,,,,,,,,,,,,,,,,,,,,,,,,,,,,,,,,,,,,,,,,,,,,,,,,,,,
,,CELL,3.642,1,,,,,,stimuli/images/PICTURE_727.png,CELL,5e911cfaefd95445d5a6c890,09/10/1950,2020-07-09_13h47.46.889,proactive,2020.1.2,Win32,60,5f073de81c76c3308c0e4fb3,5f0758116a759d115b9053cd,4,,,,,,hose,0,0,0,1,1,,,,,,,,,,,,,,,,,,,,,,,,,,,,,,,,,,,,,,,,,,,,,,,,,,,,,,,,,,,,,,,,,,,,,,,,,,,,,,,,,,
,,KILLER,4.982,1,,,,,,stimuli/images/PICTURE_697.png,KILLER,5e911cfaefd95445d5a6c890,09/10/1950,2020-07-09_13h47.46.889,proactive,2020.1.2,Win32,60,5f073de81c76c3308c0e4fb3,5f0758116a759d115b9053cd,4,,,,,,peach,0,1,1,4,1,,,,,,,,,,,,,,,,,,,,,,,,,,,,,,,,,,,,,,,,,,,,,,,,,,,,,,,,,,,,,,,,,,,,,,,,,,,,,,,,,,
,,FLOS,5.582,0,,,,,,stimuli/images/PICTURE_378.png,LOSS,5e911cfaefd95445d5a6c890,09/10/1950,2020-07-09_13h47.46.889,proactive,2020.1.2,Win32,60,5f073de81c76c3308c0e4fb3,5f0758116a759d115b9053cd,4,,,,,,lobster,0,2,2,2,1,,,,,,,,,,,,,,,,,,,,,,,,,,,,,,,,,,,,,,,,,,,,,,,,,,,,,,,,,,,,,,,,,,,,,,,,,,,,,,,,,,
,,DEVIL,6.5,1,,,,,,stimuli/images/PICTURE_658.png,DEVIL,5e911cfaefd95445d5a6c890,09/10/1950,2020-07-09_13h47.46.889,proactive,2020.1.2,Win32,60,5f073de81c76c3308c0e4fb3,5f0758116a759d115b9053cd,4,,,,,,crow,0,3,3,3,1,,,,,,,,,,,,,,,,,,,,,,,,,,,,,,,,,,,,,,,,,,,,,,,,,,,,,,,,,,,,,,,,,,,,,,,,,,,,,,,,,,
,,?,15.015,0,,,,,,stimuli/images/PICTURE_269.png,GENIUS,5e911cfaefd95445d5a6c890,09/10/1950,2020-07-09_13h47.46.889,proactive,2020.1.2,Win32,60,5f073de81c76c3308c0e4fb3,5f0758116a759d115b9053cd,4,,,,,,chameleon,0,4,4,0,1,,,,,,,,,,,,,,,,,,,,,,,,,,,,,,,,,,,,,,,,,,,,,,,,,,,,,,,,,,,,,,,,,,,,,,,,,,,,,,,,,,
,,,,,,,,,,stimuli/images/PICTURE_348.png,TOILET,5e911cfaefd95445d5a6c890,09/10/1950,2020-07-09_13h47.46.889,proactive,2020.1.2,Win32,60,5f073de81c76c3308c0e4fb3,5f0758116a759d115b9053cd,4,,,,,,pepper,,,,,,0,0,0,4,1,1,2,,,,,,,,,,,,,,,,,,,,,,,,,,,,,,,,,,,,,,,,,,,,,,,,,,,,,,,,,,,,,,,,,,,,,,,,,,,
,,,,,,,,,,stimuli/images/PICTURE_452.png,COPS,5e911cfaefd95445d5a6c890,09/10/1950,2020-07-09_13h47.46.889,proactive,2020.1.2,Win32,60,5f073de81c76c3308c0e4fb3,5f0758116a759d115b9053cd,4,,,,,,watch,,,,,,0,1,1,0,1,1,2,,,,,,,,,,,,,,,,,,,,,,,,,,,,,,,,,,,,,,,,,,,,,,,,,,,,,,,,,,,,,,,,,,,,,,,,,,,
,,,,,,,,,,stimuli/images/PICTURE_403.png,FAMILY,5e911cfaefd95445d5a6c890,09/10/1950,2020-07-09_13h47.46.889,proactive,2020.1.2,Win32,60,5f073de81c76c3308c0e4fb3,5f0758116a759d115b9053cd,4,,,,,,cathedral,,,,,,0,2,2,9,1,1,2,,,,,,,,,,,,,,,,,,,,,,,,,,,,,,,,,,,,,,,,,,,,,,,,,,,,,,,,,,,,,,,,,,,,,,,,,,,
,,,,,,,,,,stimuli/images/PICTURE_177.png,HOUSE,5e911cfaefd95445d5a6c890,09/10/1950,2020-07-09_13h47.46.889,proactive,2020.1.2,Win32,60,5f073de81c76c3308c0e4fb3,5f0758116a759d115b9053cd,4,,,,,,mushroom,,,,,,0,3,3,25,1,3,2,,,,,,,,,,,,,,,,,,,,,,,,,,,,,,,,,,,,,,,,,,,,,,,,,,,,,,,,,,,,,,,,,,,,,,,,,,,
,,,,,,,,,,stimuli/images/PICTURE_2.png,AREA,5e911cfaefd95445d5a6c890,09/10/1950,2020-07-09_13h47.46.889,proactive,2020.1.2,Win32,60,5f073de81c76c3308c0e4fb3,5f0758116a759d115b9053cd,4,,,,,,tyre,,,,,,0,4,4,32,1,4,2,,,,,,,,,,,,,,,,,,,,,,,,,,,,,,,,,,,,,,,,,,,,,,,,,,,,,,,,,,,,,,,,,,,,,,,,,,,
,,,,,,,,,,stimuli/images/PICTURE_405.png,JUNGLE,5e911cfaefd95445d5a6c890,09/10/1950,2020-07-09_13h47.46.889,proactive,2020.1.2,Win32,60,5f073de81c76c3308c0e4fb3,5f0758116a759d115b9053cd,4,,,,,,anchor,,,,,,0,5,5,58,1,6,2,,,,,,,,,,,,,,,,,,,,,,,,,,,,,,,,,,,,,,,,,,,,,,,,,,,,,,,,,,,,,,,,,,,,,,,,,,,
,,,,,,,,,,stimuli/images/PICTURE_285.png,WRITER,5e911cfaefd95445d5a6c890,09/10/1950,2020-07-09_13h47.46.889,proactive,2020.1.2,Win32,60,5f073de81c76c3308c0e4fb3,5f0758116a759d115b9053cd,4,,,,,,carrot,,,,,,0,6,6,6,1,1,2,,,,,,,,,,,,,,,,,,,,,,,,,,,,,,,,,,,,,,,,,,,,,,,,,,,,,,,,,,,,,,,,,,,,,,,,,,,
,,,,,,,,,,stimuli/images/PICTURE_509.png,MILLER,5e911cfaefd95445d5a6c890,09/10/1950,2020-07-09_13h47.46.889,proactive,2020.1.2,Win32,60,5f073de81c76c3308c0e4fb3,5f0758116a759d115b9053cd,4,,,,,,telephone,,,,,,0,7,7,49,1,5,2,,,,,,,,,,,,,,,,,,,,,,,,,,,,,,,,,,,,,,,,,,,,,,,,,,,,,,,,,,,,,,,,,,,,,,,,,,,
,,,,,,,,,,stimuli/images/PICTURE_491.png,SERIES,5e911cfaefd95445d5a6c890,09/10/1950,2020-07-09_13h47.46.889,proactive,2020.1.2,Win32,60,5f073de81c76c3308c0e4fb3,5f0758116a759d115b9053cd,4,,,,,,rug,,,,,,0,8,8,39,1,4,2,,,,,,,,,,,,,,,,,,,,,,,,,,,,,,,,,,,,,,,,,,,,,,,,,,,,,,,,,,,,,,,,,,,,,,,,,,,
,,,,,,,,,,stimuli/images/PICTURE_297.png,BODY,5e911cfaefd95445d5a6c890,09/10/1950,2020-07-09_13h47.46.889,proactive,2020.1.2,Win32,60,5f073de81c76c3308c0e4fb3,5f0758116a759d115b9053cd,4,,,,,,aeroplane,,,,,,0,9,9,51,1,6,2,,,,,,,,,,,,,,,,,,,,,,,,,,,,,,,,,,,,,,,,,,,,,,,,,,,,,,,,,,,,,,,,,,,,,,,,,,,
,,,,,,,,,,stimuli/images/PICTURE_677.png,PHOTO,5e911cfaefd95445d5a6c890,09/10/1950,2020-07-09_13h47.46.889,proactive,2020.1.2,Win32,60,5f073de81c76c3308c0e4fb3,5f0758116a759d115b9053cd,4,,,,,,map,,,,,,0,10,10,14,1,2,2,,,,,,,,,,,,,,,,,,,,,,,,,,,,,,,,,,,,,,,,,,,,,,,,,,,,,,,,,,,,,,,,,,,,,,,,,,,
,,,,,,,,,,stimuli/images/PICTURE_95.png,NIGHT,5e911cfaefd95445d5a6c890,09/10/1950,2020-07-09_13h47.46.889,proactive,2020.1.2,Win32,60,5f073de81c76c3308c0e4fb3,5f0758116a759d115b9053cd,4,,,,,,suitcase,,,,,,0,11,11,37,1,4,2,,,,,,,,,,,,,,,,,,,,,,,,,,,,,,,,,,,,,,,,,,,,,,,,,,,,,,,,,,,,,,,,,,,,,,,,,,,
,,,,,,,,,,stimuli/images/PICTURE_2.png,JUNGLE,5e911cfaefd95445d5a6c890,09/10/1950,2020-07-09_13h47.46.889,proactive,2020.1.2,Win32,60,5f073de81c76c3308c0e4fb3,5f0758116a759d115b9053cd,4,,,,,,tyre,,,,,,0,12,12,1,1,1,2,,,,,,,,,,,,,,,,,,,,,,,,,,,,,,,,,,,,,,,,,,,,,,,,,,,,,,,,,,,,,,,,,,,,,,,,,,,
,,,,,,,,,,stimuli/images/PICTURE_255.png,PENNY,5e911cfaefd95445d5a6c890,09/10/1950,2020-07-09_13h47.46.889,proactive,2020.1.2,Win32,60,5f073de81c76c3308c0e4fb3,5f0758116a759d115b9053cd,4,,,,,,shovel,,,,,,0,13,13,19,1,2,2,,,,,,,,,,,,,,,,,,,,,,,,,,,,,,,,,,,,,,,,,,,,,,,,,,,,,,,,,,,,,,,,,,,,,,,,,,,
,,,,,,,,,,stimuli/images/PICTURE_314.png,SPEECH,5e911cfaefd95445d5a6c890,09/10/1950,2020-07-09_13h47.46.889,proactive,2020.1.2,Win32,60,5f073de81c76c3308c0e4fb3,5f0758116a759d115b9053cd,4,,,,,,perfume,,,,,,0,14,14,35,1,4,2,,,,,,,,,,,,,,,,,,,,,,,,,,,,,,,,,,,,,,,,,,,,,,,,,,,,,,,,,,,,,,,,,,,,,,,,,,,
,,,,,,,,,,stimuli/images/PICTURE_667.png,GLASS,5e911cfaefd95445d5a6c890,09/10/1950,2020-07-09_13h47.46.889,proactive,2020.1.2,Win32,60,5f073de81c76c3308c0e4fb3,5f0758116a759d115b9053cd,4,,,,,,daisy,,,,,,0,15,15,27,1,3,2,,,,,,,,,,,,,,,,,,,,,,,,,,,,,,,,,,,,,,,,,,,,,,,,,,,,,,,,,,,,,,,,,,,,,,,,,,,
,,,,,,,,,,stimuli/images/PICTURE_57.png,CASINO,5e911cfaefd95445d5a6c890,09/10/1950,2020-07-09_13h47.46.889,proactive,2020.1.2,Win32,60,5f073de81c76c3308c0e4fb3,5f0758116a759d115b9053cd,4,,,,,,stamp,,,,,,0,16,16,12,1,2,2,,,,,,,,,,,,,,,,,,,,,,,,,,,,,,,,,,,,,,,,,,,,,,,,,,,,,,,,,,,,,,,,,,,,,,,,,,,
,,,,,,,,,,stimuli/images/PICTURE_147.png,LEADER,5e911cfaefd95445d5a6c890,09/10/1950,2020-07-09_13h47.46.889,proactive,2020.1.2,Win32,60,5f073de81c76c3308c0e4fb3,5f0758116a759d115b9053cd,4,,,,,,hanger,,,,,,0,17,17,33,1,4,2,,,,,,,,,,,,,,,,,,,,,,,,,,,,,,,,,,,,,,,,,,,,,,,,,,,,,,,,,,,,,,,,,,,,,,,,,,,
,,,,,,,,,,stimuli/images/PICTURE_654.png,YEAR,5e911cfaefd95445d5a6c890,09/10/1950,2020-07-09_13h47.46.889,proactive,2020.1.2,Win32,60,5f073de81c76c3308c0e4fb3,5f0758116a759d115b9053cd,4,,,,,,pencil,,,,,,0,18,18,41,1,5,2,,,,,,,,,,,,,,,,,,,,,,,,,,,,,,,,,,,,,,,,,,,,,,,,,,,,,,,,,,,,,,,,,,,,,,,,,,,
,,,,,,,,,,stimuli/images/PICTURE_405.png,JUNGLE,5e911cfaefd95445d5a6c890,09/10/1950,2020-07-09_13h47.46.889,proactive,2020.1.2,Win32,60,5f073de81c76c3308c0e4fb3,5f0758116a759d115b9053cd,4,,,,,,anchor,,,,,,0,19,19,13,1,2,2,,,,,,,,,,,,,,,,,,,,,,,,,,,,,,,,,,,,,,,,,,,,,,,,,,,,,,,,,,,,,,,,,,,,,,,,,,,
,,,,,,,,,,stimuli/images/PICTURE_311.png,TOILET,5e911cfaefd95445d5a6c890,09/10/1950,2020-07-09_13h47.46.889,proactive,2020.1.2,Win32,60,5f073de81c76c3308c0e4fb3,5f0758116a759d115b9053cd,4,,,,,,razor,,,,,,0,20,20,54,1,6,2,,,,,,,,,,,,,,,,,,,,,,,,,,,,,,,,,,,,,,,,,,,,,,,,,,,,,,,,,,,,,,,,,,,,,,,,,,,
,,,,,,,,,,stimuli/images/PICTURE_692.png,DUDE,5e911cfaefd95445d5a6c890,09/10/1950,2020-07-09_13h47.46.889,proactive,2020.1.2,Win32,60,5f073de81c76c3308c0e4fb3,5f0758116a759d115b9053cd,4,,,,,,cherry,,,,,,0,21,21,47,1,5,2,,,,,,,,,,,,,,,,,,,,,,,,,,,,,,,,,,,,,,,,,,,,,,,,,,,,,,,,,,,,,,,,,,,,,,,,,,,
,,,,,,,,,,stimuli/images/PICTURE_2.png,YARD,5e911cfaefd95445d5a6c890,09/10/1950,2020-07-09_13h47.46.889,proactive,2020.1.2,Win32,60,5f073de81c76c3308c0e4fb3,5f0758116a759d115b9053cd,4,,,,,,tyre,,,,,,0,22,22,55,1,6,2,,,,,,,,,,,,,,,,,,,,,,,,,,,,,,,,,,,,,,,,,,,,,,,,,,,,,,,,,,,,,,,,,,,,,,,,,,,
,,,,,,,,,,stimuli/images/PICTURE_215.png,BOYS,5e911cfaefd95445d5a6c890,09/10/1950,2020-07-09_13h47.46.889,proactive,2020.1.2,Win32,60,5f073de81c76c3308c0e4fb3,5f0758116a759d115b9053cd,4,,,,,,boot,,,,,,0,23,23,24,1,3,2,,,,,,,,,,,,,,,,,,,,,,,,,,,,,,,,,,,,,,,,,,,,,,,,,,,,,,,,,,,,,,,,,,,,,,,,,,,
,,,,,,,,,,stimuli/images/PICTURE_215.png,LEADER,5e911cfaefd95445d5a6c890,09/10/1950,2020-07-09_13h47.46.889,proactive,2020.1.2,Win32,60,5f073de81c76c3308c0e4fb3,5f0758116a759d115b9053cd,4,,,,,,boot,,,,,,0,24,24,43,1,5,2,,,,,,,,,,,,,,,,,,,,,,,,,,,,,,,,,,,,,,,,,,,,,,,,,,,,,,,,,,,,,,,,,,,,,,,,,,,
,,,,,,,,,,stimuli/images/PICTURE_327.png,LEADER,5e911cfaefd95445d5a6c890,09/10/1950,2020-07-09_13h47.46.889,proactive,2020.1.2,Win32,60,5f073de81c76c3308c0e4fb3,5f0758116a759d115b9053cd,4,,,,,,helmet,,,,,,0,25,25,17,1,2,2,,,,,,,,,,,,,,,,,,,,,,,,,,,,,,,,,,,,,,,,,,,,,,,,,,,,,,,,,,,,,,,,,,,,,,,,,,,
,,,,,,,,,,stimuli/images/PICTURE_356.png,CANDY,5e911cfaefd95445d5a6c890,09/10/1950,2020-07-09_13h47.46.889,proactive,2020.1.2,Win32,60,5f073de81c76c3308c0e4fb3,5f0758116a759d115b9053cd,4,,,,,,pawn,,,,,,0,26,26,46,1,5,2,,,,,,,,,,,,,,,,,,,,,,,,,,,,,,,,,,,,,,,,,,,,,,,,,,,,,,,,,,,,,,,,,,,,,,,,,,,
,,,,,,,,,,stimuli/images/PICTURE_470.png,BEAUTY,5e911cfaefd95445d5a6c890,09/10/1950,2020-07-09_13h47.46.889,proactive,2020.1.2,Win32,60,5f073de81c76c3308c0e4fb3,5f0758116a759d115b9053cd,4,,,,,,motorbike,,,,,,0,27,27,26,1,3,2,,,,,,,,,,,,,,,,,,,,,,,,,,,,,,,,,,,,,,,,,,,,,,,,,,,,,,,,,,,,,,,,,,,,,,,,,,,
,,,,,,,,,,stimuli/images/PICTURE_215.png,FOOD,5e911cfaefd95445d5a6c890,09/10/1950,2020-07-09_13h47.46.889,proactive,2020.1.2,Win32,60,5f073de81c76c3308c0e4fb3,5f0758116a759d115b9053cd,4,,,,,,boot,,,,,,0,28,28,5,1,1,2,,,,,,,,,,,,,,,,,,,,,,,,,,,,,,,,,,,,,,,,,,,,,,,,,,,,,,,,,,,,,,,,,,,,,,,,,,,
,,,,,,,,,,stimuli/images/PICTURE_564.png,PLENTY,5e911cfaefd95445d5a6c890,09/10/1950,2020-07-09_13h47.46.889,proactive,2020.1.2,Win32,60,5f073de81c76c3308c0e4fb3,5f0758116a759d115b9053cd,4,,,,,,spoon,,,,,,0,29,29,11,1,2,2,,,,,,,,,,,,,,,,,,,,,,,,,,,,,,,,,,,,,,,,,,,,,,,,,,,,,,,,,,,,,,,,,,,,,,,,,,,
,,,,,,,,,,stimuli/images/PICTURE_285.png,PRINCE,5e911cfaefd95445d5a6c890,09/10/1950,2020-07-09_13h47.46.889,proactive,2020.1.2,Win32,60,5f073de81c76c3308c0e4fb3,5f0758116a759d115b9053cd,4,,,,,,carrot,,,,,,0,30,30,20,1,3,2,,,,,,,,,,,,,,,,,,,,,,,,,,,,,,,,,,,,,,,,,,,,,,,,,,,,,,,,,,,,,,,,,,,,,,,,,,,
,,,,,,,,,,stimuli/images/PICTURE_655.png,SALE,5e911cfaefd95445d5a6c890,09/10/1950,2020-07-09_13h47.46.889,proactive,2020.1.2,Win32,60,5f073de81c76c3308c0e4fb3,5f0758116a759d115b9053cd,4,,,,,,megaphone,,,,,,0,31,31,57,1,6,2,,,,,,,,,,,,,,,,,,,,,,,,,,,,,,,,,,,,,,,,,,,,,,,,,,,,,,,,,,,,,,,,,,,,,,,,,,,
,,,,,,,,,,stimuli/images/PICTURE_509.png,BATH,5e911cfaefd95445d5a6c890,09/10/1950,2020-07-09_13h47.46.889,proactive,2020.1.2,Win32,60,5f073de81c76c3308c0e4fb3,5f0758116a759d115b9053cd,4,,,,,,telephone,,,,,,0,32,32,15,1,2,2,,,,,,,,,,,,,,,,,,,,,,,,,,,,,,,,,,,,,,,,,,,,,,,,,,,,,,,,,,,,,,,,,,,,,,,,,,,
,,,,,,,,,,stimuli/images/PICTURE_688.png,CLOCK,5e911cfaefd95445d5a6c890,09/10/1950,2020-07-09_13h47.46.889,proactive,2020.1.2,Win32,60,5f073de81c76c3308c0e4fb3,5f0758116a759d115b9053cd,4,,,,,,runner,,,,,,0,33,33,42,1,5,2,,,,,,,,,,,,,,,,,,,,,,,,,,,,,,,,,,,,,,,,,,,,,,,,,,,,,,,,,,,,,,,,,,,,,,,,,,,
,,,,,,,,,,stimuli/images/PICTURE_57.png,CANDY,5e911cfaefd95445d5a6c890,09/10/1950,2020-07-09_13h47.46.889,proactive,2020.1.2,Win32,60,5f073de81c76c3308c0e4fb3,5f0758116a759d115b9053cd,4,,,,,,stamp,,,,,,0,34,34,52,1,6,2,,,,,,,,,,,,,,,,,,,,,,,,,,,,,,,,,,,,,,,,,,,,,,,,,,,,,,,,,,,,,,,,,,,,,,,,,,,
,,,,,,,,,,stimuli/images/PICTURE_708.png,VALLEY,5e911cfaefd95445d5a6c890,09/10/1950,2020-07-09_13h47.46.889,proactive,2020.1.2,Win32,60,5f073de81c76c3308c0e4fb3,5f0758116a759d115b9053cd,4,,,,,,monkey,,,,,,0,35,35,45,1,5,2,,,,,,,,,,,,,,,,,,,,,,,,,,,,,,,,,,,,,,,,,,,,,,,,,,,,,,,,,,,,,,,,,,,,,,,,,,,
,,,,,,,,,,stimuli/images/PICTURE_160.png,HOTEL,5e911cfaefd95445d5a6c890,09/10/1950,2020-07-09_13h47.46.889,proactive,2020.1.2,Win32,60,5f073de81c76c3308c0e4fb3,5f0758116a759d115b9053cd,4,,,,,,wheelbarrow,,,,,,0,36,36,16,1,2,2,,,,,,,,,,,,,,,,,,,,,,,,,,,,,,,,,,,,,,,,,,,,,,,,,,,,,,,,,,,,,,,,,,,,,,,,,,,
,,,,,,,,,,stimuli/images/PICTURE_405.png,HOUSE,5e911cfaefd95445d5a6c890,09/10/1950,2020-07-09_13h47.46.889,proactive,2020.1.2,Win32,60,5f073de81c76c3308c0e4fb3,5f0758116a759d115b9053cd,4,,,,,,anchor,,,,,,0,37,37,2,1,1,2,,,,,,,,,,,,,,,,,,,,,,,,,,,,,,,,,,,,,,,,,,,,,,,,,,,,,,,,,,,,,,,,,,,,,,,,,,,
,,,,,,,,,,stimuli/images/PICTURE_453.png,FAMILY,5e911cfaefd95445d5a6c890,09/10/1950,2020-07-09_13h47.46.889,proactive,2020.1.2,Win32,60,5f073de81c76c3308c0e4fb3,5f0758116a759d115b9053cd,4,,,,,,scissors,,,,,,0,38,38,48,1,5,2,,,,,,,,,,,,,,,,,,,,,,,,,,,,,,,,,,,,,,,,,,,,,,,,,,,,,,,,,,,,,,,,,,,,,,,,,,,
,,,,,,,,,,stimuli/images/PICTURE_123.png,SALE,5e911cfaefd95445d5a6c890,09/10/1950,2020-07-09_13h47.46.889,proactive,2020.1.2,Win32,60,5f073de81c76c3308c0e4fb3,5f0758116a759d115b9053cd,4,,,,,,dart,,,,,,0,39,39,8,1,1,2,,,,,,,,,,,,,,,,,,,,,,,,,,,,,,,,,,,,,,,,,,,,,,,,,,,,,,,,,,,,,,,,,,,,,,,,,,,
,,,,,,,,,,stimuli/images/PICTURE_470.png,MOMENT,5e911cfaefd95445d5a6c890,09/10/1950,2020-07-09_13h47.46.889,proactive,2020.1.2,Win32,60,5f073de81c76c3308c0e4fb3,5f0758116a759d115b9053cd,4,,,,,,motorbike,,,,,,0,40,40,40,1,5,2,,,,,,,,,,,,,,,,,,,,,,,,,,,,,,,,,,,,,,,,,,,,,,,,,,,,,,,,,,,,,,,,,,,,,,,,,,,
,,,,,,,,,,stimuli/images/PICTURE_32.png,LETTER,5e911cfaefd95445d5a6c890,09/10/1950,2020-07-09_13h47.46.889,proactive,2020.1.2,Win32,60,5f073de81c76c3308c0e4fb3,5f0758116a759d115b9053cd,4,,,,,,crown,,,,,,0,41,41,56,1,6,2,,,,,,,,,,,,,,,,,,,,,,,,,,,,,,,,,,,,,,,,,,,,,,,,,,,,,,,,,,,,,,,,,,,,,,,,,,,
,,,,,,,,,,stimuli/images/PICTURE_504.png,HOUSE,5e911cfaefd95445d5a6c890,09/10/1950,2020-07-09_13h47.46.889,proactive,2020.1.2,Win32,60,5f073de81c76c3308c0e4fb3,5f0758116a759d115b9053cd,4,,,,,,wheel,,,,,,0,42,42,36,1,4,2,,,,,,,,,,,,,,,,,,,,,,,,,,,,,,,,,,,,,,,,,,,,,,,,,,,,,,,,,,,,,,,,,,,,,,,,,,,
,,,,,,,,,,stimuli/images/PICTURE_208.png,SPIRIT,5e911cfaefd95445d5a6c890,09/10/1950,2020-07-09_13h47.46.889,proactive,2020.1.2,Win32,60,5f073de81c76c3308c0e4fb3,5f0758116a759d115b9053cd,4,,,,,,microphone,,,,,,0,43,43,28,1,3,2,,,,,,,,,,,,,,,,,,,,,,,,,,,,,,,,,,,,,,,,,,,,,,,,,,,,,,,,,,,,,,,,,,,,,,,,,,,
,,,,,,,,,,stimuli/images/PICTURE_750.png,POLICY,5e911cfaefd95445d5a6c890,09/10/1950,2020-07-09_13h47.46.889,proactive,2020.1.2,Win32,60,5f073de81c76c3308c0e4fb3,5f0758116a759d115b9053cd,4,,,,,,kettle,,,,,,0,44,44,44,1,5,2,,,,,,,,,,,,,,,,,,,,,,,,,,,,,,,,,,,,,,,,,,,,,,,,,,,,,,,,,,,,,,,,,,,,,,,,,,,
,,,,,,,,,,stimuli/images/PICTURE_33.png,COPS,5e911cfaefd95445d5a6c890,09/10/1950,2020-07-09_13h47.46.889,proactive,2020.1.2,Win32,60,5f073de81c76c3308c0e4fb3,5f0758116a759d115b9053cd,4,,,,,,frame,,,,,,0,45,45,29,1,3,2,,,,,,,,,,,,,,,,,,,,,,,,,,,,,,,,,,,,,,,,,,,,,,,,,,,,,,,,,,,,,,,,,,,,,,,,,,,
,,,,,,,,,,stimuli/images/PICTURE_93.png,GIRL,5e911cfaefd95445d5a6c890,09/10/1950,2020-07-09_13h47.46.889,proactive,2020.1.2,Win32,60,5f073de81c76c3308c0e4fb3,5f0758116a759d115b9053cd,4,,,,,,skateboard,,,,,,0,46,46,31,1,4,2,,,,,,,,,,,,,,,,,,,,,,,,,,,,,,,,,,,,,,,,,,,,,,,,,,,,,,,,,,,,,,,,,,,,,,,,,,,
,,,,,,,,,,stimuli/images/PICTURE_487.png,ROOF,5e911cfaefd95445d5a6c890,09/10/1950,2020-07-09_13h47.46.889,proactive,2020.1.2,Win32,60,5f073de81c76c3308c0e4fb3,5f0758116a759d115b9053cd,4,,,,,,basket,,,,,,0,47,47,50,1,6,2,,,,,,,,,,,,,,,,,,,,,,,,,,,,,,,,,,,,,,,,,,,,,,,,,,,,,,,,,,,,,,,,,,,,,,,,,,,
,,,,,,,,,,stimuli/images/PICTURE_509.png,SHOTS,5e911cfaefd95445d5a6c890,09/10/1950,2020-07-09_13h47.46.889,proactive,2020.1.2,Win32,60,5f073de81c76c3308c0e4fb3,5f0758116a759d115b9053cd,4,,,,,,telephone,,,,,,0,48,48,7,1,1,2,,,,,,,,,,,,,,,,,,,,,,,,,,,,,,,,,,,,,,,,,,,,,,,,,,,,,,,,,,,,,,,,,,,,,,,,,,,
,,,,,,,,,,stimuli/images/PICTURE_18.png,RIVER,5e911cfaefd95445d5a6c890,09/10/1950,2020-07-09_13h47.46.889,proactive,2020.1.2,Win32,60,5f073de81c76c3308c0e4fb3,5f0758116a759d115b9053cd,4,,,,,,planet,,,,,,0,49,49,22,1,3,2,,,,,,,,,,,,,,,,,,,,,,,,,,,,,,,,,,,,,,,,,,,,,,,,,,,,,,,,,,,,,,,,,,,,,,,,,,,
,,,,,,,,,,stimuli/images/PICTURE_654.png,COPS,5e911cfaefd95445d5a6c890,09/10/1950,2020-07-09_13h47.46.889,proactive,2020.1.2,Win32,60,5f073de81c76c3308c0e4fb3,5f0758116a759d115b9053cd,4,,,,,,pencil,,,,,,0,50,50,10,1,2,2,,,,,,,,,,,,,,,,,,,,,,,,,,,,,,,,,,,,,,,,,,,,,,,,,,,,,,,,,,,,,,,,,,,,,,,,,,,
,,,,,,,,,,stimuli/images/PICTURE_348.png,DUDE,5e911cfaefd95445d5a6c890,09/10/1950,2020-07-09_13h47.46.889,proactive,2020.1.2,Win32,60,5f073de81c76c3308c0e4fb3,5f0758116a759d115b9053cd,4,,,,,,pepper,,,,,,0,51,51,59,1,6,2,,,,,,,,,,,,,,,,,,,,,,,,,,,,,,,,,,,,,,,,,,,,,,,,,,,,,,,,,,,,,,,,,,,,,,,,,,,
,,,,,,,,,,stimuli/images/PICTURE_68.png,KIND,5e911cfaefd95445d5a6c890,09/10/1950,2020-07-09_13h47.46.889,proactive,2020.1.2,Win32,60,5f073de81c76c3308c0e4fb3,5f0758116a759d115b9053cd,4,,,,,,candle,,,,,,0,52,52,23,1,3,2,,,,,,,,,,,,,,,,,,,,,,,,,,,,,,,,,,,,,,,,,,,,,,,,,,,,,,,,,,,,,,,,,,,,,,,,,,,
,,,,,,,,,,stimuli/images/PICTURE_677.png,FAMILY,5e911cfaefd95445d5a6c890,09/10/1950,2020-07-09_13h47.46.889,proactive,2020.1.2,Win32,60,5f073de81c76c3308c0e4fb3,5f0758116a759d115b9053cd,4,,,,,,map,,,,,,0,53,53,53,1,6,2,,,,,,,,,,,,,,,,,,,,,,,,,,,,,,,,,,,,,,,,,,,,,,,,,,,,,,,,,,,,,,,,,,,,,,,,,,,
,,,,,,,,,,stimuli/images/PICTURE_296.png,CLOCK,5e911cfaefd95445d5a6c890,09/10/1950,2020-07-09_13h47.46.889,proactive,2020.1.2,Win32,60,5f073de81c76c3308c0e4fb3,5f0758116a759d115b9053cd,4,,,,,,bolt,,,,,,0,54,54,18,1,2,2,,,,,,,,,,,,,,,,,,,,,,,,,,,,,,,,,,,,,,,,,,,,,,,,,,,,,,,,,,,,,,,,,,,,,,,,,,,
,,,,,,,,,,stimuli/images/PICTURE_57.png,NATION,5e911cfaefd95445d5a6c890,09/10/1950,2020-07-09_13h47.46.889,proactive,2020.1.2,Win32,60,5f073de81c76c3308c0e4fb3,5f0758116a759d115b9053cd,4,,,,,,stamp,,,,,,0,55,55,21,1,3,2,,,,,,,,,,,,,,,,,,,,,,,,,,,,,,,,,,,,,,,,,,,,,,,,,,,,,,,,,,,,,,,,,,,,,,,,,,,
,,,,,,,,,,stimuli/images/PICTURE_509.png,APPLE,5e911cfaefd95445d5a6c890,09/10/1950,2020-07-09_13h47.46.889,proactive,2020.1.2,Win32,60,5f073de81c76c3308c0e4fb3,5f0758116a759d115b9053cd,4,,,,,,telephone,,,,,,0,56,56,38,1,4,2,,,,,,,,,,,,,,,,,,,,,,,,,,,,,,,,,,,,,,,,,,,,,,,,,,,,,,,,,,,,,,,,,,,,,,,,,,,
,,,,,,,,,,stimuli/images/PICTURE_141.png,CLIENT,5e911cfaefd95445d5a6c890,09/10/1950,2020-07-09_13h47.46.889,proactive,2020.1.2,Win32,60,5f073de81c76c3308c0e4fb3,5f0758116a759d115b9053cd,4,,,,,,sunflower,,,,,,0,57,57,30,1,4,2,,,,,,,,,,,,,,,,,,,,,,,,,,,,,,,,,,,,,,,,,,,,,,,,,,,,,,,,,,,,,,,,,,,,,,,,,,,
,,,,,,,,,,stimuli/images/PICTURE_487.png,POLICY,5e911cfaefd95445d5a6c890,09/10/1950,2020-07-09_13h47.46.889,proactive,2020.1.2,Win32,60,5f073de81c76c3308c0e4fb3,5f0758116a759d115b9053cd,4,,,,,,basket,,,,,,0,58,58,34,1,4,2,,,,,,,,,,,,,,,,,,,,,,,,,,,,,,,,,,,,,,,,,,,,,,,,,,,,,,,,,,,,,,,,,,,,,,,,,,,
,,?,0.003,0,,,,,,stimuli/images/PICTURE_509.png,MILLER,5e911cfaefd95445d5a6c890,09/10/1950,2020-07-09_13h47.46.889,proactive,2020.1.2,Win32,60,5f073de81c76c3308c0e4fb3,5f0758116a759d115b9053cd,4,,,,,,telephone,,,,,,,,,,,5,2,0,0,0,49,1,,,,,,,,,,,,,,,,,,,,,,,,,,,,,,,,,,,,,,,,,,,,,,,,,,,,,,,,,,,,,,,,,,,,,,
,,?,0.001,0,,,,,,stimuli/images/PICTURE_160.png,HOTEL,5e911cfaefd95445d5a6c890,09/10/1950,2020-07-09_13h47.46.889,proactive,2020.1.2,Win32,60,5f073de81c76c3308c0e4fb3,5f0758116a759d115b9053cd,4,,,,,,wheelbarrow,,,,,,,,,,,2,2,0,1,1,16,1,,,,,,,,,,,,,,,,,,,,,,,,,,,,,,,,,,,,,,,,,,,,,,,,,,,,,,,,,,,,,,,,,,,,,,
,,?,0.003,0,,,,,,stimuli/images/PICTURE_32.png,LETTER,5e911cfaefd95445d5a6c890,09/10/1950,2020-07-09_13h47.46.889,proactive,2020.1.2,Win32,60,5f073de81c76c3308c0e4fb3,5f0758116a759d115b9053cd,4,,,,,,crown,,,,,,,,,,,6,2,0,2,2,56,1,,,,,,,,,,,,,,,,,,,,,,,,,,,,,,,,,,,,,,,,,,,,,,,,,,,,,,,,,,,,,,,,,,,,,,
,,?,0.002,0,,,,,,stimuli/images/PICTURE_403.png,FAMILY,5e911cfaefd95445d5a6c890,09/10/1950,2020-07-09_13h47.46.889,proactive,2020.1.2,Win32,60,5f073de81c76c3308c0e4fb3,5f0758116a759d115b9053cd,4,,,,,,cathedral,,,,,,,,,,,1,2,0,3,3,9,1,,,,,,,,,,,,,,,,,,,,,,,,,,,,,,,,,,,,,,,,,,,,,,,,,,,,,,,,,,,,,,,,,,,,,,
,,?,0.002,0,,,,,,stimuli/images/PICTURE_708.png,VALLEY,5e911cfaefd95445d5a6c890,09/10/1950,2020-07-09_13h47.46.889,proactive,2020.1.2,Win32,60,5f073de81c76c3308c0e4fb3,5f0758116a759d115b9053cd,4,,,,,,monkey,,,,,,,,,,,5,2,0,4,4,45,1,,,,,,,,,,,,,,,,,,,,,,,,,,,,,,,,,,,,,,,,,,,,,,,,,,,,,,,,,,,,,,,,,,,,,,
,,?,0.001,0,,,,,,stimuli/images/PICTURE_57.png,CASINO,5e911cfaefd95445d5a6c890,09/10/1950,2020-07-09_13h47.46.889,proactive,2020.1.2,Win32,60,5f073de81c76c3308c0e4fb3,5f0758116a759d115b9053cd,4,,,,,,stamp,,,,,,,,,,,2,2,0,5,5,12,1,,,,,,,,,,,,,,,,,,,,,,,,,,,,,,,,,,,,,,,,,,,,,,,,,,,,,,,,,,,,,,,,,,,,,,
,,?,0.003,0,,,,,,stimuli/images/PICTURE_405.png,JUNGLE,5e911cfaefd95445d5a6c890,09/10/1950,2020-07-09_13h47.46.889,proactive,2020.1.2,Win32,60,5f073de81c76c3308c0e4fb3,5f0758116a759d115b9053cd,4,,,,,,anchor,,,,,,,,,,,6,2,0,6,6,58,1,,,,,,,,,,,,,,,,,,,,,,,,,,,,,,,,,,,,,,,,,,,,,,,,,,,,,,,,,,,,,,,,,,,,,,
,,?,0.003,0,,,,,,stimuli/images/PICTURE_470.png,MOMENT,5e911cfaefd95445d5a6c890,09/10/1950,2020-07-09_13h47.46.889,proactive,2020.1.2,Win32,60,5f073de81c76c3308c0e4fb3,5f0758116a759d115b9053cd,4,,,,,,motorbike,,,,,,,,,,,5,2,0,7,7,40,1,,,,,,,,,,,,,,,,,,,,,,,,,,,,,,,,,,,,,,,,,,,,,,,,,,,,,,,,,,,,,,,,,,,,,,
,,?,15.011,0,,,,,,stimuli/images/PICTURE_491.png,SERIES,5e911cfaefd95445d5a6c890,09/10/1950,2020-07-09_13h47.46.889,proactive,2020.1.2,Win32,60,5f073de81c76c3308c0e4fb3,5f0758116a759d115b9053cd,4,,,,,,rug,,,,,,,,,,,4,2,0,8,8,39,1,,,,,,,,,,,,,,,,,,,,,,,,,,,,,,,,,,,,,,,,,,,,,,,,,,,,,,,,,,,,,,,,,,,,,,
,,?,0.002,0,,,,,,stimuli/images/PICTURE_405.png,JUNGLE,5e911cfaefd95445d5a6c890,09/10/1950,2020-07-09_13h47.46.889,proactive,2020.1.2,Win32,60,5f073de81c76c3308c0e4fb3,5f0758116a759d115b9053cd,4,,,,,,anchor,,,,,,,,,,,2,2,0,9,9,13,1,,,,,,,,,,,,,,,,,,,,,,,,,,,,,,,,,,,,,,,,,,,,,,,,,,,,,,,,,,,,,,,,,,,,,,
,,?,0.002,0,,,,,,stimuli/images/PICTURE_57.png,NATION,5e911cfaefd95445d5a6c890,09/10/1950,2020-07-09_13h47.46.889,proactive,2020.1.2,Win32,60,5f073de81c76c3308c0e4fb3,5f0758116a759d115b9053cd,4,,,,,,stamp,,,,,,,,,,,3,2,0,10,10,21,1,,,,,,,,,,,,,,,,,,,,,,,,,,,,,,,,,,,,,,,,,,,,,,,,,,,,,,,,,,,,,,,,,,,,,,
,,?,0.002,0,,,,,,stimuli/images/PICTURE_509.png,BATH,5e911cfaefd95445d5a6c890,09/10/1950,2020-07-09_13h47.46.889,proactive,2020.1.2,Win32,60,5f073de81c76c3308c0e4fb3,5f0758116a759d115b9053cd,4,,,,,,telephone,,,,,,,,,,,2,2,0,11,11,15,1,,,,,,,,,,,,,,,,,,,,,,,,,,,,,,,,,,,,,,,,,,,,,,,,,,,,,,,,,,,,,,,,,,,,,,
,,GIRL,3.317,1,,,,,,stimuli/images/PICTURE_93.png,GIRL,5e911cfaefd95445d5a6c890,09/10/1950,2020-07-09_13h47.46.889,proactive,2020.1.2,Win32,60,5f073de81c76c3308c0e4fb3,5f0758116a759d115b9053cd,4,,,,,,skateboard,,,,,,,,,,,4,2,0,12,12,31,1,,,,,,,,,,,,,,,,,,,,,,,,,,,,,,,,,,,,,,,,,,,,,,,,,,,,,,,,,,,,,,,,,,,,,,
,,?,0.003,0,,,,,,stimuli/images/PICTURE_655.png,SALE,5e911cfaefd95445d5a6c890,09/10/1950,2020-07-09_13h47.46.889,proactive,2020.1.2,Win32,60,5f073de81c76c3308c0e4fb3,5f0758116a759d115b9053cd,4,,,,,,megaphone,,,,,,,,,,,6,2,0,13,13,57,1,,,,,,,,,,,,,,,,,,,,,,,,,,,,,,,,,,,,,,,,,,,,,,,,,,,,,,,,,,,,,,,,,,,,,,
,,SPEECH,5.493,1,,,,,,stimuli/images/PICTURE_314.png,SPEECH,5e911cfaefd95445d5a6c890,09/10/1950,2020-07-09_13h47.46.889,proactive,2020.1.2,Win32,60,5f073de81c76c3308c0e4fb3,5f0758116a759d115b9053cd,4,,,,,,perfume,,,,,,,,,,,4,2,0,14,14,35,1,,,,,,,,,,,,,,,,,,,,,,,,,,,,,,,,,,,,,,,,,,,,,,,,,,,,,,,,,,,,,,,,,,,,,,
,,?,0.003,0,,,,,,stimuli/images/PICTURE_311.png,TOILET,5e911cfaefd95445d5a6c890,09/10/1950,2020-07-09_13h47.46.889,proactive,2020.1.2,Win32,60,5f073de81c76c3308c0e4fb3,5f0758116a759d115b9053cd,4,,,,,,razor,,,,,,,,,,,6,2,0,15,15,54,1,,,,,,,,,,,,,,,,,,,,,,,,,,,,,,,,,,,,,,,,,,,,,,,,,,,,,,,,,,,,,,,,,,,,,,
,,?,0.001,0,,,,,,stimuli/images/PICTURE_453.png,FAMILY,5e911cfaefd95445d5a6c890,09/10/1950,2020-07-09_13h47.46.889,proactive,2020.1.2,Win32,60,5f073de81c76c3308c0e4fb3,5f0758116a759d115b9053cd,4,,,,,,scissors,,,,,,,,,,,5,2,0,16,16,48,1,,,,,,,,,,,,,,,,,,,,,,,,,,,,,,,,,,,,,,,,,,,,,,,,,,,,,,,,,,,,,,,,,,,,,,
,,?,0.002,0,,,,,,stimuli/images/PICTURE_2.png,YARD,5e911cfaefd95445d5a6c890,09/10/1950,2020-07-09_13h47.46.889,proactive,2020.1.2,Win32,60,5f073de81c76c3308c0e4fb3,5f0758116a759d115b9053cd,4,,,,,,tyre,,,,,,,,,,,6,2,0,17,17,55,1,,,,,,,,,,,,,,,,,,,,,,,,,,,,,,,,,,,,,,,,,,,,,,,,,,,,,,,,,,,,,,,,,,,,,,
,,?,0.003,0,,,,,,stimuli/images/PICTURE_68.png,KIND,5e911cfaefd95445d5a6c890,09/10/1950,2020-07-09_13h47.46.889,proactive,2020.1.2,Win32,60,5f073de81c76c3308c0e4fb3,5f0758116a759d115b9053cd,4,,,,,,candle,,,,,,,,,,,3,2,0,18,18,23,1,,,,,,,,,,,,,,,,,,,,,,,,,,,,,,,,,,,,,,,,,,,,,,,,,,,,,,,,,,,,,,,,,,,,,,
,,?,0.002,0,,,,,,stimuli/images/PICTURE_487.png,ROOF,5e911cfaefd95445d5a6c890,09/10/1950,2020-07-09_13h47.46.889,proactive,2020.1.2,Win32,60,5f073de81c76c3308c0e4fb3,5f0758116a759d115b9053cd,4,,,,,,basket,,,,,,,,,,,6,2,0,19,19,50,1,,,,,,,,,,,,,,,,,,,,,,,,,,,,,,,,,,,,,,,,,,,,,,,,,,,,,,,,,,,,,,,,,,,,,,
,,?,0.002,0,,,,,,stimuli/images/PICTURE_688.png,CLOCK,5e911cfaefd95445d5a6c890,09/10/1950,2020-07-09_13h47.46.889,proactive,2020.1.2,Win32,60,5f073de81c76c3308c0e4fb3,5f0758116a759d115b9053cd,4,,,,,,runner,,,,,,,,,,,5,2,0,20,20,42,1,,,,,,,,,,,,,,,,,,,,,,,,,,,,,,,,,,,,,,,,,,,,,,,,,,,,,,,,,,,,,,,,,,,,,,
,,?,0.002,0,,,,,,stimuli/images/PICTURE_2.png,JUNGLE,5e911cfaefd95445d5a6c890,09/10/1950,2020-07-09_13h47.46.889,proactive,2020.1.2,Win32,60,5f073de81c76c3308c0e4fb3,5f0758116a759d115b9053cd,4,,,,,,tyre,,,,,,,,,,,1,2,0,21,21,1,1,,,,,,,,,,,,,,,,,,,,,,,,,,,,,,,,,,,,,,,,,,,,,,,,,,,,,,,,,,,,,,,,,,,,,,
,,?,0.002,0,,,,,,stimuli/images/PICTURE_123.png,SALE,5e911cfaefd95445d5a6c890,09/10/1950,2020-07-09_13h47.46.889,proactive,2020.1.2,Win32,60,5f073de81c76c3308c0e4fb3,5f0758116a759d115b9053cd,4,,,,,,dart,,,,,,,,,,,1,2,0,22,22,8,1,,,,,,,,,,,,,,,,,,,,,,,,,,,,,,,,,,,,,,,,,,,,,,,,,,,,,,,,,,,,,,,,,,,,,,
,,?,0.003,0,,,,,,stimuli/images/PICTURE_296.png,CLOCK,5e911cfaefd95445d5a6c890,09/10/1950,2020-07-09_13h47.46.889,proactive,2020.1.2,Win32,60,5f073de81c76c3308c0e4fb3,5f0758116a759d115b9053cd,4,,,,,,bolt,,,,,,,,,,,2,2,0,23,23,18,1,,,,,,,,,,,,,,,,,,,,,,,,,,,,,,,,,,,,,,,,,,,,,,,,,,,,,,,,,,,,,,,,,,,,,,
,,?,0.002,0,,,,,,stimuli/images/PICTURE_177.png,HOUSE,5e911cfaefd95445d5a6c890,09/10/1950,2020-07-09_13h47.46.889,proactive,2020.1.2,Win32,60,5f073de81c76c3308c0e4fb3,5f0758116a759d115b9053cd,4,,,,,,mushroom,,,,,,,,,,,3,2,0,24,24,25,1,,,,,,,,,,,,,,,,,,,,,,,,,,,,,,,,,,,,,,,,,,,,,,,,,,,,,,,,,,,,,,,,,,,,,,
,,?,0.002,0,,,,,,stimuli/images/PICTURE_405.png,HOUSE,5e911cfaefd95445d5a6c890,09/10/1950,2020-07-09_13h47.46.889,proactive,2020.1.2,Win32,60,5f073de81c76c3308c0e4fb3,5f0758116a759d115b9053cd,4,,,,,,anchor,,,,,,,,,,,1,2,0,25,25,2,1,,,,,,,,,,,,,,,,,,,,,,,,,,,,,,,,,,,,,,,,,,,,,,,,,,,,,,,,,,,,,,,,,,,,,,
,,LEADER,4.679,1,,,,,,stimuli/images/PICTURE_147.png,LEADER,5e911cfaefd95445d5a6c890,09/10/1950,2020-07-09_13h47.46.889,proactive,2020.1.2,Win32,60,5f073de81c76c3308c0e4fb3,5f0758116a759d115b9053cd,4,,,,,,hanger,,,,,,,,,,,4,2,0,26,26,33,1,,,,,,,,,,,,,,,,,,,,,,,,,,,,,,,,,,,,,,,,,,,,,,,,,,,,,,,,,,,,,,,,,,,,,,
,,?,0.002,0,,,,,,stimuli/images/PICTURE_311.png,FLESH,5e911cfaefd95445d5a6c890,09/10/1950,2020-07-09_13h47.46.889,proactive,2020.1.2,Win32,60,5f073de81c76c3308c0e4fb3,5f0758116a759d115b9053cd,4,,,,,,razor,,,,,,,,,,,1,2,0,27,27,3,1,,,,,,,,,,,,,,,,,,,,,,,,,,,,,,,,,,,,,,,,,,,,,,,,,,,,,,,,,,,,,,,,,,,,,,
,,?,0.001,0,,,,,,stimuli/images/PICTURE_33.png,COPS,5e911cfaefd95445d5a6c890,09/10/1950,2020-07-09_13h47.46.889,proactive,2020.1.2,Win32,60,5f073de81c76c3308c0e4fb3,5f0758116a759d115b9053cd,4,,,,,,frame,,,,,,,,,,,3,2,0,28,28,29,1,,,,,,,,,,,,,,,,,,,,,,,,,,,,,,,,,,,,,,,,,,,,,,,,,,,,,,,,,,,,,,,,,,,,,,
,,?,0.001,0,,,,,,stimuli/images/PICTURE_677.png,FAMILY,5e911cfaefd95445d5a6c890,09/10/1950,2020-07-09_13h47.46.889,proactive,2020.1.2,Win32,60,5f073de81c76c3308c0e4fb3,5f0758116a759d115b9053cd,4,,,,,,map,,,,,,,,,,,6,2,0,29,29,53,1,,,,,,,,,,,,,,,,,,,,,,,,,,,,,,,,,,,,,,,,,,,,,,,,,,,,,,,,,,,,,,,,,,,,,,
,,?,0.002,0,,,,,,stimuli/images/PICTURE_356.png,CANDY,5e911cfaefd95445d5a6c890,09/10/1950,2020-07-09_13h47.46.889,proactive,2020.1.2,Win32,60,5f073de81c76c3308c0e4fb3,5f0758116a759d115b9053cd,4,,,,,,pawn,,,,,,,,,,,5,2,0,30,30,46,1,,,,,,,,,,,,,,,,,,,,,,,,,,,,,,,,,,,,,,,,,,,,,,,,,,,,,,,,,,,,,,,,,,,,,,
,,NIGHT,3.531,1,,,,,,stimuli/images/PICTURE_95.png,NIGHT,5e911cfaefd95445d5a6c890,09/10/1950,2020-07-09_13h47.46.889,proactive,2020.1.2,Win32,60,5f073de81c76c3308c0e4fb3,5f0758116a759d115b9053cd,4,,,,,,suitcase,,,,,,,,,,,4,2,0,31,31,37,1,,,,,,,,,,,,,,,,,,,,,,,,,,,,,,,,,,,,,,,,,,,,,,,,,,,,,,,,,,,,,,,,,,,,,,
,,?,0.002,0,,,,,,stimuli/images/PICTURE_509.png,SHOTS,5e911cfaefd95445d5a6c890,09/10/1950,2020-07-09_13h47.46.889,proactive,2020.1.2,Win32,60,5f073de81c76c3308c0e4fb3,5f0758116a759d115b9053cd,4,,,,,,telephone,,,,,,,,,,,1,2,0,32,32,7,1,,,,,,,,,,,,,,,,,,,,,,,,,,,,,,,,,,,,,,,,,,,,,,,,,,,,,,,,,,,,,,,,,,,,,,
,,GENIUS,8.444,0,,,,,,stimuli/images/PICTURE_141.png,CLIENT,5e911cfaefd95445d5a6c890,09/10/1950,2020-07-09_13h47.46.889,proactive,2020.1.2,Win32,60,5f073de81c76c3308c0e4fb3,5f0758116a759d115b9053cd,4,,,,,,sunflower,,,,,,,,,,,4,2,0,33,33,30,1,,,,,,,,,,,,,,,,,,,,,,,,,,,,,,,,,,,,,,,,,,,,,,,,,,,,,,,,,,,,,,,,,,,,,,
,,?,0.003,0,,,,,,stimuli/images/PICTURE_677.png,PHOTO,5e911cfaefd95445d5a6c890,09/10/1950,2020-07-09_13h47.46.889,proactive,2020.1.2,Win32,60,5f073de81c76c3308c0e4fb3,5f0758116a759d115b9053cd,4,,,,,,map,,,,,,,,,,,2,2,0,34,34,14,1,,,,,,,,,,,,,,,,,,,,,,,,,,,,,,,,,,,,,,,,,,,,,,,,,,,,,,,,,,,,,,,,,,,,,,
,,?,0.002,0,,,,,,stimuli/images/PICTURE_255.png,PENNY,5e911cfaefd95445d5a6c890,09/10/1950,2020-07-09_13h47.46.889,proactive,2020.1.2,Win32,60,5f073de81c76c3308c0e4fb3,5f0758116a759d115b9053cd,4,,,,,,shovel,,,,,,,,,,,2,2,0,35,35,19,1,,,,,,,,,,,,,,,,,,,,,,,,,,,,,,,,,,,,,,,,,,,,,,,,,,,,,,,,,,,,,,,,,,,,,,
,,?,0.001,0,,,,,,stimuli/images/PICTURE_297.png,BODY,5e911cfaefd95445d5a6c890,09/10/1950,2020-07-09_13h47.46.889,proactive,2020.1.2,Win32,60,5f073de81c76c3308c0e4fb3,5f0758116a759d115b9053cd,4,,,,,,aeroplane,,,,,,,,,,,6,2,0,36,36,51,1,,,,,,,,,,,,,,,,,,,,,,,,,,,,,,,,,,,,,,,,,,,,,,,,,,,,,,,,,,,,,,,,,,,,,,
,,?,0.002,0,,,,,,stimuli/images/PICTURE_215.png,LEADER,5e911cfaefd95445d5a6c890,09/10/1950,2020-07-09_13h47.46.889,proactive,2020.1.2,Win32,60,5f073de81c76c3308c0e4fb3,5f0758116a759d115b9053cd,4,,,,,,boot,,,,,,,,,,,5,2,0,37,37,43,1,,,,,,,,,,,,,,,,,,,,,,,,,,,,,,,,,,,,,,,,,,,,,,,,,,,,,,,,,,,,,,,,,,,,,,
,,?,0.002,0,,,,,,stimuli/images/PICTURE_348.png,DUDE,5e911cfaefd95445d5a6c890,09/10/1950,2020-07-09_13h47.46.889,proactive,2020.1.2,Win32,60,5f073de81c76c3308c0e4fb3,5f0758116a759d115b9053cd,4,,,,,,pepper,,,,,,,,,,,6,2,0,38,38,59,1,,,,,,,,,,,,,,,,,,,,,,,,,,,,,,,,,,,,,,,,,,,,,,,,,,,,,,,,,,,,,,,,,,,,,,
,,LEADER,6.291,0,,,,,,stimuli/images/PICTURE_487.png,POLICY,5e911cfaefd95445d5a6c890,09/10/1950,2020-07-09_13h47.46.889,proactive,2020.1.2,Win32,60,5f073de81c76c3308c0e4fb3,5f0758116a759d115b9053cd,4,,,,,,basket,,,,,,,,,,,4,2,0,39,39,34,1,,,,,,,,,,,,,,,,,,,,,,,,,,,,,,,,,,,,,,,,,,,,,,,,,,,,,,,,,,,,,,,,,,,,,,
,,?,0.003,0,,,,,,stimuli/images/PICTURE_692.png,DUDE,5e911cfaefd95445d5a6c890,09/10/1950,2020-07-09_13h47.46.889,proactive,2020.1.2,Win32,60,5f073de81c76c3308c0e4fb3,5f0758116a759d115b9053cd,4,,,,,,cherry,,,,,,,,,,,5,2,0,40,40,47,1,,,,,,,,,,,,,,,,,,,,,,,,,,,,,,,,,,,,,,,,,,,,,,,,,,,,,,,,,,,,,,,,,,,,,,
,,?,0.001,0,,,,,,stimuli/images/PICTURE_452.png,COPS,5e911cfaefd95445d5a6c890,09/10/1950,2020-07-09_13h47.46.889,proactive,2020.1.2,Win32,60,5f073de81c76c3308c0e4fb3,5f0758116a759d115b9053cd,4,,,,,,watch,,,,,,,,,,,1,2,0,41,41,0,1,,,,,,,,,,,,,,,,,,,,,,,,,,,,,,,,,,,,,,,,,,,,,,,,,,,,,,,,,,,,,,,,,,,,,,
,,?,0.002,0,,,,,,stimuli/images/PICTURE_564.png,PLENTY,5e911cfaefd95445d5a6c890,09/10/1950,2020-07-09_13h47.46.889,proactive,2020.1.2,Win32,60,5f073de81c76c3308c0e4fb3,5f0758116a759d115b9053cd,4,,,,,,spoon,,,,,,,,,,,2,2,0,42,42,11,1,,,,,,,,,,,,,,,,,,,,,,,,,,,,,,,,,,,,,,,,,,,,,,,,,,,,,,,,,,,,,,,,,,,,,,
,,LEADER,3.585,0,,,,,,stimuli/images/PICTURE_509.png,APPLE,5e911cfaefd95445d5a6c890,09/10/1950,2020-07-09_13h47.46.889,proactive,2020.1.2,Win32,60,5f073de81c76c3308c0e4fb3,5f0758116a759d115b9053cd,4,,,,,,telephone,,,,,,,,,,,4,2,0,43,43,38,1,,,,,,,,,,,,,,,,,,,,,,,,,,,,,,,,,,,,,,,,,,,,,,,,,,,,,,,,,,,,,,,,,,,,,,
,,?,0.004,0,,,,,,stimuli/images/PICTURE_654.png,COPS,5e911cfaefd95445d5a6c890,09/10/1950,2020-07-09_13h47.46.889,proactive,2020.1.2,Win32,60,5f073de81c76c3308c0e4fb3,5f0758116a759d115b9053cd,4,,,,,,pencil,,,,,,,,,,,2,2,0,44,44,10,1,,,,,,,,,,,,,,,,,,,,,,,,,,,,,,,,,,,,,,,,,,,,,,,,,,,,,,,,,,,,,,,,,,,,,,
,,?,0.001,0,,,,,,stimuli/images/PICTURE_215.png,BOYS,5e911cfaefd95445d5a6c890,09/10/1950,2020-07-09_13h47.46.889,proactive,2020.1.2,Win32,60,5f073de81c76c3308c0e4fb3,5f0758116a759d115b9053cd,4,,,,,,boot,,,,,,,,,,,3,2,0,45,45,24,1,,,,,,,,,,,,,,,,,,,,,,,,,,,,,,,,,,,,,,,,,,,,,,,,,,,,,,,,,,,,,,,,,,,,,,
,,?,0.001,0,,,,,,stimuli/images/PICTURE_57.png,CANDY,5e911cfaefd95445d5a6c890,09/10/1950,2020-07-09_13h47.46.889,proactive,2020.1.2,Win32,60,5f073de81c76c3308c0e4fb3,5f0758116a759d115b9053cd,4,,,,,,stamp,,,,,,,,,,,6,2,0,46,46,52,1,,,,,,,,,,,,,,,,,,,,,,,,,,,,,,,,,,,,,,,,,,,,,,,,,,,,,,,,,,,,,,,,,,,,,,
,,?,0.003,0,,,,,,stimuli/images/PICTURE_208.png,SPIRIT,5e911cfaefd95445d5a6c890,09/10/1950,2020-07-09_13h47.46.889,proactive,2020.1.2,Win32,60,5f073de81c76c3308c0e4fb3,5f0758116a759d115b9053cd,4,,,,,,microphone,,,,,,,,,,,3,2,0,47,47,28,1,,,,,,,,,,,,,,,,,,,,,,,,,,,,,,,,,,,,,,,,,,,,,,,,,,,,,,,,,,,,,,,,,,,,,,
,,?,0.001,0,,,,,,stimuli/images/PICTURE_667.png,GLASS,5e911cfaefd95445d5a6c890,09/10/1950,2020-07-09_13h47.46.889,proactive,2020.1.2,Win32,60,5f073de81c76c3308c0e4fb3,5f0758116a759d115b9053cd,4,,,,,,daisy,,,,,,,,,,,3,2,0,48,48,27,1,,,,,,,,,,,,,,,,,,,,,,,,,,,,,,,,,,,,,,,,,,,,,,,,,,,,,,,,,,,,,,,,,,,,,,
,,AREA,4.392,1,,,,,,stimuli/images/PICTURE_2.png,AREA,5e911cfaefd95445d5a6c890,09/10/1950,2020-07-09_13h47.46.889,proactive,2020.1.2,Win32,60,5f073de81c76c3308c0e4fb3,5f0758116a759d115b9053cd,4,,,,,,tyre,,,,,,,,,,,4,2,0,49,49,32,1,,,,,,,,,,,,,,,,,,,,,,,,,,,,,,,,,,,,,,,,,,,,,,,,,,,,,,,,,,,,,,,,,,,,,,
,,LEADER,3.998,0,,,,,,stimuli/images/PICTURE_504.png,HOUSE,5e911cfaefd95445d5a6c890,09/10/1950,2020-07-09_13h47.46.889,proactive,2020.1.2,Win32,60,5f073de81c76c3308c0e4fb3,5f0758116a759d115b9053cd,4,,,,,,wheel,,,,,,,,,,,4,2,0,50,50,36,1,,,,,,,,,,,,,,,,,,,,,,,,,,,,,,,,,,,,,,,,,,,,,,,,,,,,,,,,,,,,,,,,,,,,,,
,,?,0.003,0,,,,,,stimuli/images/PICTURE_470.png,BEAUTY,5e911cfaefd95445d5a6c890,09/10/1950,2020-07-09_13h47.46.889,proactive,2020.1.2,Win32,60,5f073de81c76c3308c0e4fb3,5f0758116a759d115b9053cd,4,,,,,,motorbike,,,,,,,,,,,3,2,0,51,51,26,1,,,,,,,,,,,,,,,,,,,,,,,,,,,,,,,,,,,,,,,,,,,,,,,,,,,,,,,,,,,,,,,,,,,,,,
,,?,0.002,0,,,,,,stimuli/images/PICTURE_18.png,RIVER,5e911cfaefd95445d5a6c890,09/10/1950,2020-07-09_13h47.46.889,proactive,2020.1.2,Win32,60,5f073de81c76c3308c0e4fb3,5f0758116a759d115b9053cd,4,,,,,,planet,,,,,,,,,,,3,2,0,52,52,22,1,,,,,,,,,,,,,,,,,,,,,,,,,,,,,,,,,,,,,,,,,,,,,,,,,,,,,,,,,,,,,,,,,,,,,,
,,?,0.001,0,,,,,,stimuli/images/PICTURE_215.png,FOOD,5e911cfaefd95445d5a6c890,09/10/1950,2020-07-09_13h47.46.889,proactive,2020.1.2,Win32,60,5f073de81c76c3308c0e4fb3,5f0758116a759d115b9053cd,4,,,,,,boot,,,,,,,,,,,1,2,0,53,53,5,1,,,,,,,,,,,,,,,,,,,,,,,,,,,,,,,,,,,,,,,,,,,,,,,,,,,,,,,,,,,,,,,,,,,,,,
,,?,0.002,0,,,,,,stimuli/images/PICTURE_750.png,POLICY,5e911cfaefd95445d5a6c890,09/10/1950,2020-07-09_13h47.46.889,proactive,2020.1.2,Win32,60,5f073de81c76c3308c0e4fb3,5f0758116a759d115b9053cd,4,,,,,,kettle,,,,,,,,,,,5,2,0,54,54,44,1,,,,,,,,,,,,,,,,,,,,,,,,,,,,,,,,,,,,,,,,,,,,,,,,,,,,,,,,,,,,,,,,,,,,,,
,,?,0.003,0,,,,,,stimuli/images/PICTURE_285.png,WRITER,5e911cfaefd95445d5a6c890,09/10/1950,2020-07-09_13h47.46.889,proactive,2020.1.2,Win32,60,5f073de81c76c3308c0e4fb3,5f0758116a759d115b9053cd,4,,,,,,carrot,,,,,,,,,,,1,2,0,55,55,6,1,,,,,,,,,,,,,,,,,,,,,,,,,,,,,,,,,,,,,,,,,,,,,,,,,,,,,,,,,,,,,,,,,,,,,,
,,?,0.001,0,,,,,,stimuli/images/PICTURE_285.png,PRINCE,5e911cfaefd95445d5a6c890,09/10/1950,2020-07-09_13h47.46.889,proactive,2020.1.2,Win32,60,5f073de81c76c3308c0e4fb3,5f0758116a759d115b9053cd,4,,,,,,carrot,,,,,,,,,,,3,2,0,56,56,20,1,,,,,,,,,,,,,,,,,,,,,,,,,,,,,,,,,,,,,,,,,,,,,,,,,,,,,,,,,,,,,,,,,,,,,,
,,?,0.002,0,,,,,,stimuli/images/PICTURE_327.png,LEADER,5e911cfaefd95445d5a6c890,09/10/1950,2020-07-09_13h47.46.889,proactive,2020.1.2,Win32,60,5f073de81c76c3308c0e4fb3,5f0758116a759d115b9053cd,4,,,,,,helmet,,,,,,,,,,,2,2,0,57,57,17,1,,,,,,,,,,,,,,,,,,,,,,,,,,,,,,,,,,,,,,,,,,,,,,,,,,,,,,,,,,,,,,,,,,,,,,
,,?,0.002,0,,,,,,stimuli/images/PICTURE_654.png,YEAR,5e911cfaefd95445d5a6c890,09/10/1950,2020-07-09_13h47.46.889,proactive,2020.1.2,Win32,60,5f073de81c76c3308c0e4fb3,5f0758116a759d115b9053cd,4,,,,,,pencil,,,,,,,,,,,5,2,0,58,58,41,1,,,,,,,,,,,,,,,,,,,,,,,,,,,,,,,,,,,,,,,,,,,,,,,,,,,,,,,,,,,,,,,,,,,,,,
,,?,0.001,0,,,,,,stimuli/images/PICTURE_348.png,TOILET,5e911cfaefd95445d5a6c890,09/10/1950,2020-07-09_13h47.46.889,proactive,2020.1.2,Win32,60,5f073de81c76c3308c0e4fb3,5f0758116a759d115b9053cd,4,,,,,,pepper,,,,,,,,,,,1,2,0,59,59,4,1,,,,,,,,,,,,,,,,,,,,,,,,,,,,,,,,,,,,,,,,,,,,,,,,,,,,,,,,,,,,,,,,,,,,,,
,,,,,,,,,,,,5e911cfaefd95445d5a6c890,09/10/1950,2020-07-09_13h47.46.889,proactive,2020.1.2,Win32,60,5f073de81c76c3308c0e4fb3,5f0758116a759d115b9053cd,4,,,,,,,,,,,,,,,,,,,,,,,,0,0,0,2,1,stimuli/learn-block3.csv,,,,,,,,,,,,,,,,,,,,,,,,,,,,,,,,,,,,,,,,,,,,,,,,,,,,,,,,,,,,,,,,
,,,,,,,,,,stimuli/images/PICTURE_688.png,CASINO,5e911cfaefd95445d5a6c890,09/10/1950,2020-07-09_13h47.46.889,proactive,2020.1.2,Win32,60,5f073de81c76c3308c0e4fb3,5f0758116a759d115b9053cd,4,,,,,,runner,,,,,,0,0,0,2,1,1,0,,,,,,,,,,,,,,,,,,,,,,,,,,,,,,,,,,,,,,,,,,,,,,,,,,,,,,,,,,,,,,,,,,,,,,,,,,,
,,,,,,,,,,stimuli/images/PICTURE_308.png,KIND,5e911cfaefd95445d5a6c890,09/10/1950,2020-07-09_13h47.46.889,proactive,2020.1.2,Win32,60,5f073de81c76c3308c0e4fb3,5f0758116a759d115b9053cd,4,,,,,,dice,,,,,,0,1,1,54,1,6,0,,,,,,,,,,,,,,,,,,,,,,,,,,,,,,,,,,,,,,,,,,,,,,,,,,,,,,,,,,,,,,,,,,,,,,,,,,,
,,,,,,,,,,stimuli/images/PICTURE_215.png,PLENTY,5e911cfaefd95445d5a6c890,09/10/1950,2020-07-09_13h47.46.889,proactive,2020.1.2,Win32,60,5f073de81c76c3308c0e4fb3,5f0758116a759d115b9053cd,4,,,,,,boot,,,,,,0,2,2,37,1,4,0,,,,,,,,,,,,,,,,,,,,,,,,,,,,,,,,,,,,,,,,,,,,,,,,,,,,,,,,,,,,,,,,,,,,,,,,,,,
,,,,,,,,,,stimuli/images/PICTURE_327.png,BEAUTY,5e911cfaefd95445d5a6c890,09/10/1950,2020-07-09_13h47.46.889,proactive,2020.1.2,Win32,60,5f073de81c76c3308c0e4fb3,5f0758116a759d115b9053cd,4,,,,,,helmet,,,,,,0,3,3,48,1,5,0,,,,,,,,,,,,,,,,,,,,,,,,,,,,,,,,,,,,,,,,,,,,,,,,,,,,,,,,,,,,,,,,,,,,,,,,,,,
,,,,,,,,,,stimuli/images/PICTURE_470.png,CASINO,5e911cfaefd95445d5a6c890,09/10/1950,2020-07-09_13h47.46.889,proactive,2020.1.2,Win32,60,5f073de81c76c3308c0e4fb3,5f0758116a759d115b9053cd,4,,,,,,motorbike,,,,,,0,4,4,36,1,4,0,,,,,,,,,,,,,,,,,,,,,,,,,,,,,,,,,,,,,,,,,,,,,,,,,,,,,,,,,,,,,,,,,,,,,,,,,,,
,,,,,,,,,,stimuli/images/PICTURE_311.png,FRIEND,5e911cfaefd95445d5a6c890,09/10/1950,2020-07-09_13h47.46.889,proactive,2020.1.2,Win32,60,5f073de81c76c3308c0e4fb3,5f0758116a759d115b9053cd,4,,,,,,razor,,,,,,0,5,5,34,1,4,0,,,,,,,,,,,,,,,,,,,,,,,,,,,,,,,,,,,,,,,,,,,,,,,,,,,,,,,,,,,,,,,,,,,,,,,,,,,
,,,,,,,,,,stimuli/images/PICTURE_85.png,THING,5e911cfaefd95445d5a6c890,09/10/1950,2020-07-09_13h47.46.889,proactive,2020.1.2,Win32,60,5f073de81c76c3308c0e4fb3,5f0758116a759d115b9053cd,4,,,,,,diamond,,,,,,0,6,6,15,1,2,0,,,,,,,,,,,,,,,,,,,,,,,,,,,,,,,,,,,,,,,,,,,,,,,,,,,,,,,,,,,,,,,,,,,,,,,,,,,
,,,,,,,,,,stimuli/images/PICTURE_380.png,PHOTO,5e911cfaefd95445d5a6c890,09/10/1950,2020-07-09_13h47.46.889,proactive,2020.1.2,Win32,60,5f073de81c76c3308c0e4fb3,5f0758116a759d115b9053cd,4,,,,,,gorilla,,,,,,0,7,7,52,1,6,0,,,,,,,,,,,,,,,,,,,,,,,,,,,,,,,,,,,,,,,,,,,,,,,,,,,,,,,,,,,,,,,,,,,,,,,,,,,
,,,,,,,,,,stimuli/images/PICTURE_449.png,THING,5e911cfaefd95445d5a6c890,09/10/1950,2020-07-09_13h47.46.889,proactive,2020.1.2,Win32,60,5f073de81c76c3308c0e4fb3,5f0758116a759d115b9053cd,4,,,,,,bench,,,,,,0,8,8,59,1,6,0,,,,,,,,,,,,,,,,,,,,,,,,,,,,,,,,,,,,,,,,,,,,,,,,,,,,,,,,,,,,,,,,,,,,,,,,,,,
,,,,,,,,,,stimuli/images/PICTURE_255.png,AREA,5e911cfaefd95445d5a6c890,09/10/1950,2020-07-09_13h47.46.889,proactive,2020.1.2,Win32,60,5f073de81c76c3308c0e4fb3,5f0758116a759d115b9053cd,4,,,,,,shovel,,,,,,0,9,9,22,1,3,0,,,,,,,,,,,,,,,,,,,,,,,,,,,,,,,,,,,,,,,,,,,,,,,,,,,,,,,,,,,,,,,,,,,,,,,,,,,
,,,,,,,,,,stimuli/images/PICTURE_32.png,JUNGLE,5e911cfaefd95445d5a6c890,09/10/1950,2020-07-09_13h47.46.889,proactive,2020.1.2,Win32,60,5f073de81c76c3308c0e4fb3,5f0758116a759d115b9053cd,4,,,,,,crown,,,,,,0,10,10,45,1,5,0,,,,,,,,,,,,,,,,,,,,,,,,,,,,,,,,,,,,,,,,,,,,,,,,,,,,,,,,,,,,,,,,,,,,,,,,,,,
,,,,,,,,,,stimuli/images/PICTURE_311.png,BEAUTY,5e911cfaefd95445d5a6c890,09/10/1950,2020-07-09_13h47.46.889,proactive,2020.1.2,Win32,60,5f073de81c76c3308c0e4fb3,5f0758116a759d115b9053cd,4,,,,,,razor,,,,,,0,11,11,13,1,2,0,,,,,,,,,,,,,,,,,,,,,,,,,,,,,,,,,,,,,,,,,,,,,,,,,,,,,,,,,,,,,,,,,,,,,,,,,,,
,,,,,,,,,,stimuli/images/PICTURE_147.png,MOMENT,5e911cfaefd95445d5a6c890,09/10/1950,2020-07-09_13h47.46.889,proactive,2020.1.2,Win32,60,5f073de81c76c3308c0e4fb3,5f0758116a759d115b9053cd,4,,,,,,hanger,,,,,,0,12,12,51,1,6,0,,,,,,,,,,,,,,,,,,,,,,,,,,,,,,,,,,,,,,,,,,,,,,,,,,,,,,,,,,,,,,,,,,,,,,,,,,,
,,,,,,,,,,stimuli/images/PICTURE_488.png,STYLE,5e911cfaefd95445d5a6c890,09/10/1950,2020-07-09_13h47.46.889,proactive,2020.1.2,Win32,60,5f073de81c76c3308c0e4fb3,5f0758116a759d115b9053cd,4,,,,,,sun,,,,,,0,13,13,33,1,4,0,,,,,,,,,,,,,,,,,,,,,,,,,,,,,,,,,,,,,,,,,,,,,,,,,,,,,,,,,,,,,,,,,,,,,,,,,,,
,,,,,,,,,,stimuli/images/PICTURE_248.png,DOZEN,5e911cfaefd95445d5a6c890,09/10/1950,2020-07-09_13h47.46.889,proactive,2020.1.2,Win32,60,5f073de81c76c3308c0e4fb3,5f0758116a759d115b9053cd,4,,,,,,cart,,,,,,0,14,14,39,1,4,0,,,,,,,,,,,,,,,,,,,,,,,,,,,,,,,,,,,,,,,,,,,,,,,,,,,,,,,,,,,,,,,,,,,,,,,,,,,
,,,,,,,,,,stimuli/images/PICTURE_677.png,MILE,5e911cfaefd95445d5a6c890,09/10/1950,2020-07-09_13h47.46.889,proactive,2020.1.2,Win32,60,5f073de81c76c3308c0e4fb3,5f0758116a759d115b9053cd,4,,,,,,map,,,,,,0,15,15,30,1,4,0,,,,,,,,,,,,,,,,,,,,,,,,,,,,,,,,,,,,,,,,,,,,,,,,,,,,,,,,,,,,,,,,,,,,,,,,,,,
,,,,,,,,,,stimuli/images/PICTURE_469.png,ARTIST,5e911cfaefd95445d5a6c890,09/10/1950,2020-07-09_13h47.46.889,proactive,2020.1.2,Win32,60,5f073de81c76c3308c0e4fb3,5f0758116a759d115b9053cd,4,,,,,,stool,,,,,,0,16,16,6,1,1,0,,,,,,,,,,,,,,,,,,,,,,,,,,,,,,,,,,,,,,,,,,,,,,,,,,,,,,,,,,,,,,,,,,,,,,,,,,,
,,,,,,,,,,stimuli/images/PICTURE_453.png,PLENTY,5e911cfaefd95445d5a6c890,09/10/1950,2020-07-09_13h47.46.889,proactive,2020.1.2,Win32,60,5f073de81c76c3308c0e4fb3,5f0758116a759d115b9053cd,4,,,,,,scissors,,,,,,0,17,17,56,1,6,0,,,,,,,,,,,,,,,,,,,,,,,,,,,,,,,,,,,,,,,,,,,,,,,,,,,,,,,,,,,,,,,,,,,,,,,,,,,
,,,,,,,,,,stimuli/images/PICTURE_654.png,VALLEY,5e911cfaefd95445d5a6c890,09/10/1950,2020-07-09_13h47.46.889,proactive,2020.1.2,Win32,60,5f073de81c76c3308c0e4fb3,5f0758116a759d115b9053cd,4,,,,,,pencil,,,,,,0,18,18,1,1,1,0,,,,,,,,,,,,,,,,,,,,,,,,,,,,,,,,,,,,,,,,,,,,,,,,,,,,,,,,,,,,,,,,,,,,,,,,,,,
,,,,,,,,,,stimuli/images/PICTURE_314.png,SAKE,5e911cfaefd95445d5a6c890,09/10/1950,2020-07-09_13h47.46.889,proactive,2020.1.2,Win32,60,5f073de81c76c3308c0e4fb3,5f0758116a759d115b9053cd,4,,,,,,perfume,,,,,,0,19,19,7,1,1,0,,,,,,,,,,,,,,,,,,,,,,,,,,,,,,,,,,,,,,,,,,,,,,,,,,,,,,,,,,,,,,,,,,,,,,,,,,,
,,,,,,,,,,stimuli/images/PICTURE_487.png,FLIGHT,5e911cfaefd95445d5a6c890,09/10/1950,2020-07-09_13h47.46.889,proactive,2020.1.2,Win32,60,5f073de81c76c3308c0e4fb3,5f0758116a759d115b9053cd,4,,,,,,basket,,,,,,0,20,20,9,1,1,0,,,,,,,,,,,,,,,,,,,,,,,,,,,,,,,,,,,,,,,,,,,,,,,,,,,,,,,,,,,,,,,,,,,,,,,,,,,
,,,,,,,,,,stimuli/images/PICTURE_356.png,DANGER,5e911cfaefd95445d5a6c890,09/10/1950,2020-07-09_13h47.46.889,proactive,2020.1.2,Win32,60,5f073de81c76c3308c0e4fb3,5f0758116a759d115b9053cd,4,,,,,,pawn,,,,,,0,21,21,55,1,6,0,,,,,,,,,,,,,,,,,,,,,,,,,,,,,,,,,,,,,,,,,,,,,,,,,,,,,,,,,,,,,,,,,,,,,,,,,,,
,,,,,,,,,,stimuli/images/PICTURE_160.png,FEET,5e911cfaefd95445d5a6c890,09/10/1950,2020-07-09_13h47.46.889,proactive,2020.1.2,Win32,60,5f073de81c76c3308c0e4fb3,5f0758116a759d115b9053cd,4,,,,,,wheelbarrow,,,,,,0,22,22,58,1,6,0,,,,,,,,,,,,,,,,,,,,,,,,,,,,,,,,,,,,,,,,,,,,,,,,,,,,,,,,,,,,,,,,,,,,,,,,,,,
,,,,,,,,,,stimuli/images/PICTURE_667.png,BATH,5e911cfaefd95445d5a6c890,09/10/1950,2020-07-09_13h47.46.889,proactive,2020.1.2,Win32,60,5f073de81c76c3308c0e4fb3,5f0758116a759d115b9053cd,4,,,,,,daisy,,,,,,0,23,23,4,1,1,0,,,,,,,,,,,,,,,,,,,,,,,,,,,,,,,,,,,,,,,,,,,,,,,,,,,,,,,,,,,,,,,,,,,,,,,,,,,
,,,,,,,,,,stimuli/images/PICTURE_308.png,ESTATE,5e911cfaefd95445d5a6c890,09/10/1950,2020-07-09_13h47.46.889,proactive,2020.1.2,Win32,60,5f073de81c76c3308c0e4fb3,5f0758116a759d115b9053cd,4,,,,,,dice,,,,,,0,24,24,46,1,5,0,,,,,,,,,,,,,,,,,,,,,,,,,,,,,,,,,,,,,,,,,,,,,,,,,,,,,,,,,,,,,,,,,,,,,,,,,,,
,,,,,,,,,,stimuli/images/PICTURE_692.png,MONTH,5e911cfaefd95445d5a6c890,09/10/1950,2020-07-09_13h47.46.889,proactive,2020.1.2,Win32,60,5f073de81c76c3308c0e4fb3,5f0758116a759d115b9053cd,4,,,,,,cherry,,,,,,0,25,25,16,1,2,0,,,,,,,,,,,,,,,,,,,,,,,,,,,,,,,,,,,,,,,,,,,,,,,,,,,,,,,,,,,,,,,,,,,,,,,,,,,
,,,,,,,,,,stimuli/images/PICTURE_233.png,WOMEN,5e911cfaefd95445d5a6c890,09/10/1950,2020-07-09_13h47.46.889,proactive,2020.1.2,Win32,60,5f073de81c76c3308c0e4fb3,5f0758116a759d115b9053cd,4,,,,,,salt,,,,,,0,26,26,38,1,4,0,,,,,,,,,,,,,,,,,,,,,,,,,,,,,,,,,,,,,,,,,,,,,,,,,,,,,,,,,,,,,,,,,,,,,,,,,,,
,,,,,,,,,,stimuli/images/PICTURE_467.png,DEMON,5e911cfaefd95445d5a6c890,09/10/1950,2020-07-09_13h47.46.889,proactive,2020.1.2,Win32,60,5f073de81c76c3308c0e4fb3,5f0758116a759d115b9053cd,4,,,,,,peg,,,,,,0,27,27,23,1,3,0,,,,,,,,,,,,,,,,,,,,,,,,,,,,,,,,,,,,,,,,,,,,,,,,,,,,,,,,,,,,,,,,,,,,,,,,,,,
,,,,,,,,,,stimuli/images/PICTURE_302.png,FAMILY,5e911cfaefd95445d5a6c890,09/10/1950,2020-07-09_13h47.46.889,proactive,2020.1.2,Win32,60,5f073de81c76c3308c0e4fb3,5f0758116a759d115b9053cd,4,,,,,,taxi,,,,,,0,28,28,18,1,2,0,,,,,,,,,,,,,,,,,,,,,,,,,,,,,,,,,,,,,,,,,,,,,,,,,,,,,,,,,,,,,,,,,,,,,,,,,,,
,,,,,,,,,,stimuli/images/PICTURE_509.png,PHOTO,5e911cfaefd95445d5a6c890,09/10/1950,2020-07-09_13h47.46.889,proactive,2020.1.2,Win32,60,5f073de81c76c3308c0e4fb3,5f0758116a759d115b9053cd,4,,,,,,telephone,,,,,,0,29,29,21,1,3,0,,,,,,,,,,,,,,,,,,,,,,,,,,,,,,,,,,,,,,,,,,,,,,,,,,,,,,,,,,,,,,,,,,,,,,,,,,,
,,,,,,,,,,stimuli/images/PICTURE_339.png,PLENTY,5e911cfaefd95445d5a6c890,09/10/1950,2020-07-09_13h47.46.889,proactive,2020.1.2,Win32,60,5f073de81c76c3308c0e4fb3,5f0758116a759d115b9053cd,4,,,,,,backpack,,,,,,0,30,30,0,1,1,0,,,,,,,,,,,,,,,,,,,,,,,,,,,,,,,,,,,,,,,,,,,,,,,,,,,,,,,,,,,,,,,,,,,,,,,,,,,
,,,,,,,,,,stimuli/images/PICTURE_177.png,CARS,5e911cfaefd95445d5a6c890,09/10/1950,2020-07-09_13h47.46.889,proactive,2020.1.2,Win32,60,5f073de81c76c3308c0e4fb3,5f0758116a759d115b9053cd,4,,,,,,mushroom,,,,,,0,31,31,35,1,4,0,,,,,,,,,,,,,,,,,,,,,,,,,,,,,,,,,,,,,,,,,,,,,,,,,,,,,,,,,,,,,,,,,,,,,,,,,,,
,,,,,,,,,,stimuli/images/PICTURE_285.png,ADVICE,5e911cfaefd95445d5a6c890,09/10/1950,2020-07-09_13h47.46.889,proactive,2020.1.2,Win32,60,5f073de81c76c3308c0e4fb3,5f0758116a759d115b9053cd,4,,,,,,carrot,,,,,,0,32,32,12,1,2,0,,,,,,,,,,,,,,,,,,,,,,,,,,,,,,,,,,,,,,,,,,,,,,,,,,,,,,,,,,,,,,,,,,,,,,,,,,,
,,,,,,,,,,stimuli/images/PICTURE_151.png,GIRL,5e911cfaefd95445d5a6c890,09/10/1950,2020-07-09_13h47.46.889,proactive,2020.1.2,Win32,60,5f073de81c76c3308c0e4fb3,5f0758116a759d115b9053cd,4,,,,,,tray,,,,,,0,33,33,19,1,2,0,,,,,,,,,,,,,,,,,,,,,,,,,,,,,,,,,,,,,,,,,,,,,,,,,,,,,,,,,,,,,,,,,,,,,,,,,,,
,,,,,,,,,,stimuli/images/PICTURE_667.png,PLENTY,5e911cfaefd95445d5a6c890,09/10/1950,2020-07-09_13h47.46.889,proactive,2020.1.2,Win32,60,5f073de81c76c3308c0e4fb3,5f0758116a759d115b9053cd,4,,,,,,daisy,,,,,,0,34,34,41,1,5,0,,,,,,,,,,,,,,,,,,,,,,,,,,,,,,,,,,,,,,,,,,,,,,,,,,,,,,,,,,,,,,,,,,,,,,,,,,,
,,,,,,,,,,stimuli/images/PICTURE_744.png,SYSTEM,5e911cfaefd95445d5a6c890,09/10/1950,2020-07-09_13h47.46.889,proactive,2020.1.2,Win32,60,5f073de81c76c3308c0e4fb3,5f0758116a759d115b9053cd,4,,,,,,ring,,,,,,0,35,35,43,1,5,0,,,,,,,,,,,,,,,,,,,,,,,,,,,,,,,,,,,,,,,,,,,,,,,,,,,,,,,,,,,,,,,,,,,,,,,,,,,
,,,,,,,,,,stimuli/images/PICTURE_208.png,LOTS,5e911cfaefd95445d5a6c890,09/10/1950,2020-07-09_13h47.46.889,proactive,2020.1.2,Win32,60,5f073de81c76c3308c0e4fb3,5f0758116a759d115b9053cd,4,,,,,,microphone,,,,,,0,36,36,10,1,2,0,,,,,,,,,,,,,,,,,,,,,,,,,,,,,,,,,,,,,,,,,,,,,,,,,,,,,,,,,,,,,,,,,,,,,,,,,,,
,,,,,,,,,,stimuli/images/PICTURE_675.png,WEAPON,5e911cfaefd95445d5a6c890,09/10/1950,2020-07-09_13h47.46.889,proactive,2020.1.2,Win32,60,5f073de81c76c3308c0e4fb3,5f0758116a759d115b9053cd,4,,,,,,windmill,,,,,,0,37,37,32,1,4,0,,,,,,,,,,,,,,,,,,,,,,,,,,,,,,,,,,,,,,,,,,,,,,,,,,,,,,,,,,,,,,,,,,,,,,,,,,,
,,,,,,,,,,stimuli/images/PICTURE_744.png,SAKE,5e911cfaefd95445d5a6c890,09/10/1950,2020-07-09_13h47.46.889,proactive,2020.1.2,Win32,60,5f073de81c76c3308c0e4fb3,5f0758116a759d115b9053cd,4,,,,,,ring,,,,,,0,38,38,17,1,2,0,,,,,,,,,,,,,,,,,,,,,,,,,,,,,,,,,,,,,,,,,,,,,,,,,,,,,,,,,,,,,,,,,,,,,,,,,,,
,,,,,,,,,,stimuli/images/PICTURE_68.png,MILE,5e911cfaefd95445d5a6c890,09/10/1950,2020-07-09_13h47.46.889,proactive,2020.1.2,Win32,60,5f073de81c76c3308c0e4fb3,5f0758116a759d115b9053cd,4,,,,,,candle,,,,,,0,39,39,44,1,5,0,,,,,,,,,,,,,,,,,,,,,,,,,,,,,,,,,,,,,,,,,,,,,,,,,,,,,,,,,,,,,,,,,,,,,,,,,,,
,,,,,,,,,,stimuli/images/PICTURE_348.png,SPEECH,5e911cfaefd95445d5a6c890,09/10/1950,2020-07-09_13h47.46.889,proactive,2020.1.2,Win32,60,5f073de81c76c3308c0e4fb3,5f0758116a759d115b9053cd,4,,,,,,pepper,,,,,,0,40,40,20,1,3,0,,,,,,,,,,,,,,,,,,,,,,,,,,,,,,,,,,,,,,,,,,,,,,,,,,,,,,,,,,,,,,,,,,,,,,,,,,,
,,,,,,,,,,stimuli/images/PICTURE_233.png,IDEAS,5e911cfaefd95445d5a6c890,09/10/1950,2020-07-09_13h47.46.889,proactive,2020.1.2,Win32,60,5f073de81c76c3308c0e4fb3,5f0758116a759d115b9053cd,4,,,,,,salt,,,,,,0,41,41,28,1,3,0,,,,,,,,,,,,,,,,,,,,,,,,,,,,,,,,,,,,,,,,,,,,,,,,,,,,,,,,,,,,,,,,,,,,,,,,,,,
,,,,,,,,,,stimuli/images/PICTURE_453.png,DUDE,5e911cfaefd95445d5a6c890,09/10/1950,2020-07-09_13h47.46.889,proactive,2020.1.2,Win32,60,5f073de81c76c3308c0e4fb3,5f0758116a759d115b9053cd,4,,,,,,scissors,,,,,,0,42,42,27,1,3,0,,,,,,,,,,,,,,,,,,,,,,,,,,,,,,,,,,,,,,,,,,,,,,,,,,,,,,,,,,,,,,,,,,,,,,,,,,,
,,,,,,,,,,stimuli/images/PICTURE_208.png,MONTH,5e911cfaefd95445d5a6c890,09/10/1950,2020-07-09_13h47.46.889,proactive,2020.1.2,Win32,60,5f073de81c76c3308c0e4fb3,5f0758116a759d115b9053cd,4,,,,,,microphone,,,,,,0,43,43,53,1,6,0,,,,,,,,,,,,,,,,,,,,,,,,,,,,,,,,,,,,,,,,,,,,,,,,,,,,,,,,,,,,,,,,,,,,,,,,,,,
,,,,,,,,,,stimuli/images/PICTURE_95.png,STYLE,5e911cfaefd95445d5a6c890,09/10/1950,2020-07-09_13h47.46.889,proactive,2020.1.2,Win32,60,5f073de81c76c3308c0e4fb3,5f0758116a759d115b9053cd,4,,,,,,suitcase,,,,,,0,44,44,25,1,3,0,,,,,,,,,,,,,,,,,,,,,,,,,,,,,,,,,,,,,,,,,,,,,,,,,,,,,,,,,,,,,,,,,,,,,,,,,,,
,,,,,,,,,,stimuli/images/PICTURE_123.png,ADVICE,5e911cfaefd95445d5a6c890,09/10/1950,2020-07-09_13h47.46.889,proactive,2020.1.2,Win32,60,5f073de81c76c3308c0e4fb3,5f0758116a759d115b9053cd,4,,,,,,dart,,,,,,0,45,45,50,1,6,0,,,,,,,,,,,,,,,,,,,,,,,,,,,,,,,,,,,,,,,,,,,,,,,,,,,,,,,,,,,,,,,,,,,,,,,,,,,
,,,,,,,,,,stimuli/images/PICTURE_314.png,GODS,5e911cfaefd95445d5a6c890,09/10/1950,2020-07-09_13h47.46.889,proactive,2020.1.2,Win32,60,5f073de81c76c3308c0e4fb3,5f0758116a759d115b9053cd,4,,,,,,perfume,,,,,,0,46,46,11,1,2,0,,,,,,,,,,,,,,,,,,,,,,,,,,,,,,,,,,,,,,,,,,,,,,,,,,,,,,,,,,,,,,,,,,,,,,,,,,,
,,,,,,,,,,stimuli/images/PICTURE_123.png,ADVICE,5e911cfaefd95445d5a6c890,09/10/1950,2020-07-09_13h47.46.889,proactive,2020.1.2,Win32,60,5f073de81c76c3308c0e4fb3,5f0758116a759d115b9053cd,4,,,,,,dart,,,,,,0,47,47,40,1,5,0,,,,,,,,,,,,,,,,,,,,,,,,,,,,,,,,,,,,,,,,,,,,,,,,,,,,,,,,,,,,,,,,,,,,,,,,,,,
,,,,,,,,,,stimuli/images/PICTURE_504.png,BODY,5e911cfaefd95445d5a6c890,09/10/1950,2020-07-09_13h47.46.889,proactive,2020.1.2,Win32,60,5f073de81c76c3308c0e4fb3,5f0758116a759d115b9053cd,4,,,,,,wheel,,,,,,0,48,48,8,1,1,0,,,,,,,,,,,,,,,,,,,,,,,,,,,,,,,,,,,,,,,,,,,,,,,,,,,,,,,,,,,,,,,,,,,,,,,,,,,
,,,,,,,,,,stimuli/images/PICTURE_469.png,LETTER,5e911cfaefd95445d5a6c890,09/10/1950,2020-07-09_13h47.46.889,proactive,2020.1.2,Win32,60,5f073de81c76c3308c0e4fb3,5f0758116a759d115b9053cd,4,,,,,,stool,,,,,,0,49,49,42,1,5,0,,,,,,,,,,,,,,,,,,,,,,,,,,,,,,,,,,,,,,,,,,,,,,,,,,,,,,,,,,,,,,,,,,,,,,,,,,,
,,,,,,,,,,stimuli/images/PICTURE_708.png,PENNY,5e911cfaefd95445d5a6c890,09/10/1950,2020-07-09_13h47.46.889,proactive,2020.1.2,Win32,60,5f073de81c76c3308c0e4fb3,5f0758116a759d115b9053cd,4,,,,,,monkey,,,,,,0,50,50,31,1,4,0,,,,,,,,,,,,,,,,,,,,,,,,,,,,,,,,,,,,,,,,,,,,,,,,,,,,,,,,,,,,,,,,,,,,,,,,,,,
,,,,,,,,,,stimuli/images/PICTURE_208.png,THING,5e911cfaefd95445d5a6c890,09/10/1950,2020-07-09_13h47.46.889,proactive,2020.1.2,Win32,60,5f073de81c76c3308c0e4fb3,5f0758116a759d115b9053cd,4,,,,,,microphone,,,,,,0,51,51,47,1,5,0,,,,,,,,,,,,,,,,,,,,,,,,,,,,,,,,,,,,,,,,,,,,,,,,,,,,,,,,,,,,,,,,,,,,,,,,,,,
,,,,,,,,,,stimuli/images/PICTURE_688.png,WOMEN,5e911cfaefd95445d5a6c890,09/10/1950,2020-07-09_13h47.46.889,proactive,2020.1.2,Win32,60,5f073de81c76c3308c0e4fb3,5f0758116a759d115b9053cd,4,,,,,,runner,,,,,,0,52,52,14,1,2,0,,,,,,,,,,,,,,,,,,,,,,,,,,,,,,,,,,,,,,,,,,,,,,,,,,,,,,,,,,,,,,,,,,,,,,,,,,,
,,,,,,,,,,stimuli/images/PICTURE_380.png,DEATH,5e911cfaefd95445d5a6c890,09/10/1950,2020-07-09_13h47.46.889,proactive,2020.1.2,Win32,60,5f073de81c76c3308c0e4fb3,5f0758116a759d115b9053cd,4,,,,,,gorilla,,,,,,0,53,53,49,1,5,0,,,,,,,,,,,,,,,,,,,,,,,,,,,,,,,,,,,,,,,,,,,,,,,,,,,,,,,,,,,,,,,,,,,,,,,,,,,
,,,,,,,,,,stimuli/images/PICTURE_160.png,LEADER,5e911cfaefd95445d5a6c890,09/10/1950,2020-07-09_13h47.46.889,proactive,2020.1.2,Win32,60,5f073de81c76c3308c0e4fb3,5f0758116a759d115b9053cd,4,,,,,,wheelbarrow,,,,,,0,54,54,3,1,1,0,,,,,,,,,,,,,,,,,,,,,,,,,,,,,,,,,,,,,,,,,,,,,,,,,,,,,,,,,,,,,,,,,,,,,,,,,,,
,,,,,,,,,,stimuli/images/PICTURE_203.png,ARTIST,5e911cfaefd95445d5a6c890,09/10/1950,2020-07-09_13h47.46.889,proactive,2020.1.2,Win32,60,5f073de81c76c3308c0e4fb3,5f0758116a759d115b9053cd,4,,,,,,cap,,,,,,0,55,55,26,1,3,0,,,,,,,,,,,,,,,,,,,,,,,,,,,,,,,,,,,,,,,,,,,,,,,,,,,,,,,,,,,,,,,,,,,,,,,,,,,
,,,,,,,,,,stimuli/images/PICTURE_708.png,YARD,5e911cfaefd95445d5a6c890,09/10/1950,2020-07-09_13h47.46.889,proactive,2020.1.2,Win32,60,5f073de81c76c3308c0e4fb3,5f0758116a759d115b9053cd,4,,,,,,monkey,,,,,,0,56,56,29,1,3,0,,,,,,,,,,,,,,,,,,,,,,,,,,,,,,,,,,,,,,,,,,,,,,,,,,,,,,,,,,,,,,,,,,,,,,,,,,,
,,,,,,,,,,stimuli/images/PICTURE_491.png,WRITER,5e911cfaefd95445d5a6c890,09/10/1950,2020-07-09_13h47.46.889,proactive,2020.1.2,Win32,60,5f073de81c76c3308c0e4fb3,5f0758116a759d115b9053cd,4,,,,,,rug,,,,,,0,57,57,57,1,6,0,,,,,,,,,,,,,,,,,,,,,,,,,,,,,,,,,,,,,,,,,,,,,,,,,,,,,,,,,,,,,,,,,,,,,,,,,,,
,,,,,,,,,,stimuli/images/PICTURE_708.png,CLIENT,5e911cfaefd95445d5a6c890,09/10/1950,2020-07-09_13h47.46.889,proactive,2020.1.2,Win32,60,5f073de81c76c3308c0e4fb3,5f0758116a759d115b9053cd,4,,,,,,monkey,,,,,,0,58,58,5,1,1,0,,,,,,,,,,,,,,,,,,,,,,,,,,,,,,,,,,,,,,,,,,,,,,,,,,,,,,,,,,,,,,,,,,,,,,,,,,,
,,?,0.003,0,,,,,,stimuli/images/PICTURE_380.png,PHOTO,5e911cfaefd95445d5a6c890,09/10/1950,2020-07-09_13h47.46.889,proactive,2020.1.2,Win32,60,5f073de81c76c3308c0e4fb3,5f0758116a759d115b9053cd,4,,,,,,gorilla,,,,,,,,,,,6,0,0,0,0,52,1,,,,,,,,,,,,,,,,,,,,,,,,,,,,,,,,,,,,,,,,,,,,,,,,,,,,,,,,,,,,,,,,,,,,,,
,,FRIEND,3.947,1,,,,,,stimuli/images/PICTURE_311.png,FRIEND,5e911cfaefd95445d5a6c890,09/10/1950,2020-07-09_13h47.46.889,proactive,2020.1.2,Win32,60,5f073de81c76c3308c0e4fb3,5f0758116a759d115b9053cd,4,,,,,,razor,,,,,,,,,,,4,0,0,1,1,34,1,,,,,,,,,,,,,,,,,,,,,,,,,,,,,,,,,,,,,,,,,,,,,,,,,,,,,,,,,,,,,,,,,,,,,,
,,?,0.003,0,,,,,,stimuli/images/PICTURE_327.png,BEAUTY,5e911cfaefd95445d5a6c890,09/10/1950,2020-07-09_13h47.46.889,proactive,2020.1.2,Win32,60,5f073de81c76c3308c0e4fb3,5f0758116a759d115b9053cd,4,,,,,,helmet,,,,,,,,,,,5,0,0,2,2,48,1,,,,,,,,,,,,,,,,,,,,,,,,,,,,,,,,,,,,,,,,,,,,,,,,,,,,,,,,,,,,,,,,,,,,,,
,,?,0.001,0,,,,,,stimuli/images/PICTURE_348.png,SPEECH,5e911cfaefd95445d5a6c890,09/10/1950,2020-07-09_13h47.46.889,proactive,2020.1.2,Win32,60,5f073de81c76c3308c0e4fb3,5f0758116a759d115b9053cd,4,,,,,,pepper,,,,,,,,,,,3,0,0,3,3,20,1,,,,,,,,,,,,,,,,,,,,,,,,,,,,,,,,,,,,,,,,,,,,,,,,,,,,,,,,,,,,,,,,,,,,,,
,,?,0.001,0,,,,,,stimuli/images/PICTURE_467.png,DEMON,5e911cfaefd95445d5a6c890,09/10/1950,2020-07-09_13h47.46.889,proactive,2020.1.2,Win32,60,5f073de81c76c3308c0e4fb3,5f0758116a759d115b9053cd,4,,,,,,peg,,,,,,,,,,,3,0,0,4,4,23,1,,,,,,,,,,,,,,,,,,,,,,,,,,,,,,,,,,,,,,,,,,,,,,,,,,,,,,,,,,,,,,,,,,,,,,
,,?,0.002,0,,,,,,stimuli/images/PICTURE_339.png,PLENTY,5e911cfaefd95445d5a6c890,09/10/1950,2020-07-09_13h47.46.889,proactive,2020.1.2,Win32,60,5f073de81c76c3308c0e4fb3,5f0758116a759d115b9053cd,4,,,,,,backpack,,,,,,,,,,,1,0,0,5,5,0,1,,,,,,,,,,,,,,,,,,,,,,,,,,,,,,,,,,,,,,,,,,,,,,,,,,,,,,,,,,,,,,,,,,,,,,
,,?,0.001,0,,,,,,stimuli/images/PICTURE_203.png,ARTIST,5e911cfaefd95445d5a6c890,09/10/1950,2020-07-09_13h47.46.889,proactive,2020.1.2,Win32,60,5f073de81c76c3308c0e4fb3,5f0758116a759d115b9053cd,4,,,,,,cap,,,,,,,,,,,3,0,0,6,6,26,1,,,,,,,,,,,,,,,,,,,,,,,,,,,,,,,,,,,,,,,,,,,,,,,,,,,,,,,,,,,,,,,,,,,,,,
,,?,0.002,0,,,,,,stimuli/images/PICTURE_255.png,AREA,5e911cfaefd95445d5a6c890,09/10/1950,2020-07-09_13h47.46.889,proactive,2020.1.2,Win32,60,5f073de81c76c3308c0e4fb3,5f0758116a759d115b9053cd,4,,,,,,shovel,,,,,,,,,,,3,0,0,7,7,22,1,,,,,,,,,,,,,,,,,,,,,,,,,,,,,,,,,,,,,,,,,,,,,,,,,,,,,,,,,,,,,,,,,,,,,,
,,?,0.001,0,,,,,,stimuli/images/PICTURE_744.png,SAKE,5e911cfaefd95445d5a6c890,09/10/1950,2020-07-09_13h47.46.889,proactive,2020.1.2,Win32,60,5f073de81c76c3308c0e4fb3,5f0758116a759d115b9053cd,4,,,,,,ring,,,,,,,,,,,2,0,0,8,8,17,1,,,,,,,,,,,,,,,,,,,,,,,,,,,,,,,,,,,,,,,,,,,,,,,,,,,,,,,,,,,,,,,,,,,,,,
,,?,0.002,0,,,,,,stimuli/images/PICTURE_308.png,KIND,5e911cfaefd95445d5a6c890,09/10/1950,2020-07-09_13h47.46.889,proactive,2020.1.2,Win32,60,5f073de81c76c3308c0e4fb3,5f0758116a759d115b9053cd,4,,,,,,dice,,,,,,,,,,,6,0,0,9,9,54,1,,,,,,,,,,,,,,,,,,,,,,,,,,,,,,,,,,,,,,,,,,,,,,,,,,,,,,,,,,,,,,,,,,,,,,
,,?,0.001,0,,,,,,stimuli/images/PICTURE_708.png,YARD,5e911cfaefd95445d5a6c890,09/10/1950,2020-07-09_13h47.46.889,proactive,2020.1.2,Win32,60,5f073de81c76c3308c0e4fb3,5f0758116a759d115b9053cd,4,,,,,,monkey,,,,,,,,,,,3,0,0,10,10,29,1,,,,,,,,,,,,,,,,,,,,,,,,,,,,,,,,,,,,,,,,,,,,,,,,,,,,,,,,,,,,,,,,,,,,,,
,,?,0.002,0,,,,,,stimuli/images/PICTURE_208.png,LOTS,5e911cfaefd95445d5a6c890,09/10/1950,2020-07-09_13h47.46.889,proactive,2020.1.2,Win32,60,5f073de81c76c3308c0e4fb3,5f0758116a759d115b9053cd,4,,,,,,microphone,,,,,,,,,,,2,0,0,11,11,10,1,,,,,,,,,,,,,,,,,,,,,,,,,,,,,,,,,,,,,,,,,,,,,,,,,,,,,,,,,,,,,,,,,,,,,,
,,?,11.589,0,,,,,,stimuli/images/PICTURE_488.png,STYLE,5e911cfaefd95445d5a6c890,09/10/1950,2020-07-09_13h47.46.889,proactive,2020.1.2,Win32,60,5f073de81c76c3308c0e4fb3,5f0758116a759d115b9053cd,4,,,,,,sun,,,,,,,,,,,4,0,0,12,12,33,1,,,,,,,,,,,,,,,,,,,,,,,,,,,,,,,,,,,,,,,,,,,,,,,,,,,,,,,,,,,,,,,,,,,,,,
,,?,0.002,0,,,,,,stimuli/images/PICTURE_314.png,SAKE,5e911cfaefd95445d5a6c890,09/10/1950,2020-07-09_13h47.46.889,proactive,2020.1.2,Win32,60,5f073de81c76c3308c0e4fb3,5f0758116a759d115b9053cd,4,,,,,,perfume,,,,,,,,,,,1,0,0,13,13,7,1,,,,,,,,,,,,,,,,,,,,,,,,,,,,,,,,,,,,,,,,,,,,,,,,,,,,,,,,,,,,,,,,,,,,,,
,,CASINO,5.377,1,,,,,,stimuli/images/PICTURE_470.png,CASINO,5e911cfaefd95445d5a6c890,09/10/1950,2020-07-09_13h47.46.889,proactive,2020.1.2,Win32,60,5f073de81c76c3308c0e4fb3,5f0758116a759d115b9053cd,4,,,,,,motorbike,,,,,,,,,,,4,0,0,14,14,36,1,,,,,,,,,,,,,,,,,,,,,,,,,,,,,,,,,,,,,,,,,,,,,,,,,,,,,,,,,,,,,,,,,,,,,,
,,?,0.001,0,,,,,,stimuli/images/PICTURE_208.png,THING,5e911cfaefd95445d5a6c890,09/10/1950,2020-07-09_13h47.46.889,proactive,2020.1.2,Win32,60,5f073de81c76c3308c0e4fb3,5f0758116a759d115b9053cd,4,,,,,,microphone,,,,,,,,,,,5,0,0,15,15,47,1,,,,,,,,,,,,,,,,,,,,,,,,,,,,,,,,,,,,,,,,,,,,,,,,,,,,,,,,,,,,,,,,,,,,,,
,,?,0.002,0,,,,,,stimuli/images/PICTURE_356.png,DANGER,5e911cfaefd95445d5a6c890,09/10/1950,2020-07-09_13h47.46.889,proactive,2020.1.2,Win32,60,5f073de81c76c3308c0e4fb3,5f0758116a759d115b9053cd,4,,,,,,pawn,,,,,,,,,,,6,0,0,16,16,55,1,,,,,,,,,,,,,,,,,,,,,,,,,,,,,,,,,,,,,,,,,,,,,,,,,,,,,,,,,,,,,,,,,,,,,,
,,?,0.002,0,,,,,,stimuli/images/PICTURE_453.png,DUDE,5e911cfaefd95445d5a6c890,09/10/1950,2020-07-09_13h47.46.889,proactive,2020.1.2,Win32,60,5f073de81c76c3308c0e4fb3,5f0758116a759d115b9053cd,4,,,,,,scissors,,,,,,,,,,,3,0,0,17,17,27,1,,,,,,,,,,,,,,,,,,,,,,,,,,,,,,,,,,,,,,,,,,,,,,,,,,,,,,,,,,,,,,,,,,,,,,
,,?,0.001,0,,,,,,stimuli/images/PICTURE_68.png,MILE,5e911cfaefd95445d5a6c890,09/10/1950,2020-07-09_13h47.46.889,proactive,2020.1.2,Win32,60,5f073de81c76c3308c0e4fb3,5f0758116a759d115b9053cd,4,,,,,,candle,,,,,,,,,,,5,0,0,18,18,44,1,,,,,,,,,,,,,,,,,,,,,,,,,,,,,,,,,,,,,,,,,,,,,,,,,,,,,,,,,,,,,,,,,,,,,,
,,?,0.001,0,,,,,,stimuli/images/PICTURE_487.png,FLIGHT,5e911cfaefd95445d5a6c890,09/10/1950,2020-07-09_13h47.46.889,proactive,2020.1.2,Win32,60,5f073de81c76c3308c0e4fb3,5f0758116a759d115b9053cd,4,,,,,,basket,,,,,,,,,,,1,0,0,19,19,9,1,,,,,,,,,,,,,,,,,,,,,,,,,,,,,,,,,,,,,,,,,,,,,,,,,,,,,,,,,,,,,,,,,,,,,,
,,?,0.001,0,,,,,,stimuli/images/PICTURE_688.png,CASINO,5e911cfaefd95445d5a6c890,09/10/1950,2020-07-09_13h47.46.889,proactive,2020.1.2,Win32,60,5f073de81c76c3308c0e4fb3,5f0758116a759d115b9053cd,4,,,,,,runner,,,,,,,,,,,1,0,0,20,20,2,1,,,,,,,,,,,,,,,,,,,,,,,,,,,,,,,,,,,,,,,,,,,,,,,,,,,,,,,,,,,,,,,,,,,,,,
,,?,0.002,0,,,,,,stimuli/images/PICTURE_469.png,ARTIST,5e911cfaefd95445d5a6c890,09/10/1950,2020-07-09_13h47.46.889,proactive,2020.1.2,Win32,60,5f073de81c76c3308c0e4fb3,5f0758116a759d115b9053cd,4,,,,,,stool,,,,,,,,,,,1,0,0,21,21,6,1,,,,,,,,,,,,,,,,,,,,,,,,,,,,,,,,,,,,,,,,,,,,,,,,,,,,,,,,,,,,,,,,,,,,,,
,,?,0.002,0,,,,,,stimuli/images/PICTURE_285.png,ADVICE,5e911cfaefd95445d5a6c890,09/10/1950,2020-07-09_13h47.46.889,proactive,2020.1.2,Win32,60,5f073de81c76c3308c0e4fb3,5f0758116a759d115b9053cd,4,,,,,,carrot,,,,,,,,,,,2,0,0,22,22,12,1,,,,,,,,,,,,,,,,,,,,,,,,,,,,,,,,,,,,,,,,,,,,,,,,,,,,,,,,,,,,,,,,,,,,,,
,,?,0.001,0,,,,,,stimuli/images/PICTURE_311.png,BEAUTY,5e911cfaefd95445d5a6c890,09/10/1950,2020-07-09_13h47.46.889,proactive,2020.1.2,Win32,60,5f073de81c76c3308c0e4fb3,5f0758116a759d115b9053cd,4,,,,,,razor,,,,,,,,,,,2,0,0,23,23,13,1,,,,,,,,,,,,,,,,,,,,,,,,,,,,,,,,,,,,,,,,,,,,,,,,,,,,,,,,,,,,,,,,,,,,,,
,,?,0.001,0,,,,,,stimuli/images/PICTURE_123.png,ADVICE,5e911cfaefd95445d5a6c890,09/10/1950,2020-07-09_13h47.46.889,proactive,2020.1.2,Win32,60,5f073de81c76c3308c0e4fb3,5f0758116a759d115b9053cd,4,,,,,,dart,,,,,,,,,,,6,0,0,24,24,50,1,,,,,,,,,,,,,,,,,,,,,,,,,,,,,,,,,,,,,,,,,,,,,,,,,,,,,,,,,,,,,,,,,,,,,,
,,MILE,2.92,1,,,,,,stimuli/images/PICTURE_677.png,MILE,5e911cfaefd95445d5a6c890,09/10/1950,2020-07-09_13h47.46.889,proactive,2020.1.2,Win32,60,5f073de81c76c3308c0e4fb3,5f0758116a759d115b9053cd,4,,,,,,map,,,,,,,,,,,4,0,0,25,25,30,1,,,,,,,,,,,,,,,,,,,,,,,,,,,,,,,,,,,,,,,,,,,,,,,,,,,,,,,,,,,,,,,,,,,,,,
,,?,0.002,0,,,,,,stimuli/images/PICTURE_688.png,WOMEN,5e911cfaefd95445d5a6c890,09/10/1950,2020-07-09_13h47.46.889,proactive,2020.1.2,Win32,60,5f073de81c76c3308c0e4fb3,5f0758116a759d115b9053cd,4,,,,,,runner,,,,,,,,,,,2,0,0,26,26,14,1,,,,,,,,,,,,,,,,,,,,,,,,,,,,,,,,,,,,,,,,,,,,,,,,,,,,,,,,,,,,,,,,,,,,,,
,,FRIEND,7.411,0,,,,,,stimuli/images/PICTURE_675.png,WEAPON,5e911cfaefd95445d5a6c890,09/10/1950,2020-07-09_13h47.46.889,proactive,2020.1.2,Win32,60,5f073de81c76c3308c0e4fb3,5f0758116a759d115b9053cd,4,,,,,,windmill,,,,,,,,,,,4,0,0,27,27,32,1,,,,,,,,,,,,,,,,,,,,,,,,,,,,,,,,,,,,,,,,,,,,,,,,,,,,,,,,,,,,,,,,,,,,,,
,,?,0.003,0,,,,,,stimuli/images/PICTURE_208.png,MONTH,5e911cfaefd95445d5a6c890,09/10/1950,2020-07-09_13h47.46.889,proactive,2020.1.2,Win32,60,5f073de81c76c3308c0e4fb3,5f0758116a759d115b9053cd,4,,,,,,microphone,,,,,,,,,,,6,0,0,28,28,53,1,,,,,,,,,,,,,,,,,,,,,,,,,,,,,,,,,,,,,,,,,,,,,,,,,,,,,,,,,,,,,,,,,,,,,,
,,?,0.003,0,,,,,,stimuli/images/PICTURE_667.png,PLENTY,5e911cfaefd95445d5a6c890,09/10/1950,2020-07-09_13h47.46.889,proactive,2020.1.2,Win32,60,5f073de81c76c3308c0e4fb3,5f0758116a759d115b9053cd,4,,,,,,daisy,,,,,,,,,,,5,0,0,29,29,41,1,,,,,,,,,,,,,,,,,,,,,,,,,,,,,,,,,,,,,,,,,,,,,,,,,,,,,,,,,,,,,,,,,,,,,,
,,?,7.105,0,,,,,,stimuli/images/PICTURE_708.png,PENNY,5e911cfaefd95445d5a6c890,09/10/1950,2020-07-09_13h47.46.889,proactive,2020.1.2,Win32,60,5f073de81c76c3308c0e4fb3,5f0758116a759d115b9053cd,4,,,,,,monkey,,,,,,,,,,,4,0,0,30,30,31,1,,,,,,,,,,,,,,,,,,,,,,,,,,,,,,,,,,,,,,,,,,,,,,,,,,,,,,,,,,,,,,,,,,,,,,
,,?,0.003,0,,,,,,stimuli/images/PICTURE_667.png,BATH,5e911cfaefd95445d5a6c890,09/10/1950,2020-07-09_13h47.46.889,proactive,2020.1.2,Win32,60,5f073de81c76c3308c0e4fb3,5f0758116a759d115b9053cd,4,,,,,,daisy,,,,,,,,,,,1,0,0,31,31,4,1,,,,,,,,,,,,,,,,,,,,,,,,,,,,,,,,,,,,,,,,,,,,,,,,,,,,,,,,,,,,,,,,,,,,,,
,,?,0.001,0,,,,,,stimuli/images/PICTURE_85.png,THING,5e911cfaefd95445d5a6c890,09/10/1950,2020-07-09_13h47.46.889,proactive,2020.1.2,Win32,60,5f073de81c76c3308c0e4fb3,5f0758116a759d115b9053cd,4,,,,,,diamond,,,,,,,,,,,2,0,0,32,32,15,1,,,,,,,,,,,,,,,,,,,,,,,,,,,,,,,,,,,,,,,,,,,,,,,,,,,,,,,,,,,,,,,,,,,,,,
,,?,0.001,0,,,,,,stimuli/images/PICTURE_160.png,FEET,5e911cfaefd95445d5a6c890,09/10/1950,2020-07-09_13h47.46.889,proactive,2020.1.2,Win32,60,5f073de81c76c3308c0e4fb3,5f0758116a759d115b9053cd,4,,,,,,wheelbarrow,,,,,,,,,,,6,0,0,33,33,58,1,,,,,,,,,,,,,,,,,,,,,,,,,,,,,,,,,,,,,,,,,,,,,,,,,,,,,,,,,,,,,,,,,,,,,,
,,?,0.002,0,,,,,,stimuli/images/PICTURE_654.png,VALLEY,5e911cfaefd95445d5a6c890,09/10/1950,2020-07-09_13h47.46.889,proactive,2020.1.2,Win32,60,5f073de81c76c3308c0e4fb3,5f0758116a759d115b9053cd,4,,,,,,pencil,,,,,,,,,,,1,0,0,34,34,1,1,,,,,,,,,,,,,,,,,,,,,,,,,,,,,,,,,,,,,,,,,,,,,,,,,,,,,,,,,,,,,,,,,,,,,,
,,?,0.002,0,,,,,,stimuli/images/PICTURE_380.png,DEATH,5e911cfaefd95445d5a6c890,09/10/1950,2020-07-09_13h47.46.889,proactive,2020.1.2,Win32,60,5f073de81c76c3308c0e4fb3,5f0758116a759d115b9053cd,4,,,,,,gorilla,,,,,,,,,,,5,0,0,35,35,49,1,,,,,,,,,,,,,,,,,,,,,,,,,,,,,,,,,,,,,,,,,,,,,,,,,,,,,,,,,,,,,,,,,,,,,,
,,?,0.002,0,,,,,,stimuli/images/PICTURE_302.png,FAMILY,5e911cfaefd95445d5a6c890,09/10/1950,2020-07-09_13h47.46.889,proactive,2020.1.2,Win32,60,5f073de81c76c3308c0e4fb3,5f0758116a759d115b9053cd,4,,,,,,taxi,,,,,,,,,,,2,0,0,36,36,18,1,,,,,,,,,,,,,,,,,,,,,,,,,,,,,,,,,,,,,,,,,,,,,,,,,,,,,,,,,,,,,,,,,,,,,,
,,?,0.001,0,,,,,,stimuli/images/PICTURE_453.png,PLENTY,5e911cfaefd95445d5a6c890,09/10/1950,2020-07-09_13h47.46.889,proactive,2020.1.2,Win32,60,5f073de81c76c3308c0e4fb3,5f0758116a759d115b9053cd,4,,,,,,scissors,,,,,,,,,,,6,0,0,37,37,56,1,,,,,,,,,,,,,,,,,,,,,,,,,,,,,,,,,,,,,,,,,,,,,,,,,,,,,,,,,,,,,,,,,,,,,,
,,?,0.002,0,,,,,,stimuli/images/PICTURE_160.png,LEADER,5e911cfaefd95445d5a6c890,09/10/1950,2020-07-09_13h47.46.889,proactive,2020.1.2,Win32,60,5f073de81c76c3308c0e4fb3,5f0758116a759d115b9053cd,4,,,,,,wheelbarrow,,,,,,,,,,,1,0,0,38,38,3,1,,,,,,,,,,,,,,,,,,,,,,,,,,,,,,,,,,,,,,,,,,,,,,,,,,,,,,,,,,,,,,,,,,,,,,
,,?,0.002,0,,,,,,stimuli/images/PICTURE_151.png,GIRL,5e911cfaefd95445d5a6c890,09/10/1950,2020-07-09_13h47.46.889,proactive,2020.1.2,Win32,60,5f073de81c76c3308c0e4fb3,5f0758116a759d115b9053cd,4,,,,,,tray,,,,,,,,,,,2,0,0,39,39,19,1,,,,,,,,,,,,,,,,,,,,,,,,,,,,,,,,,,,,,,,,,,,,,,,,,,,,,,,,,,,,,,,,,,,,,,
,,?,0.002,0,,,,,,stimuli/images/PICTURE_95.png,STYLE,5e911cfaefd95445d5a6c890,09/10/1950,2020-07-09_13h47.46.889,proactive,2020.1.2,Win32,60,5f073de81c76c3308c0e4fb3,5f0758116a759d115b9053cd,4,,,,,,suitcase,,,,,,,,,,,3,0,0,40,40,25,1,,,,,,,,,,,,,,,,,,,,,,,,,,,,,,,,,,,,,,,,,,,,,,,,,,,,,,,,,,,,,,,,,,,,,,
,,?,0.002,0,,,,,,stimuli/images/PICTURE_708.png,CLIENT,5e911cfaefd95445d5a6c890,09/10/1950,2020-07-09_13h47.46.889,proactive,2020.1.2,Win32,60,5f073de81c76c3308c0e4fb3,5f0758116a759d115b9053cd,4,,,,,,monkey,,,,,,,,,,,1,0,0,41,41,5,1,,,,,,,,,,,,,,,,,,,,,,,,,,,,,,,,,,,,,,,,,,,,,,,,,,,,,,,,,,,,,,,,,,,,,,
,,TOUGH,11.247,0,,,,,,stimuli/images/PICTURE_215.png,PLENTY,5e911cfaefd95445d5a6c890,09/10/1950,2020-07-09_13h47.46.889,proactive,2020.1.2,Win32,60,5f073de81c76c3308c0e4fb3,5f0758116a759d115b9053cd,4,,,,,,boot,,,,,,,,,,,4,0,0,42,42,37,1,,,,,,,,,,,,,,,,,,,,,,,,,,,,,,,,,,,,,,,,,,,,,,,,,,,,,,,,,,,,,,,,,,,,,,
,,?,0.002,0,,,,,,stimuli/images/PICTURE_308.png,ESTATE,5e911cfaefd95445d5a6c890,09/10/1950,2020-07-09_13h47.46.889,proactive,2020.1.2,Win32,60,5f073de81c76c3308c0e4fb3,5f0758116a759d115b9053cd,4,,,,,,dice,,,,,,,,,,,5,0,0,43,43,46,1,,,,,,,,,,,,,,,,,,,,,,,,,,,,,,,,,,,,,,,,,,,,,,,,,,,,,,,,,,,,,,,,,,,,,,
,,?,0.002,0,,,,,,stimuli/images/PICTURE_744.png,SYSTEM,5e911cfaefd95445d5a6c890,09/10/1950,2020-07-09_13h47.46.889,proactive,2020.1.2,Win32,60,5f073de81c76c3308c0e4fb3,5f0758116a759d115b9053cd,4,,,,,,ring,,,,,,,,,,,5,0,0,44,44,43,1,,,,,,,,,,,,,,,,,,,,,,,,,,,,,,,,,,,,,,,,,,,,,,,,,,,,,,,,,,,,,,,,,,,,,,
,,?,0.001,0,,,,,,stimuli/images/PICTURE_692.png,MONTH,5e911cfaefd95445d5a6c890,09/10/1950,2020-07-09_13h47.46.889,proactive,2020.1.2,Win32,60,5f073de81c76c3308c0e4fb3,5f0758116a759d115b9053cd,4,,,,,,cherry,,,,,,,,,,,2,0,0,45,45,16,1,,,,,,,,,,,,,,,,,,,,,,,,,,,,,,,,,,,,,,,,,,,,,,,,,,,,,,,,,,,,,,,,,,,,,,
,,?,0.002,0,,,,,,stimuli/images/PICTURE_314.png,GODS,5e911cfaefd95445d5a6c890,09/10/1950,2020-07-09_13h47.46.889,proactive,2020.1.2,Win32,60,5f073de81c76c3308c0e4fb3,5f0758116a759d115b9053cd,4,,,,,,perfume,,,,,,,,,,,2,0,0,46,46,11,1,,,,,,,,,,,,,,,,,,,,,,,,,,,,,,,,,,,,,,,,,,,,,,,,,,,,,,,,,,,,,,,,,,,,,,
,,WOMEN,3.596,1,,,,,,stimuli/images/PICTURE_233.png,WOMEN,5e911cfaefd95445d5a6c890,09/10/1950,2020-07-09_13h47.46.889,proactive,2020.1.2,Win32,60,5f073de81c76c3308c0e4fb3,5f0758116a759d115b9053cd,4,,,,,,salt,,,,,,,,,,,4,0,0,47,47,38,1,,,,,,,,,,,,,,,,,,,,,,,,,,,,,,,,,,,,,,,,,,,,,,,,,,,,,,,,,,,,,,,,,,,,,,
,,?,0.003,0,,,,,,stimuli/images/PICTURE_491.png,WRITER,5e911cfaefd95445d5a6c890,09/10/1950,2020-07-09_13h47.46.889,proactive,2020.1.2,Win32,60,5f073de81c76c3308c0e4fb3,5f0758116a759d115b9053cd,4,,,,,,rug,,,,,,,,,,,6,0,0,48,48,57,1,,,,,,,,,,,,,,,,,,,,,,,,,,,,,,,,,,,,,,,,,,,,,,,,,,,,,,,,,,,,,,,,,,,,,,
,,?,0.001,0,,,,,,stimuli/images/PICTURE_123.png,ADVICE,5e911cfaefd95445d5a6c890,09/10/1950,2020-07-09_13h47.46.889,proactive,2020.1.2,Win32,60,5f073de81c76c3308c0e4fb3,5f0758116a759d115b9053cd,4,,,,,,dart,,,,,,,,,,,5,0,0,49,49,40,1,,,,,,,,,,,,,,,,,,,,,,,,,,,,,,,,,,,,,,,,,,,,,,,,,,,,,,,,,,,,,,,,,,,,,,
,,?,0.002,0,,,,,,stimuli/images/PICTURE_147.png,MOMENT,5e911cfaefd95445d5a6c890,09/10/1950,2020-07-09_13h47.46.889,proactive,2020.1.2,Win32,60,5f073de81c76c3308c0e4fb3,5f0758116a759d115b9053cd,4,,,,,,hanger,,,,,,,,,,,6,0,0,50,50,51,1,,,,,,,,,,,,,,,,,,,,,,,,,,,,,,,,,,,,,,,,,,,,,,,,,,,,,,,,,,,,,,,,,,,,,,
,,?,0.002,0,,,,,,stimuli/images/PICTURE_509.png,PHOTO,5e911cfaefd95445d5a6c890,09/10/1950,2020-07-09_13h47.46.889,proactive,2020.1.2,Win32,60,5f073de81c76c3308c0e4fb3,5f0758116a759d115b9053cd,4,,,,,,telephone,,,,,,,,,,,3,0,0,51,51,21,1,,,,,,,,,,,,,,,,,,,,,,,,,,,,,,,,,,,,,,,,,,,,,,,,,,,,,,,,,,,,,,,,,,,,,,
,,?,0.002,0,,,,,,stimuli/images/PICTURE_233.png,IDEAS,5e911cfaefd95445d5a6c890,09/10/1950,2020-07-09_13h47.46.889,proactive,2020.1.2,Win32,60,5f073de81c76c3308c0e4fb3,5f0758116a759d115b9053cd,4,,,,,,salt,,,,,,,,,,,3,0,0,52,52,28,1,,,,,,,,,,,,,,,,,,,,,,,,,,,,,,,,,,,,,,,,,,,,,,,,,,,,,,,,,,,,,,,,,,,,,,
,,?,0.001,0,,,,,,stimuli/images/PICTURE_449.png,THING,5e911cfaefd95445d5a6c890,09/10/1950,2020-07-09_13h47.46.889,proactive,2020.1.2,Win32,60,5f073de81c76c3308c0e4fb3,5f0758116a759d115b9053cd,4,,,,,,bench,,,,,,,,,,,6,0,0,53,53,59,1,,,,,,,,,,,,,,,,,,,,,,,,,,,,,,,,,,,,,,,,,,,,,,,,,,,,,,,,,,,,,,,,,,,,,,
,,DOZEN,12.221,1,,,,,,stimuli/images/PICTURE_248.png,DOZEN,5e911cfaefd95445d5a6c890,09/10/1950,2020-07-09_13h47.46.889,proactive,2020.1.2,Win32,60,5f073de81c76c3308c0e4fb3,5f0758116a759d115b9053cd,4,,,,,,cart,,,,,,,,,,,4,0,0,54,54,39,1,,,,,,,,,,,,,,,,,,,,,,,,,,,,,,,,,,,,,,,,,,,,,,,,,,,,,,,,,,,,,,,,,,,,,,
,,?,0.003,0,,,,,,stimuli/images/PICTURE_504.png,BODY,5e911cfaefd95445d5a6c890,09/10/1950,2020-07-09_13h47.46.889,proactive,2020.1.2,Win32,60,5f073de81c76c3308c0e4fb3,5f0758116a759d115b9053cd,4,,,,,,wheel,,,,,,,,,,,1,0,0,55,55,8,1,,,,,,,,,,,,,,,,,,,,,,,,,,,,,,,,,,,,,,,,,,,,,,,,,,,,,,,,,,,,,,,,,,,,,,
,,MILE,5.943,0,,,,,,stimuli/images/PICTURE_177.png,CARS,5e911cfaefd95445d5a6c890,09/10/1950,2020-07-09_13h47.46.889,proactive,2020.1.2,Win32,60,5f073de81c76c3308c0e4fb3,5f0758116a759d115b9053cd,4,,,,,,mushroom,,,,,,,,,,,4,0,0,56,56,35,1,,,,,,,,,,,,,,,,,,,,,,,,,,,,,,,,,,,,,,,,,,,,,,,,,,,,,,,,,,,,,,,,,,,,,,
,,?,0.002,0,,,,,,stimuli/images/PICTURE_469.png,LETTER,5e911cfaefd95445d5a6c890,09/10/1950,2020-07-09_13h47.46.889,proactive,2020.1.2,Win32,60,5f073de81c76c3308c0e4fb3,5f0758116a759d115b9053cd,4,,,,,,stool,,,,,,,,,,,5,0,0,57,57,42,1,,,,,,,,,,,,,,,,,,,,,,,,,,,,,,,,,,,,,,,,,,,,,,,,,,,,,,,,,,,,,,,,,,,,,,
,,?,0.002,0,,,,,,stimuli/images/PICTURE_491.png,ROOF,5e911cfaefd95445d5a6c890,09/10/1950,2020-07-09_13h47.46.889,proactive,2020.1.2,Win32,60,5f073de81c76c3308c0e4fb3,5f0758116a759d115b9053cd,4,,,,,,rug,,,,,,,,,,,3,0,0,58,58,24,1,,,,,,,,,,,,,,,,,,,,,,,,,,,,,,,,,,,,,,,,,,,,,,,,,,,,,,,,,,,,,,,,,,,,,,
,,?,0.001,0,,,,,,stimuli/images/PICTURE_32.png,JUNGLE,5e911cfaefd95445d5a6c890,09/10/1950,2020-07-09_13h47.46.889,proactive,2020.1.2,Win32,60,5f073de81c76c3308c0e4fb3,5f0758116a759d115b9053cd,4,,,,,,crown,,,,,,,,,,,5,0,0,59,59,45,1,,,,,,,,,,,,,,,,,,,,,,,,,,,,,,,,,,,,,,,,,,,,,,,,,,,,,,,,,,,,,,,,,,,,,,
,,,,,,,,,,,,5e911cfaefd95445d5a6c890,09/10/1950,2020-07-09_13h47.46.889,proactive,2020.1.2,Win32,60,5f073de81c76c3308c0e4fb3,5f0758116a759d115b9053cd,4,,,,,,,,,,,,,,,,,,,,,,,,0,1,1,0,1,stimuli/learn-block1.csv,,,,,,,,,,,,,,,,,,,,,,,,,,,,,,,,,,,,,,,,,,,,,,,,,,,,,,,,,,,,,,,,
,,,,,,,,,,stimuli/images/PICTURE_42.png,BOYS,5e911cfaefd95445d5a6c890,09/10/1950,2020-07-09_13h47.46.889,proactive,2020.1.2,Win32,60,5f073de81c76c3308c0e4fb3,5f0758116a759d115b9053cd,4,,,,,,pear,,,,,,0,0,0,55,1,6,1,,,,,,,,,,,,,,,,,,,,,,,,,,,,,,,,,,,,,,,,,,,,,,,,,,,,,,,,,,,,,,,,,,,,,,,,,,,
,,,,,,,,,,stimuli/images/PICTURE_296.png,LOTS,5e911cfaefd95445d5a6c890,09/10/1950,2020-07-09_13h47.46.889,proactive,2020.1.2,Win32,60,5f073de81c76c3308c0e4fb3,5f0758116a759d115b9053cd,4,,,,,,bolt,,,,,,0,1,1,9,1,1,1,,,,,,,,,,,,,,,,,,,,,,,,,,,,,,,,,,,,,,,,,,,,,,,,,,,,,,,,,,,,,,,,,,,,,,,,,,,
,,,,,,,,,,stimuli/images/PICTURE_95.png,HONEY,5e911cfaefd95445d5a6c890,09/10/1950,2020-07-09_13h47.46.889,proactive,2020.1.2,Win32,60,5f073de81c76c3308c0e4fb3,5f0758116a759d115b9053cd,4,,,,,,suitcase,,,,,,0,2,2,44,1,5,1,,,,,,,,,,,,,,,,,,,,,,,,,,,,,,,,,,,,,,,,,,,,,,,,,,,,,,,,,,,,,,,,,,,,,,,,,,,
,,,,,,,,,,stimuli/images/PICTURE_285.png,LIFE,5e911cfaefd95445d5a6c890,09/10/1950,2020-07-09_13h47.46.889,proactive,2020.1.2,Win32,60,5f073de81c76c3308c0e4fb3,5f0758116a759d115b9053cd,4,,,,,,carrot,,,,,,0,3,3,33,1,4,1,,,,,,,,,,,,,,,,,,,,,,,,,,,,,,,,,,,,,,,,,,,,,,,,,,,,,,,,,,,,,,,,,,,,,,,,,,,
,,,,,,,,,,stimuli/images/PICTURE_383.png,SERIES,5e911cfaefd95445d5a6c890,09/10/1950,2020-07-09_13h47.46.889,proactive,2020.1.2,Win32,60,5f073de81c76c3308c0e4fb3,5f0758116a759d115b9053cd,4,,,,,,coin,,,,,,0,4,4,46,1,5,1,,,,,,,,,,,,,,,,,,,,,,,,,,,,,,,,,,,,,,,,,,,,,,,,,,,,,,,,,,,,,,,,,,,,,,,,,,,
,,,,,,,,,,stimuli/images/PICTURE_340.png,VALLEY,5e911cfaefd95445d5a6c890,09/10/1950,2020-07-09_13h47.46.889,proactive,2020.1.2,Win32,60,5f073de81c76c3308c0e4fb3,5f0758116a759d115b9053cd,4,,,,,,mirror,,,,,,0,5,5,54,1,6,1,,,,,,,,,,,,,,,,,,,,,,,,,,,,,,,,,,,,,,,,,,,,,,,,,,,,,,,,,,,,,,,,,,,,,,,,,,,
,,,,,,,,,,stimuli/images/PICTURE_504.png,YEAR,5e911cfaefd95445d5a6c890,09/10/1950,2020-07-09_13h47.46.889,proactive,2020.1.2,Win32,60,5f073de81c76c3308c0e4fb3,5f0758116a759d115b9053cd,4,,,,,,wheel,,,,,,0,6,6,13,1,2,1,,,,,,,,,,,,,,,,,,,,,,,,,,,,,,,,,,,,,,,,,,,,,,,,,,,,,,,,,,,,,,,,,,,,,,,,,,,
,,,,,,,,,,stimuli/images/PICTURE_68.png,MILE,5e911cfaefd95445d5a6c890,09/10/1950,2020-07-09_13h47.46.889,proactive,2020.1.2,Win32,60,5f073de81c76c3308c0e4fb3,5f0758116a759d115b9053cd,4,,,,,,candle,,,,,,0,7,7,51,1,6,1,,,,,,,,,,,,,,,,,,,,,,,,,,,,,,,,,,,,,,,,,,,,,,,,,,,,,,,,,,,,,,,,,,,,,,,,,,,
,,,,,,,,,,stimuli/images/PICTURE_744.png,WEAPON,5e911cfaefd95445d5a6c890,09/10/1950,2020-07-09_13h47.46.889,proactive,2020.1.2,Win32,60,5f073de81c76c3308c0e4fb3,5f0758116a759d115b9053cd,4,,,,,,ring,,,,,,0,8,8,50,1,6,1,,,,,,,,,,,,,,,,,,,,,,,,,,,,,,,,,,,,,,,,,,,,,,,,,,,,,,,,,,,,,,,,,,,,,,,,,,,
,,,,,,,,,,stimuli/images/PICTURE_504.png,COPS,5e911cfaefd95445d5a6c890,09/10/1950,2020-07-09_13h47.46.889,proactive,2020.1.2,Win32,60,5f073de81c76c3308c0e4fb3,5f0758116a759d115b9053cd,4,,,,,,wheel,,,,,,0,9,9,52,1,6,1,,,,,,,,,,,,,,,,,,,,,,,,,,,,,,,,,,,,,,,,,,,,,,,,,,,,,,,,,,,,,,,,,,,,,,,,,,,
,,,,,,,,,,stimuli/images/PICTURE_68.png,ROOF,5e911cfaefd95445d5a6c890,09/10/1950,2020-07-09_13h47.46.889,proactive,2020.1.2,Win32,60,5f073de81c76c3308c0e4fb3,5f0758116a759d115b9053cd,4,,,,,,candle,,,,,,0,10,10,38,1,4,1,,,,,,,,,,,,,,,,,,,,,,,,,,,,,,,,,,,,,,,,,,,,,,,,,,,,,,,,,,,,,,,,,,,,,,,,,,,
,,,,,,,,,,stimuli/images/PICTURE_33.png,FRIEND,5e911cfaefd95445d5a6c890,09/10/1950,2020-07-09_13h47.46.889,proactive,2020.1.2,Win32,60,5f073de81c76c3308c0e4fb3,5f0758116a759d115b9053cd,4,,,,,,frame,,,,,,0,11,11,8,1,1,1,,,,,,,,,,,,,,,,,,,,,,,,,,,,,,,,,,,,,,,,,,,,,,,,,,,,,,,,,,,,,,,,,,,,,,,,,,,
,,,,,,,,,,stimuli/images/PICTURE_655.png,TOILET,5e911cfaefd95445d5a6c890,09/10/1950,2020-07-09_13h47.46.889,proactive,2020.1.2,Win32,60,5f073de81c76c3308c0e4fb3,5f0758116a759d115b9053cd,4,,,,,,megaphone,,,,,,0,12,12,12,1,2,1,,,,,,,,,,,,,,,,,,,,,,,,,,,,,,,,,,,,,,,,,,,,,,,,,,,,,,,,,,,,,,,,,,,,,,,,,,,
,,,,,,,,,,stimuli/images/PICTURE_203.png,GODS,5e911cfaefd95445d5a6c890,09/10/1950,2020-07-09_13h47.46.889,proactive,2020.1.2,Win32,60,5f073de81c76c3308c0e4fb3,5f0758116a759d115b9053cd,4,,,,,,cap,,,,,,0,13,13,30,1,4,1,,,,,,,,,,,,,,,,,,,,,,,,,,,,,,,,,,,,,,,,,,,,,,,,,,,,,,,,,,,,,,,,,,,,,,,,,,,
,,,,,,,,,,stimuli/images/PICTURE_32.png,PILLS,5e911cfaefd95445d5a6c890,09/10/1950,2020-07-09_13h47.46.889,proactive,2020.1.2,Win32,60,5f073de81c76c3308c0e4fb3,5f0758116a759d115b9053cd,4,,,,,,crown,,,,,,0,14,14,18,1,2,1,,,,,,,,,,,,,,,,,,,,,,,,,,,,,,,,,,,,,,,,,,,,,,,,,,,,,,,,,,,,,,,,,,,,,,,,,,,
,,,,,,,,,,stimuli/images/PICTURE_340.png,LETTER,5e911cfaefd95445d5a6c890,09/10/1950,2020-07-09_13h47.46.889,proactive,2020.1.2,Win32,60,5f073de81c76c3308c0e4fb3,5f0758116a759d115b9053cd,4,,,,,,mirror,,,,,,0,15,15,24,1,3,1,,,,,,,,,,,,,,,,,,,,,,,,,,,,,,,,,,,,,,,,,,,,,,,,,,,,,,,,,,,,,,,,,,,,,,,,,,,
,,,,,,,,,,stimuli/images/PICTURE_203.png,NIGHT,5e911cfaefd95445d5a6c890,09/10/1950,2020-07-09_13h47.46.889,proactive,2020.1.2,Win32,60,5f073de81c76c3308c0e4fb3,5f0758116a759d115b9053cd,4,,,,,,cap,,,,,,0,16,16,2,1,1,1,,,,,,,,,,,,,,,,,,,,,,,,,,,,,,,,,,,,,,,,,,,,,,,,,,,,,,,,,,,,,,,,,,,,,,,,,,,
,,,,,,,,,,stimuli/images/PICTURE_85.png,TOILET,5e911cfaefd95445d5a6c890,09/10/1950,2020-07-09_13h47.46.889,proactive,2020.1.2,Win32,60,5f073de81c76c3308c0e4fb3,5f0758116a759d115b9053cd,4,,,,,,diamond,,,,,,0,17,17,48,1,5,1,,,,,,,,,,,,,,,,,,,,,,,,,,,,,,,,,,,,,,,,,,,,,,,,,,,,,,,,,,,,,,,,,,,,,,,,,,,
,,,,,,,,,,stimuli/images/PICTURE_339.png,CLIENT,5e911cfaefd95445d5a6c890,09/10/1950,2020-07-09_13h47.46.889,proactive,2020.1.2,Win32,60,5f073de81c76c3308c0e4fb3,5f0758116a759d115b9053cd,4,,,,,,backpack,,,,,,0,18,18,11,1,2,1,,,,,,,,,,,,,,,,,,,,,,,,,,,,,,,,,,,,,,,,,,,,,,,,,,,,,,,,,,,,,,,,,,,,,,,,,,,
,,,,,,,,,,stimuli/images/PICTURE_108.png,POLICY,5e911cfaefd95445d5a6c890,09/10/1950,2020-07-09_13h47.46.889,proactive,2020.1.2,Win32,60,5f073de81c76c3308c0e4fb3,5f0758116a759d115b9053cd,4,,,,,,calendar,,,,,,0,19,19,22,1,3,1,,,,,,,,,,,,,,,,,,,,,,,,,,,,,,,,,,,,,,,,,,,,,,,,,,,,,,,,,,,,,,,,,,,,,,,,,,,
,,,,,,,,,,stimuli/images/PICTURE_95.png,BOYS,5e911cfaefd95445d5a6c890,09/10/1950,2020-07-09_13h47.46.889,proactive,2020.1.2,Win32,60,5f073de81c76c3308c0e4fb3,5f0758116a759d115b9053cd,4,,,,,,suitcase,,,,,,0,20,20,1,1,1,1,,,,,,,,,,,,,,,,,,,,,,,,,,,,,,,,,,,,,,,,,,,,,,,,,,,,,,,,,,,,,,,,,,,,,,,,,,,
,,,,,,,,,,stimuli/images/PICTURE_403.png,RIVER,5e911cfaefd95445d5a6c890,09/10/1950,2020-07-09_13h47.46.889,proactive,2020.1.2,Win32,60,5f073de81c76c3308c0e4fb3,5f0758116a759d115b9053cd,4,,,,,,cathedral,,,,,,0,21,21,40,1,5,1,,,,,,,,,,,,,,,,,,,,,,,,,,,,,,,,,,,,,,,,,,,,,,,,,,,,,,,,,,,,,,,,,,,,,,,,,,,
,,,,,,,,,,stimuli/images/PICTURE_405.png,YEAR,5e911cfaefd95445d5a6c890,09/10/1950,2020-07-09_13h47.46.889,proactive,2020.1.2,Win32,60,5f073de81c76c3308c0e4fb3,5f0758116a759d115b9053cd,4,,,,,,anchor,,,,,,0,22,22,34,1,4,1,,,,,,,,,,,,,,,,,,,,,,,,,,,,,,,,,,,,,,,,,,,,,,,,,,,,,,,,,,,,,,,,,,,,,,,,,,,
,,,,,,,,,,stimuli/images/PICTURE_449.png,DUDE,5e911cfaefd95445d5a6c890,09/10/1950,2020-07-09_13h47.46.889,proactive,2020.1.2,Win32,60,5f073de81c76c3308c0e4fb3,5f0758116a759d115b9053cd,4,,,,,,bench,,,,,,0,23,23,17,1,2,1,,,,,,,,,,,,,,,,,,,,,,,,,,,,,,,,,,,,,,,,,,,,,,,,,,,,,,,,,,,,,,,,,,,,,,,,,,,
,,,,,,,,,,stimuli/images/PICTURE_750.png,HOTEL,5e911cfaefd95445d5a6c890,09/10/1950,2020-07-09_13h47.46.889,proactive,2020.1.2,Win32,60,5f073de81c76c3308c0e4fb3,5f0758116a759d115b9053cd,4,,,,,,kettle,,,,,,0,24,24,27,1,3,1,,,,,,,,,,,,,,,,,,,,,,,,,,,,,,,,,,,,,,,,,,,,,,,,,,,,,,,,,,,,,,,,,,,,,,,,,,,
,,,,,,,,,,stimuli/images/PICTURE_403.png,TOILET,5e911cfaefd95445d5a6c890,09/10/1950,2020-07-09_13h47.46.889,proactive,2020.1.2,Win32,60,5f073de81c76c3308c0e4fb3,5f0758116a759d115b9053cd,4,,,,,,cathedral,,,,,,0,25,25,25,1,3,1,,,,,,,,,,,,,,,,,,,,,,,,,,,,,,,,,,,,,,,,,,,,,,,,,,,,,,,,,,,,,,,,,,,,,,,,,,,
,,,,,,,,,,stimuli/images/PICTURE_308.png,FAMILY,5e911cfaefd95445d5a6c890,09/10/1950,2020-07-09_13h47.46.889,proactive,2020.1.2,Win32,60,5f073de81c76c3308c0e4fb3,5f0758116a759d115b9053cd,4,,,,,,dice,,,,,,0,26,26,36,1,4,1,,,,,,,,,,,,,,,,,,,,,,,,,,,,,,,,,,,,,,,,,,,,,,,,,,,,,,,,,,,,,,,,,,,,,,,,,,,
,,,,,,,,,,stimuli/images/PICTURE_564.png,BATH,5e911cfaefd95445d5a6c890,09/10/1950,2020-07-09_13h47.46.889,proactive,2020.1.2,Win32,60,5f073de81c76c3308c0e4fb3,5f0758116a759d115b9053cd,4,,,,,,spoon,,,,,,0,27,27,26,1,3,1,,,,,,,,,,,,,,,,,,,,,,,,,,,,,,,,,,,,,,,,,,,,,,,,,,,,,,,,,,,,,,,,,,,,,,,,,,,
,,,,,,,,,,stimuli/images/PICTURE_380.png,HONEY,5e911cfaefd95445d5a6c890,09/10/1950,2020-07-09_13h47.46.889,proactive,2020.1.2,Win32,60,5f073de81c76c3308c0e4fb3,5f0758116a759d115b9053cd,4,,,,,,gorilla,,,,,,0,28,28,19,1,2,1,,,,,,,,,,,,,,,,,,,,,,,,,,,,,,,,,,,,,,,,,,,,,,,,,,,,,,,,,,,,,,,,,,,,,,,,,,,
,,,,,,,,,,stimuli/images/PICTURE_469.png,AGENT,5e911cfaefd95445d5a6c890,09/10/1950,2020-07-09_13h47.46.889,proactive,2020.1.2,Win32,60,5f073de81c76c3308c0e4fb3,5f0758116a759d115b9053cd,4,,,,,,stool,,,,,,0,29,29,16,1,2,1,,,,,,,,,,,,,,,,,,,,,,,,,,,,,,,,,,,,,,,,,,,,,,,,,,,,,,,,,,,,,,,,,,,,,,,,,,,
,,,,,,,,,,stimuli/images/PICTURE_208.png,SYSTEM,5e911cfaefd95445d5a6c890,09/10/1950,2020-07-09_13h47.46.889,proactive,2020.1.2,Win32,60,5f073de81c76c3308c0e4fb3,5f0758116a759d115b9053cd,4,,,,,,microphone,,,,,,0,30,30,32,1,4,1,,,,,,,,,,,,,,,,,,,,,,,,,,,,,,,,,,,,,,,,,,,,,,,,,,,,,,,,,,,,,,,,,,,,,,,,,,,
,,,,,,,,,,stimuli/images/PICTURE_380.png,CANDY,5e911cfaefd95445d5a6c890,09/10/1950,2020-07-09_13h47.46.889,proactive,2020.1.2,Win32,60,5f073de81c76c3308c0e4fb3,5f0758116a759d115b9053cd,4,,,,,,gorilla,,,,,,0,31,31,0,1,1,1,,,,,,,,,,,,,,,,,,,,,,,,,,,,,,,,,,,,,,,,,,,,,,,,,,,,,,,,,,,,,,,,,,,,,,,,,,,
,,,,,,,,,,stimuli/images/PICTURE_327.png,CASINO,5e911cfaefd95445d5a6c890,09/10/1950,2020-07-09_13h47.46.889,proactive,2020.1.2,Win32,60,5f073de81c76c3308c0e4fb3,5f0758116a759d115b9053cd,4,,,,,,helmet,,,,,,0,32,32,20,1,3,1,,,,,,,,,,,,,,,,,,,,,,,,,,,,,,,,,,,,,,,,,,,,,,,,,,,,,,,,,,,,,,,,,,,,,,,,,,,
,,,,,,,,,,stimuli/images/PICTURE_177.png,WRITER,5e911cfaefd95445d5a6c890,09/10/1950,2020-07-09_13h47.46.889,proactive,2020.1.2,Win32,60,5f073de81c76c3308c0e4fb3,5f0758116a759d115b9053cd,4,,,,,,mushroom,,,,,,0,33,33,41,1,5,1,,,,,,,,,,,,,,,,,,,,,,,,,,,,,,,,,,,,,,,,,,,,,,,,,,,,,,,,,,,,,,,,,,,,,,,,,,,
,,,,,,,,,,stimuli/images/PICTURE_233.png,LOTS,5e911cfaefd95445d5a6c890,09/10/1950,2020-07-09_13h47.46.889,proactive,2020.1.2,Win32,60,5f073de81c76c3308c0e4fb3,5f0758116a759d115b9053cd,4,,,,,,salt,,,,,,0,34,34,42,1,5,1,,,,,,,,,,,,,,,,,,,,,,,,,,,,,,,,,,,,,,,,,,,,,,,,,,,,,,,,,,,,,,,,,,,,,,,,,,,
,,,,,,,,,,stimuli/images/PICTURE_405.png,PLENTY,5e911cfaefd95445d5a6c890,09/10/1950,2020-07-09_13h47.46.889,proactive,2020.1.2,Win32,60,5f073de81c76c3308c0e4fb3,5f0758116a759d115b9053cd,4,,,,,,anchor,,,,,,0,35,35,23,1,3,1,,,,,,,,,,,,,,,,,,,,,,,,,,,,,,,,,,,,,,,,,,,,,,,,,,,,,,,,,,,,,,,,,,,,,,,,,,,
,,,,,,,,,,stimuli/images/PICTURE_467.png,POLICY,5e911cfaefd95445d5a6c890,09/10/1950,2020-07-09_13h47.46.889,proactive,2020.1.2,Win32,60,5f073de81c76c3308c0e4fb3,5f0758116a759d115b9053cd,4,,,,,,peg,,,,,,0,36,36,53,1,6,1,,,,,,,,,,,,,,,,,,,,,,,,,,,,,,,,,,,,,,,,,,,,,,,,,,,,,,,,,,,,,,,,,,,,,,,,,,,
,,,,,,,,,,stimuli/images/PICTURE_675.png,SALE,5e911cfaefd95445d5a6c890,09/10/1950,2020-07-09_13h47.46.889,proactive,2020.1.2,Win32,60,5f073de81c76c3308c0e4fb3,5f0758116a759d115b9053cd,4,,,,,,windmill,,,,,,0,37,37,47,1,5,1,,,,,,,,,,,,,,,,,,,,,,,,,,,,,,,,,,,,,,,,,,,,,,,,,,,,,,,,,,,,,,,,,,,,,,,,,,,
,,,,,,,,,,stimuli/images/PICTURE_32.png,KIND,5e911cfaefd95445d5a6c890,09/10/1950,2020-07-09_13h47.46.889,proactive,2020.1.2,Win32,60,5f073de81c76c3308c0e4fb3,5f0758116a759d115b9053cd,4,,,,,,crown,,,,,,0,38,38,35,1,4,1,,,,,,,,,,,,,,,,,,,,,,,,,,,,,,,,,,,,,,,,,,,,,,,,,,,,,,,,,,,,,,,,,,,,,,,,,,,
,,,,,,,,,,stimuli/images/PICTURE_677.png,APPLE,5e911cfaefd95445d5a6c890,09/10/1950,2020-07-09_13h47.46.889,proactive,2020.1.2,Win32,60,5f073de81c76c3308c0e4fb3,5f0758116a759d115b9053cd,4,,,,,,map,,,,,,0,39,39,43,1,5,1,,,,,,,,,,,,,,,,,,,,,,,,,,,,,,,,,,,,,,,,,,,,,,,,,,,,,,,,,,,,,,,,,,,,,,,,,,,
,,,,,,,,,,stimuli/images/PICTURE_487.png,GIRL,5e911cfaefd95445d5a6c890,09/10/1950,2020-07-09_13h47.46.889,proactive,2020.1.2,Win32,60,5f073de81c76c3308c0e4fb3,5f0758116a759d115b9053cd,4,,,,,,basket,,,,,,0,40,40,45,1,5,1,,,,,,,,,,,,,,,,,,,,,,,,,,,,,,,,,,,,,,,,,,,,,,,,,,,,,,,,,,,,,,,,,,,,,,,,,,,
,,,,,,,,,,stimuli/images/PICTURE_147.png,YEAR,5e911cfaefd95445d5a6c890,09/10/1950,2020-07-09_13h47.46.889,proactive,2020.1.2,Win32,60,5f073de81c76c3308c0e4fb3,5f0758116a759d115b9053cd,4,,,,,,hanger,,,,,,0,41,41,21,1,3,1,,,,,,,,,,,,,,,,,,,,,,,,,,,,,,,,,,,,,,,,,,,,,,,,,,,,,,,,,,,,,,,,,,,,,,,,,,,
,,,,,,,,,,stimuli/images/PICTURE_654.png,MONTH,5e911cfaefd95445d5a6c890,09/10/1950,2020-07-09_13h47.46.889,proactive,2020.1.2,Win32,60,5f073de81c76c3308c0e4fb3,5f0758116a759d115b9053cd,4,,,,,,pencil,,,,,,0,42,42,29,1,3,1,,,,,,,,,,,,,,,,,,,,,,,,,,,,,,,,,,,,,,,,,,,,,,,,,,,,,,,,,,,,,,,,,,,,,,,,,,,
,,,,,,,,,,stimuli/images/PICTURE_296.png,LIFE,5e911cfaefd95445d5a6c890,09/10/1950,2020-07-09_13h47.46.889,proactive,2020.1.2,Win32,60,5f073de81c76c3308c0e4fb3,5f0758116a759d115b9053cd,4,,,,,,bolt,,,,,,0,43,43,57,1,6,1,,,,,,,,,,,,,,,,,,,,,,,,,,,,,,,,,,,,,,,,,,,,,,,,,,,,,,,,,,,,,,,,,,,,,,,,,,,
,,,,,,,,,,stimuli/images/PICTURE_2.png,FLIGHT,5e911cfaefd95445d5a6c890,09/10/1950,2020-07-09_13h47.46.889,proactive,2020.1.2,Win32,60,5f073de81c76c3308c0e4fb3,5f0758116a759d115b9053cd,4,,,,,,tyre,,,,,,0,44,44,15,1,2,1,,,,,,,,,,,,,,,,,,,,,,,,,,,,,,,,,,,,,,,,,,,,,,,,,,,,,,,,,,,,,,,,,,,,,,,,,,,
,,,,,,,,,,stimuli/images/PICTURE_667.png,RIVER,5e911cfaefd95445d5a6c890,09/10/1950,2020-07-09_13h47.46.889,proactive,2020.1.2,Win32,60,5f073de81c76c3308c0e4fb3,5f0758116a759d115b9053cd,4,,,,,,daisy,,,,,,0,45,45,10,1,2,1,,,,,,,,,,,,,,,,,,,,,,,,,,,,,,,,,,,,,,,,,,,,,,,,,,,,,,,,,,,,,,,,,,,,,,,,,,,
,,,,,,,,,,stimuli/images/PICTURE_685.png,PENNY,5e911cfaefd95445d5a6c890,09/10/1950,2020-07-09_13h47.46.889,proactive,2020.1.2,Win32,60,5f073de81c76c3308c0e4fb3,5f0758116a759d115b9053cd,4,,,,,,goose,,,,,,0,46,46,4,1,1,1,,,,,,,,,,,,,,,,,,,,,,,,,,,,,,,,,,,,,,,,,,,,,,,,,,,,,,,,,,,,,,,,,,,,,,,,,,,
,,,,,,,,,,stimuli/images/PICTURE_708.png,RECORD,5e911cfaefd95445d5a6c890,09/10/1950,2020-07-09_13h47.46.889,proactive,2020.1.2,Win32,60,5f073de81c76c3308c0e4fb3,5f0758116a759d115b9053cd,4,,,,,,monkey,,,,,,0,47,47,58,1,6,1,,,,,,,,,,,,,,,,,,,,,,,,,,,,,,,,,,,,,,,,,,,,,,,,,,,,,,,,,,,,,,,,,,,,,,,,,,,
,,,,,,,,,,stimuli/images/PICTURE_57.png,MOMENT,5e911cfaefd95445d5a6c890,09/10/1950,2020-07-09_13h47.46.889,proactive,2020.1.2,Win32,60,5f073de81c76c3308c0e4fb3,5f0758116a759d115b9053cd,4,,,,,,stamp,,,,,,0,48,48,37,1,4,1,,,,,,,,,,,,,,,,,,,,,,,,,,,,,,,,,,,,,,,,,,,,,,,,,,,,,,,,,,,,,,,,,,,,,,,,,,,
,,,,,,,,,,stimuli/images/PICTURE_147.png,WOMEN,5e911cfaefd95445d5a6c890,09/10/1950,2020-07-09_13h47.46.889,proactive,2020.1.2,Win32,60,5f073de81c76c3308c0e4fb3,5f0758116a759d115b9053cd,4,,,,,,hanger,,,,,,0,49,49,7,1,1,1,,,,,,,,,,,,,,,,,,,,,,,,,,,,,,,,,,,,,,,,,,,,,,,,,,,,,,,,,,,,,,,,,,,,,,,,,,,
,,,,,,,,,,stimuli/images/PICTURE_108.png,FLIGHT,5e911cfaefd95445d5a6c890,09/10/1950,2020-07-09_13h47.46.889,proactive,2020.1.2,Win32,60,5f073de81c76c3308c0e4fb3,5f0758116a759d115b9053cd,4,,,,,,calendar,,,,,,0,50,50,59,1,6,1,,,,,,,,,,,,,,,,,,,,,,,,,,,,,,,,,,,,,,,,,,,,,,,,,,,,,,,,,,,,,,,,,,,,,,,,,,,
,,,,,,,,,,stimuli/images/PICTURE_95.png,MILLER,5e911cfaefd95445d5a6c890,09/10/1950,2020-07-09_13h47.46.889,proactive,2020.1.2,Win32,60,5f073de81c76c3308c0e4fb3,5f0758116a759d115b9053cd,4,,,,,,suitcase,,,,,,0,51,51,56,1,6,1,,,,,,,,,,,,,,,,,,,,,,,,,,,,,,,,,,,,,,,,,,,,,,,,,,,,,,,,,,,,,,,,,,,,,,,,,,,
,,,,,,,,,,stimuli/images/PICTURE_383.png,WRITER,5e911cfaefd95445d5a6c890,09/10/1950,2020-07-09_13h47.46.889,proactive,2020.1.2,Win32,60,5f073de81c76c3308c0e4fb3,5f0758116a759d115b9053cd,4,,,,,,coin,,,,,,0,52,52,28,1,3,1,,,,,,,,,,,,,,,,,,,,,,,,,,,,,,,,,,,,,,,,,,,,,,,,,,,,,,,,,,,,,,,,,,,,,,,,,,,
,,,,,,,,,,stimuli/images/PICTURE_491.png,RIVER,5e911cfaefd95445d5a6c890,09/10/1950,2020-07-09_13h47.46.889,proactive,2020.1.2,Win32,60,5f073de81c76c3308c0e4fb3,5f0758116a759d115b9053cd,4,,,,,,rug,,,,,,0,53,53,6,1,1,1,,,,,,,,,,,,,,,,,,,,,,,,,,,,,,,,,,,,,,,,,,,,,,,,,,,,,,,,,,,,,,,,,,,,,,,,,,,
,,,,,,,,,,stimuli/images/PICTURE_403.png,WRITER,5e911cfaefd95445d5a6c890,09/10/1950,2020-07-09_13h47.46.889,proactive,2020.1.2,Win32,60,5f073de81c76c3308c0e4fb3,5f0758116a759d115b9053cd,4,,,,,,cathedral,,,,,,0,54,54,31,1,4,1,,,,,,,,,,,,,,,,,,,,,,,,,,,,,,,,,,,,,,,,,,,,,,,,,,,,,,,,,,,,,,,,,,,,,,,,,,,
,,,,,,,,,,stimuli/images/PICTURE_504.png,ARTIST,5e911cfaefd95445d5a6c890,09/10/1950,2020-07-09_13h47.46.889,proactive,2020.1.2,Win32,60,5f073de81c76c3308c0e4fb3,5f0758116a759d115b9053cd,4,,,,,,wheel,,,,,,0,55,55,49,1,5,1,,,,,,,,,,,,,,,,,,,,,,,,,,,,,,,,,,,,,,,,,,,,,,,,,,,,,,,,,,,,,,,,,,,,,,,,,,,
,,,,,,,,,,stimuli/images/PICTURE_297.png,RIVER,5e911cfaefd95445d5a6c890,09/10/1950,2020-07-09_13h47.46.889,proactive,2020.1.2,Win32,60,5f073de81c76c3308c0e4fb3,5f0758116a759d115b9053cd,4,,,,,,aeroplane,,,,,,0,56,56,39,1,4,1,,,,,,,,,,,,,,,,,,,,,,,,,,,,,,,,,,,,,,,,,,,,,,,,,,,,,,,,,,,,,,,,,,,,,,,,,,,
,,,,,,,,,,stimuli/images/PICTURE_491.png,GLASS,5e911cfaefd95445d5a6c890,09/10/1950,2020-07-09_13h47.46.889,proactive,2020.1.2,Win32,60,5f073de81c76c3308c0e4fb3,5f0758116a759d115b9053cd,4,,,,,,rug,,,,,,0,57,57,14,1,2,1,,,,,,,,,,,,,,,,,,,,,,,,,,,,,,,,,,,,,,,,,,,,,,,,,,,,,,,,,,,,,,,,,,,,,,,,,,,
,,,,,,,,,,stimuli/images/PICTURE_327.png,SERIES,5e911cfaefd95445d5a6c890,09/10/1950,2020-07-09_13h47.46.889,proactive,2020.1.2,Win32,60,5f073de81c76c3308c0e4fb3,5f0758116a759d115b9053cd,4,,,,,,helmet,,,,,,0,58,58,3,1,1,1,,,,,,,,,,,,,,,,,,,,,,,,,,,,,,,,,,,,,,,,,,,,,,,,,,,,,,,,,,,,,,,,,,,,,,,,,,,
,,?,0.003,0,,,,,,stimuli/images/PICTURE_95.png,MILLER,5e911cfaefd95445d5a6c890,09/10/1950,2020-07-09_13h47.46.889,proactive,2020.1.2,Win32,60,5f073de81c76c3308c0e4fb3,5f0758116a759d115b9053cd,4,,,,,,suitcase,,,,,,,,,,,6,1,0,0,0,56,1,,,,,,,,,,,,,,,,,,,,,,,,,,,,,,,,,,,,,,,,,,,,,,,,,,,,,,,,,,,,,,,,,,,,,,
,,KIND,3.634,1,,,,,,stimuli/images/PICTURE_32.png,KIND,5e911cfaefd95445d5a6c890,09/10/1950,2020-07-09_13h47.46.889,proactive,2020.1.2,Win32,60,5f073de81c76c3308c0e4fb3,5f0758116a759d115b9053cd,4,,,,,,crown,,,,,,,,,,,4,1,0,1,1,35,1,,,,,,,,,,,,,,,,,,,,,,,,,,,,,,,,,,,,,,,,,,,,,,,,,,,,,,,,,,,,,,,,,,,,,,
,,?,0.004,0,,,,,,stimuli/images/PICTURE_95.png,BOYS,5e911cfaefd95445d5a6c890,09/10/1950,2020-07-09_13h47.46.889,proactive,2020.1.2,Win32,60,5f073de81c76c3308c0e4fb3,5f0758116a759d115b9053cd,4,,,,,,suitcase,,,,,,,,,,,1,1,0,2,2,1,1,,,,,,,,,,,,,,,,,,,,,,,,,,,,,,,,,,,,,,,,,,,,,,,,,,,,,,,,,,,,,,,,,,,,,,
,,?,5.261,0,,,,,,stimuli/images/PICTURE_403.png,WRITER,5e911cfaefd95445d5a6c890,09/10/1950,2020-07-09_13h47.46.889,proactive,2020.1.2,Win32,60,5f073de81c76c3308c0e4fb3,5f0758116a759d115b9053cd,4,,,,,,cathedral,,,,,,,,,,,4,1,0,3,3,31,1,,,,,,,,,,,,,,,,,,,,,,,,,,,,,,,,,,,,,,,,,,,,,,,,,,,,,,,,,,,,,,,,,,,,,,
,,?,0.002,0,,,,,,stimuli/images/PICTURE_403.png,RIVER,5e911cfaefd95445d5a6c890,09/10/1950,2020-07-09_13h47.46.889,proactive,2020.1.2,Win32,60,5f073de81c76c3308c0e4fb3,5f0758116a759d115b9053cd,4,,,,,,cathedral,,,,,,,,,,,5,1,0,4,4,40,1,,,,,,,,,,,,,,,,,,,,,,,,,,,,,,,,,,,,,,,,,,,,,,,,,,,,,,,,,,,,,,,,,,,,,,
,,?,0.002,0,,,,,,stimuli/images/PICTURE_677.png,APPLE,5e911cfaefd95445d5a6c890,09/10/1950,2020-07-09_13h47.46.889,proactive,2020.1.2,Win32,60,5f073de81c76c3308c0e4fb3,5f0758116a759d115b9053cd,4,,,,,,map,,,,,,,,,,,5,1,0,5,5,43,1,,,,,,,,,,,,,,,,,,,,,,,,,,,,,,,,,,,,,,,,,,,,,,,,,,,,,,,,,,,,,,,,,,,,,,
,,?,0.001,0,,,,,,stimuli/images/PICTURE_340.png,LETTER,5e911cfaefd95445d5a6c890,09/10/1950,2020-07-09_13h47.46.889,proactive,2020.1.2,Win32,60,5f073de81c76c3308c0e4fb3,5f0758116a759d115b9053cd,4,,,,,,mirror,,,,,,,,,,,3,1,0,6,6,24,1,,,,,,,,,,,,,,,,,,,,,,,,,,,,,,,,,,,,,,,,,,,,,,,,,,,,,,,,,,,,,,,,,,,,,,
,,?,0.002,0,,,,,,stimuli/images/PICTURE_2.png,FLIGHT,5e911cfaefd95445d5a6c890,09/10/1950,2020-07-09_13h47.46.889,proactive,2020.1.2,Win32,60,5f073de81c76c3308c0e4fb3,5f0758116a759d115b9053cd,4,,,,,,tyre,,,,,,,,,,,2,1,0,7,7,15,1,,,,,,,,,,,,,,,,,,,,,,,,,,,,,,,,,,,,,,,,,,,,,,,,,,,,,,,,,,,,,,,,,,,,,,
,,?,0.001,0,,,,,,stimuli/images/PICTURE_467.png,POLICY,5e911cfaefd95445d5a6c890,09/10/1950,2020-07-09_13h47.46.889,proactive,2020.1.2,Win32,60,5f073de81c76c3308c0e4fb3,5f0758116a759d115b9053cd,4,,,,,,peg,,,,,,,,,,,6,1,0,8,8,53,1,,,,,,,,,,,,,,,,,,,,,,,,,,,,,,,,,,,,,,,,,,,,,,,,,,,,,,,,,,,,,,,,,,,,,,
,,?,0.002,0,,,,,,stimuli/images/PICTURE_667.png,RIVER,5e911cfaefd95445d5a6c890,09/10/1950,2020-07-09_13h47.46.889,proactive,2020.1.2,Win32,60,5f073de81c76c3308c0e4fb3,5f0758116a759d115b9053cd,4,,,,,,daisy,,,,,,,,,,,2,1,0,9,9,10,1,,,,,,,,,,,,,,,,,,,,,,,,,,,,,,,,,,,,,,,,,,,,,,,,,,,,,,,,,,,,,,,,,,,,,,
,,?,0.002,0,,,,,,stimuli/images/PICTURE_449.png,DUDE,5e911cfaefd95445d5a6c890,09/10/1950,2020-07-09_13h47.46.889,proactive,2020.1.2,Win32,60,5f073de81c76c3308c0e4fb3,5f0758116a759d115b9053cd,4,,,,,,bench,,,,,,,,,,,2,1,0,10,10,17,1,,,,,,,,,,,,,,,,,,,,,,,,,,,,,,,,,,,,,,,,,,,,,,,,,,,,,,,,,,,,,,,,,,,,,,
,,?,0.003,0,,,,,,stimuli/images/PICTURE_85.png,NATION,5e911cfaefd95445d5a6c890,09/10/1950,2020-07-09_13h47.46.889,proactive,2020.1.2,Win32,60,5f073de81c76c3308c0e4fb3,5f0758116a759d115b9053cd,4,,,,,,diamond,,,,,,,,,,,1,1,0,11,11,5,1,,,,,,,,,,,,,,,,,,,,,,,,,,,,,,,,,,,,,,,,,,,,,,,,,,,,,,,,,,,,,,,,,,,,,,
,,?,0.002,0,,,,,,stimuli/images/PICTURE_85.png,TOILET,5e911cfaefd95445d5a6c890,09/10/1950,2020-07-09_13h47.46.889,proactive,2020.1.2,Win32,60,5f073de81c76c3308c0e4fb3,5f0758116a759d115b9053cd,4,,,,,,diamond,,,,,,,,,,,5,1,0,12,12,48,1,,,,,,,,,,,,,,,,,,,,,,,,,,,,,,,,,,,,,,,,,,,,,,,,,,,,,,,,,,,,,,,,,,,,,,
,,?,0.002,0,,,,,,stimuli/images/PICTURE_42.png,BOYS,5e911cfaefd95445d5a6c890,09/10/1950,2020-07-09_13h47.46.889,proactive,2020.1.2,Win32,60,5f073de81c76c3308c0e4fb3,5f0758116a759d115b9053cd,4,,,,,,pear,,,,,,,,,,,6,1,0,13,13,55,1,,,,,,,,,,,,,,,,,,,,,,,,,,,,,,,,,,,,,,,,,,,,,,,,,,,,,,,,,,,,,,,,,,,,,,
,,?,0.001,0,,,,,,stimuli/images/PICTURE_203.png,NIGHT,5e911cfaefd95445d5a6c890,09/10/1950,2020-07-09_13h47.46.889,proactive,2020.1.2,Win32,60,5f073de81c76c3308c0e4fb3,5f0758116a759d115b9053cd,4,,,,,,cap,,,,,,,,,,,1,1,0,14,14,2,1,,,,,,,,,,,,,,,,,,,,,,,,,,,,,,,,,,,,,,,,,,,,,,,,,,,,,,,,,,,,,,,,,,,,,,
,,?,14.379,0,,,,,,stimuli/images/PICTURE_57.png,MOMENT,5e911cfaefd95445d5a6c890,09/10/1950,2020-07-09_13h47.46.889,proactive,2020.1.2,Win32,60,5f073de81c76c3308c0e4fb3,5f0758116a759d115b9053cd,4,,,,,,stamp,,,,,,,,,,,4,1,0,15,15,37,1,,,,,,,,,,,,,,,,,,,,,,,,,,,,,,,,,,,,,,,,,,,,,,,,,,,,,,,,,,,,,,,,,,,,,,
,,?,0.002,0,,,,,,stimuli/images/PICTURE_403.png,TOILET,5e911cfaefd95445d5a6c890,09/10/1950,2020-07-09_13h47.46.889,proactive,2020.1.2,Win32,60,5f073de81c76c3308c0e4fb3,5f0758116a759d115b9053cd,4,,,,,,cathedral,,,,,,,,,,,3,1,0,16,16,25,1,,,,,,,,,,,,,,,,,,,,,,,,,,,,,,,,,,,,,,,,,,,,,,,,,,,,,,,,,,,,,,,,,,,,,,
,,?,0.002,0,,,,,,stimuli/images/PICTURE_744.png,WEAPON,5e911cfaefd95445d5a6c890,09/10/1950,2020-07-09_13h47.46.889,proactive,2020.1.2,Win32,60,5f073de81c76c3308c0e4fb3,5f0758116a759d115b9053cd,4,,,,,,ring,,,,,,,,,,,6,1,0,17,17,50,1,,,,,,,,,,,,,,,,,,,,,,,,,,,,,,,,,,,,,,,,,,,,,,,,,,,,,,,,,,,,,,,,,,,,,,
