consent_key.keys,consent_key.rt,recalled,recalled_rt,recall_acc,example_recall.thisRepN,example_recall.thisTrialN,example_recall.thisN,example_recall.thisIndex,example_recall.ran,file,word,participant,please enter your date of birth (dd/mm/yyyy),date,expName,psychopyVersion,OS,frameRate,STUDY_ID,SESSION_ID,list,prac_learn_study_loop.thisRepN,prac_learn_study_loop.thisTrialN,prac_learn_study_loop.thisN,prac_learn_study_loop.thisIndex,prac_learn_study_loop.ran,image,prac_learn_test_loop.thisRepN,prac_learn_test_loop.thisTrialN,prac_learn_test_loop.thisN,prac_learn_test_loop.thisIndex,prac_learn_test_loop.ran,learn_study_loop.thisRepN,learn_study_loop.thisTrialN,learn_study_loop.thisN,learn_study_loop.thisIndex,learn_study_loop.ran,list_no,block_no,learn_test_loop.thisRepN,learn_test_loop.thisTrialN,learn_test_loop.thisN,learn_test_loop.thisIndex,learn_test_loop.ran,learn_blocks.thisRepN,learn_blocks.thisTrialN,learn_blocks.thisN,learn_blocks.thisIndex,learn_blocks.ran,block_csv,key_resp_13.keys,key_resp_13.rt,learn_blocks_loop.thisRepN,learn_blocks_loop.thisTrialN,learn_blocks_loop.thisN,learn_blocks_loop.thisIndex,learn_blocks_loop.ran,final_learn_test.thisRepN,final_learn_test.thisTrialN,final_learn_test.thisN,final_learn_test.thisIndex,final_learn_test.ran,prac_wm_test_loop.thisRepN,prac_wm_test_loop.thisTrialN,prac_wm_test_loop.thisN,prac_wm_test_loop.thisIndex,prac_wm_test_loop.ran,wm_recalled1,wm_recall_rt1,wm_probed1,wm_recall_acc1,wm_recalled2,wm_recall_rt2,wm_probed2,wm_recall_acc2,wm_recalled3,wm_recall_rt3,wm_probed3,wm_recall_acc3,wm_recalled4,wm_recall_rt4,wm_probed4,wm_recall_acc4,prac_wm_trial_loop.thisRepN,prac_wm_trial_loop.thisTrialN,prac_wm_trial_loop.thisN,prac_wm_trial_loop.thisIndex,prac_wm_trial_loop.ran,word1,image1,file1,item_type1,word2,image2,file2,item_type2,word4,image4,file4,item_type4,word3,image3,file3,item_type3,wm_test_loop.thisRepN,wm_test_loop.thisTrialN,wm_test_loop.thisN,wm_test_loop.thisIndex,wm_test_loop.ran,wm_trial_loop.thisRepN,wm_trial_loop.thisTrialN,wm_trial_loop.thisN,wm_trial_loop.thisIndex,wm_trial_loop.ran
y,45.155,TOUGH,6.434,1,0,0,0,0,1,stimuli/images/PICTURE_747.png,TOUGH,5e95d76c2d979101cf1120af,28/06/1954,2020-07-09_21h17.42.335,proactive,2020.1.2,Win32,60,5f073de81c76c3308c0e4fb3,5f0779f50f12f215eacbab34,3,,,,,,,,,,,,,,,,,,,,,,,,,,,,,,,,,,,,,,,,,,,,,,,,,,,,,,,,,,,,,,,,,,,,,,,,,,,,,,,,,,,,,,,,,,,,,
,,,,,,,,,,stimuli/images/PICTURE_658.png,DEVIL,5e95d76c2d979101cf1120af,28/06/1954,2020-07-09_21h17.42.335,proactive,2020.1.2,Win32,60,5f073de81c76c3308c0e4fb3,5f0779f50f12f215eacbab34,3,0,0,0,3,1,crow,,,,,,,,,,,,,,,,,,,,,,,,,,,,,,,,,,,,,,,,,,,,,,,,,,,,,,,,,,,,,,,,,,,,,,,,,,,,,,,,,,,,,,,
,,,,,,,,,,stimuli/images/PICTURE_378.png,LOSS,5e95d76c2d979101cf1120af,28/06/1954,2020-07-09_21h17.42.335,proactive,2020.1.2,Win32,60,5f073de81c76c3308c0e4fb3,5f0779f50f12f215eacbab34,3,0,1,1,2,1,lobster,,,,,,,,,,,,,,,,,,,,,,,,,,,,,,,,,,,,,,,,,,,,,,,,,,,,,,,,,,,,,,,,,,,,,,,,,,,,,,,,,,,,,,,
,,,,,,,,,,stimuli/images/PICTURE_697.png,KILLER,5e95d76c2d979101cf1120af,28/06/1954,2020-07-09_21h17.42.335,proactive,2020.1.2,Win32,60,5f073de81c76c3308c0e4fb3,5f0779f50f12f215eacbab34,3,0,2,2,4,1,peach,,,,,,,,,,,,,,,,,,,,,,,,,,,,,,,,,,,,,,,,,,,,,,,,,,,,,,,,,,,,,,,,,,,,,,,,,,,,,,,,,,,,,,,
,,,,,,,,,,stimuli/images/PICTURE_727.png,CELL,5e95d76c2d979101cf1120af,28/06/1954,2020-07-09_21h17.42.335,proactive,2020.1.2,Win32,60,5f073de81c76c3308c0e4fb3,5f0779f50f12f215eacbab34,3,0,3,3,1,1,hose,,,,,,,,,,,,,,,,,,,,,,,,,,,,,,,,,,,,,,,,,,,,,,,,,,,,,,,,,,,,,,,,,,,,,,,,,,,,,,,,,,,,,,,
,,GENIUS,5.705,1,,,,,,stimuli/images/PICTURE_269.png,GENIUS,5e95d76c2d979101cf1120af,28/06/1954,2020-07-09_21h17.42.335,proactive,2020.1.2,Win32,60,5f073de81c76c3308c0e4fb3,5f0779f50f12f215eacbab34,3,,,,,,chameleon,0,0,0,0,1,,,,,,,,,,,,,,,,,,,,,,,,,,,,,,,,,,,,,,,,,,,,,,,,,,,,,,,,,,,,,,,,,,,,,,,,,,,,,,,,,,
,,CELL,4.273,0,,,,,,stimuli/images/PICTURE_697.png,KILLER,5e95d76c2d979101cf1120af,28/06/1954,2020-07-09_21h17.42.335,proactive,2020.1.2,Win32,60,5f073de81c76c3308c0e4fb3,5f0779f50f12f215eacbab34,3,,,,,,peach,0,1,1,4,1,,,,,,,,,,,,,,,,,,,,,,,,,,,,,,,,,,,,,,,,,,,,,,,,,,,,,,,,,,,,,,,,,,,,,,,,,,,,,,,,,,
,,CELL,4.199,1,,,,,,stimuli/images/PICTURE_727.png,CELL,5e95d76c2d979101cf1120af,28/06/1954,2020-07-09_21h17.42.335,proactive,2020.1.2,Win32,60,5f073de81c76c3308c0e4fb3,5f0779f50f12f215eacbab34,3,,,,,,hose,0,2,2,1,1,,,,,,,,,,,,,,,,,,,,,,,,,,,,,,,,,,,,,,,,,,,,,,,,,,,,,,,,,,,,,,,,,,,,,,,,,,,,,,,,,,
,,DEVIL,3.773,0,,,,,,stimuli/images/PICTURE_378.png,LOSS,5e95d76c2d979101cf1120af,28/06/1954,2020-07-09_21h17.42.335,proactive,2020.1.2,Win32,60,5f073de81c76c3308c0e4fb3,5f0779f50f12f215eacbab34,3,,,,,,lobster,0,3,3,2,1,,,,,,,,,,,,,,,,,,,,,,,,,,,,,,,,,,,,,,,,,,,,,,,,,,,,,,,,,,,,,,,,,,,,,,,,,,,,,,,,,,
,,DEVIL,3.513,1,,,,,,stimuli/images/PICTURE_658.png,DEVIL,5e95d76c2d979101cf1120af,28/06/1954,2020-07-09_21h17.42.335,proactive,2020.1.2,Win32,60,5f073de81c76c3308c0e4fb3,5f0779f50f12f215eacbab34,3,,,,,,crow,0,4,4,3,1,,,,,,,,,,,,,,,,,,,,,,,,,,,,,,,,,,,,,,,,,,,,,,,,,,,,,,,,,,,,,,,,,,,,,,,,,,,,,,,,,,
,,,,,,,,,,stimuli/images/PICTURE_177.png,HOUSE,5e95d76c2d979101cf1120af,28/06/1954,2020-07-09_21h17.42.335,proactive,2020.1.2,Win32,60,5f073de81c76c3308c0e4fb3,5f0779f50f12f215eacbab34,3,,,,,,mushroom,,,,,,0,0,0,25,1,3,2,,,,,,,,,,,,,,,,,,,,,,,,,,,,,,,,,,,,,,,,,,,,,,,,,,,,,,,,,,,,,,,,,,,,,,,,,,,
,,,,,,,,,,stimuli/images/PICTURE_147.png,LEADER,5e95d76c2d979101cf1120af,28/06/1954,2020-07-09_21h17.42.335,proactive,2020.1.2,Win32,60,5f073de81c76c3308c0e4fb3,5f0779f50f12f215eacbab34,3,,,,,,hanger,,,,,,0,1,1,33,1,4,2,,,,,,,,,,,,,,,,,,,,,,,,,,,,,,,,,,,,,,,,,,,,,,,,,,,,,,,,,,,,,,,,,,,,,,,,,,,
,,,,,,,,,,stimuli/images/PICTURE_504.png,HOUSE,5e95d76c2d979101cf1120af,28/06/1954,2020-07-09_21h17.42.335,proactive,2020.1.2,Win32,60,5f073de81c76c3308c0e4fb3,5f0779f50f12f215eacbab34,3,,,,,,wheel,,,,,,0,2,2,36,1,4,2,,,,,,,,,,,,,,,,,,,,,,,,,,,,,,,,,,,,,,,,,,,,,,,,,,,,,,,,,,,,,,,,,,,,,,,,,,,
,,,,,,,,,,stimuli/images/PICTURE_405.png,HOUSE,5e95d76c2d979101cf1120af,28/06/1954,2020-07-09_21h17.42.335,proactive,2020.1.2,Win32,60,5f073de81c76c3308c0e4fb3,5f0779f50f12f215eacbab34,3,,,,,,anchor,,,,,,0,3,3,2,1,1,2,,,,,,,,,,,,,,,,,,,,,,,,,,,,,,,,,,,,,,,,,,,,,,,,,,,,,,,,,,,,,,,,,,,,,,,,,,,
,,,,,,,,,,stimuli/images/PICTURE_491.png,SERIES,5e95d76c2d979101cf1120af,28/06/1954,2020-07-09_21h17.42.335,proactive,2020.1.2,Win32,60,5f073de81c76c3308c0e4fb3,5f0779f50f12f215eacbab34,3,,,,,,rug,,,,,,0,4,4,39,1,4,2,,,,,,,,,,,,,,,,,,,,,,,,,,,,,,,,,,,,,,,,,,,,,,,,,,,,,,,,,,,,,,,,,,,,,,,,,,,
,,,,,,,,,,stimuli/images/PICTURE_509.png,APPLE,5e95d76c2d979101cf1120af,28/06/1954,2020-07-09_21h17.42.335,proactive,2020.1.2,Win32,60,5f073de81c76c3308c0e4fb3,5f0779f50f12f215eacbab34,3,,,,,,telephone,,,,,,0,5,5,38,1,4,2,,,,,,,,,,,,,,,,,,,,,,,,,,,,,,,,,,,,,,,,,,,,,,,,,,,,,,,,,,,,,,,,,,,,,,,,,,,
,,,,,,,,,,stimuli/images/PICTURE_208.png,SPIRIT,5e95d76c2d979101cf1120af,28/06/1954,2020-07-09_21h17.42.335,proactive,2020.1.2,Win32,60,5f073de81c76c3308c0e4fb3,5f0779f50f12f215eacbab34,3,,,,,,microphone,,,,,,0,6,6,28,1,3,2,,,,,,,,,,,,,,,,,,,,,,,,,,,,,,,,,,,,,,,,,,,,,,,,,,,,,,,,,,,,,,,,,,,,,,,,,,,
,,,,,,,,,,stimuli/images/PICTURE_654.png,COPS,5e95d76c2d979101cf1120af,28/06/1954,2020-07-09_21h17.42.335,proactive,2020.1.2,Win32,60,5f073de81c76c3308c0e4fb3,5f0779f50f12f215eacbab34,3,,,,,,pencil,,,,,,0,7,7,10,1,2,2,,,,,,,,,,,,,,,,,,,,,,,,,,,,,,,,,,,,,,,,,,,,,,,,,,,,,,,,,,,,,,,,,,,,,,,,,,,
,,,,,,,,,,stimuli/images/PICTURE_356.png,CANDY,5e95d76c2d979101cf1120af,28/06/1954,2020-07-09_21h17.42.335,proactive,2020.1.2,Win32,60,5f073de81c76c3308c0e4fb3,5f0779f50f12f215eacbab34,3,,,,,,pawn,,,,,,0,8,8,46,1,5,2,,,,,,,,,,,,,,,,,,,,,,,,,,,,,,,,,,,,,,,,,,,,,,,,,,,,,,,,,,,,,,,,,,,,,,,,,,,
,,,,,,,,,,stimuli/images/PICTURE_285.png,PRINCE,5e95d76c2d979101cf1120af,28/06/1954,2020-07-09_21h17.42.335,proactive,2020.1.2,Win32,60,5f073de81c76c3308c0e4fb3,5f0779f50f12f215eacbab34,3,,,,,,carrot,,,,,,0,9,9,20,1,3,2,,,,,,,,,,,,,,,,,,,,,,,,,,,,,,,,,,,,,,,,,,,,,,,,,,,,,,,,,,,,,,,,,,,,,,,,,,,
,,,,,,,,,,stimuli/images/PICTURE_141.png,CLIENT,5e95d76c2d979101cf1120af,28/06/1954,2020-07-09_21h17.42.335,proactive,2020.1.2,Win32,60,5f073de81c76c3308c0e4fb3,5f0779f50f12f215eacbab34,3,,,,,,sunflower,,,,,,0,10,10,30,1,4,2,,,,,,,,,,,,,,,,,,,,,,,,,,,,,,,,,,,,,,,,,,,,,,,,,,,,,,,,,,,,,,,,,,,,,,,,,,,
,,,,,,,,,,stimuli/images/PICTURE_215.png,FOOD,5e95d76c2d979101cf1120af,28/06/1954,2020-07-09_21h17.42.335,proactive,2020.1.2,Win32,60,5f073de81c76c3308c0e4fb3,5f0779f50f12f215eacbab34,3,,,,,,boot,,,,,,0,11,11,5,1,1,2,,,,,,,,,,,,,,,,,,,,,,,,,,,,,,,,,,,,,,,,,,,,,,,,,,,,,,,,,,,,,,,,,,,,,,,,,,,
,,,,,,,,,,stimuli/images/PICTURE_453.png,FAMILY,5e95d76c2d979101cf1120af,28/06/1954,2020-07-09_21h17.42.335,proactive,2020.1.2,Win32,60,5f073de81c76c3308c0e4fb3,5f0779f50f12f215eacbab34,3,,,,,,scissors,,,,,,0,12,12,48,1,5,2,,,,,,,,,,,,,,,,,,,,,,,,,,,,,,,,,,,,,,,,,,,,,,,,,,,,,,,,,,,,,,,,,,,,,,,,,,,
,,,,,,,,,,stimuli/images/PICTURE_57.png,NATION,5e95d76c2d979101cf1120af,28/06/1954,2020-07-09_21h17.42.335,proactive,2020.1.2,Win32,60,5f073de81c76c3308c0e4fb3,5f0779f50f12f215eacbab34,3,,,,,,stamp,,,,,,0,13,13,21,1,3,2,,,,,,,,,,,,,,,,,,,,,,,,,,,,,,,,,,,,,,,,,,,,,,,,,,,,,,,,,,,,,,,,,,,,,,,,,,,
,,,,,,,,,,stimuli/images/PICTURE_296.png,CLOCK,5e95d76c2d979101cf1120af,28/06/1954,2020-07-09_21h17.42.335,proactive,2020.1.2,Win32,60,5f073de81c76c3308c0e4fb3,5f0779f50f12f215eacbab34,3,,,,,,bolt,,,,,,0,14,14,18,1,2,2,,,,,,,,,,,,,,,,,,,,,,,,,,,,,,,,,,,,,,,,,,,,,,,,,,,,,,,,,,,,,,,,,,,,,,,,,,,
,,,,,,,,,,stimuli/images/PICTURE_314.png,SPEECH,5e95d76c2d979101cf1120af,28/06/1954,2020-07-09_21h17.42.335,proactive,2020.1.2,Win32,60,5f073de81c76c3308c0e4fb3,5f0779f50f12f215eacbab34,3,,,,,,perfume,,,,,,0,15,15,35,1,4,2,,,,,,,,,,,,,,,,,,,,,,,,,,,,,,,,,,,,,,,,,,,,,,,,,,,,,,,,,,,,,,,,,,,,,,,,,,,
,,,,,,,,,,stimuli/images/PICTURE_311.png,TOILET,5e95d76c2d979101cf1120af,28/06/1954,2020-07-09_21h17.42.335,proactive,2020.1.2,Win32,60,5f073de81c76c3308c0e4fb3,5f0779f50f12f215eacbab34,3,,,,,,razor,,,,,,0,16,16,54,1,6,2,,,,,,,,,,,,,,,,,,,,,,,,,,,,,,,,,,,,,,,,,,,,,,,,,,,,,,,,,,,,,,,,,,,,,,,,,,,
,,,,,,,,,,stimuli/images/PICTURE_18.png,RIVER,5e95d76c2d979101cf1120af,28/06/1954,2020-07-09_21h17.42.335,proactive,2020.1.2,Win32,60,5f073de81c76c3308c0e4fb3,5f0779f50f12f215eacbab34,3,,,,,,planet,,,,,,0,17,17,22,1,3,2,,,,,,,,,,,,,,,,,,,,,,,,,,,,,,,,,,,,,,,,,,,,,,,,,,,,,,,,,,,,,,,,,,,,,,,,,,,
,,,,,,,,,,stimuli/images/PICTURE_564.png,PLENTY,5e95d76c2d979101cf1120af,28/06/1954,2020-07-09_21h17.42.335,proactive,2020.1.2,Win32,60,5f073de81c76c3308c0e4fb3,5f0779f50f12f215eacbab34,3,,,,,,spoon,,,,,,0,18,18,11,1,2,2,,,,,,,,,,,,,,,,,,,,,,,,,,,,,,,,,,,,,,,,,,,,,,,,,,,,,,,,,,,,,,,,,,,,,,,,,,,
,,,,,,,,,,stimuli/images/PICTURE_688.png,CLOCK,5e95d76c2d979101cf1120af,28/06/1954,2020-07-09_21h17.42.335,proactive,2020.1.2,Win32,60,5f073de81c76c3308c0e4fb3,5f0779f50f12f215eacbab34,3,,,,,,runner,,,,,,0,19,19,42,1,5,2,,,,,,,,,,,,,,,,,,,,,,,,,,,,,,,,,,,,,,,,,,,,,,,,,,,,,,,,,,,,,,,,,,,,,,,,,,,
,,,,,,,,,,stimuli/images/PICTURE_655.png,SALE,5e95d76c2d979101cf1120af,28/06/1954,2020-07-09_21h17.42.335,proactive,2020.1.2,Win32,60,5f073de81c76c3308c0e4fb3,5f0779f50f12f215eacbab34,3,,,,,,megaphone,,,,,,0,20,20,57,1,6,2,,,,,,,,,,,,,,,,,,,,,,,,,,,,,,,,,,,,,,,,,,,,,,,,,,,,,,,,,,,,,,,,,,,,,,,,,,,
,,,,,,,,,,stimuli/images/PICTURE_2.png,YARD,5e95d76c2d979101cf1120af,28/06/1954,2020-07-09_21h17.42.335,proactive,2020.1.2,Win32,60,5f073de81c76c3308c0e4fb3,5f0779f50f12f215eacbab34,3,,,,,,tyre,,,,,,0,21,21,55,1,6,2,,,,,,,,,,,,,,,,,,,,,,,,,,,,,,,,,,,,,,,,,,,,,,,,,,,,,,,,,,,,,,,,,,,,,,,,,,,
,,,,,,,,,,stimuli/images/PICTURE_692.png,DUDE,5e95d76c2d979101cf1120af,28/06/1954,2020-07-09_21h17.42.335,proactive,2020.1.2,Win32,60,5f073de81c76c3308c0e4fb3,5f0779f50f12f215eacbab34,3,,,,,,cherry,,,,,,0,22,22,47,1,5,2,,,,,,,,,,,,,,,,,,,,,,,,,,,,,,,,,,,,,,,,,,,,,,,,,,,,,,,,,,,,,,,,,,,,,,,,,,,
,,,,,,,,,,stimuli/images/PICTURE_677.png,FAMILY,5e95d76c2d979101cf1120af,28/06/1954,2020-07-09_21h17.42.335,proactive,2020.1.2,Win32,60,5f073de81c76c3308c0e4fb3,5f0779f50f12f215eacbab34,3,,,,,,map,,,,,,0,23,23,53,1,6,2,,,,,,,,,,,,,,,,,,,,,,,,,,,,,,,,,,,,,,,,,,,,,,,,,,,,,,,,,,,,,,,,,,,,,,,,,,,
,,,,,,,,,,stimuli/images/PICTURE_215.png,LEADER,5e95d76c2d979101cf1120af,28/06/1954,2020-07-09_21h17.42.335,proactive,2020.1.2,Win32,60,5f073de81c76c3308c0e4fb3,5f0779f50f12f215eacbab34,3,,,,,,boot,,,,,,0,24,24,43,1,5,2,,,,,,,,,,,,,,,,,,,,,,,,,,,,,,,,,,,,,,,,,,,,,,,,,,,,,,,,,,,,,,,,,,,,,,,,,,,
,,,,,,,,,,stimuli/images/PICTURE_452.png,COPS,5e95d76c2d979101cf1120af,28/06/1954,2020-07-09_21h17.42.335,proactive,2020.1.2,Win32,60,5f073de81c76c3308c0e4fb3,5f0779f50f12f215eacbab34,3,,,,,,watch,,,,,,0,25,25,0,1,1,2,,,,,,,,,,,,,,,,,,,,,,,,,,,,,,,,,,,,,,,,,,,,,,,,,,,,,,,,,,,,,,,,,,,,,,,,,,,
,,,,,,,,,,stimuli/images/PICTURE_509.png,BATH,5e95d76c2d979101cf1120af,28/06/1954,2020-07-09_21h17.42.335,proactive,2020.1.2,Win32,60,5f073de81c76c3308c0e4fb3,5f0779f50f12f215eacbab34,3,,,,,,telephone,,,,,,0,26,26,15,1,2,2,,,,,,,,,,,,,,,,,,,,,,,,,,,,,,,,,,,,,,,,,,,,,,,,,,,,,,,,,,,,,,,,,,,,,,,,,,,
,,,,,,,,,,stimuli/images/PICTURE_215.png,BOYS,5e95d76c2d979101cf1120af,28/06/1954,2020-07-09_21h17.42.335,proactive,2020.1.2,Win32,60,5f073de81c76c3308c0e4fb3,5f0779f50f12f215eacbab34,3,,,,,,boot,,,,,,0,27,27,24,1,3,2,,,,,,,,,,,,,,,,,,,,,,,,,,,,,,,,,,,,,,,,,,,,,,,,,,,,,,,,,,,,,,,,,,,,,,,,,,,
,,,,,,,,,,stimuli/images/PICTURE_405.png,JUNGLE,5e95d76c2d979101cf1120af,28/06/1954,2020-07-09_21h17.42.335,proactive,2020.1.2,Win32,60,5f073de81c76c3308c0e4fb3,5f0779f50f12f215eacbab34,3,,,,,,anchor,,,,,,0,28,28,58,1,6,2,,,,,,,,,,,,,,,,,,,,,,,,,,,,,,,,,,,,,,,,,,,,,,,,,,,,,,,,,,,,,,,,,,,,,,,,,,,
,,,,,,,,,,stimuli/images/PICTURE_348.png,DUDE,5e95d76c2d979101cf1120af,28/06/1954,2020-07-09_21h17.42.335,proactive,2020.1.2,Win32,60,5f073de81c76c3308c0e4fb3,5f0779f50f12f215eacbab34,3,,,,,,pepper,,,,,,0,29,29,59,1,6,2,,,,,,,,,,,,,,,,,,,,,,,,,,,,,,,,,,,,,,,,,,,,,,,,,,,,,,,,,,,,,,,,,,,,,,,,,,,
,,,,,,,,,,stimuli/images/PICTURE_285.png,WRITER,5e95d76c2d979101cf1120af,28/06/1954,2020-07-09_21h17.42.335,proactive,2020.1.2,Win32,60,5f073de81c76c3308c0e4fb3,5f0779f50f12f215eacbab34,3,,,,,,carrot,,,,,,0,30,30,6,1,1,2,,,,,,,,,,,,,,,,,,,,,,,,,,,,,,,,,,,,,,,,,,,,,,,,,,,,,,,,,,,,,,,,,,,,,,,,,,,
,,,,,,,,,,stimuli/images/PICTURE_405.png,JUNGLE,5e95d76c2d979101cf1120af,28/06/1954,2020-07-09_21h17.42.335,proactive,2020.1.2,Win32,60,5f073de81c76c3308c0e4fb3,5f0779f50f12f215eacbab34,3,,,,,,anchor,,,,,,0,31,31,13,1,2,2,,,,,,,,,,,,,,,,,,,,,,,,,,,,,,,,,,,,,,,,,,,,,,,,,,,,,,,,,,,,,,,,,,,,,,,,,,,
,,,,,,,,,,stimuli/images/PICTURE_487.png,ROOF,5e95d76c2d979101cf1120af,28/06/1954,2020-07-09_21h17.42.335,proactive,2020.1.2,Win32,60,5f073de81c76c3308c0e4fb3,5f0779f50f12f215eacbab34,3,,,,,,basket,,,,,,0,32,32,50,1,6,2,,,,,,,,,,,,,,,,,,,,,,,,,,,,,,,,,,,,,,,,,,,,,,,,,,,,,,,,,,,,,,,,,,,,,,,,,,,
,,,,,,,,,,stimuli/images/PICTURE_470.png,BEAUTY,5e95d76c2d979101cf1120af,28/06/1954,2020-07-09_21h17.42.335,proactive,2020.1.2,Win32,60,5f073de81c76c3308c0e4fb3,5f0779f50f12f215eacbab34,3,,,,,,motorbike,,,,,,0,33,33,26,1,3,2,,,,,,,,,,,,,,,,,,,,,,,,,,,,,,,,,,,,,,,,,,,,,,,,,,,,,,,,,,,,,,,,,,,,,,,,,,,
,,,,,,,,,,stimuli/images/PICTURE_93.png,GIRL,5e95d76c2d979101cf1120af,28/06/1954,2020-07-09_21h17.42.335,proactive,2020.1.2,Win32,60,5f073de81c76c3308c0e4fb3,5f0779f50f12f215eacbab34,3,,,,,,skateboard,,,,,,0,34,34,31,1,4,2,,,,,,,,,,,,,,,,,,,,,,,,,,,,,,,,,,,,,,,,,,,,,,,,,,,,,,,,,,,,,,,,,,,,,,,,,,,
,,,,,,,,,,stimuli/images/PICTURE_327.png,LEADER,5e95d76c2d979101cf1120af,28/06/1954,2020-07-09_21h17.42.335,proactive,2020.1.2,Win32,60,5f073de81c76c3308c0e4fb3,5f0779f50f12f215eacbab34,3,,,,,,helmet,,,,,,0,35,35,17,1,2,2,,,,,,,,,,,,,,,,,,,,,,,,,,,,,,,,,,,,,,,,,,,,,,,,,,,,,,,,,,,,,,,,,,,,,,,,,,,
,,,,,,,,,,stimuli/images/PICTURE_403.png,FAMILY,5e95d76c2d979101cf1120af,28/06/1954,2020-07-09_21h17.42.335,proactive,2020.1.2,Win32,60,5f073de81c76c3308c0e4fb3,5f0779f50f12f215eacbab34,3,,,,,,cathedral,,,,,,0,36,36,9,1,1,2,,,,,,,,,,,,,,,,,,,,,,,,,,,,,,,,,,,,,,,,,,,,,,,,,,,,,,,,,,,,,,,,,,,,,,,,,,,
,,,,,,,,,,stimuli/images/PICTURE_487.png,POLICY,5e95d76c2d979101cf1120af,28/06/1954,2020-07-09_21h17.42.335,proactive,2020.1.2,Win32,60,5f073de81c76c3308c0e4fb3,5f0779f50f12f215eacbab34,3,,,,,,basket,,,,,,0,37,37,34,1,4,2,,,,,,,,,,,,,,,,,,,,,,,,,,,,,,,,,,,,,,,,,,,,,,,,,,,,,,,,,,,,,,,,,,,,,,,,,,,
,,,,,,,,,,stimuli/images/PICTURE_708.png,VALLEY,5e95d76c2d979101cf1120af,28/06/1954,2020-07-09_21h17.42.335,proactive,2020.1.2,Win32,60,5f073de81c76c3308c0e4fb3,5f0779f50f12f215eacbab34,3,,,,,,monkey,,,,,,0,38,38,45,1,5,2,,,,,,,,,,,,,,,,,,,,,,,,,,,,,,,,,,,,,,,,,,,,,,,,,,,,,,,,,,,,,,,,,,,,,,,,,,,
,,,,,,,,,,stimuli/images/PICTURE_654.png,YEAR,5e95d76c2d979101cf1120af,28/06/1954,2020-07-09_21h17.42.335,proactive,2020.1.2,Win32,60,5f073de81c76c3308c0e4fb3,5f0779f50f12f215eacbab34,3,,,,,,pencil,,,,,,0,39,39,41,1,5,2,,,,,,,,,,,,,,,,,,,,,,,,,,,,,,,,,,,,,,,,,,,,,,,,,,,,,,,,,,,,,,,,,,,,,,,,,,,
,,,,,,,,,,stimuli/images/PICTURE_68.png,KIND,5e95d76c2d979101cf1120af,28/06/1954,2020-07-09_21h17.42.335,proactive,2020.1.2,Win32,60,5f073de81c76c3308c0e4fb3,5f0779f50f12f215eacbab34,3,,,,,,candle,,,,,,0,40,40,23,1,3,2,,,,,,,,,,,,,,,,,,,,,,,,,,,,,,,,,,,,,,,,,,,,,,,,,,,,,,,,,,,,,,,,,,,,,,,,,,,
,,,,,,,,,,stimuli/images/PICTURE_33.png,COPS,5e95d76c2d979101cf1120af,28/06/1954,2020-07-09_21h17.42.335,proactive,2020.1.2,Win32,60,5f073de81c76c3308c0e4fb3,5f0779f50f12f215eacbab34,3,,,,,,frame,,,,,,0,41,41,29,1,3,2,,,,,,,,,,,,,,,,,,,,,,,,,,,,,,,,,,,,,,,,,,,,,,,,,,,,,,,,,,,,,,,,,,,,,,,,,,,
,,,,,,,,,,stimuli/images/PICTURE_677.png,PHOTO,5e95d76c2d979101cf1120af,28/06/1954,2020-07-09_21h17.42.335,proactive,2020.1.2,Win32,60,5f073de81c76c3308c0e4fb3,5f0779f50f12f215eacbab34,3,,,,,,map,,,,,,0,42,42,14,1,2,2,,,,,,,,,,,,,,,,,,,,,,,,,,,,,,,,,,,,,,,,,,,,,,,,,,,,,,,,,,,,,,,,,,,,,,,,,,,
,,,,,,,,,,stimuli/images/PICTURE_348.png,TOILET,5e95d76c2d979101cf1120af,28/06/1954,2020-07-09_21h17.42.335,proactive,2020.1.2,Win32,60,5f073de81c76c3308c0e4fb3,5f0779f50f12f215eacbab34,3,,,,,,pepper,,,,,,0,43,43,4,1,1,2,,,,,,,,,,,,,,,,,,,,,,,,,,,,,,,,,,,,,,,,,,,,,,,,,,,,,,,,,,,,,,,,,,,,,,,,,,,
,,,,,,,,,,stimuli/images/PICTURE_297.png,BODY,5e95d76c2d979101cf1120af,28/06/1954,2020-07-09_21h17.42.335,proactive,2020.1.2,Win32,60,5f073de81c76c3308c0e4fb3,5f0779f50f12f215eacbab34,3,,,,,,aeroplane,,,,,,0,44,44,51,1,6,2,,,,,,,,,,,,,,,,,,,,,,,,,,,,,,,,,,,,,,,,,,,,,,,,,,,,,,,,,,,,,,,,,,,,,,,,,,,
,,,,,,,,,,stimuli/images/PICTURE_311.png,FLESH,5e95d76c2d979101cf1120af,28/06/1954,2020-07-09_21h17.42.335,proactive,2020.1.2,Win32,60,5f073de81c76c3308c0e4fb3,5f0779f50f12f215eacbab34,3,,,,,,razor,,,,,,0,45,45,3,1,1,2,,,,,,,,,,,,,,,,,,,,,,,,,,,,,,,,,,,,,,,,,,,,,,,,,,,,,,,,,,,,,,,,,,,,,,,,,,,
,,,,,,,,,,stimuli/images/PICTURE_95.png,NIGHT,5e95d76c2d979101cf1120af,28/06/1954,2020-07-09_21h17.42.335,proactive,2020.1.2,Win32,60,5f073de81c76c3308c0e4fb3,5f0779f50f12f215eacbab34,3,,,,,,suitcase,,,,,,0,46,46,37,1,4,2,,,,,,,,,,,,,,,,,,,,,,,,,,,,,,,,,,,,,,,,,,,,,,,,,,,,,,,,,,,,,,,,,,,,,,,,,,,
,,,,,,,,,,stimuli/images/PICTURE_57.png,CANDY,5e95d76c2d979101cf1120af,28/06/1954,2020-07-09_21h17.42.335,proactive,2020.1.2,Win32,60,5f073de81c76c3308c0e4fb3,5f0779f50f12f215eacbab34,3,,,,,,stamp,,,,,,0,47,47,52,1,6,2,,,,,,,,,,,,,,,,,,,,,,,,,,,,,,,,,,,,,,,,,,,,,,,,,,,,,,,,,,,,,,,,,,,,,,,,,,,
,,,,,,,,,,stimuli/images/PICTURE_2.png,AREA,5e95d76c2d979101cf1120af,28/06/1954,2020-07-09_21h17.42.335,proactive,2020.1.2,Win32,60,5f073de81c76c3308c0e4fb3,5f0779f50f12f215eacbab34,3,,,,,,tyre,,,,,,0,48,48,32,1,4,2,,,,,,,,,,,,,,,,,,,,,,,,,,,,,,,,,,,,,,,,,,,,,,,,,,,,,,,,,,,,,,,,,,,,,,,,,,,
,,,,,,,,,,stimuli/images/PICTURE_667.png,GLASS,5e95d76c2d979101cf1120af,28/06/1954,2020-07-09_21h17.42.335,proactive,2020.1.2,Win32,60,5f073de81c76c3308c0e4fb3,5f0779f50f12f215eacbab34,3,,,,,,daisy,,,,,,0,49,49,27,1,3,2,,,,,,,,,,,,,,,,,,,,,,,,,,,,,,,,,,,,,,,,,,,,,,,,,,,,,,,,,,,,,,,,,,,,,,,,,,,
,,,,,,,,,,stimuli/images/PICTURE_160.png,HOTEL,5e95d76c2d979101cf1120af,28/06/1954,2020-07-09_21h17.42.335,proactive,2020.1.2,Win32,60,5f073de81c76c3308c0e4fb3,5f0779f50f12f215eacbab34,3,,,,,,wheelbarrow,,,,,,0,50,50,16,1,2,2,,,,,,,,,,,,,,,,,,,,,,,,,,,,,,,,,,,,,,,,,,,,,,,,,,,,,,,,,,,,,,,,,,,,,,,,,,,
,,,,,,,,,,stimuli/images/PICTURE_2.png,JUNGLE,5e95d76c2d979101cf1120af,28/06/1954,2020-07-09_21h17.42.335,proactive,2020.1.2,Win32,60,5f073de81c76c3308c0e4fb3,5f0779f50f12f215eacbab34,3,,,,,,tyre,,,,,,0,51,51,1,1,1,2,,,,,,,,,,,,,,,,,,,,,,,,,,,,,,,,,,,,,,,,,,,,,,,,,,,,,,,,,,,,,,,,,,,,,,,,,,,
,,,,,,,,,,stimuli/images/PICTURE_123.png,SALE,5e95d76c2d979101cf1120af,28/06/1954,2020-07-09_21h17.42.335,proactive,2020.1.2,Win32,60,5f073de81c76c3308c0e4fb3,5f0779f50f12f215eacbab34,3,,,,,,dart,,,,,,0,52,52,8,1,1,2,,,,,,,,,,,,,,,,,,,,,,,,,,,,,,,,,,,,,,,,,,,,,,,,,,,,,,,,,,,,,,,,,,,,,,,,,,,
,,,,,,,,,,stimuli/images/PICTURE_255.png,PENNY,5e95d76c2d979101cf1120af,28/06/1954,2020-07-09_21h17.42.335,proactive,2020.1.2,Win32,60,5f073de81c76c3308c0e4fb3,5f0779f50f12f215eacbab34,3,,,,,,shovel,,,,,,0,53,53,19,1,2,2,,,,,,,,,,,,,,,,,,,,,,,,,,,,,,,,,,,,,,,,,,,,,,,,,,,,,,,,,,,,,,,,,,,,,,,,,,,
,,,,,,,,,,stimuli/images/PICTURE_509.png,MILLER,5e95d76c2d979101cf1120af,28/06/1954,2020-07-09_21h17.42.335,proactive,2020.1.2,Win32,60,5f073de81c76c3308c0e4fb3,5f0779f50f12f215eacbab34,3,,,,,,telephone,,,,,,0,54,54,49,1,5,2,,,,,,,,,,,,,,,,,,,,,,,,,,,,,,,,,,,,,,,,,,,,,,,,,,,,,,,,,,,,,,,,,,,,,,,,,,,
,,,,,,,,,,stimuli/images/PICTURE_57.png,CASINO,5e95d76c2d979101cf1120af,28/06/1954,2020-07-09_21h17.42.335,proactive,2020.1.2,Win32,60,5f073de81c76c3308c0e4fb3,5f0779f50f12f215eacbab34,3,,,,,,stamp,,,,,,0,55,55,12,1,2,2,,,,,,,,,,,,,,,,,,,,,,,,,,,,,,,,,,,,,,,,,,,,,,,,,,,,,,,,,,,,,,,,,,,,,,,,,,,
,,,,,,,,,,stimuli/images/PICTURE_470.png,MOMENT,5e95d76c2d979101cf1120af,28/06/1954,2020-07-09_21h17.42.335,proactive,2020.1.2,Win32,60,5f073de81c76c3308c0e4fb3,5f0779f50f12f215eacbab34,3,,,,,,motorbike,,,,,,0,56,56,40,1,5,2,,,,,,,,,,,,,,,,,,,,,,,,,,,,,,,,,,,,,,,,,,,,,,,,,,,,,,,,,,,,,,,,,,,,,,,,,,,
,,,,,,,,,,stimuli/images/PICTURE_750.png,POLICY,5e95d76c2d979101cf1120af,28/06/1954,2020-07-09_21h17.42.335,proactive,2020.1.2,Win32,60,5f073de81c76c3308c0e4fb3,5f0779f50f12f215eacbab34,3,,,,,,kettle,,,,,,0,57,57,44,1,5,2,,,,,,,,,,,,,,,,,,,,,,,,,,,,,,,,,,,,,,,,,,,,,,,,,,,,,,,,,,,,,,,,,,,,,,,,,,,
,,,,,,,,,,stimuli/images/PICTURE_509.png,SHOTS,5e95d76c2d979101cf1120af,28/06/1954,2020-07-09_21h17.42.335,proactive,2020.1.2,Win32,60,5f073de81c76c3308c0e4fb3,5f0779f50f12f215eacbab34,3,,,,,,telephone,,,,,,0,58,58,7,1,1,2,,,,,,,,,,,,,,,,,,,,,,,,,,,,,,,,,,,,,,,,,,,,,,,,,,,,,,,,,,,,,,,,,,,,,,,,,,,
,,?,0.007,0,,,,,,stimuli/images/PICTURE_509.png,BATH,5e95d76c2d979101cf1120af,28/06/1954,2020-07-09_21h17.42.335,proactive,2020.1.2,Win32,60,5f073de81c76c3308c0e4fb3,5f0779f50f12f215eacbab34,3,,,,,,telephone,,,,,,,,,,,2,2,0,0,0,15,1,,,,,,,,,,,,,,,,,,,,,,,,,,,,,,,,,,,,,,,,,,,,,,,,,,,,,,,,,,,,,,,,,,,,,,
,,GLASS,6.506,1,,,,,,stimuli/images/PICTURE_667.png,GLASS,5e95d76c2d979101cf1120af,28/06/1954,2020-07-09_21h17.42.335,proactive,2020.1.2,Win32,60,5f073de81c76c3308c0e4fb3,5f0779f50f12f215eacbab34,3,,,,,,daisy,,,,,,,,,,,3,2,0,1,1,27,1,,,,,,,,,,,,,,,,,,,,,,,,,,,,,,,,,,,,,,,,,,,,,,,,,,,,,,,,,,,,,,,,,,,,,,
,,?,0.002,0,,,,,,stimuli/images/PICTURE_677.png,FAMILY,5e95d76c2d979101cf1120af,28/06/1954,2020-07-09_21h17.42.335,proactive,2020.1.2,Win32,60,5f073de81c76c3308c0e4fb3,5f0779f50f12f215eacbab34,3,,,,,,map,,,,,,,,,,,6,2,0,2,2,53,1,,,,,,,,,,,,,,,,,,,,,,,,,,,,,,,,,,,,,,,,,,,,,,,,,,,,,,,,,,,,,,,,,,,,,,
,,?,0.004,0,,,,,,stimuli/images/PICTURE_215.png,LEADER,5e95d76c2d979101cf1120af,28/06/1954,2020-07-09_21h17.42.335,proactive,2020.1.2,Win32,60,5f073de81c76c3308c0e4fb3,5f0779f50f12f215eacbab34,3,,,,,,boot,,,,,,,,,,,5,2,0,3,3,43,1,,,,,,,,,,,,,,,,,,,,,,,,,,,,,,,,,,,,,,,,,,,,,,,,,,,,,,,,,,,,,,,,,,,,,,
,,?,0.003,0,,,,,,stimuli/images/PICTURE_708.png,VALLEY,5e95d76c2d979101cf1120af,28/06/1954,2020-07-09_21h17.42.335,proactive,2020.1.2,Win32,60,5f073de81c76c3308c0e4fb3,5f0779f50f12f215eacbab34,3,,,,,,monkey,,,,,,,,,,,5,2,0,4,4,45,1,,,,,,,,,,,,,,,,,,,,,,,,,,,,,,,,,,,,,,,,,,,,,,,,,,,,,,,,,,,,,,,,,,,,,,
,,?,0.004,0,,,,,,stimuli/images/PICTURE_405.png,JUNGLE,5e95d76c2d979101cf1120af,28/06/1954,2020-07-09_21h17.42.335,proactive,2020.1.2,Win32,60,5f073de81c76c3308c0e4fb3,5f0779f50f12f215eacbab34,3,,,,,,anchor,,,,,,,,,,,6,2,0,5,5,58,1,,,,,,,,,,,,,,,,,,,,,,,,,,,,,,,,,,,,,,,,,,,,,,,,,,,,,,,,,,,,,,,,,,,,,,
,,?,0.001,0,,,,,,stimuli/images/PICTURE_2.png,YARD,5e95d76c2d979101cf1120af,28/06/1954,2020-07-09_21h17.42.335,proactive,2020.1.2,Win32,60,5f073de81c76c3308c0e4fb3,5f0779f50f12f215eacbab34,3,,,,,,tyre,,,,,,,,,,,6,2,0,6,6,55,1,,,,,,,,,,,,,,,,,,,,,,,,,,,,,,,,,,,,,,,,,,,,,,,,,,,,,,,,,,,,,,,,,,,,,,
,,?,0.002,0,,,,,,stimuli/images/PICTURE_688.png,CLOCK,5e95d76c2d979101cf1120af,28/06/1954,2020-07-09_21h17.42.335,proactive,2020.1.2,Win32,60,5f073de81c76c3308c0e4fb3,5f0779f50f12f215eacbab34,3,,,,,,runner,,,,,,,,,,,5,2,0,7,7,42,1,,,,,,,,,,,,,,,,,,,,,,,,,,,,,,,,,,,,,,,,,,,,,,,,,,,,,,,,,,,,,,,,,,,,,,
,,?,0.003,0,,,,,,stimuli/images/PICTURE_311.png,FLESH,5e95d76c2d979101cf1120af,28/06/1954,2020-07-09_21h17.42.335,proactive,2020.1.2,Win32,60,5f073de81c76c3308c0e4fb3,5f0779f50f12f215eacbab34,3,,,,,,razor,,,,,,,,,,,1,2,0,8,8,3,1,,,,,,,,,,,,,,,,,,,,,,,,,,,,,,,,,,,,,,,,,,,,,,,,,,,,,,,,,,,,,,,,,,,,,,
,,?,0.003,0,,,,,,stimuli/images/PICTURE_32.png,LETTER,5e95d76c2d979101cf1120af,28/06/1954,2020-07-09_21h17.42.335,proactive,2020.1.2,Win32,60,5f073de81c76c3308c0e4fb3,5f0779f50f12f215eacbab34,3,,,,,,crown,,,,,,,,,,,6,2,0,9,9,56,1,,,,,,,,,,,,,,,,,,,,,,,,,,,,,,,,,,,,,,,,,,,,,,,,,,,,,,,,,,,,,,,,,,,,,,
,,?,0.004,0,,,,,,stimuli/images/PICTURE_93.png,GIRL,5e95d76c2d979101cf1120af,28/06/1954,2020-07-09_21h17.42.335,proactive,2020.1.2,Win32,60,5f073de81c76c3308c0e4fb3,5f0779f50f12f215eacbab34,3,,,,,,skateboard,,,,,,,,,,,4,2,0,10,10,31,1,,,,,,,,,,,,,,,,,,,,,,,,,,,,,,,,,,,,,,,,,,,,,,,,,,,,,,,,,,,,,,,,,,,,,,
,,?,0.002,0,,,,,,stimuli/images/PICTURE_405.png,JUNGLE,5e95d76c2d979101cf1120af,28/06/1954,2020-07-09_21h17.42.335,proactive,2020.1.2,Win32,60,5f073de81c76c3308c0e4fb3,5f0779f50f12f215eacbab34,3,,,,,,anchor,,,,,,,,,,,2,2,0,11,11,13,1,,,,,,,,,,,,,,,,,,,,,,,,,,,,,,,,,,,,,,,,,,,,,,,,,,,,,,,,,,,,,,,,,,,,,,
,,?,0.01,0,,,,,,stimuli/images/PICTURE_655.png,SALE,5e95d76c2d979101cf1120af,28/06/1954,2020-07-09_21h17.42.335,proactive,2020.1.2,Win32,60,5f073de81c76c3308c0e4fb3,5f0779f50f12f215eacbab34,3,,,,,,megaphone,,,,,,,,,,,6,2,0,12,12,57,1,,,,,,,,,,,,,,,,,,,,,,,,,,,,,,,,,,,,,,,,,,,,,,,,,,,,,,,,,,,,,,,,,,,,,,
,,?,0.002,0,,,,,,stimuli/images/PICTURE_314.png,SPEECH,5e95d76c2d979101cf1120af,28/06/1954,2020-07-09_21h17.42.335,proactive,2020.1.2,Win32,60,5f073de81c76c3308c0e4fb3,5f0779f50f12f215eacbab34,3,,,,,,perfume,,,,,,,,,,,4,2,0,13,13,35,1,,,,,,,,,,,,,,,,,,,,,,,,,,,,,,,,,,,,,,,,,,,,,,,,,,,,,,,,,,,,,,,,,,,,,,
,,?,0.003,0,,,,,,stimuli/images/PICTURE_509.png,SHOTS,5e95d76c2d979101cf1120af,28/06/1954,2020-07-09_21h17.42.335,proactive,2020.1.2,Win32,60,5f073de81c76c3308c0e4fb3,5f0779f50f12f215eacbab34,3,,,,,,telephone,,,,,,,,,,,1,2,0,14,14,7,1,,,,,,,,,,,,,,,,,,,,,,,,,,,,,,,,,,,,,,,,,,,,,,,,,,,,,,,,,,,,,,,,,,,,,,
,,?,0.004,0,,,,,,stimuli/images/PICTURE_564.png,PLENTY,5e95d76c2d979101cf1120af,28/06/1954,2020-07-09_21h17.42.335,proactive,2020.1.2,Win32,60,5f073de81c76c3308c0e4fb3,5f0779f50f12f215eacbab34,3,,,,,,spoon,,,,,,,,,,,2,2,0,15,15,11,1,,,,,,,,,,,,,,,,,,,,,,,,,,,,,,,,,,,,,,,,,,,,,,,,,,,,,,,,,,,,,,,,,,,,,,
,,?,0.002,0,,,,,,stimuli/images/PICTURE_160.png,HOTEL,5e95d76c2d979101cf1120af,28/06/1954,2020-07-09_21h17.42.335,proactive,2020.1.2,Win32,60,5f073de81c76c3308c0e4fb3,5f0779f50f12f215eacbab34,3,,,,,,wheelbarrow,,,,,,,,,,,2,2,0,16,16,16,1,,,,,,,,,,,,,,,,,,,,,,,,,,,,,,,,,,,,,,,,,,,,,,,,,,,,,,,,,,,,,,,,,,,,,,
,,PRINCE,6.468,1,,,,,,stimuli/images/PICTURE_285.png,PRINCE,5e95d76c2d979101cf1120af,28/06/1954,2020-07-09_21h17.42.335,proactive,2020.1.2,Win32,60,5f073de81c76c3308c0e4fb3,5f0779f50f12f215eacbab34,3,,,,,,carrot,,,,,,,,,,,3,2,0,17,17,20,1,,,,,,,,,,,,,,,,,,,,,,,,,,,,,,,,,,,,,,,,,,,,,,,,,,,,,,,,,,,,,,,,,,,,,,
,,?,0.009,0,,,,,,stimuli/images/PICTURE_2.png,AREA,5e95d76c2d979101cf1120af,28/06/1954,2020-07-09_21h17.42.335,proactive,2020.1.2,Win32,60,5f073de81c76c3308c0e4fb3,5f0779f50f12f215eacbab34,3,,,,,,tyre,,,,,,,,,,,4,2,0,18,18,32,1,,,,,,,,,,,,,,,,,,,,,,,,,,,,,,,,,,,,,,,,,,,,,,,,,,,,,,,,,,,,,,,,,,,,,,
,,?,0.005,0,,,,,,stimuli/images/PICTURE_123.png,SALE,5e95d76c2d979101cf1120af,28/06/1954,2020-07-09_21h17.42.335,proactive,2020.1.2,Win32,60,5f073de81c76c3308c0e4fb3,5f0779f50f12f215eacbab34,3,,,,,,dart,,,,,,,,,,,1,2,0,19,19,8,1,,,,,,,,,,,,,,,,,,,,,,,,,,,,,,,,,,,,,,,,,,,,,,,,,,,,,,,,,,,,,,,,,,,,,,
,,?,0.003,0,,,,,,stimuli/images/PICTURE_692.png,DUDE,5e95d76c2d979101cf1120af,28/06/1954,2020-07-09_21h17.42.335,proactive,2020.1.2,Win32,60,5f073de81c76c3308c0e4fb3,5f0779f50f12f215eacbab34,3,,,,,,cherry,,,,,,,,,,,5,2,0,20,20,47,1,,,,,,,,,,,,,,,,,,,,,,,,,,,,,,,,,,,,,,,,,,,,,,,,,,,,,,,,,,,,,,,,,,,,,,
,,?,0.004,0,,,,,,stimuli/images/PICTURE_296.png,CLOCK,5e95d76c2d979101cf1120af,28/06/1954,2020-07-09_21h17.42.335,proactive,2020.1.2,Win32,60,5f073de81c76c3308c0e4fb3,5f0779f50f12f215eacbab34,3,,,,,,bolt,,,,,,,,,,,2,2,0,21,21,18,1,,,,,,,,,,,,,,,,,,,,,,,,,,,,,,,,,,,,,,,,,,,,,,,,,,,,,,,,,,,,,,,,,,,,,,
,,?,0.004,0,,,,,,stimuli/images/PICTURE_327.png,LEADER,5e95d76c2d979101cf1120af,28/06/1954,2020-07-09_21h17.42.335,proactive,2020.1.2,Win32,60,5f073de81c76c3308c0e4fb3,5f0779f50f12f215eacbab34,3,,,,,,helmet,,,,,,,,,,,2,2,0,22,22,17,1,,,,,,,,,,,,,,,,,,,,,,,,,,,,,,,,,,,,,,,,,,,,,,,,,,,,,,,,,,,,,,,,,,,,,,
,,?,0.005,0,,,,,,stimuli/images/PICTURE_470.png,MOMENT,5e95d76c2d979101cf1120af,28/06/1954,2020-07-09_21h17.42.335,proactive,2020.1.2,Win32,60,5f073de81c76c3308c0e4fb3,5f0779f50f12f215eacbab34,3,,,,,,motorbike,,,,,,,,,,,5,2,0,23,23,40,1,,,,,,,,,,,,,,,,,,,,,,,,,,,,,,,,,,,,,,,,,,,,,,,,,,,,,,,,,,,,,,,,,,,,,,
,,?,0.004,0,,,,,,stimuli/images/PICTURE_285.png,WRITER,5e95d76c2d979101cf1120af,28/06/1954,2020-07-09_21h17.42.335,proactive,2020.1.2,Win32,60,5f073de81c76c3308c0e4fb3,5f0779f50f12f215eacbab34,3,,,,,,carrot,,,,,,,,,,,1,2,0,24,24,6,1,,,,,,,,,,,,,,,,,,,,,,,,,,,,,,,,,,,,,,,,,,,,,,,,,,,,,,,,,,,,,,,,,,,,,,
,,?,0.006,0,,,,,,stimuli/images/PICTURE_487.png,POLICY,5e95d76c2d979101cf1120af,28/06/1954,2020-07-09_21h17.42.335,proactive,2020.1.2,Win32,60,5f073de81c76c3308c0e4fb3,5f0779f50f12f215eacbab34,3,,,,,,basket,,,,,,,,,,,4,2,0,25,25,34,1,,,,,,,,,,,,,,,,,,,,,,,,,,,,,,,,,,,,,,,,,,,,,,,,,,,,,,,,,,,,,,,,,,,,,,
,,?,0.006,0,,,,,,stimuli/images/PICTURE_255.png,PENNY,5e95d76c2d979101cf1120af,28/06/1954,2020-07-09_21h17.42.335,proactive,2020.1.2,Win32,60,5f073de81c76c3308c0e4fb3,5f0779f50f12f215eacbab34,3,,,,,,shovel,,,,,,,,,,,2,2,0,26,26,19,1,,,,,,,,,,,,,,,,,,,,,,,,,,,,,,,,,,,,,,,,,,,,,,,,,,,,,,,,,,,,,,,,,,,,,,
,,?,0.004,0,,,,,,stimuli/images/PICTURE_654.png,YEAR,5e95d76c2d979101cf1120af,28/06/1954,2020-07-09_21h17.42.335,proactive,2020.1.2,Win32,60,5f073de81c76c3308c0e4fb3,5f0779f50f12f215eacbab34,3,,,,,,pencil,,,,,,,,,,,5,2,0,27,27,41,1,,,,,,,,,,,,,,,,,,,,,,,,,,,,,,,,,,,,,,,,,,,,,,,,,,,,,,,,,,,,,,,,,,,,,,
,,RIVER,9.74,0,,,,,,stimuli/images/PICTURE_208.png,SPIRIT,5e95d76c2d979101cf1120af,28/06/1954,2020-07-09_21h17.42.335,proactive,2020.1.2,Win32,60,5f073de81c76c3308c0e4fb3,5f0779f50f12f215eacbab34,3,,,,,,microphone,,,,,,,,,,,3,2,0,28,28,28,1,,,,,,,,,,,,,,,,,,,,,,,,,,,,,,,,,,,,,,,,,,,,,,,,,,,,,,,,,,,,,,,,,,,,,,
,,?,0.011,0,,,,,,stimuli/images/PICTURE_750.png,POLICY,5e95d76c2d979101cf1120af,28/06/1954,2020-07-09_21h17.42.335,proactive,2020.1.2,Win32,60,5f073de81c76c3308c0e4fb3,5f0779f50f12f215eacbab34,3,,,,,,kettle,,,,,,,,,,,5,2,0,29,29,44,1,,,,,,,,,,,,,,,,,,,,,,,,,,,,,,,,,,,,,,,,,,,,,,,,,,,,,,,,,,,,,,,,,,,,,,
,,?,0.003,0,,,,,,stimuli/images/PICTURE_509.png,MILLER,5e95d76c2d979101cf1120af,28/06/1954,2020-07-09_21h17.42.335,proactive,2020.1.2,Win32,60,5f073de81c76c3308c0e4fb3,5f0779f50f12f215eacbab34,3,,,,,,telephone,,,,,,,,,,,5,2,0,30,30,49,1,,,,,,,,,,,,,,,,,,,,,,,,,,,,,,,,,,,,,,,,,,,,,,,,,,,,,,,,,,,,,,,,,,,,,,
,,?,0.002,0,,,,,,stimuli/images/PICTURE_509.png,APPLE,5e95d76c2d979101cf1120af,28/06/1954,2020-07-09_21h17.42.335,proactive,2020.1.2,Win32,60,5f073de81c76c3308c0e4fb3,5f0779f50f12f215eacbab34,3,,,,,,telephone,,,,,,,,,,,4,2,0,31,31,38,1,,,,,,,,,,,,,,,,,,,,,,,,,,,,,,,,,,,,,,,,,,,,,,,,,,,,,,,,,,,,,,,,,,,,,,
,,?,0.004,0,,,,,,stimuli/images/PICTURE_356.png,CANDY,5e95d76c2d979101cf1120af,28/06/1954,2020-07-09_21h17.42.335,proactive,2020.1.2,Win32,60,5f073de81c76c3308c0e4fb3,5f0779f50f12f215eacbab34,3,,,,,,pawn,,,,,,,,,,,5,2,0,32,32,46,1,,,,,,,,,,,,,,,,,,,,,,,,,,,,,,,,,,,,,,,,,,,,,,,,,,,,,,,,,,,,,,,,,,,,,,
,,?,0.002,0,,,,,,stimuli/images/PICTURE_405.png,HOUSE,5e95d76c2d979101cf1120af,28/06/1954,2020-07-09_21h17.42.335,proactive,2020.1.2,Win32,60,5f073de81c76c3308c0e4fb3,5f0779f50f12f215eacbab34,3,,,,,,anchor,,,,,,,,,,,1,2,0,33,33,2,1,,,,,,,,,,,,,,,,,,,,,,,,,,,,,,,,,,,,,,,,,,,,,,,,,,,,,,,,,,,,,,,,,,,,,,
,,NATION,8.1,1,,,,,,stimuli/images/PICTURE_57.png,NATION,5e95d76c2d979101cf1120af,28/06/1954,2020-07-09_21h17.42.335,proactive,2020.1.2,Win32,60,5f073de81c76c3308c0e4fb3,5f0779f50f12f215eacbab34,3,,,,,,stamp,,,,,,,,,,,3,2,0,34,34,21,1,,,,,,,,,,,,,,,,,,,,,,,,,,,,,,,,,,,,,,,,,,,,,,,,,,,,,,,,,,,,,,,,,,,,,,
,,?,0.002,0,,,,,,stimuli/images/PICTURE_504.png,HOUSE,5e95d76c2d979101cf1120af,28/06/1954,2020-07-09_21h17.42.335,proactive,2020.1.2,Win32,60,5f073de81c76c3308c0e4fb3,5f0779f50f12f215eacbab34,3,,,,,,wheel,,,,,,,,,,,4,2,0,35,35,36,1,,,,,,,,,,,,,,,,,,,,,,,,,,,,,,,,,,,,,,,,,,,,,,,,,,,,,,,,,,,,,,,,,,,,,,
,,HOUSE,4.621,1,,,,,,stimuli/images/PICTURE_177.png,HOUSE,5e95d76c2d979101cf1120af,28/06/1954,2020-07-09_21h17.42.335,proactive,2020.1.2,Win32,60,5f073de81c76c3308c0e4fb3,5f0779f50f12f215eacbab34,3,,,,,,mushroom,,,,,,,,,,,3,2,0,36,36,25,1,,,,,,,,,,,,,,,,,,,,,,,,,,,,,,,,,,,,,,,,,,,,,,,,,,,,,,,,,,,,,,,,,,,,,,
,,COPS,4.729,1,,,,,,stimuli/images/PICTURE_33.png,COPS,5e95d76c2d979101cf1120af,28/06/1954,2020-07-09_21h17.42.335,proactive,2020.1.2,Win32,60,5f073de81c76c3308c0e4fb3,5f0779f50f12f215eacbab34,3,,,,,,frame,,,,,,,,,,,3,2,0,37,37,29,1,,,,,,,,,,,,,,,,,,,,,,,,,,,,,,,,,,,,,,,,,,,,,,,,,,,,,,,,,,,,,,,,,,,,,,
,,?,0.002,0,,,,,,stimuli/images/PICTURE_491.png,SERIES,5e95d76c2d979101cf1120af,28/06/1954,2020-07-09_21h17.42.335,proactive,2020.1.2,Win32,60,5f073de81c76c3308c0e4fb3,5f0779f50f12f215eacbab34,3,,,,,,rug,,,,,,,,,,,4,2,0,38,38,39,1,,,,,,,,,,,,,,,,,,,,,,,,,,,,,,,,,,,,,,,,,,,,,,,,,,,,,,,,,,,,,,,,,,,,,,
,,KIND,4.94,1,,,,,,stimuli/images/PICTURE_68.png,KIND,5e95d76c2d979101cf1120af,28/06/1954,2020-07-09_21h17.42.335,proactive,2020.1.2,Win32,60,5f073de81c76c3308c0e4fb3,5f0779f50f12f215eacbab34,3,,,,,,candle,,,,,,,,,,,3,2,0,39,39,23,1,,,,,,,,,,,,,,,,,,,,,,,,,,,,,,,,,,,,,,,,,,,,,,,,,,,,,,,,,,,,,,,,,,,,,,
,,?,0.012,0,,,,,,stimuli/images/PICTURE_348.png,TOILET,5e95d76c2d979101cf1120af,28/06/1954,2020-07-09_21h17.42.335,proactive,2020.1.2,Win32,60,5f073de81c76c3308c0e4fb3,5f0779f50f12f215eacbab34,3,,,,,,pepper,,,,,,,,,,,1,2,0,40,40,4,1,,,,,,,,,,,,,,,,,,,,,,,,,,,,,,,,,,,,,,,,,,,,,,,,,,,,,,,,,,,,,,,,,,,,,,
,,?,0.002,0,,,,,,stimuli/images/PICTURE_453.png,FAMILY,5e95d76c2d979101cf1120af,28/06/1954,2020-07-09_21h17.42.335,proactive,2020.1.2,Win32,60,5f073de81c76c3308c0e4fb3,5f0779f50f12f215eacbab34,3,,,,,,scissors,,,,,,,,,,,5,2,0,41,41,48,1,,,,,,,,,,,,,,,,,,,,,,,,,,,,,,,,,,,,,,,,,,,,,,,,,,,,,,,,,,,,,,,,,,,,,,
,,?,0.001,0,,,,,,stimuli/images/PICTURE_95.png,NIGHT,5e95d76c2d979101cf1120af,28/06/1954,2020-07-09_21h17.42.335,proactive,2020.1.2,Win32,60,5f073de81c76c3308c0e4fb3,5f0779f50f12f215eacbab34,3,,,,,,suitcase,,,,,,,,,,,4,2,0,42,42,37,1,,,,,,,,,,,,,,,,,,,,,,,,,,,,,,,,,,,,,,,,,,,,,,,,,,,,,,,,,,,,,,,,,,,,,,
,,?,0.003,0,,,,,,stimuli/images/PICTURE_654.png,COPS,5e95d76c2d979101cf1120af,28/06/1954,2020-07-09_21h17.42.335,proactive,2020.1.2,Win32,60,5f073de81c76c3308c0e4fb3,5f0779f50f12f215eacbab34,3,,,,,,pencil,,,,,,,,,,,2,2,0,43,43,10,1,,,,,,,,,,,,,,,,,,,,,,,,,,,,,,,,,,,,,,,,,,,,,,,,,,,,,,,,,,,,,,,,,,,,,,
,,?,0.002,0,,,,,,stimuli/images/PICTURE_677.png,PHOTO,5e95d76c2d979101cf1120af,28/06/1954,2020-07-09_21h17.42.335,proactive,2020.1.2,Win32,60,5f073de81c76c3308c0e4fb3,5f0779f50f12f215eacbab34,3,,,,,,map,,,,,,,,,,,2,2,0,44,44,14,1,,,,,,,,,,,,,,,,,,,,,,,,,,,,,,,,,,,,,,,,,,,,,,,,,,,,,,,,,,,,,,,,,,,,,,
,,?,0.003,0,,,,,,stimuli/images/PICTURE_57.png,CANDY,5e95d76c2d979101cf1120af,28/06/1954,2020-07-09_21h17.42.335,proactive,2020.1.2,Win32,60,5f073de81c76c3308c0e4fb3,5f0779f50f12f215eacbab34,3,,,,,,stamp,,,,,,,,,,,6,2,0,45,45,52,1,,,,,,,,,,,,,,,,,,,,,,,,,,,,,,,,,,,,,,,,,,,,,,,,,,,,,,,,,,,,,,,,,,,,,,
,,?,0.001,0,,,,,,stimuli/images/PICTURE_403.png,FAMILY,5e95d76c2d979101cf1120af,28/06/1954,2020-07-09_21h17.42.335,proactive,2020.1.2,Win32,60,5f073de81c76c3308c0e4fb3,5f0779f50f12f215eacbab34,3,,,,,,cathedral,,,,,,,,,,,1,2,0,46,46,9,1,,,,,,,,,,,,,,,,,,,,,,,,,,,,,,,,,,,,,,,,,,,,,,,,,,,,,,,,,,,,,,,,,,,,,,
,,?,0.003,0,,,,,,stimuli/images/PICTURE_2.png,JUNGLE,5e95d76c2d979101cf1120af,28/06/1954,2020-07-09_21h17.42.335,proactive,2020.1.2,Win32,60,5f073de81c76c3308c0e4fb3,5f0779f50f12f215eacbab34,3,,,,,,tyre,,,,,,,,,,,1,2,0,47,47,1,1,,,,,,,,,,,,,,,,,,,,,,,,,,,,,,,,,,,,,,,,,,,,,,,,,,,,,,,,,,,,,,,,,,,,,,
,,?,0.003,0,,,,,,stimuli/images/PICTURE_147.png,LEADER,5e95d76c2d979101cf1120af,28/06/1954,2020-07-09_21h17.42.335,proactive,2020.1.2,Win32,60,5f073de81c76c3308c0e4fb3,5f0779f50f12f215eacbab34,3,,,,,,hanger,,,,,,,,,,,4,2,0,48,48,33,1,,,,,,,,,,,,,,,,,,,,,,,,,,,,,,,,,,,,,,,,,,,,,,,,,,,,,,,,,,,,,,,,,,,,,,
,,?,0.002,0,,,,,,stimuli/images/PICTURE_311.png,TOILET,5e95d76c2d979101cf1120af,28/06/1954,2020-07-09_21h17.42.335,proactive,2020.1.2,Win32,60,5f073de81c76c3308c0e4fb3,5f0779f50f12f215eacbab34,3,,,,,,razor,,,,,,,,,,,6,2,0,49,49,54,1,,,,,,,,,,,,,,,,,,,,,,,,,,,,,,,,,,,,,,,,,,,,,,,,,,,,,,,,,,,,,,,,,,,,,,
,,?,0.002,0,,,,,,stimuli/images/PICTURE_348.png,DUDE,5e95d76c2d979101cf1120af,28/06/1954,2020-07-09_21h17.42.335,proactive,2020.1.2,Win32,60,5f073de81c76c3308c0e4fb3,5f0779f50f12f215eacbab34,3,,,,,,pepper,,,,,,,,,,,6,2,0,50,50,59,1,,,,,,,,,,,,,,,,,,,,,,,,,,,,,,,,,,,,,,,,,,,,,,,,,,,,,,,,,,,,,,,,,,,,,,
,,?,0.002,0,,,,,,stimuli/images/PICTURE_215.png,FOOD,5e95d76c2d979101cf1120af,28/06/1954,2020-07-09_21h17.42.335,proactive,2020.1.2,Win32,60,5f073de81c76c3308c0e4fb3,5f0779f50f12f215eacbab34,3,,,,,,boot,,,,,,,,,,,1,2,0,51,51,5,1,,,,,,,,,,,,,,,,,,,,,,,,,,,,,,,,,,,,,,,,,,,,,,,,,,,,,,,,,,,,,,,,,,,,,,
,,?,0.003,0,,,,,,stimuli/images/PICTURE_487.png,ROOF,5e95d76c2d979101cf1120af,28/06/1954,2020-07-09_21h17.42.335,proactive,2020.1.2,Win32,60,5f073de81c76c3308c0e4fb3,5f0779f50f12f215eacbab34,3,,,,,,basket,,,,,,,,,,,6,2,0,52,52,50,1,,,,,,,,,,,,,,,,,,,,,,,,,,,,,,,,,,,,,,,,,,,,,,,,,,,,,,,,,,,,,,,,,,,,,,
,,BOYS,5.263,1,,,,,,stimuli/images/PICTURE_215.png,BOYS,5e95d76c2d979101cf1120af,28/06/1954,2020-07-09_21h17.42.335,proactive,2020.1.2,Win32,60,5f073de81c76c3308c0e4fb3,5f0779f50f12f215eacbab34,3,,,,,,boot,,,,,,,,,,,3,2,0,53,53,24,1,,,,,,,,,,,,,,,,,,,,,,,,,,,,,,,,,,,,,,,,,,,,,,,,,,,,,,,,,,,,,,,,,,,,,,
,,?,0.003,0,,,,,,stimuli/images/PICTURE_57.png,CASINO,5e95d76c2d979101cf1120af,28/06/1954,2020-07-09_21h17.42.335,proactive,2020.1.2,Win32,60,5f073de81c76c3308c0e4fb3,5f0779f50f12f215eacbab34,3,,,,,,stamp,,,,,,,,,,,2,2,0,54,54,12,1,,,,,,,,,,,,,,,,,,,,,,,,,,,,,,,,,,,,,,,,,,,,,,,,,,,,,,,,,,,,,,,,,,,,,,
,,?,0.002,0,,,,,,stimuli/images/PICTURE_141.png,CLIENT,5e95d76c2d979101cf1120af,28/06/1954,2020-07-09_21h17.42.335,proactive,2020.1.2,Win32,60,5f073de81c76c3308c0e4fb3,5f0779f50f12f215eacbab34,3,,,,,,sunflower,,,,,,,,,,,4,2,0,55,55,30,1,,,,,,,,,,,,,,,,,,,,,,,,,,,,,,,,,,,,,,,,,,,,,,,,,,,,,,,,,,,,,,,,,,,,,,
,,BEAUTY,5.149,1,,,,,,stimuli/images/PICTURE_470.png,BEAUTY,5e95d76c2d979101cf1120af,28/06/1954,2020-07-09_21h17.42.335,proactive,2020.1.2,Win32,60,5f073de81c76c3308c0e4fb3,5f0779f50f12f215eacbab34,3,,,,,,motorbike,,,,,,,,,,,3,2,0,56,56,26,1,,,,,,,,,,,,,,,,,,,,,,,,,,,,,,,,,,,,,,,,,,,,,,,,,,,,,,,,,,,,,,,,,,,,,,
,,?,0.005,0,,,,,,stimuli/images/PICTURE_297.png,BODY,5e95d76c2d979101cf1120af,28/06/1954,2020-07-09_21h17.42.335,proactive,2020.1.2,Win32,60,5f073de81c76c3308c0e4fb3,5f0779f50f12f215eacbab34,3,,,,,,aeroplane,,,,,,,,,,,6,2,0,57,57,51,1,,,,,,,,,,,,,,,,,,,,,,,,,,,,,,,,,,,,,,,,,,,,,,,,,,,,,,,,,,,,,,,,,,,,,,
,,RIVER,5.825,1,,,,,,stimuli/images/PICTURE_18.png,RIVER,5e95d76c2d979101cf1120af,28/06/1954,2020-07-09_21h17.42.335,proactive,2020.1.2,Win32,60,5f073de81c76c3308c0e4fb3,5f0779f50f12f215eacbab34,3,,,,,,planet,,,,,,,,,,,3,2,0,58,58,22,1,,,,,,,,,,,,,,,,,,,,,,,,,,,,,,,,,,,,,,,,,,,,,,,,,,,,,,,,,,,,,,,,,,,,,,
,,?,0.004,0,,,,,,stimuli/images/PICTURE_452.png,COPS,5e95d76c2d979101cf1120af,28/06/1954,2020-07-09_21h17.42.335,proactive,2020.1.2,Win32,60,5f073de81c76c3308c0e4fb3,5f0779f50f12f215eacbab34,3,,,,,,watch,,,,,,,,,,,1,2,0,59,59,0,1,,,,,,,,,,,,,,,,,,,,,,,,,,,,,,,,,,,,,,,,,,,,,,,,,,,,,,,,,,,,,,,,,,,,,,
,,,,,,,,,,,,5e95d76c2d979101cf1120af,28/06/1954,2020-07-09_21h17.42.335,proactive,2020.1.2,Win32,60,5f073de81c76c3308c0e4fb3,5f0779f50f12f215eacbab34,3,,,,,,,,,,,,,,,,,,,,,,,,0,0,0,2,1,stimuli/learn-block3.csv,,,,,,,,,,,,,,,,,,,,,,,,,,,,,,,,,,,,,,,,,,,,,,,,,,,,,,,,,,,,,,,,
,,,,,,,,,,stimuli/images/PICTURE_302.png,FAMILY,5e95d76c2d979101cf1120af,28/06/1954,2020-07-09_21h17.42.335,proactive,2020.1.2,Win32,60,5f073de81c76c3308c0e4fb3,5f0779f50f12f215eacbab34,3,,,,,,taxi,,,,,,0,0,0,18,1,2,0,,,,,,,,,,,,,,,,,,,,,,,,,,,,,,,,,,,,,,,,,,,,,,,,,,,,,,,,,,,,,,,,,,,,,,,,,,,
,,,,,,,,,,stimuli/images/PICTURE_233.png,WOMEN,5e95d76c2d979101cf1120af,28/06/1954,2020-07-09_21h17.42.335,proactive,2020.1.2,Win32,60,5f073de81c76c3308c0e4fb3,5f0779f50f12f215eacbab34,3,,,,,,salt,,,,,,0,1,1,38,1,4,0,,,,,,,,,,,,,,,,,,,,,,,,,,,,,,,,,,,,,,,,,,,,,,,,,,,,,,,,,,,,,,,,,,,,,,,,,,,
,,,,,,,,,,stimuli/images/PICTURE_123.png,ADVICE,5e95d76c2d979101cf1120af,28/06/1954,2020-07-09_21h17.42.335,proactive,2020.1.2,Win32,60,5f073de81c76c3308c0e4fb3,5f0779f50f12f215eacbab34,3,,,,,,dart,,,,,,0,2,2,50,1,6,0,,,,,,,,,,,,,,,,,,,,,,,,,,,,,,,,,,,,,,,,,,,,,,,,,,,,,,,,,,,,,,,,,,,,,,,,,,,
,,,,,,,,,,stimuli/images/PICTURE_308.png,KIND,5e95d76c2d979101cf1120af,28/06/1954,2020-07-09_21h17.42.335,proactive,2020.1.2,Win32,60,5f073de81c76c3308c0e4fb3,5f0779f50f12f215eacbab34,3,,,,,,dice,,,,,,0,3,3,54,1,6,0,,,,,,,,,,,,,,,,,,,,,,,,,,,,,,,,,,,,,,,,,,,,,,,,,,,,,,,,,,,,,,,,,,,,,,,,,,,
,,,,,,,,,,stimuli/images/PICTURE_311.png,FRIEND,5e95d76c2d979101cf1120af,28/06/1954,2020-07-09_21h17.42.335,proactive,2020.1.2,Win32,60,5f073de81c76c3308c0e4fb3,5f0779f50f12f215eacbab34,3,,,,,,razor,,,,,,0,4,4,34,1,4,0,,,,,,,,,,,,,,,,,,,,,,,,,,,,,,,,,,,,,,,,,,,,,,,,,,,,,,,,,,,,,,,,,,,,,,,,,,,
,,,,,,,,,,stimuli/images/PICTURE_348.png,SPEECH,5e95d76c2d979101cf1120af,28/06/1954,2020-07-09_21h17.42.335,proactive,2020.1.2,Win32,60,5f073de81c76c3308c0e4fb3,5f0779f50f12f215eacbab34,3,,,,,,pepper,,,,,,0,5,5,20,1,3,0,,,,,,,,,,,,,,,,,,,,,,,,,,,,,,,,,,,,,,,,,,,,,,,,,,,,,,,,,,,,,,,,,,,,,,,,,,,
,,,,,,,,,,stimuli/images/PICTURE_470.png,CASINO,5e95d76c2d979101cf1120af,28/06/1954,2020-07-09_21h17.42.335,proactive,2020.1.2,Win32,60,5f073de81c76c3308c0e4fb3,5f0779f50f12f215eacbab34,3,,,,,,motorbike,,,,,,0,6,6,36,1,4,0,,,,,,,,,,,,,,,,,,,,,,,,,,,,,,,,,,,,,,,,,,,,,,,,,,,,,,,,,,,,,,,,,,,,,,,,,,,
,,,,,,,,,,stimuli/images/PICTURE_708.png,YARD,5e95d76c2d979101cf1120af,28/06/1954,2020-07-09_21h17.42.335,proactive,2020.1.2,Win32,60,5f073de81c76c3308c0e4fb3,5f0779f50f12f215eacbab34,3,,,,,,monkey,,,,,,0,7,7,29,1,3,0,,,,,,,,,,,,,,,,,,,,,,,,,,,,,,,,,,,,,,,,,,,,,,,,,,,,,,,,,,,,,,,,,,,,,,,,,,,
,,,,,,,,,,stimuli/images/PICTURE_177.png,CARS,5e95d76c2d979101cf1120af,28/06/1954,2020-07-09_21h17.42.335,proactive,2020.1.2,Win32,60,5f073de81c76c3308c0e4fb3,5f0779f50f12f215eacbab34,3,,,,,,mushroom,,,,,,0,8,8,35,1,4,0,,,,,,,,,,,,,,,,,,,,,,,,,,,,,,,,,,,,,,,,,,,,,,,,,,,,,,,,,,,,,,,,,,,,,,,,,,,
,,,,,,,,,,stimuli/images/PICTURE_233.png,IDEAS,5e95d76c2d979101cf1120af,28/06/1954,2020-07-09_21h17.42.335,proactive,2020.1.2,Win32,60,5f073de81c76c3308c0e4fb3,5f0779f50f12f215eacbab34,3,,,,,,salt,,,,,,0,9,9,28,1,3,0,,,,,,,,,,,,,,,,,,,,,,,,,,,,,,,,,,,,,,,,,,,,,,,,,,,,,,,,,,,,,,,,,,,,,,,,,,,
,,,,,,,,,,stimuli/images/PICTURE_688.png,WOMEN,5e95d76c2d979101cf1120af,28/06/1954,2020-07-09_21h17.42.335,proactive,2020.1.2,Win32,60,5f073de81c76c3308c0e4fb3,5f0779f50f12f215eacbab34,3,,,,,,runner,,,,,,0,10,10,14,1,2,0,,,,,,,,,,,,,,,,,,,,,,,,,,,,,,,,,,,,,,,,,,,,,,,,,,,,,,,,,,,,,,,,,,,,,,,,,,,
,,,,,,,,,,stimuli/images/PICTURE_667.png,PLENTY,5e95d76c2d979101cf1120af,28/06/1954,2020-07-09_21h17.42.335,proactive,2020.1.2,Win32,60,5f073de81c76c3308c0e4fb3,5f0779f50f12f215eacbab34,3,,,,,,daisy,,,,,,0,11,11,41,1,5,0,,,,,,,,,,,,,,,,,,,,,,,,,,,,,,,,,,,,,,,,,,,,,,,,,,,,,,,,,,,,,,,,,,,,,,,,,,,
,,,,,,,,,,stimuli/images/PICTURE_688.png,CASINO,5e95d76c2d979101cf1120af,28/06/1954,2020-07-09_21h17.42.335,proactive,2020.1.2,Win32,60,5f073de81c76c3308c0e4fb3,5f0779f50f12f215eacbab34,3,,,,,,runner,,,,,,0,12,12,2,1,1,0,,,,,,,,,,,,,,,,,,,,,,,,,,,,,,,,,,,,,,,,,,,,,,,,,,,,,,,,,,,,,,,,,,,,,,,,,,,
,,,,,,,,,,stimuli/images/PICTURE_667.png,BATH,5e95d76c2d979101cf1120af,28/06/1954,2020-07-09_21h17.42.335,proactive,2020.1.2,Win32,60,5f073de81c76c3308c0e4fb3,5f0779f50f12f215eacbab34,3,,,,,,daisy,,,,,,0,13,13,4,1,1,0,,,,,,,,,,,,,,,,,,,,,,,,,,,,,,,,,,,,,,,,,,,,,,,,,,,,,,,,,,,,,,,,,,,,,,,,,,,
,,,,,,,,,,stimuli/images/PICTURE_692.png,MONTH,5e95d76c2d979101cf1120af,28/06/1954,2020-07-09_21h17.42.335,proactive,2020.1.2,Win32,60,5f073de81c76c3308c0e4fb3,5f0779f50f12f215eacbab34,3,,,,,,cherry,,,,,,0,14,14,16,1,2,0,,,,,,,,,,,,,,,,,,,,,,,,,,,,,,,,,,,,,,,,,,,,,,,,,,,,,,,,,,,,,,,,,,,,,,,,,,,
,,,,,,,,,,stimuli/images/PICTURE_380.png,PHOTO,5e95d76c2d979101cf1120af,28/06/1954,2020-07-09_21h17.42.335,proactive,2020.1.2,Win32,60,5f073de81c76c3308c0e4fb3,5f0779f50f12f215eacbab34,3,,,,,,gorilla,,,,,,0,15,15,52,1,6,0,,,,,,,,,,,,,,,,,,,,,,,,,,,,,,,,,,,,,,,,,,,,,,,,,,,,,,,,,,,,,,,,,,,,,,,,,,,
,,,,,,,,,,stimuli/images/PICTURE_203.png,ARTIST,5e95d76c2d979101cf1120af,28/06/1954,2020-07-09_21h17.42.335,proactive,2020.1.2,Win32,60,5f073de81c76c3308c0e4fb3,5f0779f50f12f215eacbab34,3,,,,,,cap,,,,,,0,16,16,26,1,3,0,,,,,,,,,,,,,,,,,,,,,,,,,,,,,,,,,,,,,,,,,,,,,,,,,,,,,,,,,,,,,,,,,,,,,,,,,,,
,,,,,,,,,,stimuli/images/PICTURE_708.png,PENNY,5e95d76c2d979101cf1120af,28/06/1954,2020-07-09_21h17.42.335,proactive,2020.1.2,Win32,60,5f073de81c76c3308c0e4fb3,5f0779f50f12f215eacbab34,3,,,,,,monkey,,,,,,0,17,17,31,1,4,0,,,,,,,,,,,,,,,,,,,,,,,,,,,,,,,,,,,,,,,,,,,,,,,,,,,,,,,,,,,,,,,,,,,,,,,,,,,
,,,,,,,,,,stimuli/images/PICTURE_311.png,BEAUTY,5e95d76c2d979101cf1120af,28/06/1954,2020-07-09_21h17.42.335,proactive,2020.1.2,Win32,60,5f073de81c76c3308c0e4fb3,5f0779f50f12f215eacbab34,3,,,,,,razor,,,,,,0,18,18,13,1,2,0,,,,,,,,,,,,,,,,,,,,,,,,,,,,,,,,,,,,,,,,,,,,,,,,,,,,,,,,,,,,,,,,,,,,,,,,,,,
,,,,,,,,,,stimuli/images/PICTURE_509.png,PHOTO,5e95d76c2d979101cf1120af,28/06/1954,2020-07-09_21h17.42.335,proactive,2020.1.2,Win32,60,5f073de81c76c3308c0e4fb3,5f0779f50f12f215eacbab34,3,,,,,,telephone,,,,,,0,19,19,21,1,3,0,,,,,,,,,,,,,,,,,,,,,,,,,,,,,,,,,,,,,,,,,,,,,,,,,,,,,,,,,,,,,,,,,,,,,,,,,,,
,,,,,,,,,,stimuli/images/PICTURE_380.png,DEATH,5e95d76c2d979101cf1120af,28/06/1954,2020-07-09_21h17.42.335,proactive,2020.1.2,Win32,60,5f073de81c76c3308c0e4fb3,5f0779f50f12f215eacbab34,3,,,,,,gorilla,,,,,,0,20,20,49,1,5,0,,,,,,,,,,,,,,,,,,,,,,,,,,,,,,,,,,,,,,,,,,,,,,,,,,,,,,,,,,,,,,,,,,,,,,,,,,,
,,,,,,,,,,stimuli/images/PICTURE_160.png,FEET,5e95d76c2d979101cf1120af,28/06/1954,2020-07-09_21h17.42.335,proactive,2020.1.2,Win32,60,5f073de81c76c3308c0e4fb3,5f0779f50f12f215eacbab34,3,,,,,,wheelbarrow,,,,,,0,21,21,58,1,6,0,,,,,,,,,,,,,,,,,,,,,,,,,,,,,,,,,,,,,,,,,,,,,,,,,,,,,,,,,,,,,,,,,,,,,,,,,,,
,,,,,,,,,,stimuli/images/PICTURE_151.png,GIRL,5e95d76c2d979101cf1120af,28/06/1954,2020-07-09_21h17.42.335,proactive,2020.1.2,Win32,60,5f073de81c76c3308c0e4fb3,5f0779f50f12f215eacbab34,3,,,,,,tray,,,,,,0,22,22,19,1,2,0,,,,,,,,,,,,,,,,,,,,,,,,,,,,,,,,,,,,,,,,,,,,,,,,,,,,,,,,,,,,,,,,,,,,,,,,,,,
,,,,,,,,,,stimuli/images/PICTURE_356.png,DANGER,5e95d76c2d979101cf1120af,28/06/1954,2020-07-09_21h17.42.335,proactive,2020.1.2,Win32,60,5f073de81c76c3308c0e4fb3,5f0779f50f12f215eacbab34,3,,,,,,pawn,,,,,,0,23,23,55,1,6,0,,,,,,,,,,,,,,,,,,,,,,,,,,,,,,,,,,,,,,,,,,,,,,,,,,,,,,,,,,,,,,,,,,,,,,,,,,,
,,,,,,,,,,stimuli/images/PICTURE_208.png,MONTH,5e95d76c2d979101cf1120af,28/06/1954,2020-07-09_21h17.42.335,proactive,2020.1.2,Win32,60,5f073de81c76c3308c0e4fb3,5f0779f50f12f215eacbab34,3,,,,,,microphone,,,,,,0,24,24,53,1,6,0,,,,,,,,,,,,,,,,,,,,,,,,,,,,,,,,,,,,,,,,,,,,,,,,,,,,,,,,,,,,,,,,,,,,,,,,,,,
,,,,,,,,,,stimuli/images/PICTURE_208.png,THING,5e95d76c2d979101cf1120af,28/06/1954,2020-07-09_21h17.42.335,proactive,2020.1.2,Win32,60,5f073de81c76c3308c0e4fb3,5f0779f50f12f215eacbab34,3,,,,,,microphone,,,,,,0,25,25,47,1,5,0,,,,,,,,,,,,,,,,,,,,,,,,,,,,,,,,,,,,,,,,,,,,,,,,,,,,,,,,,,,,,,,,,,,,,,,,,,,
,,,,,,,,,,stimuli/images/PICTURE_248.png,DOZEN,5e95d76c2d979101cf1120af,28/06/1954,2020-07-09_21h17.42.335,proactive,2020.1.2,Win32,60,5f073de81c76c3308c0e4fb3,5f0779f50f12f215eacbab34,3,,,,,,cart,,,,,,0,26,26,39,1,4,0,,,,,,,,,,,,,,,,,,,,,,,,,,,,,,,,,,,,,,,,,,,,,,,,,,,,,,,,,,,,,,,,,,,,,,,,,,,
,,,,,,,,,,stimuli/images/PICTURE_488.png,STYLE,5e95d76c2d979101cf1120af,28/06/1954,2020-07-09_21h17.42.335,proactive,2020.1.2,Win32,60,5f073de81c76c3308c0e4fb3,5f0779f50f12f215eacbab34,3,,,,,,sun,,,,,,0,27,27,33,1,4,0,,,,,,,,,,,,,,,,,,,,,,,,,,,,,,,,,,,,,,,,,,,,,,,,,,,,,,,,,,,,,,,,,,,,,,,,,,,
,,,,,,,,,,stimuli/images/PICTURE_327.png,BEAUTY,5e95d76c2d979101cf1120af,28/06/1954,2020-07-09_21h17.42.335,proactive,2020.1.2,Win32,60,5f073de81c76c3308c0e4fb3,5f0779f50f12f215eacbab34,3,,,,,,helmet,,,,,,0,28,28,48,1,5,0,,,,,,,,,,,,,,,,,,,,,,,,,,,,,,,,,,,,,,,,,,,,,,,,,,,,,,,,,,,,,,,,,,,,,,,,,,,
,,,,,,,,,,stimuli/images/PICTURE_449.png,THING,5e95d76c2d979101cf1120af,28/06/1954,2020-07-09_21h17.42.335,proactive,2020.1.2,Win32,60,5f073de81c76c3308c0e4fb3,5f0779f50f12f215eacbab34,3,,,,,,bench,,,,,,0,29,29,59,1,6,0,,,,,,,,,,,,,,,,,,,,,,,,,,,,,,,,,,,,,,,,,,,,,,,,,,,,,,,,,,,,,,,,,,,,,,,,,,,
,,,,,,,,,,stimuli/images/PICTURE_708.png,CLIENT,5e95d76c2d979101cf1120af,28/06/1954,2020-07-09_21h17.42.335,proactive,2020.1.2,Win32,60,5f073de81c76c3308c0e4fb3,5f0779f50f12f215eacbab34,3,,,,,,monkey,,,,,,0,30,30,5,1,1,0,,,,,,,,,,,,,,,,,,,,,,,,,,,,,,,,,,,,,,,,,,,,,,,,,,,,,,,,,,,,,,,,,,,,,,,,,,,
,,,,,,,,,,stimuli/images/PICTURE_469.png,ARTIST,5e95d76c2d979101cf1120af,28/06/1954,2020-07-09_21h17.42.335,proactive,2020.1.2,Win32,60,5f073de81c76c3308c0e4fb3,5f0779f50f12f215eacbab34,3,,,,,,stool,,,,,,0,31,31,6,1,1,0,,,,,,,,,,,,,,,,,,,,,,,,,,,,,,,,,,,,,,,,,,,,,,,,,,,,,,,,,,,,,,,,,,,,,,,,,,,
,,,,,,,,,,stimuli/images/PICTURE_123.png,ADVICE,5e95d76c2d979101cf1120af,28/06/1954,2020-07-09_21h17.42.335,proactive,2020.1.2,Win32,60,5f073de81c76c3308c0e4fb3,5f0779f50f12f215eacbab34,3,,,,,,dart,,,,,,0,32,32,40,1,5,0,,,,,,,,,,,,,,,,,,,,,,,,,,,,,,,,,,,,,,,,,,,,,,,,,,,,,,,,,,,,,,,,,,,,,,,,,,,
,,,,,,,,,,stimuli/images/PICTURE_314.png,GODS,5e95d76c2d979101cf1120af,28/06/1954,2020-07-09_21h17.42.335,proactive,2020.1.2,Win32,60,5f073de81c76c3308c0e4fb3,5f0779f50f12f215eacbab34,3,,,,,,perfume,,,,,,0,33,33,11,1,2,0,,,,,,,,,,,,,,,,,,,,,,,,,,,,,,,,,,,,,,,,,,,,,,,,,,,,,,,,,,,,,,,,,,,,,,,,,,,
,,,,,,,,,,stimuli/images/PICTURE_504.png,BODY,5e95d76c2d979101cf1120af,28/06/1954,2020-07-09_21h17.42.335,proactive,2020.1.2,Win32,60,5f073de81c76c3308c0e4fb3,5f0779f50f12f215eacbab34,3,,,,,,wheel,,,,,,0,34,34,8,1,1,0,,,,,,,,,,,,,,,,,,,,,,,,,,,,,,,,,,,,,,,,,,,,,,,,,,,,,,,,,,,,,,,,,,,,,,,,,,,
,,,,,,,,,,stimuli/images/PICTURE_285.png,ADVICE,5e95d76c2d979101cf1120af,28/06/1954,2020-07-09_21h17.42.335,proactive,2020.1.2,Win32,60,5f073de81c76c3308c0e4fb3,5f0779f50f12f215eacbab34,3,,,,,,carrot,,,,,,0,35,35,12,1,2,0,,,,,,,,,,,,,,,,,,,,,,,,,,,,,,,,,,,,,,,,,,,,,,,,,,,,,,,,,,,,,,,,,,,,,,,,,,,
,,,,,,,,,,stimuli/images/PICTURE_744.png,SAKE,5e95d76c2d979101cf1120af,28/06/1954,2020-07-09_21h17.42.335,proactive,2020.1.2,Win32,60,5f073de81c76c3308c0e4fb3,5f0779f50f12f215eacbab34,3,,,,,,ring,,,,,,0,36,36,17,1,2,0,,,,,,,,,,,,,,,,,,,,,,,,,,,,,,,,,,,,,,,,,,,,,,,,,,,,,,,,,,,,,,,,,,,,,,,,,,,
,,,,,,,,,,stimuli/images/PICTURE_32.png,JUNGLE,5e95d76c2d979101cf1120af,28/06/1954,2020-07-09_21h17.42.335,proactive,2020.1.2,Win32,60,5f073de81c76c3308c0e4fb3,5f0779f50f12f215eacbab34,3,,,,,,crown,,,,,,0,37,37,45,1,5,0,,,,,,,,,,,,,,,,,,,,,,,,,,,,,,,,,,,,,,,,,,,,,,,,,,,,,,,,,,,,,,,,,,,,,,,,,,,
,,,,,,,,,,stimuli/images/PICTURE_208.png,LOTS,5e95d76c2d979101cf1120af,28/06/1954,2020-07-09_21h17.42.335,proactive,2020.1.2,Win32,60,5f073de81c76c3308c0e4fb3,5f0779f50f12f215eacbab34,3,,,,,,microphone,,,,,,0,38,38,10,1,2,0,,,,,,,,,,,,,,,,,,,,,,,,,,,,,,,,,,,,,,,,,,,,,,,,,,,,,,,,,,,,,,,,,,,,,,,,,,,
,,,,,,,,,,stimuli/images/PICTURE_85.png,THING,5e95d76c2d979101cf1120af,28/06/1954,2020-07-09_21h17.42.335,proactive,2020.1.2,Win32,60,5f073de81c76c3308c0e4fb3,5f0779f50f12f215eacbab34,3,,,,,,diamond,,,,,,0,39,39,15,1,2,0,,,,,,,,,,,,,,,,,,,,,,,,,,,,,,,,,,,,,,,,,,,,,,,,,,,,,,,,,,,,,,,,,,,,,,,,,,,
,,,,,,,,,,stimuli/images/PICTURE_744.png,SYSTEM,5e95d76c2d979101cf1120af,28/06/1954,2020-07-09_21h17.42.335,proactive,2020.1.2,Win32,60,5f073de81c76c3308c0e4fb3,5f0779f50f12f215eacbab34,3,,,,,,ring,,,,,,0,40,40,43,1,5,0,,,,,,,,,,,,,,,,,,,,,,,,,,,,,,,,,,,,,,,,,,,,,,,,,,,,,,,,,,,,,,,,,,,,,,,,,,,
,,,,,,,,,,stimuli/images/PICTURE_675.png,WEAPON,5e95d76c2d979101cf1120af,28/06/1954,2020-07-09_21h17.42.335,proactive,2020.1.2,Win32,60,5f073de81c76c3308c0e4fb3,5f0779f50f12f215eacbab34,3,,,,,,windmill,,,,,,0,41,41,32,1,4,0,,,,,,,,,,,,,,,,,,,,,,,,,,,,,,,,,,,,,,,,,,,,,,,,,,,,,,,,,,,,,,,,,,,,,,,,,,,
,,,,,,,,,,stimuli/images/PICTURE_491.png,WRITER,5e95d76c2d979101cf1120af,28/06/1954,2020-07-09_21h17.42.335,proactive,2020.1.2,Win32,60,5f073de81c76c3308c0e4fb3,5f0779f50f12f215eacbab34,3,,,,,,rug,,,,,,0,42,42,57,1,6,0,,,,,,,,,,,,,,,,,,,,,,,,,,,,,,,,,,,,,,,,,,,,,,,,,,,,,,,,,,,,,,,,,,,,,,,,,,,
,,,,,,,,,,stimuli/images/PICTURE_467.png,DEMON,5e95d76c2d979101cf1120af,28/06/1954,2020-07-09_21h17.42.335,proactive,2020.1.2,Win32,60,5f073de81c76c3308c0e4fb3,5f0779f50f12f215eacbab34,3,,,,,,peg,,,,,,0,43,43,23,1,3,0,,,,,,,,,,,,,,,,,,,,,,,,,,,,,,,,,,,,,,,,,,,,,,,,,,,,,,,,,,,,,,,,,,,,,,,,,,,
,,,,,,,,,,stimuli/images/PICTURE_453.png,DUDE,5e95d76c2d979101cf1120af,28/06/1954,2020-07-09_21h17.42.335,proactive,2020.1.2,Win32,60,5f073de81c76c3308c0e4fb3,5f0779f50f12f215eacbab34,3,,,,,,scissors,,,,,,0,44,44,27,1,3,0,,,,,,,,,,,,,,,,,,,,,,,,,,,,,,,,,,,,,,,,,,,,,,,,,,,,,,,,,,,,,,,,,,,,,,,,,,,
,,,,,,,,,,stimuli/images/PICTURE_215.png,PLENTY,5e95d76c2d979101cf1120af,28/06/1954,2020-07-09_21h17.42.335,proactive,2020.1.2,Win32,60,5f073de81c76c3308c0e4fb3,5f0779f50f12f215eacbab34,3,,,,,,boot,,,,,,0,45,45,37,1,4,0,,,,,,,,,,,,,,,,,,,,,,,,,,,,,,,,,,,,,,,,,,,,,,,,,,,,,,,,,,,,,,,,,,,,,,,,,,,
,,,,,,,,,,stimuli/images/PICTURE_339.png,PLENTY,5e95d76c2d979101cf1120af,28/06/1954,2020-07-09_21h17.42.335,proactive,2020.1.2,Win32,60,5f073de81c76c3308c0e4fb3,5f0779f50f12f215eacbab34,3,,,,,,backpack,,,,,,0,46,46,0,1,1,0,,,,,,,,,,,,,,,,,,,,,,,,,,,,,,,,,,,,,,,,,,,,,,,,,,,,,,,,,,,,,,,,,,,,,,,,,,,
,,,,,,,,,,stimuli/images/PICTURE_68.png,MILE,5e95d76c2d979101cf1120af,28/06/1954,2020-07-09_21h17.42.335,proactive,2020.1.2,Win32,60,5f073de81c76c3308c0e4fb3,5f0779f50f12f215eacbab34,3,,,,,,candle,,,,,,0,47,47,44,1,5,0,,,,,,,,,,,,,,,,,,,,,,,,,,,,,,,,,,,,,,,,,,,,,,,,,,,,,,,,,,,,,,,,,,,,,,,,,,,
,,,,,,,,,,stimuli/images/PICTURE_491.png,ROOF,5e95d76c2d979101cf1120af,28/06/1954,2020-07-09_21h17.42.335,proactive,2020.1.2,Win32,60,5f073de81c76c3308c0e4fb3,5f0779f50f12f215eacbab34,3,,,,,,rug,,,,,,0,48,48,24,1,3,0,,,,,,,,,,,,,,,,,,,,,,,,,,,,,,,,,,,,,,,,,,,,,,,,,,,,,,,,,,,,,,,,,,,,,,,,,,,
,,,,,,,,,,stimuli/images/PICTURE_677.png,MILE,5e95d76c2d979101cf1120af,28/06/1954,2020-07-09_21h17.42.335,proactive,2020.1.2,Win32,60,5f073de81c76c3308c0e4fb3,5f0779f50f12f215eacbab34,3,,,,,,map,,,,,,0,49,49,30,1,4,0,,,,,,,,,,,,,,,,,,,,,,,,,,,,,,,,,,,,,,,,,,,,,,,,,,,,,,,,,,,,,,,,,,,,,,,,,,,
,,,,,,,,,,stimuli/images/PICTURE_453.png,PLENTY,5e95d76c2d979101cf1120af,28/06/1954,2020-07-09_21h17.42.335,proactive,2020.1.2,Win32,60,5f073de81c76c3308c0e4fb3,5f0779f50f12f215eacbab34,3,,,,,,scissors,,,,,,0,50,50,56,1,6,0,,,,,,,,,,,,,,,,,,,,,,,,,,,,,,,,,,,,,,,,,,,,,,,,,,,,,,,,,,,,,,,,,,,,,,,,,,,
,,,,,,,,,,stimuli/images/PICTURE_314.png,SAKE,5e95d76c2d979101cf1120af,28/06/1954,2020-07-09_21h17.42.335,proactive,2020.1.2,Win32,60,5f073de81c76c3308c0e4fb3,5f0779f50f12f215eacbab34,3,,,,,,perfume,,,,,,0,51,51,7,1,1,0,,,,,,,,,,,,,,,,,,,,,,,,,,,,,,,,,,,,,,,,,,,,,,,,,,,,,,,,,,,,,,,,,,,,,,,,,,,
,,,,,,,,,,stimuli/images/PICTURE_160.png,LEADER,5e95d76c2d979101cf1120af,28/06/1954,2020-07-09_21h17.42.335,proactive,2020.1.2,Win32,60,5f073de81c76c3308c0e4fb3,5f0779f50f12f215eacbab34,3,,,,,,wheelbarrow,,,,,,0,52,52,3,1,1,0,,,,,,,,,,,,,,,,,,,,,,,,,,,,,,,,,,,,,,,,,,,,,,,,,,,,,,,,,,,,,,,,,,,,,,,,,,,
,,,,,,,,,,stimuli/images/PICTURE_95.png,STYLE,5e95d76c2d979101cf1120af,28/06/1954,2020-07-09_21h17.42.335,proactive,2020.1.2,Win32,60,5f073de81c76c3308c0e4fb3,5f0779f50f12f215eacbab34,3,,,,,,suitcase,,,,,,0,53,53,25,1,3,0,,,,,,,,,,,,,,,,,,,,,,,,,,,,,,,,,,,,,,,,,,,,,,,,,,,,,,,,,,,,,,,,,,,,,,,,,,,
,,,,,,,,,,stimuli/images/PICTURE_469.png,LETTER,5e95d76c2d979101cf1120af,28/06/1954,2020-07-09_21h17.42.335,proactive,2020.1.2,Win32,60,5f073de81c76c3308c0e4fb3,5f0779f50f12f215eacbab34,3,,,,,,stool,,,,,,0,54,54,42,1,5,0,,,,,,,,,,,,,,,,,,,,,,,,,,,,,,,,,,,,,,,,,,,,,,,,,,,,,,,,,,,,,,,,,,,,,,,,,,,
,,,,,,,,,,stimuli/images/PICTURE_654.png,VALLEY,5e95d76c2d979101cf1120af,28/06/1954,2020-07-09_21h17.42.335,proactive,2020.1.2,Win32,60,5f073de81c76c3308c0e4fb3,5f0779f50f12f215eacbab34,3,,,,,,pencil,,,,,,0,55,55,1,1,1,0,,,,,,,,,,,,,,,,,,,,,,,,,,,,,,,,,,,,,,,,,,,,,,,,,,,,,,,,,,,,,,,,,,,,,,,,,,,
,,,,,,,,,,stimuli/images/PICTURE_255.png,AREA,5e95d76c2d979101cf1120af,28/06/1954,2020-07-09_21h17.42.335,proactive,2020.1.2,Win32,60,5f073de81c76c3308c0e4fb3,5f0779f50f12f215eacbab34,3,,,,,,shovel,,,,,,0,56,56,22,1,3,0,,,,,,,,,,,,,,,,,,,,,,,,,,,,,,,,,,,,,,,,,,,,,,,,,,,,,,,,,,,,,,,,,,,,,,,,,,,
,,,,,,,,,,stimuli/images/PICTURE_487.png,FLIGHT,5e95d76c2d979101cf1120af,28/06/1954,2020-07-09_21h17.42.335,proactive,2020.1.2,Win32,60,5f073de81c76c3308c0e4fb3,5f0779f50f12f215eacbab34,3,,,,,,basket,,,,,,0,57,57,9,1,1,0,,,,,,,,,,,,,,,,,,,,,,,,,,,,,,,,,,,,,,,,,,,,,,,,,,,,,,,,,,,,,,,,,,,,,,,,,,,
,,,,,,,,,,stimuli/images/PICTURE_147.png,MOMENT,5e95d76c2d979101cf1120af,28/06/1954,2020-07-09_21h17.42.335,proactive,2020.1.2,Win32,60,5f073de81c76c3308c0e4fb3,5f0779f50f12f215eacbab34,3,,,,,,hanger,,,,,,0,58,58,51,1,6,0,,,,,,,,,,,,,,,,,,,,,,,,,,,,,,,,,,,,,,,,,,,,,,,,,,,,,,,,,,,,,,,,,,,,,,,,,,,
,,?,0.005,0,,,,,,stimuli/images/PICTURE_123.png,ADVICE,5e95d76c2d979101cf1120af,28/06/1954,2020-07-09_21h17.42.335,proactive,2020.1.2,Win32,60,5f073de81c76c3308c0e4fb3,5f0779f50f12f215eacbab34,3,,,,,,dart,,,,,,,,,,,6,0,0,0,0,50,1,,,,,,,,,,,,,,,,,,,,,,,,,,,,,,,,,,,,,,,,,,,,,,,,,,,,,,,,,,,,,,,,,,,,,,
,,?,0.006,0,,,,,,stimuli/images/PICTURE_314.png,SAKE,5e95d76c2d979101cf1120af,28/06/1954,2020-07-09_21h17.42.335,proactive,2020.1.2,Win32,60,5f073de81c76c3308c0e4fb3,5f0779f50f12f215eacbab34,3,,,,,,perfume,,,,,,,,,,,1,0,0,1,1,7,1,,,,,,,,,,,,,,,,,,,,,,,,,,,,,,,,,,,,,,,,,,,,,,,,,,,,,,,,,,,,,,,,,,,,,,
,,?,0.002,0,,,,,,stimuli/images/PICTURE_692.png,MONTH,5e95d76c2d979101cf1120af,28/06/1954,2020-07-09_21h17.42.335,proactive,2020.1.2,Win32,60,5f073de81c76c3308c0e4fb3,5f0779f50f12f215eacbab34,3,,,,,,cherry,,,,,,,,,,,2,0,0,2,2,16,1,,,,,,,,,,,,,,,,,,,,,,,,,,,,,,,,,,,,,,,,,,,,,,,,,,,,,,,,,,,,,,,,,,,,,,
,,?,0.002,0,,,,,,stimuli/images/PICTURE_708.png,PENNY,5e95d76c2d979101cf1120af,28/06/1954,2020-07-09_21h17.42.335,proactive,2020.1.2,Win32,60,5f073de81c76c3308c0e4fb3,5f0779f50f12f215eacbab34,3,,,,,,monkey,,,,,,,,,,,4,0,0,3,3,31,1,,,,,,,,,,,,,,,,,,,,,,,,,,,,,,,,,,,,,,,,,,,,,,,,,,,,,,,,,,,,,,,,,,,,,,
,,?,0.002,0,,,,,,stimuli/images/PICTURE_469.png,ARTIST,5e95d76c2d979101cf1120af,28/06/1954,2020-07-09_21h17.42.335,proactive,2020.1.2,Win32,60,5f073de81c76c3308c0e4fb3,5f0779f50f12f215eacbab34,3,,,,,,stool,,,,,,,,,,,1,0,0,4,4,6,1,,,,,,,,,,,,,,,,,,,,,,,,,,,,,,,,,,,,,,,,,,,,,,,,,,,,,,,,,,,,,,,,,,,,,,
,,?,0.001,0,,,,,,stimuli/images/PICTURE_285.png,ADVICE,5e95d76c2d979101cf1120af,28/06/1954,2020-07-09_21h17.42.335,proactive,2020.1.2,Win32,60,5f073de81c76c3308c0e4fb3,5f0779f50f12f215eacbab34,3,,,,,,carrot,,,,,,,,,,,2,0,0,5,5,12,1,,,,,,,,,,,,,,,,,,,,,,,,,,,,,,,,,,,,,,,,,,,,,,,,,,,,,,,,,,,,,,,,,,,,,,
,,?,0.002,0,,,,,,stimuli/images/PICTURE_356.png,DANGER,5e95d76c2d979101cf1120af,28/06/1954,2020-07-09_21h17.42.335,proactive,2020.1.2,Win32,60,5f073de81c76c3308c0e4fb3,5f0779f50f12f215eacbab34,3,,,,,,pawn,,,,,,,,,,,6,0,0,6,6,55,1,,,,,,,,,,,,,,,,,,,,,,,,,,,,,,,,,,,,,,,,,,,,,,,,,,,,,,,,,,,,,,,,,,,,,,
,,?,0.004,0,,,,,,stimuli/images/PICTURE_314.png,GODS,5e95d76c2d979101cf1120af,28/06/1954,2020-07-09_21h17.42.335,proactive,2020.1.2,Win32,60,5f073de81c76c3308c0e4fb3,5f0779f50f12f215eacbab34,3,,,,,,perfume,,,,,,,,,,,2,0,0,7,7,11,1,,,,,,,,,,,,,,,,,,,,,,,,,,,,,,,,,,,,,,,,,,,,,,,,,,,,,,,,,,,,,,,,,,,,,,
,,?,0.001,0,,,,,,stimuli/images/PICTURE_708.png,CLIENT,5e95d76c2d979101cf1120af,28/06/1954,2020-07-09_21h17.42.335,proactive,2020.1.2,Win32,60,5f073de81c76c3308c0e4fb3,5f0779f50f12f215eacbab34,3,,,,,,monkey,,,,,,,,,,,1,0,0,8,8,5,1,,,,,,,,,,,,,,,,,,,,,,,,,,,,,,,,,,,,,,,,,,,,,,,,,,,,,,,,,,,,,,,,,,,,,,
,,?,0.002,0,,,,,,stimuli/images/PICTURE_177.png,CARS,5e95d76c2d979101cf1120af,28/06/1954,2020-07-09_21h17.42.335,proactive,2020.1.2,Win32,60,5f073de81c76c3308c0e4fb3,5f0779f50f12f215eacbab34,3,,,,,,mushroom,,,,,,,,,,,4,0,0,9,9,35,1,,,,,,,,,,,,,,,,,,,,,,,,,,,,,,,,,,,,,,,,,,,,,,,,,,,,,,,,,,,,,,,,,,,,,,
,,?,0.002,0,,,,,,stimuli/images/PICTURE_248.png,DOZEN,5e95d76c2d979101cf1120af,28/06/1954,2020-07-09_21h17.42.335,proactive,2020.1.2,Win32,60,5f073de81c76c3308c0e4fb3,5f0779f50f12f215eacbab34,3,,,,,,cart,,,,,,,,,,,4,0,0,10,10,39,1,,,,,,,,,,,,,,,,,,,,,,,,,,,,,,,,,,,,,,,,,,,,,,,,,,,,,,,,,,,,,,,,,,,,,,
,,?,0.002,0,,,,,,stimuli/images/PICTURE_667.png,PLENTY,5e95d76c2d979101cf1120af,28/06/1954,2020-07-09_21h17.42.335,proactive,2020.1.2,Win32,60,5f073de81c76c3308c0e4fb3,5f0779f50f12f215eacbab34,3,,,,,,daisy,,,,,,,,,,,5,0,0,11,11,41,1,,,,,,,,,,,,,,,,,,,,,,,,,,,,,,,,,,,,,,,,,,,,,,,,,,,,,,,,,,,,,,,,,,,,,,
,,ARTIST,8.957,1,,,,,,stimuli/images/PICTURE_203.png,ARTIST,5e95d76c2d979101cf1120af,28/06/1954,2020-07-09_21h17.42.335,proactive,2020.1.2,Win32,60,5f073de81c76c3308c0e4fb3,5f0779f50f12f215eacbab34,3,,,,,,cap,,,,,,,,,,,3,0,0,12,12,26,1,,,,,,,,,,,,,,,,,,,,,,,,,,,,,,,,,,,,,,,,,,,,,,,,,,,,,,,,,,,,,,,,,,,,,,
,,YARD,5.591,1,,,,,,stimuli/images/PICTURE_708.png,YARD,5e95d76c2d979101cf1120af,28/06/1954,2020-07-09_21h17.42.335,proactive,2020.1.2,Win32,60,5f073de81c76c3308c0e4fb3,5f0779f50f12f215eacbab34,3,,,,,,monkey,,,,,,,,,,,3,0,0,13,13,29,1,,,,,,,,,,,,,,,,,,,,,,,,,,,,,,,,,,,,,,,,,,,,,,,,,,,,,,,,,,,,,,,,,,,,,,
,,DEM,15.008,0,,,,,,stimuli/images/PICTURE_467.png,DEMON,5e95d76c2d979101cf1120af,28/06/1954,2020-07-09_21h17.42.335,proactive,2020.1.2,Win32,60,5f073de81c76c3308c0e4fb3,5f0779f50f12f215eacbab34,3,,,,,,peg,,,,,,,,,,,3,0,0,14,14,23,1,,,,,,,,,,,,,,,,,,,,,,,,,,,,,,,,,,,,,,,,,,,,,,,,,,,,,,,,,,,,,,,,,,,,,,
,,?,0.004,0,,,,,,stimuli/images/PICTURE_302.png,FAMILY,5e95d76c2d979101cf1120af,28/06/1954,2020-07-09_21h17.42.335,proactive,2020.1.2,Win32,60,5f073de81c76c3308c0e4fb3,5f0779f50f12f215eacbab34,3,,,,,,taxi,,,,,,,,,,,2,0,0,15,15,18,1,,,,,,,,,,,,,,,,,,,,,,,,,,,,,,,,,,,,,,,,,,,,,,,,,,,,,,,,,,,,,,,,,,,,,,
,,?,0.005,0,,,,,,stimuli/images/PICTURE_233.png,WOMEN,5e95d76c2d979101cf1120af,28/06/1954,2020-07-09_21h17.42.335,proactive,2020.1.2,Win32,60,5f073de81c76c3308c0e4fb3,5f0779f50f12f215eacbab34,3,,,,,,salt,,,,,,,,,,,4,0,0,16,16,38,1,,,,,,,,,,,,,,,,,,,,,,,,,,,,,,,,,,,,,,,,,,,,,,,,,,,,,,,,,,,,,,,,,,,,,,
,,?,0.005,0,,,,,,stimuli/images/PICTURE_308.png,ESTATE,5e95d76c2d979101cf1120af,28/06/1954,2020-07-09_21h17.42.335,proactive,2020.1.2,Win32,60,5f073de81c76c3308c0e4fb3,5f0779f50f12f215eacbab34,3,,,,,,dice,,,,,,,,,,,5,0,0,17,17,46,1,,,,,,,,,,,,,,,,,,,,,,,,,,,,,,,,,,,,,,,,,,,,,,,,,,,,,,,,,,,,,,,,,,,,,,
,,?,0.005,0,,,,,,stimuli/images/PICTURE_208.png,LOTS,5e95d76c2d979101cf1120af,28/06/1954,2020-07-09_21h17.42.335,proactive,2020.1.2,Win32,60,5f073de81c76c3308c0e4fb3,5f0779f50f12f215eacbab34,3,,,,,,microphone,,,,,,,,,,,2,0,0,18,18,10,1,,,,,,,,,,,,,,,,,,,,,,,,,,,,,,,,,,,,,,,,,,,,,,,,,,,,,,,,,,,,,,,,,,,,,,
,,?,0.005,0,,,,,,stimuli/images/PICTURE_675.png,WEAPON,5e95d76c2d979101cf1120af,28/06/1954,2020-07-09_21h17.42.335,proactive,2020.1.2,Win32,60,5f073de81c76c3308c0e4fb3,5f0779f50f12f215eacbab34,3,,,,,,windmill,,,,,,,,,,,4,0,0,19,19,32,1,,,,,,,,,,,,,,,,,,,,,,,,,,,,,,,,,,,,,,,,,,,,,,,,,,,,,,,,,,,,,,,,,,,,,,
,,?,0.003,0,,,,,,stimuli/images/PICTURE_308.png,KIND,5e95d76c2d979101cf1120af,28/06/1954,2020-07-09_21h17.42.335,proactive,2020.1.2,Win32,60,5f073de81c76c3308c0e4fb3,5f0779f50f12f215eacbab34,3,,,,,,dice,,,,,,,,,,,6,0,0,20,20,54,1,,,,,,,,,,,,,,,,,,,,,,,,,,,,,,,,,,,,,,,,,,,,,,,,,,,,,,,,,,,,,,,,,,,,,,
,,?,0.003,0,,,,,,stimuli/images/PICTURE_311.png,FRIEND,5e95d76c2d979101cf1120af,28/06/1954,2020-07-09_21h17.42.335,proactive,2020.1.2,Win32,60,5f073de81c76c3308c0e4fb3,5f0779f50f12f215eacbab34,3,,,,,,razor,,,,,,,,,,,4,0,0,21,21,34,1,,,,,,,,,,,,,,,,,,,,,,,,,,,,,,,,,,,,,,,,,,,,,,,,,,,,,,,,,,,,,,,,,,,,,,
,,?,0.003,0,,,,,,stimuli/images/PICTURE_453.png,PLENTY,5e95d76c2d979101cf1120af,28/06/1954,2020-07-09_21h17.42.335,proactive,2020.1.2,Win32,60,5f073de81c76c3308c0e4fb3,5f0779f50f12f215eacbab34,3,,,,,,scissors,,,,,,,,,,,6,0,0,22,22,56,1,,,,,,,,,,,,,,,,,,,,,,,,,,,,,,,,,,,,,,,,,,,,,,,,,,,,,,,,,,,,,,,,,,,,,,
,,?,0.004,0,,,,,,stimuli/images/PICTURE_151.png,GIRL,5e95d76c2d979101cf1120af,28/06/1954,2020-07-09_21h17.42.335,proactive,2020.1.2,Win32,60,5f073de81c76c3308c0e4fb3,5f0779f50f12f215eacbab34,3,,,,,,tray,,,,,,,,,,,2,0,0,23,23,19,1,,,,,,,,,,,,,,,,,,,,,,,,,,,,,,,,,,,,,,,,,,,,,,,,,,,,,,,,,,,,,,,,,,,,,,
,,STYLE,5.243,1,,,,,,stimuli/images/PICTURE_95.png,STYLE,5e95d76c2d979101cf1120af,28/06/1954,2020-07-09_21h17.42.335,proactive,2020.1.2,Win32,60,5f073de81c76c3308c0e4fb3,5f0779f50f12f215eacbab34,3,,,,,,suitcase,,,,,,,,,,,3,0,0,24,24,25,1,,,,,,,,,,,,,,,,,,,,,,,,,,,,,,,,,,,,,,,,,,,,,,,,,,,,,,,,,,,,,,,,,,,,,,
,,?,0.002,0,,,,,,stimuli/images/PICTURE_688.png,WOMEN,5e95d76c2d979101cf1120af,28/06/1954,2020-07-09_21h17.42.335,proactive,2020.1.2,Win32,60,5f073de81c76c3308c0e4fb3,5f0779f50f12f215eacbab34,3,,,,,,runner,,,,,,,,,,,2,0,0,25,25,14,1,,,,,,,,,,,,,,,,,,,,,,,,,,,,,,,,,,,,,,,,,,,,,,,,,,,,,,,,,,,,,,,,,,,,,,
,,?,0.006,0,,,,,,stimuli/images/PICTURE_380.png,DEATH,5e95d76c2d979101cf1120af,28/06/1954,2020-07-09_21h17.42.335,proactive,2020.1.2,Win32,60,5f073de81c76c3308c0e4fb3,5f0779f50f12f215eacbab34,3,,,,,,gorilla,,,,,,,,,,,5,0,0,26,26,49,1,,,,,,,,,,,,,,,,,,,,,,,,,,,,,,,,,,,,,,,,,,,,,,,,,,,,,,,,,,,,,,,,,,,,,,
,,?,0.004,0,,,,,,stimuli/images/PICTURE_339.png,PLENTY,5e95d76c2d979101cf1120af,28/06/1954,2020-07-09_21h17.42.335,proactive,2020.1.2,Win32,60,5f073de81c76c3308c0e4fb3,5f0779f50f12f215eacbab34,3,,,,,,backpack,,,,,,,,,,,1,0,0,27,27,0,1,,,,,,,,,,,,,,,,,,,,,,,,,,,,,,,,,,,,,,,,,,,,,,,,,,,,,,,,,,,,,,,,,,,,,,
,,?,0.002,0,,,,,,stimuli/images/PICTURE_449.png,THING,5e95d76c2d979101cf1120af,28/06/1954,2020-07-09_21h17.42.335,proactive,2020.1.2,Win32,60,5f073de81c76c3308c0e4fb3,5f0779f50f12f215eacbab34,3,,,,,,bench,,,,,,,,,,,6,0,0,28,28,59,1,,,,,,,,,,,,,,,,,,,,,,,,,,,,,,,,,,,,,,,,,,,,,,,,,,,,,,,,,,,,,,,,,,,,,,
,,?,0.002,0,,,,,,stimuli/images/PICTURE_491.png,WRITER,5e95d76c2d979101cf1120af,28/06/1954,2020-07-09_21h17.42.335,proactive,2020.1.2,Win32,60,5f073de81c76c3308c0e4fb3,5f0779f50f12f215eacbab34,3,,,,,,rug,,,,,,,,,,,6,0,0,29,29,57,1,,,,,,,,,,,,,,,,,,,,,,,,,,,,,,,,,,,,,,,,,,,,,,,,,,,,,,,,,,,,,,,,,,,,,,
,,?,0.003,0,,,,,,stimuli/images/PICTURE_487.png,FLIGHT,5e95d76c2d979101cf1120af,28/06/1954,2020-07-09_21h17.42.335,proactive,2020.1.2,Win32,60,5f073de81c76c3308c0e4fb3,5f0779f50f12f215eacbab34,3,,,,,,basket,,,,,,,,,,,1,0,0,30,30,9,1,,,,,,,,,,,,,,,,,,,,,,,,,,,,,,,,,,,,,,,,,,,,,,,,,,,,,,,,,,,,,,,,,,,,,,
,,SPEECH,5.677,1,,,,,,stimuli/images/PICTURE_348.png,SPEECH,5e95d76c2d979101cf1120af,28/06/1954,2020-07-09_21h17.42.335,proactive,2020.1.2,Win32,60,5f073de81c76c3308c0e4fb3,5f0779f50f12f215eacbab34,3,,,,,,pepper,,,,,,,,,,,3,0,0,31,31,20,1,,,,,,,,,,,,,,,,,,,,,,,,,,,,,,,,,,,,,,,,,,,,,,,,,,,,,,,,,,,,,,,,,,,,,,
,,?,0.005,0,,,,,,stimuli/images/PICTURE_470.png,CASINO,5e95d76c2d979101cf1120af,28/06/1954,2020-07-09_21h17.42.335,proactive,2020.1.2,Win32,60,5f073de81c76c3308c0e4fb3,5f0779f50f12f215eacbab34,3,,,,,,motorbike,,,,,,,,,,,4,0,0,32,32,36,1,,,,,,,,,,,,,,,,,,,,,,,,,,,,,,,,,,,,,,,,,,,,,,,,,,,,,,,,,,,,,,,,,,,,,,
,,?,0.007,0,,,,,,stimuli/images/PICTURE_488.png,STYLE,5e95d76c2d979101cf1120af,28/06/1954,2020-07-09_21h17.42.335,proactive,2020.1.2,Win32,60,5f073de81c76c3308c0e4fb3,5f0779f50f12f215eacbab34,3,,,,,,sun,,,,,,,,,,,4,0,0,33,33,33,1,,,,,,,,,,,,,,,,,,,,,,,,,,,,,,,,,,,,,,,,,,,,,,,,,,,,,,,,,,,,,,,,,,,,,,
,,?,0.004,0,,,,,,stimuli/images/PICTURE_744.png,SYSTEM,5e95d76c2d979101cf1120af,28/06/1954,2020-07-09_21h17.42.335,proactive,2020.1.2,Win32,60,5f073de81c76c3308c0e4fb3,5f0779f50f12f215eacbab34,3,,,,,,ring,,,,,,,,,,,5,0,0,34,34,43,1,,,,,,,,,,,,,,,,,,,,,,,,,,,,,,,,,,,,,,,,,,,,,,,,,,,,,,,,,,,,,,,,,,,,,,
,,?,0.004,0,,,,,,stimuli/images/PICTURE_85.png,THING,5e95d76c2d979101cf1120af,28/06/1954,2020-07-09_21h17.42.335,proactive,2020.1.2,Win32,60,5f073de81c76c3308c0e4fb3,5f0779f50f12f215eacbab34,3,,,,,,diamond,,,,,,,,,,,2,0,0,35,35,15,1,,,,,,,,,,,,,,,,,,,,,,,,,,,,,,,,,,,,,,,,,,,,,,,,,,,,,,,,,,,,,,,,,,,,,,
,,?,0.004,0,,,,,,stimuli/images/PICTURE_123.png,ADVICE,5e95d76c2d979101cf1120af,28/06/1954,2020-07-09_21h17.42.335,proactive,2020.1.2,Win32,60,5f073de81c76c3308c0e4fb3,5f0779f50f12f215eacbab34,3,,,,,,dart,,,,,,,,,,,5,0,0,36,36,40,1,,,,,,,,,,,,,,,,,,,,,,,,,,,,,,,,,,,,,,,,,,,,,,,,,,,,,,,,,,,,,,,,,,,,,,
,,?,0.004,0,,,,,,stimuli/images/PICTURE_32.png,JUNGLE,5e95d76c2d979101cf1120af,28/06/1954,2020-07-09_21h17.42.335,proactive,2020.1.2,Win32,60,5f073de81c76c3308c0e4fb3,5f0779f50f12f215eacbab34,3,,,,,,crown,,,,,,,,,,,5,0,0,37,37,45,1,,,,,,,,,,,,,,,,,,,,,,,,,,,,,,,,,,,,,,,,,,,,,,,,,,,,,,,,,,,,,,,,,,,,,,
,,DUDE,4.206,1,,,,,,stimuli/images/PICTURE_453.png,DUDE,5e95d76c2d979101cf1120af,28/06/1954,2020-07-09_21h17.42.335,proactive,2020.1.2,Win32,60,5f073de81c76c3308c0e4fb3,5f0779f50f12f215eacbab34,3,,,,,,scissors,,,,,,,,,,,3,0,0,38,38,27,1,,,,,,,,,,,,,,,,,,,,,,,,,,,,,,,,,,,,,,,,,,,,,,,,,,,,,,,,,,,,,,,,,,,,,,
,,?,0.007,0,,,,,,stimuli/images/PICTURE_147.png,MOMENT,5e95d76c2d979101cf1120af,28/06/1954,2020-07-09_21h17.42.335,proactive,2020.1.2,Win32,60,5f073de81c76c3308c0e4fb3,5f0779f50f12f215eacbab34,3,,,,,,hanger,,,,,,,,,,,6,0,0,39,39,51,1,,,,,,,,,,,,,,,,,,,,,,,,,,,,,,,,,,,,,,,,,,,,,,,,,,,,,,,,,,,,,,,,,,,,,,
,,?,0.005,0,,,,,,stimuli/images/PICTURE_160.png,LEADER,5e95d76c2d979101cf1120af,28/06/1954,2020-07-09_21h17.42.335,proactive,2020.1.2,Win32,60,5f073de81c76c3308c0e4fb3,5f0779f50f12f215eacbab34,3,,,,,,wheelbarrow,,,,,,,,,,,1,0,0,40,40,3,1,,,,,,,,,,,,,,,,,,,,,,,,,,,,,,,,,,,,,,,,,,,,,,,,,,,,,,,,,,,,,,,,,,,,,,
,,IDEAS,7.964,1,,,,,,stimuli/images/PICTURE_233.png,IDEAS,5e95d76c2d979101cf1120af,28/06/1954,2020-07-09_21h17.42.335,proactive,2020.1.2,Win32,60,5f073de81c76c3308c0e4fb3,5f0779f50f12f215eacbab34,3,,,,,,salt,,,,,,,,,,,3,0,0,41,41,28,1,,,,,,,,,,,,,,,,,,,,,,,,,,,,,,,,,,,,,,,,,,,,,,,,,,,,,,,,,,,,,,,,,,,,,,
,,?,0.006,0,,,,,,stimuli/images/PICTURE_311.png,BEAUTY,5e95d76c2d979101cf1120af,28/06/1954,2020-07-09_21h17.42.335,proactive,2020.1.2,Win32,60,5f073de81c76c3308c0e4fb3,5f0779f50f12f215eacbab34,3,,,,,,razor,,,,,,,,,,,2,0,0,42,42,13,1,,,,,,,,,,,,,,,,,,,,,,,,,,,,,,,,,,,,,,,,,,,,,,,,,,,,,,,,,,,,,,,,,,,,,,
,,?,0.005,0,,,,,,stimuli/images/PICTURE_380.png,PHOTO,5e95d76c2d979101cf1120af,28/06/1954,2020-07-09_21h17.42.335,proactive,2020.1.2,Win32,60,5f073de81c76c3308c0e4fb3,5f0779f50f12f215eacbab34,3,,,,,,gorilla,,,,,,,,,,,6,0,0,43,43,52,1,,,,,,,,,,,,,,,,,,,,,,,,,,,,,,,,,,,,,,,,,,,,,,,,,,,,,,,,,,,,,,,,,,,,,,
,,?,0.004,0,,,,,,stimuli/images/PICTURE_654.png,VALLEY,5e95d76c2d979101cf1120af,28/06/1954,2020-07-09_21h17.42.335,proactive,2020.1.2,Win32,60,5f073de81c76c3308c0e4fb3,5f0779f50f12f215eacbab34,3,,,,,,pencil,,,,,,,,,,,1,0,0,44,44,1,1,,,,,,,,,,,,,,,,,,,,,,,,,,,,,,,,,,,,,,,,,,,,,,,,,,,,,,,,,,,,,,,,,,,,,,
,,?,0.004,0,,,,,,stimuli/images/PICTURE_215.png,PLENTY,5e95d76c2d979101cf1120af,28/06/1954,2020-07-09_21h17.42.335,proactive,2020.1.2,Win32,60,5f073de81c76c3308c0e4fb3,5f0779f50f12f215eacbab34,3,,,,,,boot,,,,,,,,,,,4,0,0,45,45,37,1,,,,,,,,,,,,,,,,,,,,,,,,,,,,,,,,,,,,,,,,,,,,,,,,,,,,,,,,,,,,,,,,,,,,,,
,,?,0.004,0,,,,,,stimuli/images/PICTURE_68.png,MILE,5e95d76c2d979101cf1120af,28/06/1954,2020-07-09_21h17.42.335,proactive,2020.1.2,Win32,60,5f073de81c76c3308c0e4fb3,5f0779f50f12f215eacbab34,3,,,,,,candle,,,,,,,,,,,5,0,0,46,46,44,1,,,,,,,,,,,,,,,,,,,,,,,,,,,,,,,,,,,,,,,,,,,,,,,,,,,,,,,,,,,,,,,,,,,,,,
,,ROOF,5.183,1,,,,,,stimuli/images/PICTURE_491.png,ROOF,5e95d76c2d979101cf1120af,28/06/1954,2020-07-09_21h17.42.335,proactive,2020.1.2,Win32,60,5f073de81c76c3308c0e4fb3,5f0779f50f12f215eacbab34,3,,,,,,rug,,,,,,,,,,,3,0,0,47,47,24,1,,,,,,,,,,,,,,,,,,,,,,,,,,,,,,,,,,,,,,,,,,,,,,,,,,,,,,,,,,,,,,,,,,,,,,
,,?,0.006,0,,,,,,stimuli/images/PICTURE_667.png,BATH,5e95d76c2d979101cf1120af,28/06/1954,2020-07-09_21h17.42.335,proactive,2020.1.2,Win32,60,5f073de81c76c3308c0e4fb3,5f0779f50f12f215eacbab34,3,,,,,,daisy,,,,,,,,,,,1,0,0,48,48,4,1,,,,,,,,,,,,,,,,,,,,,,,,,,,,,,,,,,,,,,,,,,,,,,,,,,,,,,,,,,,,,,,,,,,,,,
,,?,0.004,0,,,,,,stimuli/images/PICTURE_504.png,BODY,5e95d76c2d979101cf1120af,28/06/1954,2020-07-09_21h17.42.335,proactive,2020.1.2,Win32,60,5f073de81c76c3308c0e4fb3,5f0779f50f12f215eacbab34,3,,,,,,wheel,,,,,,,,,,,1,0,0,49,49,8,1,,,,,,,,,,,,,,,,,,,,,,,,,,,,,,,,,,,,,,,,,,,,,,,,,,,,,,,,,,,,,,,,,,,,,,
,,?,0.005,0,,,,,,stimuli/images/PICTURE_469.png,LETTER,5e95d76c2d979101cf1120af,28/06/1954,2020-07-09_21h17.42.335,proactive,2020.1.2,Win32,60,5f073de81c76c3308c0e4fb3,5f0779f50f12f215eacbab34,3,,,,,,stool,,,,,,,,,,,5,0,0,50,50,42,1,,,,,,,,,,,,,,,,,,,,,,,,,,,,,,,,,,,,,,,,,,,,,,,,,,,,,,,,,,,,,,,,,,,,,,
,,PHOTO,10.263,1,,,,,,stimuli/images/PICTURE_509.png,PHOTO,5e95d76c2d979101cf1120af,28/06/1954,2020-07-09_21h17.42.335,proactive,2020.1.2,Win32,60,5f073de81c76c3308c0e4fb3,5f0779f50f12f215eacbab34,3,,,,,,telephone,,,,,,,,,,,3,0,0,51,51,21,1,,,,,,,,,,,,,,,,,,,,,,,,,,,,,,,,,,,,,,,,,,,,,,,,,,,,,,,,,,,,,,,,,,,,,,
,,?,0.007,0,,,,,,stimuli/images/PICTURE_744.png,SAKE,5e95d76c2d979101cf1120af,28/06/1954,2020-07-09_21h17.42.335,proactive,2020.1.2,Win32,60,5f073de81c76c3308c0e4fb3,5f0779f50f12f215eacbab34,3,,,,,,ring,,,,,,,,,,,2,0,0,52,52,17,1,,,,,,,,,,,,,,,,,,,,,,,,,,,,,,,,,,,,,,,,,,,,,,,,,,,,,,,,,,,,,,,,,,,,,,
,,AREA,4.655,1,,,,,,stimuli/images/PICTURE_255.png,AREA,5e95d76c2d979101cf1120af,28/06/1954,2020-07-09_21h17.42.335,proactive,2020.1.2,Win32,60,5f073de81c76c3308c0e4fb3,5f0779f50f12f215eacbab34,3,,,,,,shovel,,,,,,,,,,,3,0,0,53,53,22,1,,,,,,,,,,,,,,,,,,,,,,,,,,,,,,,,,,,,,,,,,,,,,,,,,,,,,,,,,,,,,,,,,,,,,,
,,?,0.004,0,,,,,,stimuli/images/PICTURE_208.png,THING,5e95d76c2d979101cf1120af,28/06/1954,2020-07-09_21h17.42.335,proactive,2020.1.2,Win32,60,5f073de81c76c3308c0e4fb3,5f0779f50f12f215eacbab34,3,,,,,,microphone,,,,,,,,,,,5,0,0,54,54,47,1,,,,,,,,,,,,,,,,,,,,,,,,,,,,,,,,,,,,,,,,,,,,,,,,,,,,,,,,,,,,,,,,,,,,,,
,,?,0.008,0,,,,,,stimuli/images/PICTURE_677.png,MILE,5e95d76c2d979101cf1120af,28/06/1954,2020-07-09_21h17.42.335,proactive,2020.1.2,Win32,60,5f073de81c76c3308c0e4fb3,5f0779f50f12f215eacbab34,3,,,,,,map,,,,,,,,,,,4,0,0,55,55,30,1,,,,,,,,,,,,,,,,,,,,,,,,,,,,,,,,,,,,,,,,,,,,,,,,,,,,,,,,,,,,,,,,,,,,,,
,,?,0.004,0,,,,,,stimuli/images/PICTURE_160.png,FEET,5e95d76c2d979101cf1120af,28/06/1954,2020-07-09_21h17.42.335,proactive,2020.1.2,Win32,60,5f073de81c76c3308c0e4fb3,5f0779f50f12f215eacbab34,3,,,,,,wheelbarrow,,,,,,,,,,,6,0,0,56,56,58,1,,,,,,,,,,,,,,,,,,,,,,,,,,,,,,,,,,,,,,,,,,,,,,,,,,,,,,,,,,,,,,,,,,,,,,
,,?,0.003,0,,,,,,stimuli/images/PICTURE_208.png,MONTH,5e95d76c2d979101cf1120af,28/06/1954,2020-07-09_21h17.42.335,proactive,2020.1.2,Win32,60,5f073de81c76c3308c0e4fb3,5f0779f50f12f215eacbab34,3,,,,,,microphone,,,,,,,,,,,6,0,0,57,57,53,1,,,,,,,,,,,,,,,,,,,,,,,,,,,,,,,,,,,,,,,,,,,,,,,,,,,,,,,,,,,,,,,,,,,,,,
,,?,0.004,0,,,,,,stimuli/images/PICTURE_327.png,BEAUTY,5e95d76c2d979101cf1120af,28/06/1954,2020-07-09_21h17.42.335,proactive,2020.1.2,Win32,60,5f073de81c76c3308c0e4fb3,5f0779f50f12f215eacbab34,3,,,,,,helmet,,,,,,,,,,,5,0,0,58,58,48,1,,,,,,,,,,,,,,,,,,,,,,,,,,,,,,,,,,,,,,,,,,,,,,,,,,,,,,,,,,,,,,,,,,,,,,
,,?,0.003,0,,,,,,stimuli/images/PICTURE_688.png,CASINO,5e95d76c2d979101cf1120af,28/06/1954,2020-07-09_21h17.42.335,proactive,2020.1.2,Win32,60,5f073de81c76c3308c0e4fb3,5f0779f50f12f215eacbab34,3,,,,,,runner,,,,,,,,,,,1,0,0,59,59,2,1,,,,,,,,,,,,,,,,,,,,,,,,,,,,,,,,,,,,,,,,,,,,,,,,,,,,,,,,,,,,,,,,,,,,,,
,,,,,,,,,,,,5e95d76c2d979101cf1120af,28/06/1954,2020-07-09_21h17.42.335,proactive,2020.1.2,Win32,60,5f073de81c76c3308c0e4fb3,5f0779f50f12f215eacbab34,3,,,,,,,,,,,,,,,,,,,,,,,,0,1,1,0,1,stimuli/learn-block1.csv,,,,,,,,,,,,,,,,,,,,,,,,,,,,,,,,,,,,,,,,,,,,,,,,,,,,,,,,,,,,,,,,
,,,,,,,,,,stimuli/images/PICTURE_177.png,WRITER,5e95d76c2d979101cf1120af,28/06/1954,2020-07-09_21h17.42.335,proactive,2020.1.2,Win32,60,5f073de81c76c3308c0e4fb3,5f0779f50f12f215eacbab34,3,,,,,,mushroom,,,,,,0,0,0,41,1,5,1,,,,,,,,,,,,,,,,,,,,,,,,,,,,,,,,,,,,,,,,,,,,,,,,,,,,,,,,,,,,,,,,,,,,,,,,,,,
,,,,,,,,,,stimuli/images/PICTURE_32.png,PILLS,5e95d76c2d979101cf1120af,28/06/1954,2020-07-09_21h17.42.335,proactive,2020.1.2,Win32,60,5f073de81c76c3308c0e4fb3,5f0779f50f12f215eacbab34,3,,,,,,crown,,,,,,0,1,1,18,1,2,1,,,,,,,,,,,,,,,,,,,,,,,,,,,,,,,,,,,,,,,,,,,,,,,,,,,,,,,,,,,,,,,,,,,,,,,,,,,
,,,,,,,,,,stimuli/images/PICTURE_147.png,WOMEN,5e95d76c2d979101cf1120af,28/06/1954,2020-07-09_21h17.42.335,proactive,2020.1.2,Win32,60,5f073de81c76c3308c0e4fb3,5f0779f50f12f215eacbab34,3,,,,,,hanger,,,,,,0,2,2,7,1,1,1,,,,,,,,,,,,,,,,,,,,,,,,,,,,,,,,,,,,,,,,,,,,,,,,,,,,,,,,,,,,,,,,,,,,,,,,,,,
,,,,,,,,,,stimuli/images/PICTURE_469.png,AGENT,5e95d76c2d979101cf1120af,28/06/1954,2020-07-09_21h17.42.335,proactive,2020.1.2,Win32,60,5f073de81c76c3308c0e4fb3,5f0779f50f12f215eacbab34,3,,,,,,stool,,,,,,0,3,3,16,1,2,1,,,,,,,,,,,,,,,,,,,,,,,,,,,,,,,,,,,,,,,,,,,,,,,,,,,,,,,,,,,,,,,,,,,,,,,,,,,
,,,,,,,,,,stimuli/images/PICTURE_33.png,FRIEND,5e95d76c2d979101cf1120af,28/06/1954,2020-07-09_21h17.42.335,proactive,2020.1.2,Win32,60,5f073de81c76c3308c0e4fb3,5f0779f50f12f215eacbab34,3,,,,,,frame,,,,,,0,4,4,8,1,1,1,,,,,,,,,,,,,,,,,,,,,,,,,,,,,,,,,,,,,,,,,,,,,,,,,,,,,,,,,,,,,,,,,,,,,,,,,,,
,,,,,,,,,,stimuli/images/PICTURE_68.png,ROOF,5e95d76c2d979101cf1120af,28/06/1954,2020-07-09_21h17.42.335,proactive,2020.1.2,Win32,60,5f073de81c76c3308c0e4fb3,5f0779f50f12f215eacbab34,3,,,,,,candle,,,,,,0,5,5,38,1,4,1,,,,,,,,,,,,,,,,,,,,,,,,,,,,,,,,,,,,,,,,,,,,,,,,,,,,,,,,,,,,,,,,,,,,,,,,,,,
,,,,,,,,,,stimuli/images/PICTURE_383.png,WRITER,5e95d76c2d979101cf1120af,28/06/1954,2020-07-09_21h17.42.335,proactive,2020.1.2,Win32,60,5f073de81c76c3308c0e4fb3,5f0779f50f12f215eacbab34,3,,,,,,coin,,,,,,0,6,6,28,1,3,1,,,,,,,,,,,,,,,,,,,,,,,,,,,,,,,,,,,,,,,,,,,,,,,,,,,,,,,,,,,,,,,,,,,,,,,,,,,
,,,,,,,,,,stimuli/images/PICTURE_504.png,ARTIST,5e95d76c2d979101cf1120af,28/06/1954,2020-07-09_21h17.42.335,proactive,2020.1.2,Win32,60,5f073de81c76c3308c0e4fb3,5f0779f50f12f215eacbab34,3,,,,,,wheel,,,,,,0,7,7,49,1,5,1,,,,,,,,,,,,,,,,,,,,,,,,,,,,,,,,,,,,,,,,,,,,,,,,,,,,,,,,,,,,,,,,,,,,,,,,,,,
,,,,,,,,,,stimuli/images/PICTURE_677.png,APPLE,5e95d76c2d979101cf1120af,28/06/1954,2020-07-09_21h17.42.335,proactive,2020.1.2,Win32,60,5f073de81c76c3308c0e4fb3,5f0779f50f12f215eacbab34,3,,,,,,map,,,,,,0,8,8,43,1,5,1,,,,,,,,,,,,,,,,,,,,,,,,,,,,,,,,,,,,,,,,,,,,,,,,,,,,,,,,,,,,,,,,,,,,,,,,,,,
,,,,,,,,,,stimuli/images/PICTURE_380.png,HONEY,5e95d76c2d979101cf1120af,28/06/1954,2020-07-09_21h17.42.335,proactive,2020.1.2,Win32,60,5f073de81c76c3308c0e4fb3,5f0779f50f12f215eacbab34,3,,,,,,gorilla,,,,,,0,9,9,19,1,2,1,,,,,,,,,,,,,,,,,,,,,,,,,,,,,,,,,,,,,,,,,,,,,,,,,,,,,,,,,,,,,,,,,,,,,,,,,,,
,,,,,,,,,,stimuli/images/PICTURE_340.png,VALLEY,5e95d76c2d979101cf1120af,28/06/1954,2020-07-09_21h17.42.335,proactive,2020.1.2,Win32,60,5f073de81c76c3308c0e4fb3,5f0779f50f12f215eacbab34,3,,,,,,mirror,,,,,,0,10,10,54,1,6,1,,,,,,,,,,,,,,,,,,,,,,,,,,,,,,,,,,,,,,,,,,,,,,,,,,,,,,,,,,,,,,,,,,,,,,,,,,,
,,,,,,,,,,stimuli/images/PICTURE_296.png,LOTS,5e95d76c2d979101cf1120af,28/06/1954,2020-07-09_21h17.42.335,proactive,2020.1.2,Win32,60,5f073de81c76c3308c0e4fb3,5f0779f50f12f215eacbab34,3,,,,,,bolt,,,,,,0,11,11,9,1,1,1,,,,,,,,,,,,,,,,,,,,,,,,,,,,,,,,,,,,,,,,,,,,,,,,,,,,,,,,,,,,,,,,,,,,,,,,,,,
,,,,,,,,,,stimuli/images/PICTURE_108.png,POLICY,5e95d76c2d979101cf1120af,28/06/1954,2020-07-09_21h17.42.335,proactive,2020.1.2,Win32,60,5f073de81c76c3308c0e4fb3,5f0779f50f12f215eacbab34,3,,,,,,calendar,,,,,,0,12,12,22,1,3,1,,,,,,,,,,,,,,,,,,,,,,,,,,,,,,,,,,,,,,,,,,,,,,,,,,,,,,,,,,,,,,,,,,,,,,,,,,,
,,,,,,,,,,stimuli/images/PICTURE_308.png,FAMILY,5e95d76c2d979101cf1120af,28/06/1954,2020-07-09_21h17.42.335,proactive,2020.1.2,Win32,60,5f073de81c76c3308c0e4fb3,5f0779f50f12f215eacbab34,3,,,,,,dice,,,,,,0,13,13,36,1,4,1,,,,,,,,,,,,,,,,,,,,,,,,,,,,,,,,,,,,,,,,,,,,,,,,,,,,,,,,,,,,,,,,,,,,,,,,,,,
,,,,,,,,,,stimuli/images/PICTURE_203.png,NIGHT,5e95d76c2d979101cf1120af,28/06/1954,2020-07-09_21h17.42.335,proactive,2020.1.2,Win32,60,5f073de81c76c3308c0e4fb3,5f0779f50f12f215eacbab34,3,,,,,,cap,,,,,,0,14,14,2,1,1,1,,,,,,,,,,,,,,,,,,,,,,,,,,,,,,,,,,,,,,,,,,,,,,,,,,,,,,,,,,,,,,,,,,,,,,,,,,,
,,,,,,,,,,stimuli/images/PICTURE_675.png,SALE,5e95d76c2d979101cf1120af,28/06/1954,2020-07-09_21h17.42.335,proactive,2020.1.2,Win32,60,5f073de81c76c3308c0e4fb3,5f0779f50f12f215eacbab34,3,,,,,,windmill,,,,,,0,15,15,47,1,5,1,,,,,,,,,,,,,,,,,,,,,,,,,,,,,,,,,,,,,,,,,,,,,,,,,,,,,,,,,,,,,,,,,,,,,,,,,,,
,,,,,,,,,,stimuli/images/PICTURE_449.png,DUDE,5e95d76c2d979101cf1120af,28/06/1954,2020-07-09_21h17.42.335,proactive,2020.1.2,Win32,60,5f073de81c76c3308c0e4fb3,5f0779f50f12f215eacbab34,3,,,,,,bench,,,,,,0,16,16,17,1,2,1,,,,,,,,,,,,,,,,,,,,,,,,,,,,,,,,,,,,,,,,,,,,,,,,,,,,,,,,,,,,,,,,,,,,,,,,,,,
,,,,,,,,,,stimuli/images/PICTURE_685.png,PENNY,5e95d76c2d979101cf1120af,28/06/1954,2020-07-09_21h17.42.335,proactive,2020.1.2,Win32,60,5f073de81c76c3308c0e4fb3,5f0779f50f12f215eacbab34,3,,,,,,goose,,,,,,0,17,17,4,1,1,1,,,,,,,,,,,,,,,,,,,,,,,,,,,,,,,,,,,,,,,,,,,,,,,,,,,,,,,,,,,,,,,,,,,,,,,,,,,
,,,,,,,,,,stimuli/images/PICTURE_405.png,PLENTY,5e95d76c2d979101cf1120af,28/06/1954,2020-07-09_21h17.42.335,proactive,2020.1.2,Win32,60,5f073de81c76c3308c0e4fb3,5f0779f50f12f215eacbab34,3,,,,,,anchor,,,,,,0,18,18,23,1,3,1,,,,,,,,,,,,,,,,,,,,,,,,,,,,,,,,,,,,,,,,,,,,,,,,,,,,,,,,,,,,,,,,,,,,,,,,,,,
,,,,,,,,,,stimuli/images/PICTURE_380.png,CANDY,5e95d76c2d979101cf1120af,28/06/1954,2020-07-09_21h17.42.335,proactive,2020.1.2,Win32,60,5f073de81c76c3308c0e4fb3,5f0779f50f12f215eacbab34,3,,,,,,gorilla,,,,,,0,19,19,0,1,1,1,,,,,,,,,,,,,,,,,,,,,,,,,,,,,,,,,,,,,,,,,,,,,,,,,,,,,,,,,,,,,,,,,,,,,,,,,,,
,,,,,,,,,,stimuli/images/PICTURE_327.png,CASINO,5e95d76c2d979101cf1120af,28/06/1954,2020-07-09_21h17.42.335,proactive,2020.1.2,Win32,60,5f073de81c76c3308c0e4fb3,5f0779f50f12f215eacbab34,3,,,,,,helmet,,,,,,0,20,20,20,1,3,1,,,,,,,,,,,,,,,,,,,,,,,,,,,,,,,,,,,,,,,,,,,,,,,,,,,,,,,,,,,,,,,,,,,,,,,,,,,
,,,,,,,,,,stimuli/images/PICTURE_744.png,WEAPON,5e95d76c2d979101cf1120af,28/06/1954,2020-07-09_21h17.42.335,proactive,2020.1.2,Win32,60,5f073de81c76c3308c0e4fb3,5f0779f50f12f215eacbab34,3,,,,,,ring,,,,,,0,21,21,50,1,6,1,,,,,,,,,,,,,,,,,,,,,,,,,,,,,,,,,,,,,,,,,,,,,,,,,,,,,,,,,,,,,,,,,,,,,,,,,,,
,,,,,,,,,,stimuli/images/PICTURE_85.png,NATION,5e95d76c2d979101cf1120af,28/06/1954,2020-07-09_21h17.42.335,proactive,2020.1.2,Win32,60,5f073de81c76c3308c0e4fb3,5f0779f50f12f215eacbab34,3,,,,,,diamond,,,,,,0,22,22,5,1,1,1,,,,,,,,,,,,,,,,,,,,,,,,,,,,,,,,,,,,,,,,,,,,,,,,,,,,,,,,,,,,,,,,,,,,,,,,,,,
,,,,,,,,,,stimuli/images/PICTURE_655.png,TOILET,5e95d76c2d979101cf1120af,28/06/1954,2020-07-09_21h17.42.335,proactive,2020.1.2,Win32,60,5f073de81c76c3308c0e4fb3,5f0779f50f12f215eacbab34,3,,,,,,megaphone,,,,,,0,23,23,12,1,2,1,,,,,,,,,,,,,,,,,,,,,,,,,,,,,,,,,,,,,,,,,,,,,,,,,,,,,,,,,,,,,,,,,,,,,,,,,,,
,,,,,,,,,,stimuli/images/PICTURE_491.png,GLASS,5e95d76c2d979101cf1120af,28/06/1954,2020-07-09_21h17.42.335,proactive,2020.1.2,Win32,60,5f073de81c76c3308c0e4fb3,5f0779f50f12f215eacbab34,3,,,,,,rug,,,,,,0,24,24,14,1,2,1,,,,,,,,,,,,,,,,,,,,,,,,,,,,,,,,,,,,,,,,,,,,,,,,,,,,,,,,,,,,,,,,,,,,,,,,,,,
,,,,,,,,,,stimuli/images/PICTURE_667.png,RIVER,5e95d76c2d979101cf1120af,28/06/1954,2020-07-09_21h17.42.335,proactive,2020.1.2,Win32,60,5f073de81c76c3308c0e4fb3,5f0779f50f12f215eacbab34,3,,,,,,daisy,,,,,,0,25,25,10,1,2,1,,,,,,,,,,,,,,,,,,,,,,,,,,,,,,,,,,,,,,,,,,,,,,,,,,,,,,,,,,,,,,,,,,,,,,,,,,,
,,,,,,,,,,stimuli/images/PICTURE_68.png,MILE,5e95d76c2d979101cf1120af,28/06/1954,2020-07-09_21h17.42.335,proactive,2020.1.2,Win32,60,5f073de81c76c3308c0e4fb3,5f0779f50f12f215eacbab34,3,,,,,,candle,,,,,,0,26,26,51,1,6,1,,,,,,,,,,,,,,,,,,,,,,,,,,,,,,,,,,,,,,,,,,,,,,,,,,,,,,,,,,,,,,,,,,,,,,,,,,,
,,,,,,,,,,stimuli/images/PICTURE_654.png,MONTH,5e95d76c2d979101cf1120af,28/06/1954,2020-07-09_21h17.42.335,proactive,2020.1.2,Win32,60,5f073de81c76c3308c0e4fb3,5f0779f50f12f215eacbab34,3,,,,,,pencil,,,,,,0,27,27,29,1,3,1,,,,,,,,,,,,,,,,,,,,,,,,,,,,,,,,,,,,,,,,,,,,,,,,,,,,,,,,,,,,,,,,,,,,,,,,,,,
,,,,,,,,,,stimuli/images/PICTURE_85.png,TOILET,5e95d76c2d979101cf1120af,28/06/1954,2020-07-09_21h17.42.335,proactive,2020.1.2,Win32,60,5f073de81c76c3308c0e4fb3,5f0779f50f12f215eacbab34,3,,,,,,diamond,,,,,,0,28,28,48,1,5,1,,,,,,,,,,,,,,,,,,,,,,,,,,,,,,,,,,,,,,,,,,,,,,,,,,,,,,,,,,,,,,,,,,,,,,,,,,,
,,,,,,,,,,stimuli/images/PICTURE_327.png,SERIES,5e95d76c2d979101cf1120af,28/06/1954,2020-07-09_21h17.42.335,proactive,2020.1.2,Win32,60,5f073de81c76c3308c0e4fb3,5f0779f50f12f215eacbab34,3,,,,,,helmet,,,,,,0,29,29,3,1,1,1,,,,,,,,,,,,,,,,,,,,,,,,,,,,,,,,,,,,,,,,,,,,,,,,,,,,,,,,,,,,,,,,,,,,,,,,,,,
,,,,,,,,,,stimuli/images/PICTURE_339.png,CLIENT,5e95d76c2d979101cf1120af,28/06/1954,2020-07-09_21h17.42.335,proactive,2020.1.2,Win32,60,5f073de81c76c3308c0e4fb3,5f0779f50f12f215eacbab34,3,,,,,,backpack,,,,,,0,30,30,11,1,2,1,,,,,,,,,,,,,,,,,,,,,,,,,,,,,,,,,,,,,,,,,,,,,,,,,,,,,,,,,,,,,,,,,,,,,,,,,,,
,,,,,,,,,,stimuli/images/PICTURE_383.png,SERIES,5e95d76c2d979101cf1120af,28/06/1954,2020-07-09_21h17.42.335,proactive,2020.1.2,Win32,60,5f073de81c76c3308c0e4fb3,5f0779f50f12f215eacbab34,3,,,,,,coin,,,,,,0,31,31,46,1,5,1,,,,,,,,,,,,,,,,,,,,,,,,,,,,,,,,,,,,,,,,,,,,,,,,,,,,,,,,,,,,,,,,,,,,,,,,,,,
,,,,,,,,,,stimuli/images/PICTURE_42.png,BOYS,5e95d76c2d979101cf1120af,28/06/1954,2020-07-09_21h17.42.335,proactive,2020.1.2,Win32,60,5f073de81c76c3308c0e4fb3,5f0779f50f12f215eacbab34,3,,,,,,pear,,,,,,0,32,32,55,1,6,1,,,,,,,,,,,,,,,,,,,,,,,,,,,,,,,,,,,,,,,,,,,,,,,,,,,,,,,,,,,,,,,,,,,,,,,,,,,
,,,,,,,,,,stimuli/images/PICTURE_708.png,RECORD,5e95d76c2d979101cf1120af,28/06/1954,2020-07-09_21h17.42.335,proactive,2020.1.2,Win32,60,5f073de81c76c3308c0e4fb3,5f0779f50f12f215eacbab34,3,,,,,,monkey,,,,,,0,33,33,58,1,6,1,,,,,,,,,,,,,,,,,,,,,,,,,,,,,,,,,,,,,,,,,,,,,,,,,,,,,,,,,,,,,,,,,,,,,,,,,,,
,,,,,,,,,,stimuli/images/PICTURE_95.png,BOYS,5e95d76c2d979101cf1120af,28/06/1954,2020-07-09_21h17.42.335,proactive,2020.1.2,Win32,60,5f073de81c76c3308c0e4fb3,5f0779f50f12f215eacbab34,3,,,,,,suitcase,,,,,,0,34,34,1,1,1,1,,,,,,,,,,,,,,,,,,,,,,,,,,,,,,,,,,,,,,,,,,,,,,,,,,,,,,,,,,,,,,,,,,,,,,,,,,,
,,,,,,,,,,stimuli/images/PICTURE_2.png,FLIGHT,5e95d76c2d979101cf1120af,28/06/1954,2020-07-09_21h17.42.335,proactive,2020.1.2,Win32,60,5f073de81c76c3308c0e4fb3,5f0779f50f12f215eacbab34,3,,,,,,tyre,,,,,,0,35,35,15,1,2,1,,,,,,,,,,,,,,,,,,,,,,,,,,,,,,,,,,,,,,,,,,,,,,,,,,,,,,,,,,,,,,,,,,,,,,,,,,,
,,,,,,,,,,stimuli/images/PICTURE_296.png,LIFE,5e95d76c2d979101cf1120af,28/06/1954,2020-07-09_21h17.42.335,proactive,2020.1.2,Win32,60,5f073de81c76c3308c0e4fb3,5f0779f50f12f215eacbab34,3,,,,,,bolt,,,,,,0,36,36,57,1,6,1,,,,,,,,,,,,,,,,,,,,,,,,,,,,,,,,,,,,,,,,,,,,,,,,,,,,,,,,,,,,,,,,,,,,,,,,,,,
,,,,,,,,,,stimuli/images/PICTURE_405.png,YEAR,5e95d76c2d979101cf1120af,28/06/1954,2020-07-09_21h17.42.335,proactive,2020.1.2,Win32,60,5f073de81c76c3308c0e4fb3,5f0779f50f12f215eacbab34,3,,,,,,anchor,,,,,,0,37,37,34,1,4,1,,,,,,,,,,,,,,,,,,,,,,,,,,,,,,,,,,,,,,,,,,,,,,,,,,,,,,,,,,,,,,,,,,,,,,,,,,,
,,,,,,,,,,stimuli/images/PICTURE_504.png,YEAR,5e95d76c2d979101cf1120af,28/06/1954,2020-07-09_21h17.42.335,proactive,2020.1.2,Win32,60,5f073de81c76c3308c0e4fb3,5f0779f50f12f215eacbab34,3,,,,,,wheel,,,,,,0,38,38,13,1,2,1,,,,,,,,,,,,,,,,,,,,,,,,,,,,,,,,,,,,,,,,,,,,,,,,,,,,,,,,,,,,,,,,,,,,,,,,,,,
,,,,,,,,,,stimuli/images/PICTURE_297.png,RIVER,5e95d76c2d979101cf1120af,28/06/1954,2020-07-09_21h17.42.335,proactive,2020.1.2,Win32,60,5f073de81c76c3308c0e4fb3,5f0779f50f12f215eacbab34,3,,,,,,aeroplane,,,,,,0,39,39,39,1,4,1,,,,,,,,,,,,,,,,,,,,,,,,,,,,,,,,,,,,,,,,,,,,,,,,,,,,,,,,,,,,,,,,,,,,,,,,,,,
,,,,,,,,,,stimuli/images/PICTURE_95.png,MILLER,5e95d76c2d979101cf1120af,28/06/1954,2020-07-09_21h17.42.335,proactive,2020.1.2,Win32,60,5f073de81c76c3308c0e4fb3,5f0779f50f12f215eacbab34,3,,,,,,suitcase,,,,,,0,40,40,56,1,6,1,,,,,,,,,,,,,,,,,,,,,,,,,,,,,,,,,,,,,,,,,,,,,,,,,,,,,,,,,,,,,,,,,,,,,,,,,,,
,,,,,,,,,,stimuli/images/PICTURE_467.png,POLICY,5e95d76c2d979101cf1120af,28/06/1954,2020-07-09_21h17.42.335,proactive,2020.1.2,Win32,60,5f073de81c76c3308c0e4fb3,5f0779f50f12f215eacbab34,3,,,,,,peg,,,,,,0,41,41,53,1,6,1,,,,,,,,,,,,,,,,,,,,,,,,,,,,,,,,,,,,,,,,,,,,,,,,,,,,,,,,,,,,,,,,,,,,,,,,,,,
,,,,,,,,,,stimuli/images/PICTURE_340.png,LETTER,5e95d76c2d979101cf1120af,28/06/1954,2020-07-09_21h17.42.335,proactive,2020.1.2,Win32,60,5f073de81c76c3308c0e4fb3,5f0779f50f12f215eacbab34,3,,,,,,mirror,,,,,,0,42,42,24,1,3,1,,,,,,,,,,,,,,,,,,,,,,,,,,,,,,,,,,,,,,,,,,,,,,,,,,,,,,,,,,,,,,,,,,,,,,,,,,,
,,,,,,,,,,stimuli/images/PICTURE_203.png,GODS,5e95d76c2d979101cf1120af,28/06/1954,2020-07-09_21h17.42.335,proactive,2020.1.2,Win32,60,5f073de81c76c3308c0e4fb3,5f0779f50f12f215eacbab34,3,,,,,,cap,,,,,,0,43,43,30,1,4,1,,,,,,,,,,,,,,,,,,,,,,,,,,,,,,,,,,,,,,,,,,,,,,,,,,,,,,,,,,,,,,,,,,,,,,,,,,,
,,,,,,,,,,stimuli/images/PICTURE_403.png,RIVER,5e95d76c2d979101cf1120af,28/06/1954,2020-07-09_21h17.42.335,proactive,2020.1.2,Win32,60,5f073de81c76c3308c0e4fb3,5f0779f50f12f215eacbab34,3,,,,,,cathedral,,,,,,0,44,44,40,1,5,1,,,,,,,,,,,,,,,,,,,,,,,,,,,,,,,,,,,,,,,,,,,,,,,,,,,,,,,,,,,,,,,,,,,,,,,,,,,
,,,,,,,,,,stimuli/images/PICTURE_750.png,HOTEL,5e95d76c2d979101cf1120af,28/06/1954,2020-07-09_21h17.42.335,proactive,2020.1.2,Win32,60,5f073de81c76c3308c0e4fb3,5f0779f50f12f215eacbab34,3,,,,,,kettle,,,,,,0,45,45,27,1,3,1,,,,,,,,,,,,,,,,,,,,,,,,,,,,,,,,,,,,,,,,,,,,,,,,,,,,,,,,,,,,,,,,,,,,,,,,,,,
,,,,,,,,,,stimuli/images/PICTURE_233.png,LOTS,5e95d76c2d979101cf1120af,28/06/1954,2020-07-09_21h17.42.335,proactive,2020.1.2,Win32,60,5f073de81c76c3308c0e4fb3,5f0779f50f12f215eacbab34,3,,,,,,salt,,,,,,0,46,46,42,1,5,1,,,,,,,,,,,,,,,,,,,,,,,,,,,,,,,,,,,,,,,,,,,,,,,,,,,,,,,,,,,,,,,,,,,,,,,,,,,
,,,,,,,,,,stimuli/images/PICTURE_487.png,GIRL,5e95d76c2d979101cf1120af,28/06/1954,2020-07-09_21h17.42.335,proactive,2020.1.2,Win32,60,5f073de81c76c3308c0e4fb3,5f0779f50f12f215eacbab34,3,,,,,,basket,,,,,,0,47,47,45,1,5,1,,,,,,,,,,,,,,,,,,,,,,,,,,,,,,,,,,,,,,,,,,,,,,,,,,,,,,,,,,,,,,,,,,,,,,,,,,,
,,,,,,,,,,stimuli/images/PICTURE_208.png,SYSTEM,5e95d76c2d979101cf1120af,28/06/1954,2020-07-09_21h17.42.335,proactive,2020.1.2,Win32,60,5f073de81c76c3308c0e4fb3,5f0779f50f12f215eacbab34,3,,,,,,microphone,,,,,,0,48,48,32,1,4,1,,,,,,,,,,,,,,,,,,,,,,,,,,,,,,,,,,,,,,,,,,,,,,,,,,,,,,,,,,,,,,,,,,,,,,,,,,,
,,,,,,,,,,stimuli/images/PICTURE_147.png,YEAR,5e95d76c2d979101cf1120af,28/06/1954,2020-07-09_21h17.42.335,proactive,2020.1.2,Win32,60,5f073de81c76c3308c0e4fb3,5f0779f50f12f215eacbab34,3,,,,,,hanger,,,,,,0,49,49,21,1,3,1,,,,,,,,,,,,,,,,,,,,,,,,,,,,,,,,,,,,,,,,,,,,,,,,,,,,,,,,,,,,,,,,,,,,,,,,,,,
,,,,,,,,,,stimuli/images/PICTURE_403.png,WRITER,5e95d76c2d979101cf1120af,28/06/1954,2020-07-09_21h17.42.335,proactive,2020.1.2,Win32,60,5f073de81c76c3308c0e4fb3,5f0779f50f12f215eacbab34,3,,,,,,cathedral,,,,,,0,50,50,31,1,4,1,,,,,,,,,,,,,,,,,,,,,,,,,,,,,,,,,,,,,,,,,,,,,,,,,,,,,,,,,,,,,,,,,,,,,,,,,,,
,,,,,,,,,,stimuli/images/PICTURE_95.png,HONEY,5e95d76c2d979101cf1120af,28/06/1954,2020-07-09_21h17.42.335,proactive,2020.1.2,Win32,60,5f073de81c76c3308c0e4fb3,5f0779f50f12f215eacbab34,3,,,,,,suitcase,,,,,,0,51,51,44,1,5,1,,,,,,,,,,,,,,,,,,,,,,,,,,,,,,,,,,,,,,,,,,,,,,,,,,,,,,,,,,,,,,,,,,,,,,,,,,,
,,,,,,,,,,stimuli/images/PICTURE_504.png,COPS,5e95d76c2d979101cf1120af,28/06/1954,2020-07-09_21h17.42.335,proactive,2020.1.2,Win32,60,5f073de81c76c3308c0e4fb3,5f0779f50f12f215eacbab34,3,,,,,,wheel,,,,,,0,52,52,52,1,6,1,,,,,,,,,,,,,,,,,,,,,,,,,,,,,,,,,,,,,,,,,,,,,,,,,,,,,,,,,,,,,,,,,,,,,,,,,,,
,,,,,,,,,,stimuli/images/PICTURE_491.png,RIVER,5e95d76c2d979101cf1120af,28/06/1954,2020-07-09_21h17.42.335,proactive,2020.1.2,Win32,60,5f073de81c76c3308c0e4fb3,5f0779f50f12f215eacbab34,3,,,,,,rug,,,,,,0,53,53,6,1,1,1,,,,,,,,,,,,,,,,,,,,,,,,,,,,,,,,,,,,,,,,,,,,,,,,,,,,,,,,,,,,,,,,,,,,,,,,,,,
,,,,,,,,,,stimuli/images/PICTURE_403.png,TOILET,5e95d76c2d979101cf1120af,28/06/1954,2020-07-09_21h17.42.335,proactive,2020.1.2,Win32,60,5f073de81c76c3308c0e4fb3,5f0779f50f12f215eacbab34,3,,,,,,cathedral,,,,,,0,54,54,25,1,3,1,,,,,,,,,,,,,,,,,,,,,,,,,,,,,,,,,,,,,,,,,,,,,,,,,,,,,,,,,,,,,,,,,,,,,,,,,,,
,,,,,,,,,,stimuli/images/PICTURE_285.png,LIFE,5e95d76c2d979101cf1120af,28/06/1954,2020-07-09_21h17.42.335,proactive,2020.1.2,Win32,60,5f073de81c76c3308c0e4fb3,5f0779f50f12f215eacbab34,3,,,,,,carrot,,,,,,0,55,55,33,1,4,1,,,,,,,,,,,,,,,,,,,,,,,,,,,,,,,,,,,,,,,,,,,,,,,,,,,,,,,,,,,,,,,,,,,,,,,,,,,
,,,,,,,,,,stimuli/images/PICTURE_108.png,FLIGHT,5e95d76c2d979101cf1120af,28/06/1954,2020-07-09_21h17.42.335,proactive,2020.1.2,Win32,60,5f073de81c76c3308c0e4fb3,5f0779f50f12f215eacbab34,3,,,,,,calendar,,,,,,0,56,56,59,1,6,1,,,,,,,,,,,,,,,,,,,,,,,,,,,,,,,,,,,,,,,,,,,,,,,,,,,,,,,,,,,,,,,,,,,,,,,,,,,
,,,,,,,,,,stimuli/images/PICTURE_564.png,BATH,5e95d76c2d979101cf1120af,28/06/1954,2020-07-09_21h17.42.335,proactive,2020.1.2,Win32,60,5f073de81c76c3308c0e4fb3,5f0779f50f12f215eacbab34,3,,,,,,spoon,,,,,,0,57,57,26,1,3,1,,,,,,,,,,,,,,,,,,,,,,,,,,,,,,,,,,,,,,,,,,,,,,,,,,,,,,,,,,,,,,,,,,,,,,,,,,,
,,,,,,,,,,stimuli/images/PICTURE_57.png,MOMENT,5e95d76c2d979101cf1120af,28/06/1954,2020-07-09_21h17.42.335,proactive,2020.1.2,Win32,60,5f073de81c76c3308c0e4fb3,5f0779f50f12f215eacbab34,3,,,,,,stamp,,,,,,0,58,58,37,1,4,1,,,,,,,,,,,,,,,,,,,,,,,,,,,,,,,,,,,,,,,,,,,,,,,,,,,,,,,,,,,,,,,,,,,,,,,,,,,
,,?,0.002,0,,,,,,stimuli/images/PICTURE_108.png,FLIGHT,5e95d76c2d979101cf1120af,28/06/1954,2020-07-09_21h17.42.335,proactive,2020.1.2,Win32,60,5f073de81c76c3308c0e4fb3,5f0779f50f12f215eacbab34,3,,,,,,calendar,,,,,,,,,,,6,1,0,0,0,59,1,,,,,,,,,,,,,,,,,,,,,,,,,,,,,,,,,,,,,,,,,,,,,,,,,,,,,,,,,,,,,,,,,,,,,,
,,?,0.001,0,,,,,,stimuli/images/PICTURE_177.png,WRITER,5e95d76c2d979101cf1120af,28/06/1954,2020-07-09_21h17.42.335,proactive,2020.1.2,Win32,60,5f073de81c76c3308c0e4fb3,5f0779f50f12f215eacbab34,3,,,,,,mushroom,,,,,,,,,,,5,1,0,1,1,41,1,,,,,,,,,,,,,,,,,,,,,,,,,,,,,,,,,,,,,,,,,,,,,,,,,,,,,,,,,,,,,,,,,,,,,,
,,?,0.014,0,,,,,,stimuli/images/PICTURE_32.png,PILLS,5e95d76c2d979101cf1120af,28/06/1954,2020-07-09_21h17.42.335,proactive,2020.1.2,Win32,60,5f073de81c76c3308c0e4fb3,5f0779f50f12f215eacbab34,3,,,,,,crown,,,,,,,,,,,2,1,0,2,2,18,1,,,,,,,,,,,,,,,,,,,,,,,,,,,,,,,,,,,,,,,,,,,,,,,,,,,,,,,,,,,,,,,,,,,,,,
,,?,0.002,0,,,,,,stimuli/images/PICTURE_504.png,YEAR,5e95d76c2d979101cf1120af,28/06/1954,2020-07-09_21h17.42.335,proactive,2020.1.2,Win32,60,5f073de81c76c3308c0e4fb3,5f0779f50f12f215eacbab34,3,,,,,,wheel,,,,,,,,,,,2,1,0,3,3,13,1,,,,,,,,,,,,,,,,,,,,,,,,,,,,,,,,,,,,,,,,,,,,,,,,,,,,,,,,,,,,,,,,,,,,,,
,,?,0.002,0,,,,,,stimuli/images/PICTURE_147.png,WOMEN,5e95d76c2d979101cf1120af,28/06/1954,2020-07-09_21h17.42.335,proactive,2020.1.2,Win32,60,5f073de81c76c3308c0e4fb3,5f0779f50f12f215eacbab34,3,,,,,,hanger,,,,,,,,,,,1,1,0,4,4,7,1,,,,,,,,,,,,,,,,,,,,,,,,,,,,,,,,,,,,,,,,,,,,,,,,,,,,,,,,,,,,,,,,,,,,,,
,,?,0.001,0,,,,,,stimuli/images/PICTURE_339.png,CLIENT,5e95d76c2d979101cf1120af,28/06/1954,2020-07-09_21h17.42.335,proactive,2020.1.2,Win32,60,5f073de81c76c3308c0e4fb3,5f0779f50f12f215eacbab34,3,,,,,,backpack,,,,,,,,,,,2,1,0,5,5,11,1,,,,,,,,,,,,,,,,,,,,,,,,,,,,,,,,,,,,,,,,,,,,,,,,,,,,,,,,,,,,,,,,,,,,,,
,,HOTEL,9.389,1,,,,,,stimuli/images/PICTURE_750.png,HOTEL,5e95d76c2d979101cf1120af,28/06/1954,2020-07-09_21h17.42.335,proactive,2020.1.2,Win32,60,5f073de81c76c3308c0e4fb3,5f0779f50f12f215eacbab34,3,,,,,,kettle,,,,,,,,,,,3,1,0,6,6,27,1,,,,,,,,,,,,,,,,,,,,,,,,,,,,,,,,,,,,,,,,,,,,,,,,,,,,,,,,,,,,,,,,,,,,,,
,,?,0.011,0,,,,,,stimuli/images/PICTURE_380.png,CANDY,5e95d76c2d979101cf1120af,28/06/1954,2020-07-09_21h17.42.335,proactive,2020.1.2,Win32,60,5f073de81c76c3308c0e4fb3,5f0779f50f12f215eacbab34,3,,,,,,gorilla,,,,,,,,,,,1,1,0,7,7,0,1,,,,,,,,,,,,,,,,,,,,,,,,,,,,,,,,,,,,,,,,,,,,,,,,,,,,,,,,,,,,,,,,,,,,,,
,,PLENTY,6.77,1,,,,,,stimuli/images/PICTURE_405.png,PLENTY,5e95d76c2d979101cf1120af,28/06/1954,2020-07-09_21h17.42.335,proactive,2020.1.2,Win32,60,5f073de81c76c3308c0e4fb3,5f0779f50f12f215eacbab34,3,,,,,,anchor,,,,,,,,,,,3,1,0,8,8,23,1,,,,,,,,,,,,,,,,,,,,,,,,,,,,,,,,,,,,,,,,,,,,,,,,,,,,,,,,,,,,,,,,,,,,,,
,,CASINO,6.201,1,,,,,,stimuli/images/PICTURE_327.png,CASINO,5e95d76c2d979101cf1120af,28/06/1954,2020-07-09_21h17.42.335,proactive,2020.1.2,Win32,60,5f073de81c76c3308c0e4fb3,5f0779f50f12f215eacbab34,3,,,,,,helmet,,,,,,,,,,,3,1,0,9,9,20,1,,,,,,,,,,,,,,,,,,,,,,,,,,,,,,,,,,,,,,,,,,,,,,,,,,,,,,,,,,,,,,,,,,,,,,
,,?,0.005,0,,,,,,stimuli/images/PICTURE_491.png,GLASS,5e95d76c2d979101cf1120af,28/06/1954,2020-07-09_21h17.42.335,proactive,2020.1.2,Win32,60,5f073de81c76c3308c0e4fb3,5f0779f50f12f215eacbab34,3,,,,,,rug,,,,,,,,,,,2,1,0,10,10,14,1,,,,,,,,,,,,,,,,,,,,,,,,,,,,,,,,,,,,,,,,,,,,,,,,,,,,,,,,,,,,,,,,,,,,,,
,,POLICY,8.636,1,,,,,,stimuli/images/PICTURE_108.png,POLICY,5e95d76c2d979101cf1120af,28/06/1954,2020-07-09_21h17.42.335,proactive,2020.1.2,Win32,60,5f073de81c76c3308c0e4fb3,5f0779f50f12f215eacbab34,3,,,,,,calendar,,,,,,,,,,,3,1,0,11,11,22,1,,,,,,,,,,,,,,,,,,,,,,,,,,,,,,,,,,,,,,,,,,,,,,,,,,,,,,,,,,,,,,,,,,,,,,
,,?,0.004,0,,,,,,stimuli/images/PICTURE_383.png,SERIES,5e95d76c2d979101cf1120af,28/06/1954,2020-07-09_21h17.42.335,proactive,2020.1.2,Win32,60,5f073de81c76c3308c0e4fb3,5f0779f50f12f215eacbab34,3,,,,,,coin,,,,,,,,,,,5,1,0,12,12,46,1,,,,,,,,,,,,,,,,,,,,,,,,,,,,,,,,,,,,,,,,,,,,,,,,,,,,,,,,,,,,,,,,,,,,,,
,,?,0.007,0,,,,,,stimuli/images/PICTURE_203.png,GODS,5e95d76c2d979101cf1120af,28/06/1954,2020-07-09_21h17.42.335,proactive,2020.1.2,Win32,60,5f073de81c76c3308c0e4fb3,5f0779f50f12f215eacbab34,3,,,,,,cap,,,,,,,,,,,4,1,0,13,13,30,1,,,,,,,,,,,,,,,,,,,,,,,,,,,,,,,,,,,,,,,,,,,,,,,,,,,,,,,,,,,,,,,,,,,,,,
,,LETTER,5.737,1,,,,,,stimuli/images/PICTURE_340.png,LETTER,5e95d76c2d979101cf1120af,28/06/1954,2020-07-09_21h17.42.335,proactive,2020.1.2,Win32,60,5f073de81c76c3308c0e4fb3,5f0779f50f12f215eacbab34,3,,,,,,mirror,,,,,,,,,,,3,1,0,14,14,24,1,,,,,,,,,,,,,,,,,,,,,,,,,,,,,,,,,,,,,,,,,,,,,,,,,,,,,,,,,,,,,,,,,,,,,,
,,?,0.002,0,,,,,,stimuli/images/PICTURE_296.png,LOTS,5e95d76c2d979101cf1120af,28/06/1954,2020-07-09_21h17.42.335,proactive,2020.1.2,Win32,60,5f073de81c76c3308c0e4fb3,5f0779f50f12f215eacbab34,3,,,,,,bolt,,,,,,,,,,,1,1,0,15,15,9,1,,,,,,,,,,,,,,,,,,,,,,,,,,,,,,,,,,,,,,,,,,,,,,,,,,,,,,,,,,,,,,,,,,,,,,
,,?,0.002,0,,,,,,stimuli/images/PICTURE_95.png,MILLER,5e95d76c2d979101cf1120af,28/06/1954,2020-07-09_21h17.42.335,proactive,2020.1.2,Win32,60,5f073de81c76c3308c0e4fb3,5f0779f50f12f215eacbab34,3,,,,,,suitcase,,,,,,,,,,,6,1,0,16,16,56,1,,,,,,,,,,,,,,,,,,,,,,,,,,,,,,,,,,,,,,,,,,,,,,,,,,,,,,,,,,,,,,,,,,,,,,
,,?,0.003,0,,,,,,stimuli/images/PICTURE_33.png,FRIEND,5e95d76c2d979101cf1120af,28/06/1954,2020-07-09_21h17.42.335,proactive,2020.1.2,Win32,60,5f073de81c76c3308c0e4fb3,5f0779f50f12f215eacbab34,3,,,,,,frame,,,,,,,,,,,1,1,0,17,17,8,1,,,,,,,,,,,,,,,,,,,,,,,,,,,,,,,,,,,,,,,,,,,,,,,,,,,,,,,,,,,,,,,,,,,,,,
