consent_key.keys,consent_key.rt,recalled,recalled_rt,recall_acc,example_recall.thisRepN,example_recall.thisTrialN,example_recall.thisN,example_recall.thisIndex,example_recall.ran,file,word,participant,please enter your date of birth (dd/mm/yyyy),date,expName,psychopyVersion,OS,frameRate,STUDY_ID,SESSION_ID,list,prac_learn_study_loop.thisRepN,prac_learn_study_loop.thisTrialN,prac_learn_study_loop.thisN,prac_learn_study_loop.thisIndex,prac_learn_study_loop.ran,image,prac_learn_test_loop.thisRepN,prac_learn_test_loop.thisTrialN,prac_learn_test_loop.thisN,prac_learn_test_loop.thisIndex,prac_learn_test_loop.ran,learn_study_loop.thisRepN,learn_study_loop.thisTrialN,learn_study_loop.thisN,learn_study_loop.thisIndex,learn_study_loop.ran,list_no,block_no,learn_test_loop.thisRepN,learn_test_loop.thisTrialN,learn_test_loop.thisN,learn_test_loop.thisIndex,learn_test_loop.ran,learn_blocks.thisRepN,learn_blocks.thisTrialN,learn_blocks.thisN,learn_blocks.thisIndex,learn_blocks.ran,block_csv,key_resp_13.keys,key_resp_13.rt,learn_blocks_loop.thisRepN,learn_blocks_loop.thisTrialN,learn_blocks_loop.thisN,learn_blocks_loop.thisIndex,learn_blocks_loop.ran,final_learn_test.thisRepN,final_learn_test.thisTrialN,final_learn_test.thisN,final_learn_test.thisIndex,final_learn_test.ran,prac_wm_test_loop.thisRepN,prac_wm_test_loop.thisTrialN,prac_wm_test_loop.thisN,prac_wm_test_loop.thisIndex,prac_wm_test_loop.ran,wm_recalled1,wm_recall_rt1,wm_probed1,wm_recall_acc1,wm_recalled2,wm_recall_rt2,wm_probed2,wm_recall_acc2,wm_recalled3,wm_recall_rt3,wm_probed3,wm_recall_acc3,wm_recalled4,wm_recall_rt4,wm_probed4,wm_recall_acc4,prac_wm_trial_loop.thisRepN,prac_wm_trial_loop.thisTrialN,prac_wm_trial_loop.thisN,prac_wm_trial_loop.thisIndex,prac_wm_trial_loop.ran,word1,image1,file1,item_type1,word2,image2,file2,item_type2,word4,image4,file4,item_type4,word3,image3,file3,item_type3,wm_test_loop.thisRepN,wm_test_loop.thisTrialN,wm_test_loop.thisN,wm_test_loop.thisIndex,wm_test_loop.ran,wm_trial_loop.thisRepN,wm_trial_loop.thisTrialN,wm_trial_loop.thisN,wm_trial_loop.thisIndex,wm_trial_loop.ran
y,83.059,TOUGH,13.111,1,0,0,0,0,1,stimuli/images/PICTURE_747.png,TOUGH,5e9f0bc126557006ea49d1f4,16/12/1953,2020-07-09_21h10.49.355,proactive,2020.1.2,MacIntel,60,5f073de81c76c3308c0e4fb3,5f0779175e7f00000b2436d8,4,,,,,,,,,,,,,,,,,,,,,,,,,,,,,,,,,,,,,,,,,,,,,,,,,,,,,,,,,,,,,,,,,,,,,,,,,,,,,,,,,,,,,,,,,,,,,
,,,,,,,,,,stimuli/images/PICTURE_727.png,CELL,5e9f0bc126557006ea49d1f4,16/12/1953,2020-07-09_21h10.49.355,proactive,2020.1.2,MacIntel,60,5f073de81c76c3308c0e4fb3,5f0779175e7f00000b2436d8,4,0,0,0,1,1,hose,,,,,,,,,,,,,,,,,,,,,,,,,,,,,,,,,,,,,,,,,,,,,,,,,,,,,,,,,,,,,,,,,,,,,,,,,,,,,,,,,,,,,,,
,,,,,,,,,,stimuli/images/PICTURE_269.png,GENIUS,5e9f0bc126557006ea49d1f4,16/12/1953,2020-07-09_21h10.49.355,proactive,2020.1.2,MacIntel,60,5f073de81c76c3308c0e4fb3,5f0779175e7f00000b2436d8,4,0,1,1,0,1,chameleon,,,,,,,,,,,,,,,,,,,,,,,,,,,,,,,,,,,,,,,,,,,,,,,,,,,,,,,,,,,,,,,,,,,,,,,,,,,,,,,,,,,,,,,
,,,,,,,,,,stimuli/images/PICTURE_697.png,KILLER,5e9f0bc126557006ea49d1f4,16/12/1953,2020-07-09_21h10.49.355,proactive,2020.1.2,MacIntel,60,5f073de81c76c3308c0e4fb3,5f0779175e7f00000b2436d8,4,0,2,2,4,1,peach,,,,,,,,,,,,,,,,,,,,,,,,,,,,,,,,,,,,,,,,,,,,,,,,,,,,,,,,,,,,,,,,,,,,,,,,,,,,,,,,,,,,,,,
,,,,,,,,,,stimuli/images/PICTURE_658.png,DEVIL,5e9f0bc126557006ea49d1f4,16/12/1953,2020-07-09_21h10.49.355,proactive,2020.1.2,MacIntel,60,5f073de81c76c3308c0e4fb3,5f0779175e7f00000b2436d8,4,0,3,3,3,1,crow,,,,,,,,,,,,,,,,,,,,,,,,,,,,,,,,,,,,,,,,,,,,,,,,,,,,,,,,,,,,,,,,,,,,,,,,,,,,,,,,,,,,,,,
,,KILLER,6.8,1,,,,,,stimuli/images/PICTURE_697.png,KILLER,5e9f0bc126557006ea49d1f4,16/12/1953,2020-07-09_21h10.49.355,proactive,2020.1.2,MacIntel,60,5f073de81c76c3308c0e4fb3,5f0779175e7f00000b2436d8,4,,,,,,peach,0,0,0,4,1,,,,,,,,,,,,,,,,,,,,,,,,,,,,,,,,,,,,,,,,,,,,,,,,,,,,,,,,,,,,,,,,,,,,,,,,,,,,,,,,,,
,,CELL,4.652,1,,,,,,stimuli/images/PICTURE_727.png,CELL,5e9f0bc126557006ea49d1f4,16/12/1953,2020-07-09_21h10.49.355,proactive,2020.1.2,MacIntel,60,5f073de81c76c3308c0e4fb3,5f0779175e7f00000b2436d8,4,,,,,,hose,0,1,1,1,1,,,,,,,,,,,,,,,,,,,,,,,,,,,,,,,,,,,,,,,,,,,,,,,,,,,,,,,,,,,,,,,,,,,,,,,,,,,,,,,,,,
,,DEVIL,6.318,1,,,,,,stimuli/images/PICTURE_658.png,DEVIL,5e9f0bc126557006ea49d1f4,16/12/1953,2020-07-09_21h10.49.355,proactive,2020.1.2,MacIntel,60,5f073de81c76c3308c0e4fb3,5f0779175e7f00000b2436d8,4,,,,,,crow,0,2,2,3,1,,,,,,,,,,,,,,,,,,,,,,,,,,,,,,,,,,,,,,,,,,,,,,,,,,,,,,,,,,,,,,,,,,,,,,,,,,,,,,,,,,
,,LOSS,3.518,1,,,,,,stimuli/images/PICTURE_378.png,LOSS,5e9f0bc126557006ea49d1f4,16/12/1953,2020-07-09_21h10.49.355,proactive,2020.1.2,MacIntel,60,5f073de81c76c3308c0e4fb3,5f0779175e7f00000b2436d8,4,,,,,,lobster,0,3,3,2,1,,,,,,,,,,,,,,,,,,,,,,,,,,,,,,,,,,,,,,,,,,,,,,,,,,,,,,,,,,,,,,,,,,,,,,,,,,,,,,,,,,
,,GENIUS,5.736,1,,,,,,stimuli/images/PICTURE_269.png,GENIUS,5e9f0bc126557006ea49d1f4,16/12/1953,2020-07-09_21h10.49.355,proactive,2020.1.2,MacIntel,60,5f073de81c76c3308c0e4fb3,5f0779175e7f00000b2436d8,4,,,,,,chameleon,0,4,4,0,1,,,,,,,,,,,,,,,,,,,,,,,,,,,,,,,,,,,,,,,,,,,,,,,,,,,,,,,,,,,,,,,,,,,,,,,,,,,,,,,,,,
,,,,,,,,,,stimuli/images/PICTURE_177.png,WRITER,5e9f0bc126557006ea49d1f4,16/12/1953,2020-07-09_21h10.49.355,proactive,2020.1.2,MacIntel,60,5f073de81c76c3308c0e4fb3,5f0779175e7f00000b2436d8,4,,,,,,mushroom,,,,,,0,0,0,41,1,5,1,,,,,,,,,,,,,,,,,,,,,,,,,,,,,,,,,,,,,,,,,,,,,,,,,,,,,,,,,,,,,,,,,,,,,,,,,,,
,,,,,,,,,,stimuli/images/PICTURE_308.png,FAMILY,5e9f0bc126557006ea49d1f4,16/12/1953,2020-07-09_21h10.49.355,proactive,2020.1.2,MacIntel,60,5f073de81c76c3308c0e4fb3,5f0779175e7f00000b2436d8,4,,,,,,dice,,,,,,0,1,1,36,1,4,1,,,,,,,,,,,,,,,,,,,,,,,,,,,,,,,,,,,,,,,,,,,,,,,,,,,,,,,,,,,,,,,,,,,,,,,,,,,
,,,,,,,,,,stimuli/images/PICTURE_108.png,FLIGHT,5e9f0bc126557006ea49d1f4,16/12/1953,2020-07-09_21h10.49.355,proactive,2020.1.2,MacIntel,60,5f073de81c76c3308c0e4fb3,5f0779175e7f00000b2436d8,4,,,,,,calendar,,,,,,0,2,2,59,1,6,1,,,,,,,,,,,,,,,,,,,,,,,,,,,,,,,,,,,,,,,,,,,,,,,,,,,,,,,,,,,,,,,,,,,,,,,,,,,
,,,,,,,,,,stimuli/images/PICTURE_340.png,LETTER,5e9f0bc126557006ea49d1f4,16/12/1953,2020-07-09_21h10.49.355,proactive,2020.1.2,MacIntel,60,5f073de81c76c3308c0e4fb3,5f0779175e7f00000b2436d8,4,,,,,,mirror,,,,,,0,3,3,24,1,3,1,,,,,,,,,,,,,,,,,,,,,,,,,,,,,,,,,,,,,,,,,,,,,,,,,,,,,,,,,,,,,,,,,,,,,,,,,,,
,,,,,,,,,,stimuli/images/PICTURE_405.png,PLENTY,5e9f0bc126557006ea49d1f4,16/12/1953,2020-07-09_21h10.49.355,proactive,2020.1.2,MacIntel,60,5f073de81c76c3308c0e4fb3,5f0779175e7f00000b2436d8,4,,,,,,anchor,,,,,,0,4,4,23,1,3,1,,,,,,,,,,,,,,,,,,,,,,,,,,,,,,,,,,,,,,,,,,,,,,,,,,,,,,,,,,,,,,,,,,,,,,,,,,,
,,,,,,,,,,stimuli/images/PICTURE_685.png,PENNY,5e9f0bc126557006ea49d1f4,16/12/1953,2020-07-09_21h10.49.355,proactive,2020.1.2,MacIntel,60,5f073de81c76c3308c0e4fb3,5f0779175e7f00000b2436d8,4,,,,,,goose,,,,,,0,5,5,4,1,1,1,,,,,,,,,,,,,,,,,,,,,,,,,,,,,,,,,,,,,,,,,,,,,,,,,,,,,,,,,,,,,,,,,,,,,,,,,,,
,,,,,,,,,,stimuli/images/PICTURE_667.png,RIVER,5e9f0bc126557006ea49d1f4,16/12/1953,2020-07-09_21h10.49.355,proactive,2020.1.2,MacIntel,60,5f073de81c76c3308c0e4fb3,5f0779175e7f00000b2436d8,4,,,,,,daisy,,,,,,0,6,6,10,1,2,1,,,,,,,,,,,,,,,,,,,,,,,,,,,,,,,,,,,,,,,,,,,,,,,,,,,,,,,,,,,,,,,,,,,,,,,,,,,
,,,,,,,,,,stimuli/images/PICTURE_85.png,TOILET,5e9f0bc126557006ea49d1f4,16/12/1953,2020-07-09_21h10.49.355,proactive,2020.1.2,MacIntel,60,5f073de81c76c3308c0e4fb3,5f0779175e7f00000b2436d8,4,,,,,,diamond,,,,,,0,7,7,48,1,5,1,,,,,,,,,,,,,,,,,,,,,,,,,,,,,,,,,,,,,,,,,,,,,,,,,,,,,,,,,,,,,,,,,,,,,,,,,,,
,,,,,,,,,,stimuli/images/PICTURE_147.png,WOMEN,5e9f0bc126557006ea49d1f4,16/12/1953,2020-07-09_21h10.49.355,proactive,2020.1.2,MacIntel,60,5f073de81c76c3308c0e4fb3,5f0779175e7f00000b2436d8,4,,,,,,hanger,,,,,,0,8,8,7,1,1,1,,,,,,,,,,,,,,,,,,,,,,,,,,,,,,,,,,,,,,,,,,,,,,,,,,,,,,,,,,,,,,,,,,,,,,,,,,,
,,,,,,,,,,stimuli/images/PICTURE_504.png,ARTIST,5e9f0bc126557006ea49d1f4,16/12/1953,2020-07-09_21h10.49.355,proactive,2020.1.2,MacIntel,60,5f073de81c76c3308c0e4fb3,5f0779175e7f00000b2436d8,4,,,,,,wheel,,,,,,0,9,9,49,1,5,1,,,,,,,,,,,,,,,,,,,,,,,,,,,,,,,,,,,,,,,,,,,,,,,,,,,,,,,,,,,,,,,,,,,,,,,,,,,
,,,,,,,,,,stimuli/images/PICTURE_654.png,MONTH,5e9f0bc126557006ea49d1f4,16/12/1953,2020-07-09_21h10.49.355,proactive,2020.1.2,MacIntel,60,5f073de81c76c3308c0e4fb3,5f0779175e7f00000b2436d8,4,,,,,,pencil,,,,,,0,10,10,29,1,3,1,,,,,,,,,,,,,,,,,,,,,,,,,,,,,,,,,,,,,,,,,,,,,,,,,,,,,,,,,,,,,,,,,,,,,,,,,,,
,,,,,,,,,,stimuli/images/PICTURE_85.png,NATION,5e9f0bc126557006ea49d1f4,16/12/1953,2020-07-09_21h10.49.355,proactive,2020.1.2,MacIntel,60,5f073de81c76c3308c0e4fb3,5f0779175e7f00000b2436d8,4,,,,,,diamond,,,,,,0,11,11,5,1,1,1,,,,,,,,,,,,,,,,,,,,,,,,,,,,,,,,,,,,,,,,,,,,,,,,,,,,,,,,,,,,,,,,,,,,,,,,,,,
,,,,,,,,,,stimuli/images/PICTURE_33.png,FRIEND,5e9f0bc126557006ea49d1f4,16/12/1953,2020-07-09_21h10.49.355,proactive,2020.1.2,MacIntel,60,5f073de81c76c3308c0e4fb3,5f0779175e7f00000b2436d8,4,,,,,,frame,,,,,,0,12,12,8,1,1,1,,,,,,,,,,,,,,,,,,,,,,,,,,,,,,,,,,,,,,,,,,,,,,,,,,,,,,,,,,,,,,,,,,,,,,,,,,,
,,,,,,,,,,stimuli/images/PICTURE_208.png,SYSTEM,5e9f0bc126557006ea49d1f4,16/12/1953,2020-07-09_21h10.49.355,proactive,2020.1.2,MacIntel,60,5f073de81c76c3308c0e4fb3,5f0779175e7f00000b2436d8,4,,,,,,microphone,,,,,,0,13,13,32,1,4,1,,,,,,,,,,,,,,,,,,,,,,,,,,,,,,,,,,,,,,,,,,,,,,,,,,,,,,,,,,,,,,,,,,,,,,,,,,,
,,,,,,,,,,stimuli/images/PICTURE_296.png,LOTS,5e9f0bc126557006ea49d1f4,16/12/1953,2020-07-09_21h10.49.355,proactive,2020.1.2,MacIntel,60,5f073de81c76c3308c0e4fb3,5f0779175e7f00000b2436d8,4,,,,,,bolt,,,,,,0,14,14,9,1,1,1,,,,,,,,,,,,,,,,,,,,,,,,,,,,,,,,,,,,,,,,,,,,,,,,,,,,,,,,,,,,,,,,,,,,,,,,,,,
,,,,,,,,,,stimuli/images/PICTURE_95.png,HONEY,5e9f0bc126557006ea49d1f4,16/12/1953,2020-07-09_21h10.49.355,proactive,2020.1.2,MacIntel,60,5f073de81c76c3308c0e4fb3,5f0779175e7f00000b2436d8,4,,,,,,suitcase,,,,,,0,15,15,44,1,5,1,,,,,,,,,,,,,,,,,,,,,,,,,,,,,,,,,,,,,,,,,,,,,,,,,,,,,,,,,,,,,,,,,,,,,,,,,,,
,,,,,,,,,,stimuli/images/PICTURE_340.png,VALLEY,5e9f0bc126557006ea49d1f4,16/12/1953,2020-07-09_21h10.49.355,proactive,2020.1.2,MacIntel,60,5f073de81c76c3308c0e4fb3,5f0779175e7f00000b2436d8,4,,,,,,mirror,,,,,,0,16,16,54,1,6,1,,,,,,,,,,,,,,,,,,,,,,,,,,,,,,,,,,,,,,,,,,,,,,,,,,,,,,,,,,,,,,,,,,,,,,,,,,,
,,,,,,,,,,stimuli/images/PICTURE_297.png,RIVER,5e9f0bc126557006ea49d1f4,16/12/1953,2020-07-09_21h10.49.355,proactive,2020.1.2,MacIntel,60,5f073de81c76c3308c0e4fb3,5f0779175e7f00000b2436d8,4,,,,,,aeroplane,,,,,,0,17,17,39,1,4,1,,,,,,,,,,,,,,,,,,,,,,,,,,,,,,,,,,,,,,,,,,,,,,,,,,,,,,,,,,,,,,,,,,,,,,,,,,,
,,,,,,,,,,stimuli/images/PICTURE_380.png,CANDY,5e9f0bc126557006ea49d1f4,16/12/1953,2020-07-09_21h10.49.355,proactive,2020.1.2,MacIntel,60,5f073de81c76c3308c0e4fb3,5f0779175e7f00000b2436d8,4,,,,,,gorilla,,,,,,0,18,18,0,1,1,1,,,,,,,,,,,,,,,,,,,,,,,,,,,,,,,,,,,,,,,,,,,,,,,,,,,,,,,,,,,,,,,,,,,,,,,,,,,
,,,,,,,,,,stimuli/images/PICTURE_233.png,LOTS,5e9f0bc126557006ea49d1f4,16/12/1953,2020-07-09_21h10.49.355,proactive,2020.1.2,MacIntel,60,5f073de81c76c3308c0e4fb3,5f0779175e7f00000b2436d8,4,,,,,,salt,,,,,,0,19,19,42,1,5,1,,,,,,,,,,,,,,,,,,,,,,,,,,,,,,,,,,,,,,,,,,,,,,,,,,,,,,,,,,,,,,,,,,,,,,,,,,,
,,,,,,,,,,stimuli/images/PICTURE_95.png,MILLER,5e9f0bc126557006ea49d1f4,16/12/1953,2020-07-09_21h10.49.355,proactive,2020.1.2,MacIntel,60,5f073de81c76c3308c0e4fb3,5f0779175e7f00000b2436d8,4,,,,,,suitcase,,,,,,0,20,20,56,1,6,1,,,,,,,,,,,,,,,,,,,,,,,,,,,,,,,,,,,,,,,,,,,,,,,,,,,,,,,,,,,,,,,,,,,,,,,,,,,
,,,,,,,,,,stimuli/images/PICTURE_750.png,HOTEL,5e9f0bc126557006ea49d1f4,16/12/1953,2020-07-09_21h10.49.355,proactive,2020.1.2,MacIntel,60,5f073de81c76c3308c0e4fb3,5f0779175e7f00000b2436d8,4,,,,,,kettle,,,,,,0,21,21,27,1,3,1,,,,,,,,,,,,,,,,,,,,,,,,,,,,,,,,,,,,,,,,,,,,,,,,,,,,,,,,,,,,,,,,,,,,,,,,,,,
,,,,,,,,,,stimuli/images/PICTURE_469.png,AGENT,5e9f0bc126557006ea49d1f4,16/12/1953,2020-07-09_21h10.49.355,proactive,2020.1.2,MacIntel,60,5f073de81c76c3308c0e4fb3,5f0779175e7f00000b2436d8,4,,,,,,stool,,,,,,0,22,22,16,1,2,1,,,,,,,,,,,,,,,,,,,,,,,,,,,,,,,,,,,,,,,,,,,,,,,,,,,,,,,,,,,,,,,,,,,,,,,,,,,
,,,,,,,,,,stimuli/images/PICTURE_677.png,APPLE,5e9f0bc126557006ea49d1f4,16/12/1953,2020-07-09_21h10.49.355,proactive,2020.1.2,MacIntel,60,5f073de81c76c3308c0e4fb3,5f0779175e7f00000b2436d8,4,,,,,,map,,,,,,0,23,23,43,1,5,1,,,,,,,,,,,,,,,,,,,,,,,,,,,,,,,,,,,,,,,,,,,,,,,,,,,,,,,,,,,,,,,,,,,,,,,,,,,
,,,,,,,,,,stimuli/images/PICTURE_491.png,GLASS,5e9f0bc126557006ea49d1f4,16/12/1953,2020-07-09_21h10.49.355,proactive,2020.1.2,MacIntel,60,5f073de81c76c3308c0e4fb3,5f0779175e7f00000b2436d8,4,,,,,,rug,,,,,,0,24,24,14,1,2,1,,,,,,,,,,,,,,,,,,,,,,,,,,,,,,,,,,,,,,,,,,,,,,,,,,,,,,,,,,,,,,,,,,,,,,,,,,,
,,,,,,,,,,stimuli/images/PICTURE_744.png,WEAPON,5e9f0bc126557006ea49d1f4,16/12/1953,2020-07-09_21h10.49.355,proactive,2020.1.2,MacIntel,60,5f073de81c76c3308c0e4fb3,5f0779175e7f00000b2436d8,4,,,,,,ring,,,,,,0,25,25,50,1,6,1,,,,,,,,,,,,,,,,,,,,,,,,,,,,,,,,,,,,,,,,,,,,,,,,,,,,,,,,,,,,,,,,,,,,,,,,,,,
,,,,,,,,,,stimuli/images/PICTURE_2.png,FLIGHT,5e9f0bc126557006ea49d1f4,16/12/1953,2020-07-09_21h10.49.355,proactive,2020.1.2,MacIntel,60,5f073de81c76c3308c0e4fb3,5f0779175e7f00000b2436d8,4,,,,,,tyre,,,,,,0,26,26,15,1,2,1,,,,,,,,,,,,,,,,,,,,,,,,,,,,,,,,,,,,,,,,,,,,,,,,,,,,,,,,,,,,,,,,,,,,,,,,,,,
,,,,,,,,,,stimuli/images/PICTURE_42.png,BOYS,5e9f0bc126557006ea49d1f4,16/12/1953,2020-07-09_21h10.49.355,proactive,2020.1.2,MacIntel,60,5f073de81c76c3308c0e4fb3,5f0779175e7f00000b2436d8,4,,,,,,pear,,,,,,0,27,27,55,1,6,1,,,,,,,,,,,,,,,,,,,,,,,,,,,,,,,,,,,,,,,,,,,,,,,,,,,,,,,,,,,,,,,,,,,,,,,,,,,
,,,,,,,,,,stimuli/images/PICTURE_403.png,RIVER,5e9f0bc126557006ea49d1f4,16/12/1953,2020-07-09_21h10.49.355,proactive,2020.1.2,MacIntel,60,5f073de81c76c3308c0e4fb3,5f0779175e7f00000b2436d8,4,,,,,,cathedral,,,,,,0,28,28,40,1,5,1,,,,,,,,,,,,,,,,,,,,,,,,,,,,,,,,,,,,,,,,,,,,,,,,,,,,,,,,,,,,,,,,,,,,,,,,,,,
,,,,,,,,,,stimuli/images/PICTURE_675.png,SALE,5e9f0bc126557006ea49d1f4,16/12/1953,2020-07-09_21h10.49.355,proactive,2020.1.2,MacIntel,60,5f073de81c76c3308c0e4fb3,5f0779175e7f00000b2436d8,4,,,,,,windmill,,,,,,0,29,29,47,1,5,1,,,,,,,,,,,,,,,,,,,,,,,,,,,,,,,,,,,,,,,,,,,,,,,,,,,,,,,,,,,,,,,,,,,,,,,,,,,
,,,,,,,,,,stimuli/images/PICTURE_327.png,CASINO,5e9f0bc126557006ea49d1f4,16/12/1953,2020-07-09_21h10.49.355,proactive,2020.1.2,MacIntel,60,5f073de81c76c3308c0e4fb3,5f0779175e7f00000b2436d8,4,,,,,,helmet,,,,,,0,30,30,20,1,3,1,,,,,,,,,,,,,,,,,,,,,,,,,,,,,,,,,,,,,,,,,,,,,,,,,,,,,,,,,,,,,,,,,,,,,,,,,,,
,,,,,,,,,,stimuli/images/PICTURE_383.png,SERIES,5e9f0bc126557006ea49d1f4,16/12/1953,2020-07-09_21h10.49.355,proactive,2020.1.2,MacIntel,60,5f073de81c76c3308c0e4fb3,5f0779175e7f00000b2436d8,4,,,,,,coin,,,,,,0,31,31,46,1,5,1,,,,,,,,,,,,,,,,,,,,,,,,,,,,,,,,,,,,,,,,,,,,,,,,,,,,,,,,,,,,,,,,,,,,,,,,,,,
,,,,,,,,,,stimuli/images/PICTURE_491.png,RIVER,5e9f0bc126557006ea49d1f4,16/12/1953,2020-07-09_21h10.49.355,proactive,2020.1.2,MacIntel,60,5f073de81c76c3308c0e4fb3,5f0779175e7f00000b2436d8,4,,,,,,rug,,,,,,0,32,32,6,1,1,1,,,,,,,,,,,,,,,,,,,,,,,,,,,,,,,,,,,,,,,,,,,,,,,,,,,,,,,,,,,,,,,,,,,,,,,,,,,
,,,,,,,,,,stimuli/images/PICTURE_327.png,SERIES,5e9f0bc126557006ea49d1f4,16/12/1953,2020-07-09_21h10.49.355,proactive,2020.1.2,MacIntel,60,5f073de81c76c3308c0e4fb3,5f0779175e7f00000b2436d8,4,,,,,,helmet,,,,,,0,33,33,3,1,1,1,,,,,,,,,,,,,,,,,,,,,,,,,,,,,,,,,,,,,,,,,,,,,,,,,,,,,,,,,,,,,,,,,,,,,,,,,,,
,,,,,,,,,,stimuli/images/PICTURE_57.png,MOMENT,5e9f0bc126557006ea49d1f4,16/12/1953,2020-07-09_21h10.49.355,proactive,2020.1.2,MacIntel,60,5f073de81c76c3308c0e4fb3,5f0779175e7f00000b2436d8,4,,,,,,stamp,,,,,,0,34,34,37,1,4,1,,,,,,,,,,,,,,,,,,,,,,,,,,,,,,,,,,,,,,,,,,,,,,,,,,,,,,,,,,,,,,,,,,,,,,,,,,,
,,,,,,,,,,stimuli/images/PICTURE_504.png,YEAR,5e9f0bc126557006ea49d1f4,16/12/1953,2020-07-09_21h10.49.355,proactive,2020.1.2,MacIntel,60,5f073de81c76c3308c0e4fb3,5f0779175e7f00000b2436d8,4,,,,,,wheel,,,,,,0,35,35,13,1,2,1,,,,,,,,,,,,,,,,,,,,,,,,,,,,,,,,,,,,,,,,,,,,,,,,,,,,,,,,,,,,,,,,,,,,,,,,,,,
,,,,,,,,,,stimuli/images/PICTURE_383.png,WRITER,5e9f0bc126557006ea49d1f4,16/12/1953,2020-07-09_21h10.49.355,proactive,2020.1.2,MacIntel,60,5f073de81c76c3308c0e4fb3,5f0779175e7f00000b2436d8,4,,,,,,coin,,,,,,0,36,36,28,1,3,1,,,,,,,,,,,,,,,,,,,,,,,,,,,,,,,,,,,,,,,,,,,,,,,,,,,,,,,,,,,,,,,,,,,,,,,,,,,
,,,,,,,,,,stimuli/images/PICTURE_449.png,DUDE,5e9f0bc126557006ea49d1f4,16/12/1953,2020-07-09_21h10.49.355,proactive,2020.1.2,MacIntel,60,5f073de81c76c3308c0e4fb3,5f0779175e7f00000b2436d8,4,,,,,,bench,,,,,,0,37,37,17,1,2,1,,,,,,,,,,,,,,,,,,,,,,,,,,,,,,,,,,,,,,,,,,,,,,,,,,,,,,,,,,,,,,,,,,,,,,,,,,,
,,,,,,,,,,stimuli/images/PICTURE_95.png,BOYS,5e9f0bc126557006ea49d1f4,16/12/1953,2020-07-09_21h10.49.355,proactive,2020.1.2,MacIntel,60,5f073de81c76c3308c0e4fb3,5f0779175e7f00000b2436d8,4,,,,,,suitcase,,,,,,0,38,38,1,1,1,1,,,,,,,,,,,,,,,,,,,,,,,,,,,,,,,,,,,,,,,,,,,,,,,,,,,,,,,,,,,,,,,,,,,,,,,,,,,
,,,,,,,,,,stimuli/images/PICTURE_285.png,LIFE,5e9f0bc126557006ea49d1f4,16/12/1953,2020-07-09_21h10.49.355,proactive,2020.1.2,MacIntel,60,5f073de81c76c3308c0e4fb3,5f0779175e7f00000b2436d8,4,,,,,,carrot,,,,,,0,39,39,33,1,4,1,,,,,,,,,,,,,,,,,,,,,,,,,,,,,,,,,,,,,,,,,,,,,,,,,,,,,,,,,,,,,,,,,,,,,,,,,,,
,,,,,,,,,,stimuli/images/PICTURE_108.png,POLICY,5e9f0bc126557006ea49d1f4,16/12/1953,2020-07-09_21h10.49.355,proactive,2020.1.2,MacIntel,60,5f073de81c76c3308c0e4fb3,5f0779175e7f00000b2436d8,4,,,,,,calendar,,,,,,0,40,40,22,1,3,1,,,,,,,,,,,,,,,,,,,,,,,,,,,,,,,,,,,,,,,,,,,,,,,,,,,,,,,,,,,,,,,,,,,,,,,,,,,
,,,,,,,,,,stimuli/images/PICTURE_504.png,COPS,5e9f0bc126557006ea49d1f4,16/12/1953,2020-07-09_21h10.49.355,proactive,2020.1.2,MacIntel,60,5f073de81c76c3308c0e4fb3,5f0779175e7f00000b2436d8,4,,,,,,wheel,,,,,,0,41,41,52,1,6,1,,,,,,,,,,,,,,,,,,,,,,,,,,,,,,,,,,,,,,,,,,,,,,,,,,,,,,,,,,,,,,,,,,,,,,,,,,,
,,,,,,,,,,stimuli/images/PICTURE_339.png,CLIENT,5e9f0bc126557006ea49d1f4,16/12/1953,2020-07-09_21h10.49.355,proactive,2020.1.2,MacIntel,60,5f073de81c76c3308c0e4fb3,5f0779175e7f00000b2436d8,4,,,,,,backpack,,,,,,0,42,42,11,1,2,1,,,,,,,,,,,,,,,,,,,,,,,,,,,,,,,,,,,,,,,,,,,,,,,,,,,,,,,,,,,,,,,,,,,,,,,,,,,
,,,,,,,,,,stimuli/images/PICTURE_487.png,GIRL,5e9f0bc126557006ea49d1f4,16/12/1953,2020-07-09_21h10.49.355,proactive,2020.1.2,MacIntel,60,5f073de81c76c3308c0e4fb3,5f0779175e7f00000b2436d8,4,,,,,,basket,,,,,,0,43,43,45,1,5,1,,,,,,,,,,,,,,,,,,,,,,,,,,,,,,,,,,,,,,,,,,,,,,,,,,,,,,,,,,,,,,,,,,,,,,,,,,,
,,,,,,,,,,stimuli/images/PICTURE_32.png,KIND,5e9f0bc126557006ea49d1f4,16/12/1953,2020-07-09_21h10.49.355,proactive,2020.1.2,MacIntel,60,5f073de81c76c3308c0e4fb3,5f0779175e7f00000b2436d8,4,,,,,,crown,,,,,,0,44,44,35,1,4,1,,,,,,,,,,,,,,,,,,,,,,,,,,,,,,,,,,,,,,,,,,,,,,,,,,,,,,,,,,,,,,,,,,,,,,,,,,,
,,,,,,,,,,stimuli/images/PICTURE_68.png,MILE,5e9f0bc126557006ea49d1f4,16/12/1953,2020-07-09_21h10.49.355,proactive,2020.1.2,MacIntel,60,5f073de81c76c3308c0e4fb3,5f0779175e7f00000b2436d8,4,,,,,,candle,,,,,,0,45,45,51,1,6,1,,,,,,,,,,,,,,,,,,,,,,,,,,,,,,,,,,,,,,,,,,,,,,,,,,,,,,,,,,,,,,,,,,,,,,,,,,,
,,,,,,,,,,stimuli/images/PICTURE_655.png,TOILET,5e9f0bc126557006ea49d1f4,16/12/1953,2020-07-09_21h10.49.355,proactive,2020.1.2,MacIntel,60,5f073de81c76c3308c0e4fb3,5f0779175e7f00000b2436d8,4,,,,,,megaphone,,,,,,0,46,46,12,1,2,1,,,,,,,,,,,,,,,,,,,,,,,,,,,,,,,,,,,,,,,,,,,,,,,,,,,,,,,,,,,,,,,,,,,,,,,,,,,
,,,,,,,,,,stimuli/images/PICTURE_403.png,WRITER,5e9f0bc126557006ea49d1f4,16/12/1953,2020-07-09_21h10.49.355,proactive,2020.1.2,MacIntel,60,5f073de81c76c3308c0e4fb3,5f0779175e7f00000b2436d8,4,,,,,,cathedral,,,,,,0,47,47,31,1,4,1,,,,,,,,,,,,,,,,,,,,,,,,,,,,,,,,,,,,,,,,,,,,,,,,,,,,,,,,,,,,,,,,,,,,,,,,,,,
,,,,,,,,,,stimuli/images/PICTURE_405.png,YEAR,5e9f0bc126557006ea49d1f4,16/12/1953,2020-07-09_21h10.49.355,proactive,2020.1.2,MacIntel,60,5f073de81c76c3308c0e4fb3,5f0779175e7f00000b2436d8,4,,,,,,anchor,,,,,,0,48,48,34,1,4,1,,,,,,,,,,,,,,,,,,,,,,,,,,,,,,,,,,,,,,,,,,,,,,,,,,,,,,,,,,,,,,,,,,,,,,,,,,,
,,,,,,,,,,stimuli/images/PICTURE_203.png,NIGHT,5e9f0bc126557006ea49d1f4,16/12/1953,2020-07-09_21h10.49.355,proactive,2020.1.2,MacIntel,60,5f073de81c76c3308c0e4fb3,5f0779175e7f00000b2436d8,4,,,,,,cap,,,,,,0,49,49,2,1,1,1,,,,,,,,,,,,,,,,,,,,,,,,,,,,,,,,,,,,,,,,,,,,,,,,,,,,,,,,,,,,,,,,,,,,,,,,,,,
,,,,,,,,,,stimuli/images/PICTURE_296.png,LIFE,5e9f0bc126557006ea49d1f4,16/12/1953,2020-07-09_21h10.49.355,proactive,2020.1.2,MacIntel,60,5f073de81c76c3308c0e4fb3,5f0779175e7f00000b2436d8,4,,,,,,bolt,,,,,,0,50,50,57,1,6,1,,,,,,,,,,,,,,,,,,,,,,,,,,,,,,,,,,,,,,,,,,,,,,,,,,,,,,,,,,,,,,,,,,,,,,,,,,,
,,,,,,,,,,stimuli/images/PICTURE_564.png,BATH,5e9f0bc126557006ea49d1f4,16/12/1953,2020-07-09_21h10.49.355,proactive,2020.1.2,MacIntel,60,5f073de81c76c3308c0e4fb3,5f0779175e7f00000b2436d8,4,,,,,,spoon,,,,,,0,51,51,26,1,3,1,,,,,,,,,,,,,,,,,,,,,,,,,,,,,,,,,,,,,,,,,,,,,,,,,,,,,,,,,,,,,,,,,,,,,,,,,,,
,,,,,,,,,,stimuli/images/PICTURE_708.png,RECORD,5e9f0bc126557006ea49d1f4,16/12/1953,2020-07-09_21h10.49.355,proactive,2020.1.2,MacIntel,60,5f073de81c76c3308c0e4fb3,5f0779175e7f00000b2436d8,4,,,,,,monkey,,,,,,0,52,52,58,1,6,1,,,,,,,,,,,,,,,,,,,,,,,,,,,,,,,,,,,,,,,,,,,,,,,,,,,,,,,,,,,,,,,,,,,,,,,,,,,
,,,,,,,,,,stimuli/images/PICTURE_68.png,ROOF,5e9f0bc126557006ea49d1f4,16/12/1953,2020-07-09_21h10.49.355,proactive,2020.1.2,MacIntel,60,5f073de81c76c3308c0e4fb3,5f0779175e7f00000b2436d8,4,,,,,,candle,,,,,,0,53,53,38,1,4,1,,,,,,,,,,,,,,,,,,,,,,,,,,,,,,,,,,,,,,,,,,,,,,,,,,,,,,,,,,,,,,,,,,,,,,,,,,,
,,,,,,,,,,stimuli/images/PICTURE_467.png,POLICY,5e9f0bc126557006ea49d1f4,16/12/1953,2020-07-09_21h10.49.355,proactive,2020.1.2,MacIntel,60,5f073de81c76c3308c0e4fb3,5f0779175e7f00000b2436d8,4,,,,,,peg,,,,,,0,54,54,53,1,6,1,,,,,,,,,,,,,,,,,,,,,,,,,,,,,,,,,,,,,,,,,,,,,,,,,,,,,,,,,,,,,,,,,,,,,,,,,,,
,,,,,,,,,,stimuli/images/PICTURE_203.png,GODS,5e9f0bc126557006ea49d1f4,16/12/1953,2020-07-09_21h10.49.355,proactive,2020.1.2,MacIntel,60,5f073de81c76c3308c0e4fb3,5f0779175e7f00000b2436d8,4,,,,,,cap,,,,,,0,55,55,30,1,4,1,,,,,,,,,,,,,,,,,,,,,,,,,,,,,,,,,,,,,,,,,,,,,,,,,,,,,,,,,,,,,,,,,,,,,,,,,,,
,,,,,,,,,,stimuli/images/PICTURE_380.png,HONEY,5e9f0bc126557006ea49d1f4,16/12/1953,2020-07-09_21h10.49.355,proactive,2020.1.2,MacIntel,60,5f073de81c76c3308c0e4fb3,5f0779175e7f00000b2436d8,4,,,,,,gorilla,,,,,,0,56,56,19,1,2,1,,,,,,,,,,,,,,,,,,,,,,,,,,,,,,,,,,,,,,,,,,,,,,,,,,,,,,,,,,,,,,,,,,,,,,,,,,,
,,,,,,,,,,stimuli/images/PICTURE_32.png,PILLS,5e9f0bc126557006ea49d1f4,16/12/1953,2020-07-09_21h10.49.355,proactive,2020.1.2,MacIntel,60,5f073de81c76c3308c0e4fb3,5f0779175e7f00000b2436d8,4,,,,,,crown,,,,,,0,57,57,18,1,2,1,,,,,,,,,,,,,,,,,,,,,,,,,,,,,,,,,,,,,,,,,,,,,,,,,,,,,,,,,,,,,,,,,,,,,,,,,,,
,,,,,,,,,,stimuli/images/PICTURE_147.png,YEAR,5e9f0bc126557006ea49d1f4,16/12/1953,2020-07-09_21h10.49.355,proactive,2020.1.2,MacIntel,60,5f073de81c76c3308c0e4fb3,5f0779175e7f00000b2436d8,4,,,,,,hanger,,,,,,0,58,58,21,1,3,1,,,,,,,,,,,,,,,,,,,,,,,,,,,,,,,,,,,,,,,,,,,,,,,,,,,,,,,,,,,,,,,,,,,,,,,,,,,
,,?,0.001,0,,,,,,stimuli/images/PICTURE_296.png,LOTS,5e9f0bc126557006ea49d1f4,16/12/1953,2020-07-09_21h10.49.355,proactive,2020.1.2,MacIntel,60,5f073de81c76c3308c0e4fb3,5f0779175e7f00000b2436d8,4,,,,,,bolt,,,,,,,,,,,1,1,0,0,0,9,1,,,,,,,,,,,,,,,,,,,,,,,,,,,,,,,,,,,,,,,,,,,,,,,,,,,,,,,,,,,,,,,,,,,,,,
,,?,0.001,0,,,,,,stimuli/images/PICTURE_750.png,HOTEL,5e9f0bc126557006ea49d1f4,16/12/1953,2020-07-09_21h10.49.355,proactive,2020.1.2,MacIntel,60,5f073de81c76c3308c0e4fb3,5f0779175e7f00000b2436d8,4,,,,,,kettle,,,,,,,,,,,3,1,0,1,1,27,1,,,,,,,,,,,,,,,,,,,,,,,,,,,,,,,,,,,,,,,,,,,,,,,,,,,,,,,,,,,,,,,,,,,,,,
,,?,0.001,0,,,,,,stimuli/images/PICTURE_147.png,WOMEN,5e9f0bc126557006ea49d1f4,16/12/1953,2020-07-09_21h10.49.355,proactive,2020.1.2,MacIntel,60,5f073de81c76c3308c0e4fb3,5f0779175e7f00000b2436d8,4,,,,,,hanger,,,,,,,,,,,1,1,0,2,2,7,1,,,,,,,,,,,,,,,,,,,,,,,,,,,,,,,,,,,,,,,,,,,,,,,,,,,,,,,,,,,,,,,,,,,,,,
,,?,0.001,0,,,,,,stimuli/images/PICTURE_95.png,BOYS,5e9f0bc126557006ea49d1f4,16/12/1953,2020-07-09_21h10.49.355,proactive,2020.1.2,MacIntel,60,5f073de81c76c3308c0e4fb3,5f0779175e7f00000b2436d8,4,,,,,,suitcase,,,,,,,,,,,1,1,0,3,3,1,1,,,,,,,,,,,,,,,,,,,,,,,,,,,,,,,,,,,,,,,,,,,,,,,,,,,,,,,,,,,,,,,,,,,,,,
,,?,0.001,0,,,,,,stimuli/images/PICTURE_654.png,MONTH,5e9f0bc126557006ea49d1f4,16/12/1953,2020-07-09_21h10.49.355,proactive,2020.1.2,MacIntel,60,5f073de81c76c3308c0e4fb3,5f0779175e7f00000b2436d8,4,,,,,,pencil,,,,,,,,,,,3,1,0,4,4,29,1,,,,,,,,,,,,,,,,,,,,,,,,,,,,,,,,,,,,,,,,,,,,,,,,,,,,,,,,,,,,,,,,,,,,,,
,,?,0.001,0,,,,,,stimuli/images/PICTURE_504.png,YEAR,5e9f0bc126557006ea49d1f4,16/12/1953,2020-07-09_21h10.49.355,proactive,2020.1.2,MacIntel,60,5f073de81c76c3308c0e4fb3,5f0779175e7f00000b2436d8,4,,,,,,wheel,,,,,,,,,,,2,1,0,5,5,13,1,,,,,,,,,,,,,,,,,,,,,,,,,,,,,,,,,,,,,,,,,,,,,,,,,,,,,,,,,,,,,,,,,,,,,,
,,?,0.001,0,,,,,,stimuli/images/PICTURE_327.png,CASINO,5e9f0bc126557006ea49d1f4,16/12/1953,2020-07-09_21h10.49.355,proactive,2020.1.2,MacIntel,60,5f073de81c76c3308c0e4fb3,5f0779175e7f00000b2436d8,4,,,,,,helmet,,,,,,,,,,,3,1,0,6,6,20,1,,,,,,,,,,,,,,,,,,,,,,,,,,,,,,,,,,,,,,,,,,,,,,,,,,,,,,,,,,,,,,,,,,,,,,
,,?,0.001,0,,,,,,stimuli/images/PICTURE_383.png,WRITER,5e9f0bc126557006ea49d1f4,16/12/1953,2020-07-09_21h10.49.355,proactive,2020.1.2,MacIntel,60,5f073de81c76c3308c0e4fb3,5f0779175e7f00000b2436d8,4,,,,,,coin,,,,,,,,,,,3,1,0,7,7,28,1,,,,,,,,,,,,,,,,,,,,,,,,,,,,,,,,,,,,,,,,,,,,,,,,,,,,,,,,,,,,,,,,,,,,,,
,,?,0.001,0,,,,,,stimuli/images/PICTURE_340.png,VALLEY,5e9f0bc126557006ea49d1f4,16/12/1953,2020-07-09_21h10.49.355,proactive,2020.1.2,MacIntel,60,5f073de81c76c3308c0e4fb3,5f0779175e7f00000b2436d8,4,,,,,,mirror,,,,,,,,,,,6,1,0,8,8,54,1,,,,,,,,,,,,,,,,,,,,,,,,,,,,,,,,,,,,,,,,,,,,,,,,,,,,,,,,,,,,,,,,,,,,,,
,,?,0.001,0,,,,,,stimuli/images/PICTURE_403.png,TOILET,5e9f0bc126557006ea49d1f4,16/12/1953,2020-07-09_21h10.49.355,proactive,2020.1.2,MacIntel,60,5f073de81c76c3308c0e4fb3,5f0779175e7f00000b2436d8,4,,,,,,cathedral,,,,,,,,,,,3,1,0,9,9,25,1,,,,,,,,,,,,,,,,,,,,,,,,,,,,,,,,,,,,,,,,,,,,,,,,,,,,,,,,,,,,,,,,,,,,,,
,,?,0.001,0,,,,,,stimuli/images/PICTURE_108.png,FLIGHT,5e9f0bc126557006ea49d1f4,16/12/1953,2020-07-09_21h10.49.355,proactive,2020.1.2,MacIntel,60,5f073de81c76c3308c0e4fb3,5f0779175e7f00000b2436d8,4,,,,,,calendar,,,,,,,,,,,6,1,0,10,10,59,1,,,,,,,,,,,,,,,,,,,,,,,,,,,,,,,,,,,,,,,,,,,,,,,,,,,,,,,,,,,,,,,,,,,,,,
,,?,0.001,0,,,,,,stimuli/images/PICTURE_467.png,POLICY,5e9f0bc126557006ea49d1f4,16/12/1953,2020-07-09_21h10.49.355,proactive,2020.1.2,MacIntel,60,5f073de81c76c3308c0e4fb3,5f0779175e7f00000b2436d8,4,,,,,,peg,,,,,,,,,,,6,1,0,11,11,53,1,,,,,,,,,,,,,,,,,,,,,,,,,,,,,,,,,,,,,,,,,,,,,,,,,,,,,,,,,,,,,,,,,,,,,,
,,?,0.001,0,,,,,,stimuli/images/PICTURE_469.png,AGENT,5e9f0bc126557006ea49d1f4,16/12/1953,2020-07-09_21h10.49.355,proactive,2020.1.2,MacIntel,60,5f073de81c76c3308c0e4fb3,5f0779175e7f00000b2436d8,4,,,,,,stool,,,,,,,,,,,2,1,0,12,12,16,1,,,,,,,,,,,,,,,,,,,,,,,,,,,,,,,,,,,,,,,,,,,,,,,,,,,,,,,,,,,,,,,,,,,,,,
,,?,0.001,0,,,,,,stimuli/images/PICTURE_487.png,GIRL,5e9f0bc126557006ea49d1f4,16/12/1953,2020-07-09_21h10.49.355,proactive,2020.1.2,MacIntel,60,5f073de81c76c3308c0e4fb3,5f0779175e7f00000b2436d8,4,,,,,,basket,,,,,,,,,,,5,1,0,13,13,45,1,,,,,,,,,,,,,,,,,,,,,,,,,,,,,,,,,,,,,,,,,,,,,,,,,,,,,,,,,,,,,,,,,,,,,,
,,?,0.001,0,,,,,,stimuli/images/PICTURE_147.png,YEAR,5e9f0bc126557006ea49d1f4,16/12/1953,2020-07-09_21h10.49.355,proactive,2020.1.2,MacIntel,60,5f073de81c76c3308c0e4fb3,5f0779175e7f00000b2436d8,4,,,,,,hanger,,,,,,,,,,,3,1,0,14,14,21,1,,,,,,,,,,,,,,,,,,,,,,,,,,,,,,,,,,,,,,,,,,,,,,,,,,,,,,,,,,,,,,,,,,,,,,
,,ROOF,5.917,1,,,,,,stimuli/images/PICTURE_68.png,ROOF,5e9f0bc126557006ea49d1f4,16/12/1953,2020-07-09_21h10.49.355,proactive,2020.1.2,MacIntel,60,5f073de81c76c3308c0e4fb3,5f0779175e7f00000b2436d8,4,,,,,,candle,,,,,,,,,,,4,1,0,15,15,38,1,,,,,,,,,,,,,,,,,,,,,,,,,,,,,,,,,,,,,,,,,,,,,,,,,,,,,,,,,,,,,,,,,,,,,,
,,?,0.001,0,,,,,,stimuli/images/PICTURE_108.png,POLICY,5e9f0bc126557006ea49d1f4,16/12/1953,2020-07-09_21h10.49.355,proactive,2020.1.2,MacIntel,60,5f073de81c76c3308c0e4fb3,5f0779175e7f00000b2436d8,4,,,,,,calendar,,,,,,,,,,,3,1,0,16,16,22,1,,,,,,,,,,,,,,,,,,,,,,,,,,,,,,,,,,,,,,,,,,,,,,,,,,,,,,,,,,,,,,,,,,,,,,
,,GODS,6.199,1,,,,,,stimuli/images/PICTURE_203.png,GODS,5e9f0bc126557006ea49d1f4,16/12/1953,2020-07-09_21h10.49.355,proactive,2020.1.2,MacIntel,60,5f073de81c76c3308c0e4fb3,5f0779175e7f00000b2436d8,4,,,,,,cap,,,,,,,,,,,4,1,0,17,17,30,1,,,,,,,,,,,,,,,,,,,,,,,,,,,,,,,,,,,,,,,,,,,,,,,,,,,,,,,,,,,,,,,,,,,,,,
,,?,0.001,0,,,,,,stimuli/images/PICTURE_685.png,PENNY,5e9f0bc126557006ea49d1f4,16/12/1953,2020-07-09_21h10.49.355,proactive,2020.1.2,MacIntel,60,5f073de81c76c3308c0e4fb3,5f0779175e7f00000b2436d8,4,,,,,,goose,,,,,,,,,,,1,1,0,18,18,4,1,,,,,,,,,,,,,,,,,,,,,,,,,,,,,,,,,,,,,,,,,,,,,,,,,,,,,,,,,,,,,,,,,,,,,,
,,?,0.001,0,,,,,,stimuli/images/PICTURE_42.png,BOYS,5e9f0bc126557006ea49d1f4,16/12/1953,2020-07-09_21h10.49.355,proactive,2020.1.2,MacIntel,60,5f073de81c76c3308c0e4fb3,5f0779175e7f00000b2436d8,4,,,,,,pear,,,,,,,,,,,6,1,0,19,19,55,1,,,,,,,,,,,,,,,,,,,,,,,,,,,,,,,,,,,,,,,,,,,,,,,,,,,,,,,,,,,,,,,,,,,,,,
,,?,0,0,,,,,,stimuli/images/PICTURE_564.png,BATH,5e9f0bc126557006ea49d1f4,16/12/1953,2020-07-09_21h10.49.355,proactive,2020.1.2,MacIntel,60,5f073de81c76c3308c0e4fb3,5f0779175e7f00000b2436d8,4,,,,,,spoon,,,,,,,,,,,3,1,0,20,20,26,1,,,,,,,,,,,,,,,,,,,,,,,,,,,,,,,,,,,,,,,,,,,,,,,,,,,,,,,,,,,,,,,,,,,,,,
,,?,0.001,0,,,,,,stimuli/images/PICTURE_327.png,SERIES,5e9f0bc126557006ea49d1f4,16/12/1953,2020-07-09_21h10.49.355,proactive,2020.1.2,MacIntel,60,5f073de81c76c3308c0e4fb3,5f0779175e7f00000b2436d8,4,,,,,,helmet,,,,,,,,,,,1,1,0,21,21,3,1,,,,,,,,,,,,,,,,,,,,,,,,,,,,,,,,,,,,,,,,,,,,,,,,,,,,,,,,,,,,,,,,,,,,,,
,,?,0.001,0,,,,,,stimuli/images/PICTURE_504.png,ARTIST,5e9f0bc126557006ea49d1f4,16/12/1953,2020-07-09_21h10.49.355,proactive,2020.1.2,MacIntel,60,5f073de81c76c3308c0e4fb3,5f0779175e7f00000b2436d8,4,,,,,,wheel,,,,,,,,,,,5,1,0,22,22,49,1,,,,,,,,,,,,,,,,,,,,,,,,,,,,,,,,,,,,,,,,,,,,,,,,,,,,,,,,,,,,,,,,,,,,,,
,,?,0.001,0,,,,,,stimuli/images/PICTURE_68.png,MILE,5e9f0bc126557006ea49d1f4,16/12/1953,2020-07-09_21h10.49.355,proactive,2020.1.2,MacIntel,60,5f073de81c76c3308c0e4fb3,5f0779175e7f00000b2436d8,4,,,,,,candle,,,,,,,,,,,6,1,0,23,23,51,1,,,,,,,,,,,,,,,,,,,,,,,,,,,,,,,,,,,,,,,,,,,,,,,,,,,,,,,,,,,,,,,,,,,,,,
,,?,0,0,,,,,,stimuli/images/PICTURE_95.png,HONEY,5e9f0bc126557006ea49d1f4,16/12/1953,2020-07-09_21h10.49.355,proactive,2020.1.2,MacIntel,60,5f073de81c76c3308c0e4fb3,5f0779175e7f00000b2436d8,4,,,,,,suitcase,,,,,,,,,,,5,1,0,24,24,44,1,,,,,,,,,,,,,,,,,,,,,,,,,,,,,,,,,,,,,,,,,,,,,,,,,,,,,,,,,,,,,,,,,,,,,,
,,?,0.001,0,,,,,,stimuli/images/PICTURE_233.png,LOTS,5e9f0bc126557006ea49d1f4,16/12/1953,2020-07-09_21h10.49.355,proactive,2020.1.2,MacIntel,60,5f073de81c76c3308c0e4fb3,5f0779175e7f00000b2436d8,4,,,,,,salt,,,,,,,,,,,5,1,0,25,25,42,1,,,,,,,,,,,,,,,,,,,,,,,,,,,,,,,,,,,,,,,,,,,,,,,,,,,,,,,,,,,,,,,,,,,,,,
,,?,0,0,,,,,,stimuli/images/PICTURE_744.png,WEAPON,5e9f0bc126557006ea49d1f4,16/12/1953,2020-07-09_21h10.49.355,proactive,2020.1.2,MacIntel,60,5f073de81c76c3308c0e4fb3,5f0779175e7f00000b2436d8,4,,,,,,ring,,,,,,,,,,,6,1,0,26,26,50,1,,,,,,,,,,,,,,,,,,,,,,,,,,,,,,,,,,,,,,,,,,,,,,,,,,,,,,,,,,,,,,,,,,,,,,
,,KIND,6.119,1,,,,,,stimuli/images/PICTURE_32.png,KIND,5e9f0bc126557006ea49d1f4,16/12/1953,2020-07-09_21h10.49.355,proactive,2020.1.2,MacIntel,60,5f073de81c76c3308c0e4fb3,5f0779175e7f00000b2436d8,4,,,,,,crown,,,,,,,,,,,4,1,0,27,27,35,1,,,,,,,,,,,,,,,,,,,,,,,,,,,,,,,,,,,,,,,,,,,,,,,,,,,,,,,,,,,,,,,,,,,,,,
,,?,0.001,0,,,,,,stimuli/images/PICTURE_380.png,CANDY,5e9f0bc126557006ea49d1f4,16/12/1953,2020-07-09_21h10.49.355,proactive,2020.1.2,MacIntel,60,5f073de81c76c3308c0e4fb3,5f0779175e7f00000b2436d8,4,,,,,,gorilla,,,,,,,,,,,1,1,0,28,28,0,1,,,,,,,,,,,,,,,,,,,,,,,,,,,,,,,,,,,,,,,,,,,,,,,,,,,,,,,,,,,,,,,,,,,,,,
,,?,0.001,0,,,,,,stimuli/images/PICTURE_504.png,COPS,5e9f0bc126557006ea49d1f4,16/12/1953,2020-07-09_21h10.49.355,proactive,2020.1.2,MacIntel,60,5f073de81c76c3308c0e4fb3,5f0779175e7f00000b2436d8,4,,,,,,wheel,,,,,,,,,,,6,1,0,29,29,52,1,,,,,,,,,,,,,,,,,,,,,,,,,,,,,,,,,,,,,,,,,,,,,,,,,,,,,,,,,,,,,,,,,,,,,,
,,WATER,7.695,0,,,,,,stimuli/images/PICTURE_403.png,WRITER,5e9f0bc126557006ea49d1f4,16/12/1953,2020-07-09_21h10.49.355,proactive,2020.1.2,MacIntel,60,5f073de81c76c3308c0e4fb3,5f0779175e7f00000b2436d8,4,,,,,,cathedral,,,,,,,,,,,4,1,0,30,30,31,1,,,,,,,,,,,,,,,,,,,,,,,,,,,,,,,,,,,,,,,,,,,,,,,,,,,,,,,,,,,,,,,,,,,,,,
,,MOMENT,5.002,1,,,,,,stimuli/images/PICTURE_57.png,MOMENT,5e9f0bc126557006ea49d1f4,16/12/1953,2020-07-09_21h10.49.355,proactive,2020.1.2,MacIntel,60,5f073de81c76c3308c0e4fb3,5f0779175e7f00000b2436d8,4,,,,,,stamp,,,,,,,,,,,4,1,0,31,31,37,1,,,,,,,,,,,,,,,,,,,,,,,,,,,,,,,,,,,,,,,,,,,,,,,,,,,,,,,,,,,,,,,,,,,,,,
,,?,0.001,0,,,,,,stimuli/images/PICTURE_339.png,CLIENT,5e9f0bc126557006ea49d1f4,16/12/1953,2020-07-09_21h10.49.355,proactive,2020.1.2,MacIntel,60,5f073de81c76c3308c0e4fb3,5f0779175e7f00000b2436d8,4,,,,,,backpack,,,,,,,,,,,2,1,0,32,32,11,1,,,,,,,,,,,,,,,,,,,,,,,,,,,,,,,,,,,,,,,,,,,,,,,,,,,,,,,,,,,,,,,,,,,,,,
,,?,0.001,0,,,,,,stimuli/images/PICTURE_677.png,APPLE,5e9f0bc126557006ea49d1f4,16/12/1953,2020-07-09_21h10.49.355,proactive,2020.1.2,MacIntel,60,5f073de81c76c3308c0e4fb3,5f0779175e7f00000b2436d8,4,,,,,,map,,,,,,,,,,,5,1,0,33,33,43,1,,,,,,,,,,,,,,,,,,,,,,,,,,,,,,,,,,,,,,,,,,,,,,,,,,,,,,,,,,,,,,,,,,,,,,
,,SYSTEM,5.83,1,,,,,,stimuli/images/PICTURE_208.png,SYSTEM,5e9f0bc126557006ea49d1f4,16/12/1953,2020-07-09_21h10.49.355,proactive,2020.1.2,MacIntel,60,5f073de81c76c3308c0e4fb3,5f0779175e7f00000b2436d8,4,,,,,,microphone,,,,,,,,,,,4,1,0,34,34,32,1,,,,,,,,,,,,,,,,,,,,,,,,,,,,,,,,,,,,,,,,,,,,,,,,,,,,,,,,,,,,,,,,,,,,,,
,,?,0.001,0,,,,,,stimuli/images/PICTURE_403.png,RIVER,5e9f0bc126557006ea49d1f4,16/12/1953,2020-07-09_21h10.49.355,proactive,2020.1.2,MacIntel,60,5f073de81c76c3308c0e4fb3,5f0779175e7f00000b2436d8,4,,,,,,cathedral,,,,,,,,,,,5,1,0,35,35,40,1,,,,,,,,,,,,,,,,,,,,,,,,,,,,,,,,,,,,,,,,,,,,,,,,,,,,,,,,,,,,,,,,,,,,,,
,,FAMILY,5.734,1,,,,,,stimuli/images/PICTURE_308.png,FAMILY,5e9f0bc126557006ea49d1f4,16/12/1953,2020-07-09_21h10.49.355,proactive,2020.1.2,MacIntel,60,5f073de81c76c3308c0e4fb3,5f0779175e7f00000b2436d8,4,,,,,,dice,,,,,,,,,,,4,1,0,36,36,36,1,,,,,,,,,,,,,,,,,,,,,,,,,,,,,,,,,,,,,,,,,,,,,,,,,,,,,,,,,,,,,,,,,,,,,,
,,?,0.002,0,,,,,,stimuli/images/PICTURE_380.png,HONEY,5e9f0bc126557006ea49d1f4,16/12/1953,2020-07-09_21h10.49.355,proactive,2020.1.2,MacIntel,60,5f073de81c76c3308c0e4fb3,5f0779175e7f00000b2436d8,4,,,,,,gorilla,,,,,,,,,,,2,1,0,37,37,19,1,,,,,,,,,,,,,,,,,,,,,,,,,,,,,,,,,,,,,,,,,,,,,,,,,,,,,,,,,,,,,,,,,,,,,,
,,?,0.001,0,,,,,,stimuli/images/PICTURE_491.png,GLASS,5e9f0bc126557006ea49d1f4,16/12/1953,2020-07-09_21h10.49.355,proactive,2020.1.2,MacIntel,60,5f073de81c76c3308c0e4fb3,5f0779175e7f00000b2436d8,4,,,,,,rug,,,,,,,,,,,2,1,0,38,38,14,1,,,,,,,,,,,,,,,,,,,,,,,,,,,,,,,,,,,,,,,,,,,,,,,,,,,,,,,,,,,,,,,,,,,,,,
,,?,0.001,0,,,,,,stimuli/images/PICTURE_177.png,WRITER,5e9f0bc126557006ea49d1f4,16/12/1953,2020-07-09_21h10.49.355,proactive,2020.1.2,MacIntel,60,5f073de81c76c3308c0e4fb3,5f0779175e7f00000b2436d8,4,,,,,,mushroom,,,,,,,,,,,5,1,0,39,39,41,1,,,,,,,,,,,,,,,,,,,,,,,,,,,,,,,,,,,,,,,,,,,,,,,,,,,,,,,,,,,,,,,,,,,,,,
,,?,0.001,0,,,,,,stimuli/images/PICTURE_655.png,TOILET,5e9f0bc126557006ea49d1f4,16/12/1953,2020-07-09_21h10.49.355,proactive,2020.1.2,MacIntel,60,5f073de81c76c3308c0e4fb3,5f0779175e7f00000b2436d8,4,,,,,,megaphone,,,,,,,,,,,2,1,0,40,40,12,1,,,,,,,,,,,,,,,,,,,,,,,,,,,,,,,,,,,,,,,,,,,,,,,,,,,,,,,,,,,,,,,,,,,,,,
,,?,0.001,0,,,,,,stimuli/images/PICTURE_491.png,RIVER,5e9f0bc126557006ea49d1f4,16/12/1953,2020-07-09_21h10.49.355,proactive,2020.1.2,MacIntel,60,5f073de81c76c3308c0e4fb3,5f0779175e7f00000b2436d8,4,,,,,,rug,,,,,,,,,,,1,1,0,41,41,6,1,,,,,,,,,,,,,,,,,,,,,,,,,,,,,,,,,,,,,,,,,,,,,,,,,,,,,,,,,,,,,,,,,,,,,,
,,LIFE,6.759,1,,,,,,stimuli/images/PICTURE_285.png,LIFE,5e9f0bc126557006ea49d1f4,16/12/1953,2020-07-09_21h10.49.355,proactive,2020.1.2,MacIntel,60,5f073de81c76c3308c0e4fb3,5f0779175e7f00000b2436d8,4,,,,,,carrot,,,,,,,,,,,4,1,0,42,42,33,1,,,,,,,,,,,,,,,,,,,,,,,,,,,,,,,,,,,,,,,,,,,,,,,,,,,,,,,,,,,,,,,,,,,,,,
,,?,0.001,0,,,,,,stimuli/images/PICTURE_667.png,RIVER,5e9f0bc126557006ea49d1f4,16/12/1953,2020-07-09_21h10.49.355,proactive,2020.1.2,MacIntel,60,5f073de81c76c3308c0e4fb3,5f0779175e7f00000b2436d8,4,,,,,,daisy,,,,,,,,,,,2,1,0,43,43,10,1,,,,,,,,,,,,,,,,,,,,,,,,,,,,,,,,,,,,,,,,,,,,,,,,,,,,,,,,,,,,,,,,,,,,,,
,,?,0.001,0,,,,,,stimuli/images/PICTURE_405.png,PLENTY,5e9f0bc126557006ea49d1f4,16/12/1953,2020-07-09_21h10.49.355,proactive,2020.1.2,MacIntel,60,5f073de81c76c3308c0e4fb3,5f0779175e7f00000b2436d8,4,,,,,,anchor,,,,,,,,,,,3,1,0,44,44,23,1,,,,,,,,,,,,,,,,,,,,,,,,,,,,,,,,,,,,,,,,,,,,,,,,,,,,,,,,,,,,,,,,,,,,,,
,,?,0.001,0,,,,,,stimuli/images/PICTURE_296.png,LIFE,5e9f0bc126557006ea49d1f4,16/12/1953,2020-07-09_21h10.49.355,proactive,2020.1.2,MacIntel,60,5f073de81c76c3308c0e4fb3,5f0779175e7f00000b2436d8,4,,,,,,bolt,,,,,,,,,,,6,1,0,45,45,57,1,,,,,,,,,,,,,,,,,,,,,,,,,,,,,,,,,,,,,,,,,,,,,,,,,,,,,,,,,,,,,,,,,,,,,,
,,?,0.001,0,,,,,,stimuli/images/PICTURE_203.png,NIGHT,5e9f0bc126557006ea49d1f4,16/12/1953,2020-07-09_21h10.49.355,proactive,2020.1.2,MacIntel,60,5f073de81c76c3308c0e4fb3,5f0779175e7f00000b2436d8,4,,,,,,cap,,,,,,,,,,,1,1,0,46,46,2,1,,,,,,,,,,,,,,,,,,,,,,,,,,,,,,,,,,,,,,,,,,,,,,,,,,,,,,,,,,,,,,,,,,,,,,
,,?,0,0,,,,,,stimuli/images/PICTURE_32.png,PILLS,5e9f0bc126557006ea49d1f4,16/12/1953,2020-07-09_21h10.49.355,proactive,2020.1.2,MacIntel,60,5f073de81c76c3308c0e4fb3,5f0779175e7f00000b2436d8,4,,,,,,crown,,,,,,,,,,,2,1,0,47,47,18,1,,,,,,,,,,,,,,,,,,,,,,,,,,,,,,,,,,,,,,,,,,,,,,,,,,,,,,,,,,,,,,,,,,,,,,
,,?,0.001,0,,,,,,stimuli/images/PICTURE_708.png,RECORD,5e9f0bc126557006ea49d1f4,16/12/1953,2020-07-09_21h10.49.355,proactive,2020.1.2,MacIntel,60,5f073de81c76c3308c0e4fb3,5f0779175e7f00000b2436d8,4,,,,,,monkey,,,,,,,,,,,6,1,0,48,48,58,1,,,,,,,,,,,,,,,,,,,,,,,,,,,,,,,,,,,,,,,,,,,,,,,,,,,,,,,,,,,,,,,,,,,,,,
,,YEAR,5.541,1,,,,,,stimuli/images/PICTURE_405.png,YEAR,5e9f0bc126557006ea49d1f4,16/12/1953,2020-07-09_21h10.49.355,proactive,2020.1.2,MacIntel,60,5f073de81c76c3308c0e4fb3,5f0779175e7f00000b2436d8,4,,,,,,anchor,,,,,,,,,,,4,1,0,49,49,34,1,,,,,,,,,,,,,,,,,,,,,,,,,,,,,,,,,,,,,,,,,,,,,,,,,,,,,,,,,,,,,,,,,,,,,,
,,?,0.001,0,,,,,,stimuli/images/PICTURE_383.png,SERIES,5e9f0bc126557006ea49d1f4,16/12/1953,2020-07-09_21h10.49.355,proactive,2020.1.2,MacIntel,60,5f073de81c76c3308c0e4fb3,5f0779175e7f00000b2436d8,4,,,,,,coin,,,,,,,,,,,5,1,0,50,50,46,1,,,,,,,,,,,,,,,,,,,,,,,,,,,,,,,,,,,,,,,,,,,,,,,,,,,,,,,,,,,,,,,,,,,,,,
,,?,0.001,0,,,,,,stimuli/images/PICTURE_85.png,TOILET,5e9f0bc126557006ea49d1f4,16/12/1953,2020-07-09_21h10.49.355,proactive,2020.1.2,MacIntel,60,5f073de81c76c3308c0e4fb3,5f0779175e7f00000b2436d8,4,,,,,,diamond,,,,,,,,,,,5,1,0,51,51,48,1,,,,,,,,,,,,,,,,,,,,,,,,,,,,,,,,,,,,,,,,,,,,,,,,,,,,,,,,,,,,,,,,,,,,,,
,,?,0.001,0,,,,,,stimuli/images/PICTURE_95.png,MILLER,5e9f0bc126557006ea49d1f4,16/12/1953,2020-07-09_21h10.49.355,proactive,2020.1.2,MacIntel,60,5f073de81c76c3308c0e4fb3,5f0779175e7f00000b2436d8,4,,,,,,suitcase,,,,,,,,,,,6,1,0,52,52,56,1,,,,,,,,,,,,,,,,,,,,,,,,,,,,,,,,,,,,,,,,,,,,,,,,,,,,,,,,,,,,,,,,,,,,,,
,,?,0.002,0,,,,,,stimuli/images/PICTURE_340.png,LETTER,5e9f0bc126557006ea49d1f4,16/12/1953,2020-07-09_21h10.49.355,proactive,2020.1.2,MacIntel,60,5f073de81c76c3308c0e4fb3,5f0779175e7f00000b2436d8,4,,,,,,mirror,,,,,,,,,,,3,1,0,53,53,24,1,,,,,,,,,,,,,,,,,,,,,,,,,,,,,,,,,,,,,,,,,,,,,,,,,,,,,,,,,,,,,,,,,,,,,,
,,?,0.001,0,,,,,,stimuli/images/PICTURE_85.png,NATION,5e9f0bc126557006ea49d1f4,16/12/1953,2020-07-09_21h10.49.355,proactive,2020.1.2,MacIntel,60,5f073de81c76c3308c0e4fb3,5f0779175e7f00000b2436d8,4,,,,,,diamond,,,,,,,,,,,1,1,0,54,54,5,1,,,,,,,,,,,,,,,,,,,,,,,,,,,,,,,,,,,,,,,,,,,,,,,,,,,,,,,,,,,,,,,,,,,,,,
,,?,0.001,0,,,,,,stimuli/images/PICTURE_2.png,FLIGHT,5e9f0bc126557006ea49d1f4,16/12/1953,2020-07-09_21h10.49.355,proactive,2020.1.2,MacIntel,60,5f073de81c76c3308c0e4fb3,5f0779175e7f00000b2436d8,4,,,,,,tyre,,,,,,,,,,,2,1,0,55,55,15,1,,,,,,,,,,,,,,,,,,,,,,,,,,,,,,,,,,,,,,,,,,,,,,,,,,,,,,,,,,,,,,,,,,,,,,
,,?,0.001,0,,,,,,stimuli/images/PICTURE_449.png,DUDE,5e9f0bc126557006ea49d1f4,16/12/1953,2020-07-09_21h10.49.355,proactive,2020.1.2,MacIntel,60,5f073de81c76c3308c0e4fb3,5f0779175e7f00000b2436d8,4,,,,,,bench,,,,,,,,,,,2,1,0,56,56,17,1,,,,,,,,,,,,,,,,,,,,,,,,,,,,,,,,,,,,,,,,,,,,,,,,,,,,,,,,,,,,,,,,,,,,,,
,,RIVER,6.7,1,,,,,,stimuli/images/PICTURE_297.png,RIVER,5e9f0bc126557006ea49d1f4,16/12/1953,2020-07-09_21h10.49.355,proactive,2020.1.2,MacIntel,60,5f073de81c76c3308c0e4fb3,5f0779175e7f00000b2436d8,4,,,,,,aeroplane,,,,,,,,,,,4,1,0,57,57,39,1,,,,,,,,,,,,,,,,,,,,,,,,,,,,,,,,,,,,,,,,,,,,,,,,,,,,,,,,,,,,,,,,,,,,,,
,,?,0.002,0,,,,,,stimuli/images/PICTURE_675.png,SALE,5e9f0bc126557006ea49d1f4,16/12/1953,2020-07-09_21h10.49.355,proactive,2020.1.2,MacIntel,60,5f073de81c76c3308c0e4fb3,5f0779175e7f00000b2436d8,4,,,,,,windmill,,,,,,,,,,,5,1,0,58,58,47,1,,,,,,,,,,,,,,,,,,,,,,,,,,,,,,,,,,,,,,,,,,,,,,,,,,,,,,,,,,,,,,,,,,,,,,
,,?,0,0,,,,,,stimuli/images/PICTURE_33.png,FRIEND,5e9f0bc126557006ea49d1f4,16/12/1953,2020-07-09_21h10.49.355,proactive,2020.1.2,MacIntel,60,5f073de81c76c3308c0e4fb3,5f0779175e7f00000b2436d8,4,,,,,,frame,,,,,,,,,,,1,1,0,59,59,8,1,,,,,,,,,,,,,,,,,,,,,,,,,,,,,,,,,,,,,,,,,,,,,,,,,,,,,,,,,,,,,,,,,,,,,,
,,,,,,,,,,,,5e9f0bc126557006ea49d1f4,16/12/1953,2020-07-09_21h10.49.355,proactive,2020.1.2,MacIntel,60,5f073de81c76c3308c0e4fb3,5f0779175e7f00000b2436d8,4,,,,,,,,,,,,,,,,,,,,,,,,0,0,0,1,1,stimuli/learn-block2.csv,,,,,,,,,,,,,,,,,,,,,,,,,,,,,,,,,,,,,,,,,,,,,,,,,,,,,,,,,,,,,,,,
,,,,,,,,,,stimuli/images/PICTURE_449.png,THING,5e9f0bc126557006ea49d1f4,16/12/1953,2020-07-09_21h10.49.355,proactive,2020.1.2,MacIntel,60,5f073de81c76c3308c0e4fb3,5f0779175e7f00000b2436d8,4,,,,,,bench,,,,,,0,0,0,59,1,6,0,,,,,,,,,,,,,,,,,,,,,,,,,,,,,,,,,,,,,,,,,,,,,,,,,,,,,,,,,,,,,,,,,,,,,,,,,,,
,,,,,,,,,,stimuli/images/PICTURE_487.png,FLIGHT,5e9f0bc126557006ea49d1f4,16/12/1953,2020-07-09_21h10.49.355,proactive,2020.1.2,MacIntel,60,5f073de81c76c3308c0e4fb3,5f0779175e7f00000b2436d8,4,,,,,,basket,,,,,,0,1,1,9,1,1,0,,,,,,,,,,,,,,,,,,,,,,,,,,,,,,,,,,,,,,,,,,,,,,,,,,,,,,,,,,,,,,,,,,,,,,,,,,,
,,,,,,,,,,stimuli/images/PICTURE_667.png,BATH,5e9f0bc126557006ea49d1f4,16/12/1953,2020-07-09_21h10.49.355,proactive,2020.1.2,MacIntel,60,5f073de81c76c3308c0e4fb3,5f0779175e7f00000b2436d8,4,,,,,,daisy,,,,,,0,2,2,4,1,1,0,,,,,,,,,,,,,,,,,,,,,,,,,,,,,,,,,,,,,,,,,,,,,,,,,,,,,,,,,,,,,,,,,,,,,,,,,,,
,,,,,,,,,,stimuli/images/PICTURE_470.png,CASINO,5e9f0bc126557006ea49d1f4,16/12/1953,2020-07-09_21h10.49.355,proactive,2020.1.2,MacIntel,60,5f073de81c76c3308c0e4fb3,5f0779175e7f00000b2436d8,4,,,,,,motorbike,,,,,,0,3,3,36,1,4,0,,,,,,,,,,,,,,,,,,,,,,,,,,,,,,,,,,,,,,,,,,,,,,,,,,,,,,,,,,,,,,,,,,,,,,,,,,,
,,,,,,,,,,stimuli/images/PICTURE_32.png,JUNGLE,5e9f0bc126557006ea49d1f4,16/12/1953,2020-07-09_21h10.49.355,proactive,2020.1.2,MacIntel,60,5f073de81c76c3308c0e4fb3,5f0779175e7f00000b2436d8,4,,,,,,crown,,,,,,0,4,4,45,1,5,0,,,,,,,,,,,,,,,,,,,,,,,,,,,,,,,,,,,,,,,,,,,,,,,,,,,,,,,,,,,,,,,,,,,,,,,,,,,
,,,,,,,,,,stimuli/images/PICTURE_677.png,MILE,5e9f0bc126557006ea49d1f4,16/12/1953,2020-07-09_21h10.49.355,proactive,2020.1.2,MacIntel,60,5f073de81c76c3308c0e4fb3,5f0779175e7f00000b2436d8,4,,,,,,map,,,,,,0,5,5,30,1,4,0,,,,,,,,,,,,,,,,,,,,,,,,,,,,,,,,,,,,,,,,,,,,,,,,,,,,,,,,,,,,,,,,,,,,,,,,,,,
,,,,,,,,,,stimuli/images/PICTURE_248.png,DOZEN,5e9f0bc126557006ea49d1f4,16/12/1953,2020-07-09_21h10.49.355,proactive,2020.1.2,MacIntel,60,5f073de81c76c3308c0e4fb3,5f0779175e7f00000b2436d8,4,,,,,,cart,,,,,,0,6,6,39,1,4,0,,,,,,,,,,,,,,,,,,,,,,,,,,,,,,,,,,,,,,,,,,,,,,,,,,,,,,,,,,,,,,,,,,,,,,,,,,,
,,,,,,,,,,stimuli/images/PICTURE_255.png,AREA,5e9f0bc126557006ea49d1f4,16/12/1953,2020-07-09_21h10.49.355,proactive,2020.1.2,MacIntel,60,5f073de81c76c3308c0e4fb3,5f0779175e7f00000b2436d8,4,,,,,,shovel,,,,,,0,7,7,22,1,3,0,,,,,,,,,,,,,,,,,,,,,,,,,,,,,,,,,,,,,,,,,,,,,,,,,,,,,,,,,,,,,,,,,,,,,,,,,,,
,,,,,,,,,,stimuli/images/PICTURE_469.png,ARTIST,5e9f0bc126557006ea49d1f4,16/12/1953,2020-07-09_21h10.49.355,proactive,2020.1.2,MacIntel,60,5f073de81c76c3308c0e4fb3,5f0779175e7f00000b2436d8,4,,,,,,stool,,,,,,0,8,8,6,1,1,0,,,,,,,,,,,,,,,,,,,,,,,,,,,,,,,,,,,,,,,,,,,,,,,,,,,,,,,,,,,,,,,,,,,,,,,,,,,
,,,,,,,,,,stimuli/images/PICTURE_151.png,GIRL,5e9f0bc126557006ea49d1f4,16/12/1953,2020-07-09_21h10.49.355,proactive,2020.1.2,MacIntel,60,5f073de81c76c3308c0e4fb3,5f0779175e7f00000b2436d8,4,,,,,,tray,,,,,,0,9,9,19,1,2,0,,,,,,,,,,,,,,,,,,,,,,,,,,,,,,,,,,,,,,,,,,,,,,,,,,,,,,,,,,,,,,,,,,,,,,,,,,,
,,,,,,,,,,stimuli/images/PICTURE_708.png,YARD,5e9f0bc126557006ea49d1f4,16/12/1953,2020-07-09_21h10.49.355,proactive,2020.1.2,MacIntel,60,5f073de81c76c3308c0e4fb3,5f0779175e7f00000b2436d8,4,,,,,,monkey,,,,,,0,10,10,29,1,3,0,,,,,,,,,,,,,,,,,,,,,,,,,,,,,,,,,,,,,,,,,,,,,,,,,,,,,,,,,,,,,,,,,,,,,,,,,,,
,,,,,,,,,,stimuli/images/PICTURE_208.png,MONTH,5e9f0bc126557006ea49d1f4,16/12/1953,2020-07-09_21h10.49.355,proactive,2020.1.2,MacIntel,60,5f073de81c76c3308c0e4fb3,5f0779175e7f00000b2436d8,4,,,,,,microphone,,,,,,0,11,11,53,1,6,0,,,,,,,,,,,,,,,,,,,,,,,,,,,,,,,,,,,,,,,,,,,,,,,,,,,,,,,,,,,,,,,,,,,,,,,,,,,
,,,,,,,,,,stimuli/images/PICTURE_692.png,MONTH,5e9f0bc126557006ea49d1f4,16/12/1953,2020-07-09_21h10.49.355,proactive,2020.1.2,MacIntel,60,5f073de81c76c3308c0e4fb3,5f0779175e7f00000b2436d8,4,,,,,,cherry,,,,,,0,12,12,16,1,2,0,,,,,,,,,,,,,,,,,,,,,,,,,,,,,,,,,,,,,,,,,,,,,,,,,,,,,,,,,,,,,,,,,,,,,,,,,,,
,,,,,,,,,,stimuli/images/PICTURE_123.png,ADVICE,5e9f0bc126557006ea49d1f4,16/12/1953,2020-07-09_21h10.49.355,proactive,2020.1.2,MacIntel,60,5f073de81c76c3308c0e4fb3,5f0779175e7f00000b2436d8,4,,,,,,dart,,,,,,0,13,13,40,1,5,0,,,,,,,,,,,,,,,,,,,,,,,,,,,,,,,,,,,,,,,,,,,,,,,,,,,,,,,,,,,,,,,,,,,,,,,,,,,
,,,,,,,,,,stimuli/images/PICTURE_327.png,BEAUTY,5e9f0bc126557006ea49d1f4,16/12/1953,2020-07-09_21h10.49.355,proactive,2020.1.2,MacIntel,60,5f073de81c76c3308c0e4fb3,5f0779175e7f00000b2436d8,4,,,,,,helmet,,,,,,0,14,14,48,1,5,0,,,,,,,,,,,,,,,,,,,,,,,,,,,,,,,,,,,,,,,,,,,,,,,,,,,,,,,,,,,,,,,,,,,,,,,,,,,
,,,,,,,,,,stimuli/images/PICTURE_208.png,LOTS,5e9f0bc126557006ea49d1f4,16/12/1953,2020-07-09_21h10.49.355,proactive,2020.1.2,MacIntel,60,5f073de81c76c3308c0e4fb3,5f0779175e7f00000b2436d8,4,,,,,,microphone,,,,,,0,15,15,10,1,2,0,,,,,,,,,,,,,,,,,,,,,,,,,,,,,,,,,,,,,,,,,,,,,,,,,,,,,,,,,,,,,,,,,,,,,,,,,,,
,,,,,,,,,,stimuli/images/PICTURE_504.png,BODY,5e9f0bc126557006ea49d1f4,16/12/1953,2020-07-09_21h10.49.355,proactive,2020.1.2,MacIntel,60,5f073de81c76c3308c0e4fb3,5f0779175e7f00000b2436d8,4,,,,,,wheel,,,,,,0,16,16,8,1,1,0,,,,,,,,,,,,,,,,,,,,,,,,,,,,,,,,,,,,,,,,,,,,,,,,,,,,,,,,,,,,,,,,,,,,,,,,,,,
,,,,,,,,,,stimuli/images/PICTURE_356.png,DANGER,5e9f0bc126557006ea49d1f4,16/12/1953,2020-07-09_21h10.49.355,proactive,2020.1.2,MacIntel,60,5f073de81c76c3308c0e4fb3,5f0779175e7f00000b2436d8,4,,,,,,pawn,,,,,,0,17,17,55,1,6,0,,,,,,,,,,,,,,,,,,,,,,,,,,,,,,,,,,,,,,,,,,,,,,,,,,,,,,,,,,,,,,,,,,,,,,,,,,,
,,,,,,,,,,stimuli/images/PICTURE_744.png,SAKE,5e9f0bc126557006ea49d1f4,16/12/1953,2020-07-09_21h10.49.355,proactive,2020.1.2,MacIntel,60,5f073de81c76c3308c0e4fb3,5f0779175e7f00000b2436d8,4,,,,,,ring,,,,,,0,18,18,17,1,2,0,,,,,,,,,,,,,,,,,,,,,,,,,,,,,,,,,,,,,,,,,,,,,,,,,,,,,,,,,,,,,,,,,,,,,,,,,,,
,,,,,,,,,,stimuli/images/PICTURE_380.png,PHOTO,5e9f0bc126557006ea49d1f4,16/12/1953,2020-07-09_21h10.49.355,proactive,2020.1.2,MacIntel,60,5f073de81c76c3308c0e4fb3,5f0779175e7f00000b2436d8,4,,,,,,gorilla,,,,,,0,19,19,52,1,6,0,,,,,,,,,,,,,,,,,,,,,,,,,,,,,,,,,,,,,,,,,,,,,,,,,,,,,,,,,,,,,,,,,,,,,,,,,,,
,,,,,,,,,,stimuli/images/PICTURE_314.png,GODS,5e9f0bc126557006ea49d1f4,16/12/1953,2020-07-09_21h10.49.355,proactive,2020.1.2,MacIntel,60,5f073de81c76c3308c0e4fb3,5f0779175e7f00000b2436d8,4,,,,,,perfume,,,,,,0,20,20,11,1,2,0,,,,,,,,,,,,,,,,,,,,,,,,,,,,,,,,,,,,,,,,,,,,,,,,,,,,,,,,,,,,,,,,,,,,,,,,,,,
,,,,,,,,,,stimuli/images/PICTURE_654.png,VALLEY,5e9f0bc126557006ea49d1f4,16/12/1953,2020-07-09_21h10.49.355,proactive,2020.1.2,MacIntel,60,5f073de81c76c3308c0e4fb3,5f0779175e7f00000b2436d8,4,,,,,,pencil,,,,,,0,21,21,1,1,1,0,,,,,,,,,,,,,,,,,,,,,,,,,,,,,,,,,,,,,,,,,,,,,,,,,,,,,,,,,,,,,,,,,,,,,,,,,,,
,,,,,,,,,,stimuli/images/PICTURE_688.png,CASINO,5e9f0bc126557006ea49d1f4,16/12/1953,2020-07-09_21h10.49.355,proactive,2020.1.2,MacIntel,60,5f073de81c76c3308c0e4fb3,5f0779175e7f00000b2436d8,4,,,,,,runner,,,,,,0,22,22,2,1,1,0,,,,,,,,,,,,,,,,,,,,,,,,,,,,,,,,,,,,,,,,,,,,,,,,,,,,,,,,,,,,,,,,,,,,,,,,,,,
,,,,,,,,,,stimuli/images/PICTURE_147.png,MOMENT,5e9f0bc126557006ea49d1f4,16/12/1953,2020-07-09_21h10.49.355,proactive,2020.1.2,MacIntel,60,5f073de81c76c3308c0e4fb3,5f0779175e7f00000b2436d8,4,,,,,,hanger,,,,,,0,23,23,51,1,6,0,,,,,,,,,,,,,,,,,,,,,,,,,,,,,,,,,,,,,,,,,,,,,,,,,,,,,,,,,,,,,,,,,,,,,,,,,,,
,,,,,,,,,,stimuli/images/PICTURE_308.png,ESTATE,5e9f0bc126557006ea49d1f4,16/12/1953,2020-07-09_21h10.49.355,proactive,2020.1.2,MacIntel,60,5f073de81c76c3308c0e4fb3,5f0779175e7f00000b2436d8,4,,,,,,dice,,,,,,0,24,24,46,1,5,0,,,,,,,,,,,,,,,,,,,,,,,,,,,,,,,,,,,,,,,,,,,,,,,,,,,,,,,,,,,,,,,,,,,,,,,,,,,
,,,,,,,,,,stimuli/images/PICTURE_123.png,ADVICE,5e9f0bc126557006ea49d1f4,16/12/1953,2020-07-09_21h10.49.355,proactive,2020.1.2,MacIntel,60,5f073de81c76c3308c0e4fb3,5f0779175e7f00000b2436d8,4,,,,,,dart,,,,,,0,25,25,50,1,6,0,,,,,,,,,,,,,,,,,,,,,,,,,,,,,,,,,,,,,,,,,,,,,,,,,,,,,,,,,,,,,,,,,,,,,,,,,,,
,,,,,,,,,,stimuli/images/PICTURE_302.png,FAMILY,5e9f0bc126557006ea49d1f4,16/12/1953,2020-07-09_21h10.49.355,proactive,2020.1.2,MacIntel,60,5f073de81c76c3308c0e4fb3,5f0779175e7f00000b2436d8,4,,,,,,taxi,,,,,,0,26,26,18,1,2,0,,,,,,,,,,,,,,,,,,,,,,,,,,,,,,,,,,,,,,,,,,,,,,,,,,,,,,,,,,,,,,,,,,,,,,,,,,,
,,,,,,,,,,stimuli/images/PICTURE_675.png,WEAPON,5e9f0bc126557006ea49d1f4,16/12/1953,2020-07-09_21h10.49.355,proactive,2020.1.2,MacIntel,60,5f073de81c76c3308c0e4fb3,5f0779175e7f00000b2436d8,4,,,,,,windmill,,,,,,0,27,27,32,1,4,0,,,,,,,,,,,,,,,,,,,,,,,,,,,,,,,,,,,,,,,,,,,,,,,,,,,,,,,,,,,,,,,,,,,,,,,,,,,
,,,,,,,,,,stimuli/images/PICTURE_160.png,FEET,5e9f0bc126557006ea49d1f4,16/12/1953,2020-07-09_21h10.49.355,proactive,2020.1.2,MacIntel,60,5f073de81c76c3308c0e4fb3,5f0779175e7f00000b2436d8,4,,,,,,wheelbarrow,,,,,,0,28,28,58,1,6,0,,,,,,,,,,,,,,,,,,,,,,,,,,,,,,,,,,,,,,,,,,,,,,,,,,,,,,,,,,,,,,,,,,,,,,,,,,,
,,,,,,,,,,stimuli/images/PICTURE_744.png,SYSTEM,5e9f0bc126557006ea49d1f4,16/12/1953,2020-07-09_21h10.49.355,proactive,2020.1.2,MacIntel,60,5f073de81c76c3308c0e4fb3,5f0779175e7f00000b2436d8,4,,,,,,ring,,,,,,0,29,29,43,1,5,0,,,,,,,,,,,,,,,,,,,,,,,,,,,,,,,,,,,,,,,,,,,,,,,,,,,,,,,,,,,,,,,,,,,,,,,,,,,
,,,,,,,,,,stimuli/images/PICTURE_453.png,DUDE,5e9f0bc126557006ea49d1f4,16/12/1953,2020-07-09_21h10.49.355,proactive,2020.1.2,MacIntel,60,5f073de81c76c3308c0e4fb3,5f0779175e7f00000b2436d8,4,,,,,,scissors,,,,,,0,30,30,27,1,3,0,,,,,,,,,,,,,,,,,,,,,,,,,,,,,,,,,,,,,,,,,,,,,,,,,,,,,,,,,,,,,,,,,,,,,,,,,,,
,,,,,,,,,,stimuli/images/PICTURE_467.png,DEMON,5e9f0bc126557006ea49d1f4,16/12/1953,2020-07-09_21h10.49.355,proactive,2020.1.2,MacIntel,60,5f073de81c76c3308c0e4fb3,5f0779175e7f00000b2436d8,4,,,,,,peg,,,,,,0,31,31,23,1,3,0,,,,,,,,,,,,,,,,,,,,,,,,,,,,,,,,,,,,,,,,,,,,,,,,,,,,,,,,,,,,,,,,,,,,,,,,,,,
,,,,,,,,,,stimuli/images/PICTURE_285.png,ADVICE,5e9f0bc126557006ea49d1f4,16/12/1953,2020-07-09_21h10.49.355,proactive,2020.1.2,MacIntel,60,5f073de81c76c3308c0e4fb3,5f0779175e7f00000b2436d8,4,,,,,,carrot,,,,,,0,32,32,12,1,2,0,,,,,,,,,,,,,,,,,,,,,,,,,,,,,,,,,,,,,,,,,,,,,,,,,,,,,,,,,,,,,,,,,,,,,,,,,,,
,,,,,,,,,,stimuli/images/PICTURE_491.png,ROOF,5e9f0bc126557006ea49d1f4,16/12/1953,2020-07-09_21h10.49.355,proactive,2020.1.2,MacIntel,60,5f073de81c76c3308c0e4fb3,5f0779175e7f00000b2436d8,4,,,,,,rug,,,,,,0,33,33,24,1,3,0,,,,,,,,,,,,,,,,,,,,,,,,,,,,,,,,,,,,,,,,,,,,,,,,,,,,,,,,,,,,,,,,,,,,,,,,,,,
,,,,,,,,,,stimuli/images/PICTURE_688.png,WOMEN,5e9f0bc126557006ea49d1f4,16/12/1953,2020-07-09_21h10.49.355,proactive,2020.1.2,MacIntel,60,5f073de81c76c3308c0e4fb3,5f0779175e7f00000b2436d8,4,,,,,,runner,,,,,,0,34,34,14,1,2,0,,,,,,,,,,,,,,,,,,,,,,,,,,,,,,,,,,,,,,,,,,,,,,,,,,,,,,,,,,,,,,,,,,,,,,,,,,,
,,,,,,,,,,stimuli/images/PICTURE_509.png,PHOTO,5e9f0bc126557006ea49d1f4,16/12/1953,2020-07-09_21h10.49.355,proactive,2020.1.2,MacIntel,60,5f073de81c76c3308c0e4fb3,5f0779175e7f00000b2436d8,4,,,,,,telephone,,,,,,0,35,35,21,1,3,0,,,,,,,,,,,,,,,,,,,,,,,,,,,,,,,,,,,,,,,,,,,,,,,,,,,,,,,,,,,,,,,,,,,,,,,,,,,
,,,,,,,,,,stimuli/images/PICTURE_488.png,STYLE,5e9f0bc126557006ea49d1f4,16/12/1953,2020-07-09_21h10.49.355,proactive,2020.1.2,MacIntel,60,5f073de81c76c3308c0e4fb3,5f0779175e7f00000b2436d8,4,,,,,,sun,,,,,,0,36,36,33,1,4,0,,,,,,,,,,,,,,,,,,,,,,,,,,,,,,,,,,,,,,,,,,,,,,,,,,,,,,,,,,,,,,,,,,,,,,,,,,,
,,,,,,,,,,stimuli/images/PICTURE_339.png,PLENTY,5e9f0bc126557006ea49d1f4,16/12/1953,2020-07-09_21h10.49.355,proactive,2020.1.2,MacIntel,60,5f073de81c76c3308c0e4fb3,5f0779175e7f00000b2436d8,4,,,,,,backpack,,,,,,0,37,37,0,1,1,0,,,,,,,,,,,,,,,,,,,,,,,,,,,,,,,,,,,,,,,,,,,,,,,,,,,,,,,,,,,,,,,,,,,,,,,,,,,
,,,,,,,,,,stimuli/images/PICTURE_160.png,LEADER,5e9f0bc126557006ea49d1f4,16/12/1953,2020-07-09_21h10.49.355,proactive,2020.1.2,MacIntel,60,5f073de81c76c3308c0e4fb3,5f0779175e7f00000b2436d8,4,,,,,,wheelbarrow,,,,,,0,38,38,3,1,1,0,,,,,,,,,,,,,,,,,,,,,,,,,,,,,,,,,,,,,,,,,,,,,,,,,,,,,,,,,,,,,,,,,,,,,,,,,,,
,,,,,,,,,,stimuli/images/PICTURE_68.png,MILE,5e9f0bc126557006ea49d1f4,16/12/1953,2020-07-09_21h10.49.355,proactive,2020.1.2,MacIntel,60,5f073de81c76c3308c0e4fb3,5f0779175e7f00000b2436d8,4,,,,,,candle,,,,,,0,39,39,44,1,5,0,,,,,,,,,,,,,,,,,,,,,,,,,,,,,,,,,,,,,,,,,,,,,,,,,,,,,,,,,,,,,,,,,,,,,,,,,,,
,,,,,,,,,,stimuli/images/PICTURE_311.png,FRIEND,5e9f0bc126557006ea49d1f4,16/12/1953,2020-07-09_21h10.49.355,proactive,2020.1.2,MacIntel,60,5f073de81c76c3308c0e4fb3,5f0779175e7f00000b2436d8,4,,,,,,razor,,,,,,0,40,40,34,1,4,0,,,,,,,,,,,,,,,,,,,,,,,,,,,,,,,,,,,,,,,,,,,,,,,,,,,,,,,,,,,,,,,,,,,,,,,,,,,
,,,,,,,,,,stimuli/images/PICTURE_85.png,THING,5e9f0bc126557006ea49d1f4,16/12/1953,2020-07-09_21h10.49.355,proactive,2020.1.2,MacIntel,60,5f073de81c76c3308c0e4fb3,5f0779175e7f00000b2436d8,4,,,,,,diamond,,,,,,0,41,41,15,1,2,0,,,,,,,,,,,,,,,,,,,,,,,,,,,,,,,,,,,,,,,,,,,,,,,,,,,,,,,,,,,,,,,,,,,,,,,,,,,
,,,,,,,,,,stimuli/images/PICTURE_215.png,PLENTY,5e9f0bc126557006ea49d1f4,16/12/1953,2020-07-09_21h10.49.355,proactive,2020.1.2,MacIntel,60,5f073de81c76c3308c0e4fb3,5f0779175e7f00000b2436d8,4,,,,,,boot,,,,,,0,42,42,37,1,4,0,,,,,,,,,,,,,,,,,,,,,,,,,,,,,,,,,,,,,,,,,,,,,,,,,,,,,,,,,,,,,,,,,,,,,,,,,,,
,,,,,,,,,,stimuli/images/PICTURE_667.png,PLENTY,5e9f0bc126557006ea49d1f4,16/12/1953,2020-07-09_21h10.49.355,proactive,2020.1.2,MacIntel,60,5f073de81c76c3308c0e4fb3,5f0779175e7f00000b2436d8,4,,,,,,daisy,,,,,,0,43,43,41,1,5,0,,,,,,,,,,,,,,,,,,,,,,,,,,,,,,,,,,,,,,,,,,,,,,,,,,,,,,,,,,,,,,,,,,,,,,,,,,,
,,,,,,,,,,stimuli/images/PICTURE_380.png,DEATH,5e9f0bc126557006ea49d1f4,16/12/1953,2020-07-09_21h10.49.355,proactive,2020.1.2,MacIntel,60,5f073de81c76c3308c0e4fb3,5f0779175e7f00000b2436d8,4,,,,,,gorilla,,,,,,0,44,44,49,1,5,0,,,,,,,,,,,,,,,,,,,,,,,,,,,,,,,,,,,,,,,,,,,,,,,,,,,,,,,,,,,,,,,,,,,,,,,,,,,
,,,,,,,,,,stimuli/images/PICTURE_308.png,KIND,5e9f0bc126557006ea49d1f4,16/12/1953,2020-07-09_21h10.49.355,proactive,2020.1.2,MacIntel,60,5f073de81c76c3308c0e4fb3,5f0779175e7f00000b2436d8,4,,,,,,dice,,,,,,0,45,45,54,1,6,0,,,,,,,,,,,,,,,,,,,,,,,,,,,,,,,,,,,,,,,,,,,,,,,,,,,,,,,,,,,,,,,,,,,,,,,,,,,
,,,,,,,,,,stimuli/images/PICTURE_708.png,PENNY,5e9f0bc126557006ea49d1f4,16/12/1953,2020-07-09_21h10.49.355,proactive,2020.1.2,MacIntel,60,5f073de81c76c3308c0e4fb3,5f0779175e7f00000b2436d8,4,,,,,,monkey,,,,,,0,46,46,31,1,4,0,,,,,,,,,,,,,,,,,,,,,,,,,,,,,,,,,,,,,,,,,,,,,,,,,,,,,,,,,,,,,,,,,,,,,,,,,,,
,,,,,,,,,,stimuli/images/PICTURE_453.png,PLENTY,5e9f0bc126557006ea49d1f4,16/12/1953,2020-07-09_21h10.49.355,proactive,2020.1.2,MacIntel,60,5f073de81c76c3308c0e4fb3,5f0779175e7f00000b2436d8,4,,,,,,scissors,,,,,,0,47,47,56,1,6,0,,,,,,,,,,,,,,,,,,,,,,,,,,,,,,,,,,,,,,,,,,,,,,,,,,,,,,,,,,,,,,,,,,,,,,,,,,,
,,,,,,,,,,stimuli/images/PICTURE_311.png,BEAUTY,5e9f0bc126557006ea49d1f4,16/12/1953,2020-07-09_21h10.49.355,proactive,2020.1.2,MacIntel,60,5f073de81c76c3308c0e4fb3,5f0779175e7f00000b2436d8,4,,,,,,razor,,,,,,0,48,48,13,1,2,0,,,,,,,,,,,,,,,,,,,,,,,,,,,,,,,,,,,,,,,,,,,,,,,,,,,,,,,,,,,,,,,,,,,,,,,,,,,
,,,,,,,,,,stimuli/images/PICTURE_491.png,WRITER,5e9f0bc126557006ea49d1f4,16/12/1953,2020-07-09_21h10.49.355,proactive,2020.1.2,MacIntel,60,5f073de81c76c3308c0e4fb3,5f0779175e7f00000b2436d8,4,,,,,,rug,,,,,,0,49,49,57,1,6,0,,,,,,,,,,,,,,,,,,,,,,,,,,,,,,,,,,,,,,,,,,,,,,,,,,,,,,,,,,,,,,,,,,,,,,,,,,,
,,,,,,,,,,stimuli/images/PICTURE_203.png,ARTIST,5e9f0bc126557006ea49d1f4,16/12/1953,2020-07-09_21h10.49.355,proactive,2020.1.2,MacIntel,60,5f073de81c76c3308c0e4fb3,5f0779175e7f00000b2436d8,4,,,,,,cap,,,,,,0,50,50,26,1,3,0,,,,,,,,,,,,,,,,,,,,,,,,,,,,,,,,,,,,,,,,,,,,,,,,,,,,,,,,,,,,,,,,,,,,,,,,,,,
,,,,,,,,,,stimuli/images/PICTURE_177.png,CARS,5e9f0bc126557006ea49d1f4,16/12/1953,2020-07-09_21h10.49.355,proactive,2020.1.2,MacIntel,60,5f073de81c76c3308c0e4fb3,5f0779175e7f00000b2436d8,4,,,,,,mushroom,,,,,,0,51,51,35,1,4,0,,,,,,,,,,,,,,,,,,,,,,,,,,,,,,,,,,,,,,,,,,,,,,,,,,,,,,,,,,,,,,,,,,,,,,,,,,,
,,,,,,,,,,stimuli/images/PICTURE_314.png,SAKE,5e9f0bc126557006ea49d1f4,16/12/1953,2020-07-09_21h10.49.355,proactive,2020.1.2,MacIntel,60,5f073de81c76c3308c0e4fb3,5f0779175e7f00000b2436d8,4,,,,,,perfume,,,,,,0,52,52,7,1,1,0,,,,,,,,,,,,,,,,,,,,,,,,,,,,,,,,,,,,,,,,,,,,,,,,,,,,,,,,,,,,,,,,,,,,,,,,,,,
,,,,,,,,,,stimuli/images/PICTURE_469.png,LETTER,5e9f0bc126557006ea49d1f4,16/12/1953,2020-07-09_21h10.49.355,proactive,2020.1.2,MacIntel,60,5f073de81c76c3308c0e4fb3,5f0779175e7f00000b2436d8,4,,,,,,stool,,,,,,0,53,53,42,1,5,0,,,,,,,,,,,,,,,,,,,,,,,,,,,,,,,,,,,,,,,,,,,,,,,,,,,,,,,,,,,,,,,,,,,,,,,,,,,
,,,,,,,,,,stimuli/images/PICTURE_233.png,WOMEN,5e9f0bc126557006ea49d1f4,16/12/1953,2020-07-09_21h10.49.355,proactive,2020.1.2,MacIntel,60,5f073de81c76c3308c0e4fb3,5f0779175e7f00000b2436d8,4,,,,,,salt,,,,,,0,54,54,38,1,4,0,,,,,,,,,,,,,,,,,,,,,,,,,,,,,,,,,,,,,,,,,,,,,,,,,,,,,,,,,,,,,,,,,,,,,,,,,,,
,,,,,,,,,,stimuli/images/PICTURE_233.png,IDEAS,5e9f0bc126557006ea49d1f4,16/12/1953,2020-07-09_21h10.49.355,proactive,2020.1.2,MacIntel,60,5f073de81c76c3308c0e4fb3,5f0779175e7f00000b2436d8,4,,,,,,salt,,,,,,0,55,55,28,1,3,0,,,,,,,,,,,,,,,,,,,,,,,,,,,,,,,,,,,,,,,,,,,,,,,,,,,,,,,,,,,,,,,,,,,,,,,,,,,
,,,,,,,,,,stimuli/images/PICTURE_708.png,CLIENT,5e9f0bc126557006ea49d1f4,16/12/1953,2020-07-09_21h10.49.355,proactive,2020.1.2,MacIntel,60,5f073de81c76c3308c0e4fb3,5f0779175e7f00000b2436d8,4,,,,,,monkey,,,,,,0,56,56,5,1,1,0,,,,,,,,,,,,,,,,,,,,,,,,,,,,,,,,,,,,,,,,,,,,,,,,,,,,,,,,,,,,,,,,,,,,,,,,,,,
,,,,,,,,,,stimuli/images/PICTURE_95.png,STYLE,5e9f0bc126557006ea49d1f4,16/12/1953,2020-07-09_21h10.49.355,proactive,2020.1.2,MacIntel,60,5f073de81c76c3308c0e4fb3,5f0779175e7f00000b2436d8,4,,,,,,suitcase,,,,,,0,57,57,25,1,3,0,,,,,,,,,,,,,,,,,,,,,,,,,,,,,,,,,,,,,,,,,,,,,,,,,,,,,,,,,,,,,,,,,,,,,,,,,,,
,,,,,,,,,,stimuli/images/PICTURE_208.png,THING,5e9f0bc126557006ea49d1f4,16/12/1953,2020-07-09_21h10.49.355,proactive,2020.1.2,MacIntel,60,5f073de81c76c3308c0e4fb3,5f0779175e7f00000b2436d8,4,,,,,,microphone,,,,,,0,58,58,47,1,5,0,,,,,,,,,,,,,,,,,,,,,,,,,,,,,,,,,,,,,,,,,,,,,,,,,,,,,,,,,,,,,,,,,,,,,,,,,,,
,,?,0.001,0,,,,,,stimuli/images/PICTURE_208.png,LOTS,5e9f0bc126557006ea49d1f4,16/12/1953,2020-07-09_21h10.49.355,proactive,2020.1.2,MacIntel,60,5f073de81c76c3308c0e4fb3,5f0779175e7f00000b2436d8,4,,,,,,microphone,,,,,,,,,,,2,0,0,0,0,10,1,,,,,,,,,,,,,,,,,,,,,,,,,,,,,,,,,,,,,,,,,,,,,,,,,,,,,,,,,,,,,,,,,,,,,,
,,?,0.001,0,,,,,,stimuli/images/PICTURE_160.png,FEET,5e9f0bc126557006ea49d1f4,16/12/1953,2020-07-09_21h10.49.355,proactive,2020.1.2,MacIntel,60,5f073de81c76c3308c0e4fb3,5f0779175e7f00000b2436d8,4,,,,,,wheelbarrow,,,,,,,,,,,6,0,0,1,1,58,1,,,,,,,,,,,,,,,,,,,,,,,,,,,,,,,,,,,,,,,,,,,,,,,,,,,,,,,,,,,,,,,,,,,,,,
,,?,0.001,0,,,,,,stimuli/images/PICTURE_314.png,SAKE,5e9f0bc126557006ea49d1f4,16/12/1953,2020-07-09_21h10.49.355,proactive,2020.1.2,MacIntel,60,5f073de81c76c3308c0e4fb3,5f0779175e7f00000b2436d8,4,,,,,,perfume,,,,,,,,,,,1,0,0,2,2,7,1,,,,,,,,,,,,,,,,,,,,,,,,,,,,,,,,,,,,,,,,,,,,,,,,,,,,,,,,,,,,,,,,,,,,,,
,,?,0.001,0,,,,,,stimuli/images/PICTURE_314.png,GODS,5e9f0bc126557006ea49d1f4,16/12/1953,2020-07-09_21h10.49.355,proactive,2020.1.2,MacIntel,60,5f073de81c76c3308c0e4fb3,5f0779175e7f00000b2436d8,4,,,,,,perfume,,,,,,,,,,,2,0,0,3,3,11,1,,,,,,,,,,,,,,,,,,,,,,,,,,,,,,,,,,,,,,,,,,,,,,,,,,,,,,,,,,,,,,,,,,,,,,
,,?,0,0,,,,,,stimuli/images/PICTURE_491.png,WRITER,5e9f0bc126557006ea49d1f4,16/12/1953,2020-07-09_21h10.49.355,proactive,2020.1.2,MacIntel,60,5f073de81c76c3308c0e4fb3,5f0779175e7f00000b2436d8,4,,,,,,rug,,,,,,,,,,,6,0,0,4,4,57,1,,,,,,,,,,,,,,,,,,,,,,,,,,,,,,,,,,,,,,,,,,,,,,,,,,,,,,,,,,,,,,,,,,,,,,
,,?,0.001,0,,,,,,stimuli/images/PICTURE_491.png,ROOF,5e9f0bc126557006ea49d1f4,16/12/1953,2020-07-09_21h10.49.355,proactive,2020.1.2,MacIntel,60,5f073de81c76c3308c0e4fb3,5f0779175e7f00000b2436d8,4,,,,,,rug,,,,,,,,,,,3,0,0,5,5,24,1,,,,,,,,,,,,,,,,,,,,,,,,,,,,,,,,,,,,,,,,,,,,,,,,,,,,,,,,,,,,,,,,,,,,,,
,,SY,15.006,0,,,,,,stimuli/images/PICTURE_470.png,CASINO,5e9f0bc126557006ea49d1f4,16/12/1953,2020-07-09_21h10.49.355,proactive,2020.1.2,MacIntel,60,5f073de81c76c3308c0e4fb3,5f0779175e7f00000b2436d8,4,,,,,,motorbike,,,,,,,,,,,4,0,0,6,6,36,1,,,,,,,,,,,,,,,,,,,,,,,,,,,,,,,,,,,,,,,,,,,,,,,,,,,,,,,,,,,,,,,,,,,,,,
,,?,0.001,0,,,,,,stimuli/images/PICTURE_160.png,LEADER,5e9f0bc126557006ea49d1f4,16/12/1953,2020-07-09_21h10.49.355,proactive,2020.1.2,MacIntel,60,5f073de81c76c3308c0e4fb3,5f0779175e7f00000b2436d8,4,,,,,,wheelbarrow,,,,,,,,,,,1,0,0,7,7,3,1,,,,,,,,,,,,,,,,,,,,,,,,,,,,,,,,,,,,,,,,,,,,,,,,,,,,,,,,,,,,,,,,,,,,,,
,,DOZEN,7.116,1,,,,,,stimuli/images/PICTURE_248.png,DOZEN,5e9f0bc126557006ea49d1f4,16/12/1953,2020-07-09_21h10.49.355,proactive,2020.1.2,MacIntel,60,5f073de81c76c3308c0e4fb3,5f0779175e7f00000b2436d8,4,,,,,,cart,,,,,,,,,,,4,0,0,8,8,39,1,,,,,,,,,,,,,,,,,,,,,,,,,,,,,,,,,,,,,,,,,,,,,,,,,,,,,,,,,,,,,,,,,,,,,,
,,?,0.002,0,,,,,,stimuli/images/PICTURE_68.png,MILE,5e9f0bc126557006ea49d1f4,16/12/1953,2020-07-09_21h10.49.355,proactive,2020.1.2,MacIntel,60,5f073de81c76c3308c0e4fb3,5f0779175e7f00000b2436d8,4,,,,,,candle,,,,,,,,,,,5,0,0,9,9,44,1,,,,,,,,,,,,,,,,,,,,,,,,,,,,,,,,,,,,,,,,,,,,,,,,,,,,,,,,,,,,,,,,,,,,,,
,,?,0.001,0,,,,,,stimuli/images/PICTURE_688.png,CASINO,5e9f0bc126557006ea49d1f4,16/12/1953,2020-07-09_21h10.49.355,proactive,2020.1.2,MacIntel,60,5f073de81c76c3308c0e4fb3,5f0779175e7f00000b2436d8,4,,,,,,runner,,,,,,,,,,,1,0,0,10,10,2,1,,,,,,,,,,,,,,,,,,,,,,,,,,,,,,,,,,,,,,,,,,,,,,,,,,,,,,,,,,,,,,,,,,,,,,
,,?,0.001,0,,,,,,stimuli/images/PICTURE_339.png,PLENTY,5e9f0bc126557006ea49d1f4,16/12/1953,2020-07-09_21h10.49.355,proactive,2020.1.2,MacIntel,60,5f073de81c76c3308c0e4fb3,5f0779175e7f00000b2436d8,4,,,,,,backpack,,,,,,,,,,,1,0,0,11,11,0,1,,,,,,,,,,,,,,,,,,,,,,,,,,,,,,,,,,,,,,,,,,,,,,,,,,,,,,,,,,,,,,,,,,,,,,
,,?,0.001,0,,,,,,stimuli/images/PICTURE_208.png,THING,5e9f0bc126557006ea49d1f4,16/12/1953,2020-07-09_21h10.49.355,proactive,2020.1.2,MacIntel,60,5f073de81c76c3308c0e4fb3,5f0779175e7f00000b2436d8,4,,,,,,microphone,,,,,,,,,,,5,0,0,12,12,47,1,,,,,,,,,,,,,,,,,,,,,,,,,,,,,,,,,,,,,,,,,,,,,,,,,,,,,,,,,,,,,,,,,,,,,,
,,?,0.001,0,,,,,,stimuli/images/PICTURE_348.png,SPEECH,5e9f0bc126557006ea49d1f4,16/12/1953,2020-07-09_21h10.49.355,proactive,2020.1.2,MacIntel,60,5f073de81c76c3308c0e4fb3,5f0779175e7f00000b2436d8,4,,,,,,pepper,,,,,,,,,,,3,0,0,13,13,20,1,,,,,,,,,,,,,,,,,,,,,,,,,,,,,,,,,,,,,,,,,,,,,,,,,,,,,,,,,,,,,,,,,,,,,,
,,?,0.001,0,,,,,,stimuli/images/PICTURE_327.png,BEAUTY,5e9f0bc126557006ea49d1f4,16/12/1953,2020-07-09_21h10.49.355,proactive,2020.1.2,MacIntel,60,5f073de81c76c3308c0e4fb3,5f0779175e7f00000b2436d8,4,,,,,,helmet,,,,,,,,,,,5,0,0,14,14,48,1,,,,,,,,,,,,,,,,,,,,,,,,,,,,,,,,,,,,,,,,,,,,,,,,,,,,,,,,,,,,,,,,,,,,,,
,,CARS,7.107,1,,,,,,stimuli/images/PICTURE_177.png,CARS,5e9f0bc126557006ea49d1f4,16/12/1953,2020-07-09_21h10.49.355,proactive,2020.1.2,MacIntel,60,5f073de81c76c3308c0e4fb3,5f0779175e7f00000b2436d8,4,,,,,,mushroom,,,,,,,,,,,4,0,0,15,15,35,1,,,,,,,,,,,,,,,,,,,,,,,,,,,,,,,,,,,,,,,,,,,,,,,,,,,,,,,,,,,,,,,,,,,,,,
,,?,0.002,0,,,,,,stimuli/images/PICTURE_453.png,PLENTY,5e9f0bc126557006ea49d1f4,16/12/1953,2020-07-09_21h10.49.355,proactive,2020.1.2,MacIntel,60,5f073de81c76c3308c0e4fb3,5f0779175e7f00000b2436d8,4,,,,,,scissors,,,,,,,,,,,6,0,0,16,16,56,1,,,,,,,,,,,,,,,,,,,,,,,,,,,,,,,,,,,,,,,,,,,,,,,,,,,,,,,,,,,,,,,,,,,,,,
,,?,0.001,0,,,,,,stimuli/images/PICTURE_667.png,BATH,5e9f0bc126557006ea49d1f4,16/12/1953,2020-07-09_21h10.49.355,proactive,2020.1.2,MacIntel,60,5f073de81c76c3308c0e4fb3,5f0779175e7f00000b2436d8,4,,,,,,daisy,,,,,,,,,,,1,0,0,17,17,4,1,,,,,,,,,,,,,,,,,,,,,,,,,,,,,,,,,,,,,,,,,,,,,,,,,,,,,,,,,,,,,,,,,,,,,,
,,?,0.001,0,,,,,,stimuli/images/PICTURE_667.png,PLENTY,5e9f0bc126557006ea49d1f4,16/12/1953,2020-07-09_21h10.49.355,proactive,2020.1.2,MacIntel,60,5f073de81c76c3308c0e4fb3,5f0779175e7f00000b2436d8,4,,,,,,daisy,,,,,,,,,,,5,0,0,18,18,41,1,,,,,,,,,,,,,,,,,,,,,,,,,,,,,,,,,,,,,,,,,,,,,,,,,,,,,,,,,,,,,,,,,,,,,,
,,?,0,0,,,,,,stimuli/images/PICTURE_453.png,DUDE,5e9f0bc126557006ea49d1f4,16/12/1953,2020-07-09_21h10.49.355,proactive,2020.1.2,MacIntel,60,5f073de81c76c3308c0e4fb3,5f0779175e7f00000b2436d8,4,,,,,,scissors,,,,,,,,,,,3,0,0,19,19,27,1,,,,,,,,,,,,,,,,,,,,,,,,,,,,,,,,,,,,,,,,,,,,,,,,,,,,,,,,,,,,,,,,,,,,,,
,,?,0.002,0,,,,,,stimuli/images/PICTURE_708.png,YARD,5e9f0bc126557006ea49d1f4,16/12/1953,2020-07-09_21h10.49.355,proactive,2020.1.2,MacIntel,60,5f073de81c76c3308c0e4fb3,5f0779175e7f00000b2436d8,4,,,,,,monkey,,,,,,,,,,,3,0,0,20,20,29,1,,,,,,,,,,,,,,,,,,,,,,,,,,,,,,,,,,,,,,,,,,,,,,,,,,,,,,,,,,,,,,,,,,,,,,
,,?,0.001,0,,,,,,stimuli/images/PICTURE_208.png,MONTH,5e9f0bc126557006ea49d1f4,16/12/1953,2020-07-09_21h10.49.355,proactive,2020.1.2,MacIntel,60,5f073de81c76c3308c0e4fb3,5f0779175e7f00000b2436d8,4,,,,,,microphone,,,,,,,,,,,6,0,0,21,21,53,1,,,,,,,,,,,,,,,,,,,,,,,,,,,,,,,,,,,,,,,,,,,,,,,,,,,,,,,,,,,,,,,,,,,,,,
,,?,0.001,0,,,,,,stimuli/images/PICTURE_380.png,DEATH,5e9f0bc126557006ea49d1f4,16/12/1953,2020-07-09_21h10.49.355,proactive,2020.1.2,MacIntel,60,5f073de81c76c3308c0e4fb3,5f0779175e7f00000b2436d8,4,,,,,,gorilla,,,,,,,,,,,5,0,0,22,22,49,1,,,,,,,,,,,,,,,,,,,,,,,,,,,,,,,,,,,,,,,,,,,,,,,,,,,,,,,,,,,,,,,,,,,,,,
,,PENNY,4.854,1,,,,,,stimuli/images/PICTURE_708.png,PENNY,5e9f0bc126557006ea49d1f4,16/12/1953,2020-07-09_21h10.49.355,proactive,2020.1.2,MacIntel,60,5f073de81c76c3308c0e4fb3,5f0779175e7f00000b2436d8,4,,,,,,monkey,,,,,,,,,,,4,0,0,23,23,31,1,,,,,,,,,,,,,,,,,,,,,,,,,,,,,,,,,,,,,,,,,,,,,,,,,,,,,,,,,,,,,,,,,,,,,,
,,?,0.001,0,,,,,,stimuli/images/PICTURE_380.png,PHOTO,5e9f0bc126557006ea49d1f4,16/12/1953,2020-07-09_21h10.49.355,proactive,2020.1.2,MacIntel,60,5f073de81c76c3308c0e4fb3,5f0779175e7f00000b2436d8,4,,,,,,gorilla,,,,,,,,,,,6,0,0,24,24,52,1,,,,,,,,,,,,,,,,,,,,,,,,,,,,,,,,,,,,,,,,,,,,,,,,,,,,,,,,,,,,,,,,,,,,,,
,,?,0.001,0,,,,,,stimuli/images/PICTURE_504.png,BODY,5e9f0bc126557006ea49d1f4,16/12/1953,2020-07-09_21h10.49.355,proactive,2020.1.2,MacIntel,60,5f073de81c76c3308c0e4fb3,5f0779175e7f00000b2436d8,4,,,,,,wheel,,,,,,,,,,,1,0,0,25,25,8,1,,,,,,,,,,,,,,,,,,,,,,,,,,,,,,,,,,,,,,,,,,,,,,,,,,,,,,,,,,,,,,,,,,,,,,
,,?,0.001,0,,,,,,stimuli/images/PICTURE_708.png,CLIENT,5e9f0bc126557006ea49d1f4,16/12/1953,2020-07-09_21h10.49.355,proactive,2020.1.2,MacIntel,60,5f073de81c76c3308c0e4fb3,5f0779175e7f00000b2436d8,4,,,,,,monkey,,,,,,,,,,,1,0,0,26,26,5,1,,,,,,,,,,,,,,,,,,,,,,,,,,,,,,,,,,,,,,,,,,,,,,,,,,,,,,,,,,,,,,,,,,,,,,
,,?,0,0,,,,,,stimuli/images/PICTURE_692.png,MONTH,5e9f0bc126557006ea49d1f4,16/12/1953,2020-07-09_21h10.49.355,proactive,2020.1.2,MacIntel,60,5f073de81c76c3308c0e4fb3,5f0779175e7f00000b2436d8,4,,,,,,cherry,,,,,,,,,,,2,0,0,27,27,16,1,,,,,,,,,,,,,,,,,,,,,,,,,,,,,,,,,,,,,,,,,,,,,,,,,,,,,,,,,,,,,,,,,,,,,,
,,?,0.001,0,,,,,,stimuli/images/PICTURE_308.png,KIND,5e9f0bc126557006ea49d1f4,16/12/1953,2020-07-09_21h10.49.355,proactive,2020.1.2,MacIntel,60,5f073de81c76c3308c0e4fb3,5f0779175e7f00000b2436d8,4,,,,,,dice,,,,,,,,,,,6,0,0,28,28,54,1,,,,,,,,,,,,,,,,,,,,,,,,,,,,,,,,,,,,,,,,,,,,,,,,,,,,,,,,,,,,,,,,,,,,,,
,,?,0.001,0,,,,,,stimuli/images/PICTURE_654.png,VALLEY,5e9f0bc126557006ea49d1f4,16/12/1953,2020-07-09_21h10.49.355,proactive,2020.1.2,MacIntel,60,5f073de81c76c3308c0e4fb3,5f0779175e7f00000b2436d8,4,,,,,,pencil,,,,,,,,,,,1,0,0,29,29,1,1,,,,,,,,,,,,,,,,,,,,,,,,,,,,,,,,,,,,,,,,,,,,,,,,,,,,,,,,,,,,,,,,,,,,,,
,,?,0.001,0,,,,,,stimuli/images/PICTURE_255.png,AREA,5e9f0bc126557006ea49d1f4,16/12/1953,2020-07-09_21h10.49.355,proactive,2020.1.2,MacIntel,60,5f073de81c76c3308c0e4fb3,5f0779175e7f00000b2436d8,4,,,,,,shovel,,,,,,,,,,,3,0,0,30,30,22,1,,,,,,,,,,,,,,,,,,,,,,,,,,,,,,,,,,,,,,,,,,,,,,,,,,,,,,,,,,,,,,,,,,,,,,
,,?,0,0,,,,,,stimuli/images/PICTURE_449.png,THING,5e9f0bc126557006ea49d1f4,16/12/1953,2020-07-09_21h10.49.355,proactive,2020.1.2,MacIntel,60,5f073de81c76c3308c0e4fb3,5f0779175e7f00000b2436d8,4,,,,,,bench,,,,,,,,,,,6,0,0,31,31,59,1,,,,,,,,,,,,,,,,,,,,,,,,,,,,,,,,,,,,,,,,,,,,,,,,,,,,,,,,,,,,,,,,,,,,,,
,,?,0.001,0,,,,,,stimuli/images/PICTURE_302.png,FAMILY,5e9f0bc126557006ea49d1f4,16/12/1953,2020-07-09_21h10.49.355,proactive,2020.1.2,MacIntel,60,5f073de81c76c3308c0e4fb3,5f0779175e7f00000b2436d8,4,,,,,,taxi,,,,,,,,,,,2,0,0,32,32,18,1,,,,,,,,,,,,,,,,,,,,,,,,,,,,,,,,,,,,,,,,,,,,,,,,,,,,,,,,,,,,,,,,,,,,,,
,,?,0.001,0,,,,,,stimuli/images/PICTURE_509.png,PHOTO,5e9f0bc126557006ea49d1f4,16/12/1953,2020-07-09_21h10.49.355,proactive,2020.1.2,MacIntel,60,5f073de81c76c3308c0e4fb3,5f0779175e7f00000b2436d8,4,,,,,,telephone,,,,,,,,,,,3,0,0,33,33,21,1,,,,,,,,,,,,,,,,,,,,,,,,,,,,,,,,,,,,,,,,,,,,,,,,,,,,,,,,,,,,,,,,,,,,,,
,,?,0,0,,,,,,stimuli/images/PICTURE_203.png,ARTIST,5e9f0bc126557006ea49d1f4,16/12/1953,2020-07-09_21h10.49.355,proactive,2020.1.2,MacIntel,60,5f073de81c76c3308c0e4fb3,5f0779175e7f00000b2436d8,4,,,,,,cap,,,,,,,,,,,3,0,0,34,34,26,1,,,,,,,,,,,,,,,,,,,,,,,,,,,,,,,,,,,,,,,,,,,,,,,,,,,,,,,,,,,,,,,,,,,,,,
,,?,0.001,0,,,,,,stimuli/images/PICTURE_151.png,GIRL,5e9f0bc126557006ea49d1f4,16/12/1953,2020-07-09_21h10.49.355,proactive,2020.1.2,MacIntel,60,5f073de81c76c3308c0e4fb3,5f0779175e7f00000b2436d8,4,,,,,,tray,,,,,,,,,,,2,0,0,35,35,19,1,,,,,,,,,,,,,,,,,,,,,,,,,,,,,,,,,,,,,,,,,,,,,,,,,,,,,,,,,,,,,,,,,,,,,,
,,?,0,0,,,,,,stimuli/images/PICTURE_688.png,WOMEN,5e9f0bc126557006ea49d1f4,16/12/1953,2020-07-09_21h10.49.355,proactive,2020.1.2,MacIntel,60,5f073de81c76c3308c0e4fb3,5f0779175e7f00000b2436d8,4,,,,,,runner,,,,,,,,,,,2,0,0,36,36,14,1,,,,,,,,,,,,,,,,,,,,,,,,,,,,,,,,,,,,,,,,,,,,,,,,,,,,,,,,,,,,,,,,,,,,,,
,,?,0.001,0,,,,,,stimuli/images/PICTURE_123.png,ADVICE,5e9f0bc126557006ea49d1f4,16/12/1953,2020-07-09_21h10.49.355,proactive,2020.1.2,MacIntel,60,5f073de81c76c3308c0e4fb3,5f0779175e7f00000b2436d8,4,,,,,,dart,,,,,,,,,,,6,0,0,37,37,50,1,,,,,,,,,,,,,,,,,,,,,,,,,,,,,,,,,,,,,,,,,,,,,,,,,,,,,,,,,,,,,,,,,,,,,,
,,?,0,0,,,,,,stimuli/images/PICTURE_744.png,SYSTEM,5e9f0bc126557006ea49d1f4,16/12/1953,2020-07-09_21h10.49.355,proactive,2020.1.2,MacIntel,60,5f073de81c76c3308c0e4fb3,5f0779175e7f00000b2436d8,4,,,,,,ring,,,,,,,,,,,5,0,0,38,38,43,1,,,,,,,,,,,,,,,,,,,,,,,,,,,,,,,,,,,,,,,,,,,,,,,,,,,,,,,,,,,,,,,,,,,,,,
,,?,0.001,0,,,,,,stimuli/images/PICTURE_467.png,DEMON,5e9f0bc126557006ea49d1f4,16/12/1953,2020-07-09_21h10.49.355,proactive,2020.1.2,MacIntel,60,5f073de81c76c3308c0e4fb3,5f0779175e7f00000b2436d8,4,,,,,,peg,,,,,,,,,,,3,0,0,39,39,23,1,,,,,,,,,,,,,,,,,,,,,,,,,,,,,,,,,,,,,,,,,,,,,,,,,,,,,,,,,,,,,,,,,,,,,,
,,?,0,0,,,,,,stimuli/images/PICTURE_308.png,ESTATE,5e9f0bc126557006ea49d1f4,16/12/1953,2020-07-09_21h10.49.355,proactive,2020.1.2,MacIntel,60,5f073de81c76c3308c0e4fb3,5f0779175e7f00000b2436d8,4,,,,,,dice,,,,,,,,,,,5,0,0,40,40,46,1,,,,,,,,,,,,,,,,,,,,,,,,,,,,,,,,,,,,,,,,,,,,,,,,,,,,,,,,,,,,,,,,,,,,,,
,,?,0.001,0,,,,,,stimuli/images/PICTURE_233.png,IDEAS,5e9f0bc126557006ea49d1f4,16/12/1953,2020-07-09_21h10.49.355,proactive,2020.1.2,MacIntel,60,5f073de81c76c3308c0e4fb3,5f0779175e7f00000b2436d8,4,,,,,,salt,,,,,,,,,,,3,0,0,41,41,28,1,,,,,,,,,,,,,,,,,,,,,,,,,,,,,,,,,,,,,,,,,,,,,,,,,,,,,,,,,,,,,,,,,,,,,,
,,FRIEND,5.639,1,,,,,,stimuli/images/PICTURE_311.png,FRIEND,5e9f0bc126557006ea49d1f4,16/12/1953,2020-07-09_21h10.49.355,proactive,2020.1.2,MacIntel,60,5f073de81c76c3308c0e4fb3,5f0779175e7f00000b2436d8,4,,,,,,razor,,,,,,,,,,,4,0,0,42,42,34,1,,,,,,,,,,,,,,,,,,,,,,,,,,,,,,,,,,,,,,,,,,,,,,,,,,,,,,,,,,,,,,,,,,,,,,
,,STYLE,5.818,1,,,,,,stimuli/images/PICTURE_488.png,STYLE,5e9f0bc126557006ea49d1f4,16/12/1953,2020-07-09_21h10.49.355,proactive,2020.1.2,MacIntel,60,5f073de81c76c3308c0e4fb3,5f0779175e7f00000b2436d8,4,,,,,,sun,,,,,,,,,,,4,0,0,43,43,33,1,,,,,,,,,,,,,,,,,,,,,,,,,,,,,,,,,,,,,,,,,,,,,,,,,,,,,,,,,,,,,,,,,,,,,,
,,?,0.001,0,,,,,,stimuli/images/PICTURE_285.png,ADVICE,5e9f0bc126557006ea49d1f4,16/12/1953,2020-07-09_21h10.49.355,proactive,2020.1.2,MacIntel,60,5f073de81c76c3308c0e4fb3,5f0779175e7f00000b2436d8,4,,,,,,carrot,,,,,,,,,,,2,0,0,44,44,12,1,,,,,,,,,,,,,,,,,,,,,,,,,,,,,,,,,,,,,,,,,,,,,,,,,,,,,,,,,,,,,,,,,,,,,,
,,?,0.001,0,,,,,,stimuli/images/PICTURE_469.png,ARTIST,5e9f0bc126557006ea49d1f4,16/12/1953,2020-07-09_21h10.49.355,proactive,2020.1.2,MacIntel,60,5f073de81c76c3308c0e4fb3,5f0779175e7f00000b2436d8,4,,,,,,stool,,,,,,,,,,,1,0,0,45,45,6,1,,,,,,,,,,,,,,,,,,,,,,,,,,,,,,,,,,,,,,,,,,,,,,,,,,,,,,,,,,,,,,,,,,,,,,
,,?,0.001,0,,,,,,stimuli/images/PICTURE_85.png,THING,5e9f0bc126557006ea49d1f4,16/12/1953,2020-07-09_21h10.49.355,proactive,2020.1.2,MacIntel,60,5f073de81c76c3308c0e4fb3,5f0779175e7f00000b2436d8,4,,,,,,diamond,,,,,,,,,,,2,0,0,46,46,15,1,,,,,,,,,,,,,,,,,,,,,,,,,,,,,,,,,,,,,,,,,,,,,,,,,,,,,,,,,,,,,,,,,,,,,,
,,?,0.001,0,,,,,,stimuli/images/PICTURE_487.png,FLIGHT,5e9f0bc126557006ea49d1f4,16/12/1953,2020-07-09_21h10.49.355,proactive,2020.1.2,MacIntel,60,5f073de81c76c3308c0e4fb3,5f0779175e7f00000b2436d8,4,,,,,,basket,,,,,,,,,,,1,0,0,47,47,9,1,,,,,,,,,,,,,,,,,,,,,,,,,,,,,,,,,,,,,,,,,,,,,,,,,,,,,,,,,,,,,,,,,,,,,,
,,?,0,0,,,,,,stimuli/images/PICTURE_95.png,STYLE,5e9f0bc126557006ea49d1f4,16/12/1953,2020-07-09_21h10.49.355,proactive,2020.1.2,MacIntel,60,5f073de81c76c3308c0e4fb3,5f0779175e7f00000b2436d8,4,,,,,,suitcase,,,,,,,,,,,3,0,0,48,48,25,1,,,,,,,,,,,,,,,,,,,,,,,,,,,,,,,,,,,,,,,,,,,,,,,,,,,,,,,,,,,,,,,,,,,,,,
,,?,0.001,0,,,,,,stimuli/images/PICTURE_469.png,LETTER,5e9f0bc126557006ea49d1f4,16/12/1953,2020-07-09_21h10.49.355,proactive,2020.1.2,MacIntel,60,5f073de81c76c3308c0e4fb3,5f0779175e7f00000b2436d8,4,,,,,,stool,,,,,,,,,,,5,0,0,49,49,42,1,,,,,,,,,,,,,,,,,,,,,,,,,,,,,,,,,,,,,,,,,,,,,,,,,,,,,,,,,,,,,,,,,,,,,,
,,WOMEN,6.608,1,,,,,,stimuli/images/PICTURE_233.png,WOMEN,5e9f0bc126557006ea49d1f4,16/12/1953,2020-07-09_21h10.49.355,proactive,2020.1.2,MacIntel,60,5f073de81c76c3308c0e4fb3,5f0779175e7f00000b2436d8,4,,,,,,salt,,,,,,,,,,,4,0,0,50,50,38,1,,,,,,,,,,,,,,,,,,,,,,,,,,,,,,,,,,,,,,,,,,,,,,,,,,,,,,,,,,,,,,,,,,,,,,
,,PLENTY,5.135,1,,,,,,stimuli/images/PICTURE_215.png,PLENTY,5e9f0bc126557006ea49d1f4,16/12/1953,2020-07-09_21h10.49.355,proactive,2020.1.2,MacIntel,60,5f073de81c76c3308c0e4fb3,5f0779175e7f00000b2436d8,4,,,,,,boot,,,,,,,,,,,4,0,0,51,51,37,1,,,,,,,,,,,,,,,,,,,,,,,,,,,,,,,,,,,,,,,,,,,,,,,,,,,,,,,,,,,,,,,,,,,,,,
,,?,0.002,0,,,,,,stimuli/images/PICTURE_147.png,MOMENT,5e9f0bc126557006ea49d1f4,16/12/1953,2020-07-09_21h10.49.355,proactive,2020.1.2,MacIntel,60,5f073de81c76c3308c0e4fb3,5f0779175e7f00000b2436d8,4,,,,,,hanger,,,,,,,,,,,6,0,0,52,52,51,1,,,,,,,,,,,,,,,,,,,,,,,,,,,,,,,,,,,,,,,,,,,,,,,,,,,,,,,,,,,,,,,,,,,,,,
,,?,0.001,0,,,,,,stimuli/images/PICTURE_356.png,DANGER,5e9f0bc126557006ea49d1f4,16/12/1953,2020-07-09_21h10.49.355,proactive,2020.1.2,MacIntel,60,5f073de81c76c3308c0e4fb3,5f0779175e7f00000b2436d8,4,,,,,,pawn,,,,,,,,,,,6,0,0,53,53,55,1,,,,,,,,,,,,,,,,,,,,,,,,,,,,,,,,,,,,,,,,,,,,,,,,,,,,,,,,,,,,,,,,,,,,,,
,,?,0.001,0,,,,,,stimuli/images/PICTURE_311.png,BEAUTY,5e9f0bc126557006ea49d1f4,16/12/1953,2020-07-09_21h10.49.355,proactive,2020.1.2,MacIntel,60,5f073de81c76c3308c0e4fb3,5f0779175e7f00000b2436d8,4,,,,,,razor,,,,,,,,,,,2,0,0,54,54,13,1,,,,,,,,,,,,,,,,,,,,,,,,,,,,,,,,,,,,,,,,,,,,,,,,,,,,,,,,,,,,,,,,,,,,,,
,,WEAPON,5.694,1,,,,,,stimuli/images/PICTURE_675.png,WEAPON,5e9f0bc126557006ea49d1f4,16/12/1953,2020-07-09_21h10.49.355,proactive,2020.1.2,MacIntel,60,5f073de81c76c3308c0e4fb3,5f0779175e7f00000b2436d8,4,,,,,,windmill,,,,,,,,,,,4,0,0,55,55,32,1,,,,,,,,,,,,,,,,,,,,,,,,,,,,,,,,,,,,,,,,,,,,,,,,,,,,,,,,,,,,,,,,,,,,,,
,,?,0.001,0,,,,,,stimuli/images/PICTURE_32.png,JUNGLE,5e9f0bc126557006ea49d1f4,16/12/1953,2020-07-09_21h10.49.355,proactive,2020.1.2,MacIntel,60,5f073de81c76c3308c0e4fb3,5f0779175e7f00000b2436d8,4,,,,,,crown,,,,,,,,,,,5,0,0,56,56,45,1,,,,,,,,,,,,,,,,,,,,,,,,,,,,,,,,,,,,,,,,,,,,,,,,,,,,,,,,,,,,,,,,,,,,,,
,,?,0.001,0,,,,,,stimuli/images/PICTURE_744.png,SAKE,5e9f0bc126557006ea49d1f4,16/12/1953,2020-07-09_21h10.49.355,proactive,2020.1.2,MacIntel,60,5f073de81c76c3308c0e4fb3,5f0779175e7f00000b2436d8,4,,,,,,ring,,,,,,,,,,,2,0,0,57,57,17,1,,,,,,,,,,,,,,,,,,,,,,,,,,,,,,,,,,,,,,,,,,,,,,,,,,,,,,,,,,,,,,,,,,,,,,
,,?,0.001,0,,,,,,stimuli/images/PICTURE_123.png,ADVICE,5e9f0bc126557006ea49d1f4,16/12/1953,2020-07-09_21h10.49.355,proactive,2020.1.2,MacIntel,60,5f073de81c76c3308c0e4fb3,5f0779175e7f00000b2436d8,4,,,,,,dart,,,,,,,,,,,5,0,0,58,58,40,1,,,,,,,,,,,,,,,,,,,,,,,,,,,,,,,,,,,,,,,,,,,,,,,,,,,,,,,,,,,,,,,,,,,,,,
,,MILE,4.977,1,,,,,,stimuli/images/PICTURE_677.png,MILE,5e9f0bc126557006ea49d1f4,16/12/1953,2020-07-09_21h10.49.355,proactive,2020.1.2,MacIntel,60,5f073de81c76c3308c0e4fb3,5f0779175e7f00000b2436d8,4,,,,,,map,,,,,,,,,,,4,0,0,59,59,30,1,,,,,,,,,,,,,,,,,,,,,,,,,,,,,,,,,,,,,,,,,,,,,,,,,,,,,,,,,,,,,,,,,,,,,,
,,,,,,,,,,,,5e9f0bc126557006ea49d1f4,16/12/1953,2020-07-09_21h10.49.355,proactive,2020.1.2,MacIntel,60,5f073de81c76c3308c0e4fb3,5f0779175e7f00000b2436d8,4,,,,,,,,,,,,,,,,,,,,,,,,0,1,1,0,1,stimuli/learn-block1.csv,,,,,,,,,,,,,,,,,,,,,,,,,,,,,,,,,,,,,,,,,,,,,,,,,,,,,,,,,,,,,,,,
,,,,,,,,,,stimuli/images/PICTURE_356.png,CANDY,5e9f0bc126557006ea49d1f4,16/12/1953,2020-07-09_21h10.49.355,proactive,2020.1.2,MacIntel,60,5f073de81c76c3308c0e4fb3,5f0779175e7f00000b2436d8,4,,,,,,pawn,,,,,,0,0,0,46,1,5,2,,,,,,,,,,,,,,,,,,,,,,,,,,,,,,,,,,,,,,,,,,,,,,,,,,,,,,,,,,,,,,,,,,,,,,,,,,,
,,,,,,,,,,stimuli/images/PICTURE_750.png,POLICY,5e9f0bc126557006ea49d1f4,16/12/1953,2020-07-09_21h10.49.355,proactive,2020.1.2,MacIntel,60,5f073de81c76c3308c0e4fb3,5f0779175e7f00000b2436d8,4,,,,,,kettle,,,,,,0,1,1,44,1,5,2,,,,,,,,,,,,,,,,,,,,,,,,,,,,,,,,,,,,,,,,,,,,,,,,,,,,,,,,,,,,,,,,,,,,,,,,,,,
,,,,,,,,,,stimuli/images/PICTURE_509.png,SHOTS,5e9f0bc126557006ea49d1f4,16/12/1953,2020-07-09_21h10.49.355,proactive,2020.1.2,MacIntel,60,5f073de81c76c3308c0e4fb3,5f0779175e7f00000b2436d8,4,,,,,,telephone,,,,,,0,2,2,7,1,1,2,,,,,,,,,,,,,,,,,,,,,,,,,,,,,,,,,,,,,,,,,,,,,,,,,,,,,,,,,,,,,,,,,,,,,,,,,,,
,,,,,,,,,,stimuli/images/PICTURE_452.png,COPS,5e9f0bc126557006ea49d1f4,16/12/1953,2020-07-09_21h10.49.355,proactive,2020.1.2,MacIntel,60,5f073de81c76c3308c0e4fb3,5f0779175e7f00000b2436d8,4,,,,,,watch,,,,,,0,3,3,0,1,1,2,,,,,,,,,,,,,,,,,,,,,,,,,,,,,,,,,,,,,,,,,,,,,,,,,,,,,,,,,,,,,,,,,,,,,,,,,,,
,,,,,,,,,,stimuli/images/PICTURE_405.png,JUNGLE,5e9f0bc126557006ea49d1f4,16/12/1953,2020-07-09_21h10.49.355,proactive,2020.1.2,MacIntel,60,5f073de81c76c3308c0e4fb3,5f0779175e7f00000b2436d8,4,,,,,,anchor,,,,,,0,4,4,58,1,6,2,,,,,,,,,,,,,,,,,,,,,,,,,,,,,,,,,,,,,,,,,,,,,,,,,,,,,,,,,,,,,,,,,,,,,,,,,,,
,,,,,,,,,,stimuli/images/PICTURE_654.png,COPS,5e9f0bc126557006ea49d1f4,16/12/1953,2020-07-09_21h10.49.355,proactive,2020.1.2,MacIntel,60,5f073de81c76c3308c0e4fb3,5f0779175e7f00000b2436d8,4,,,,,,pencil,,,,,,0,5,5,10,1,2,2,,,,,,,,,,,,,,,,,,,,,,,,,,,,,,,,,,,,,,,,,,,,,,,,,,,,,,,,,,,,,,,,,,,,,,,,,,,
,,,,,,,,,,stimuli/images/PICTURE_285.png,PRINCE,5e9f0bc126557006ea49d1f4,16/12/1953,2020-07-09_21h10.49.355,proactive,2020.1.2,MacIntel,60,5f073de81c76c3308c0e4fb3,5f0779175e7f00000b2436d8,4,,,,,,carrot,,,,,,0,6,6,20,1,3,2,,,,,,,,,,,,,,,,,,,,,,,,,,,,,,,,,,,,,,,,,,,,,,,,,,,,,,,,,,,,,,,,,,,,,,,,,,,
,,,,,,,,,,stimuli/images/PICTURE_405.png,HOUSE,5e9f0bc126557006ea49d1f4,16/12/1953,2020-07-09_21h10.49.355,proactive,2020.1.2,MacIntel,60,5f073de81c76c3308c0e4fb3,5f0779175e7f00000b2436d8,4,,,,,,anchor,,,,,,0,7,7,2,1,1,2,,,,,,,,,,,,,,,,,,,,,,,,,,,,,,,,,,,,,,,,,,,,,,,,,,,,,,,,,,,,,,,,,,,,,,,,,,,
,,,,,,,,,,stimuli/images/PICTURE_123.png,SALE,5e9f0bc126557006ea49d1f4,16/12/1953,2020-07-09_21h10.49.355,proactive,2020.1.2,MacIntel,60,5f073de81c76c3308c0e4fb3,5f0779175e7f00000b2436d8,4,,,,,,dart,,,,,,0,8,8,8,1,1,2,,,,,,,,,,,,,,,,,,,,,,,,,,,,,,,,,,,,,,,,,,,,,,,,,,,,,,,,,,,,,,,,,,,,,,,,,,,
,,,,,,,,,,stimuli/images/PICTURE_487.png,POLICY,5e9f0bc126557006ea49d1f4,16/12/1953,2020-07-09_21h10.49.355,proactive,2020.1.2,MacIntel,60,5f073de81c76c3308c0e4fb3,5f0779175e7f00000b2436d8,4,,,,,,basket,,,,,,0,9,9,34,1,4,2,,,,,,,,,,,,,,,,,,,,,,,,,,,,,,,,,,,,,,,,,,,,,,,,,,,,,,,,,,,,,,,,,,,,,,,,,,,
,,,,,,,,,,stimuli/images/PICTURE_160.png,HOTEL,5e9f0bc126557006ea49d1f4,16/12/1953,2020-07-09_21h10.49.355,proactive,2020.1.2,MacIntel,60,5f073de81c76c3308c0e4fb3,5f0779175e7f00000b2436d8,4,,,,,,wheelbarrow,,,,,,0,10,10,16,1,2,2,,,,,,,,,,,,,,,,,,,,,,,,,,,,,,,,,,,,,,,,,,,,,,,,,,,,,,,,,,,,,,,,,,,,,,,,,,,
,,,,,,,,,,stimuli/images/PICTURE_215.png,LEADER,5e9f0bc126557006ea49d1f4,16/12/1953,2020-07-09_21h10.49.355,proactive,2020.1.2,MacIntel,60,5f073de81c76c3308c0e4fb3,5f0779175e7f00000b2436d8,4,,,,,,boot,,,,,,0,11,11,43,1,5,2,,,,,,,,,,,,,,,,,,,,,,,,,,,,,,,,,,,,,,,,,,,,,,,,,,,,,,,,,,,,,,,,,,,,,,,,,,,
,,,,,,,,,,stimuli/images/PICTURE_453.png,FAMILY,5e9f0bc126557006ea49d1f4,16/12/1953,2020-07-09_21h10.49.355,proactive,2020.1.2,MacIntel,60,5f073de81c76c3308c0e4fb3,5f0779175e7f00000b2436d8,4,,,,,,scissors,,,,,,0,12,12,48,1,5,2,,,,,,,,,,,,,,,,,,,,,,,,,,,,,,,,,,,,,,,,,,,,,,,,,,,,,,,,,,,,,,,,,,,,,,,,,,,
,,,,,,,,,,stimuli/images/PICTURE_215.png,BOYS,5e9f0bc126557006ea49d1f4,16/12/1953,2020-07-09_21h10.49.355,proactive,2020.1.2,MacIntel,60,5f073de81c76c3308c0e4fb3,5f0779175e7f00000b2436d8,4,,,,,,boot,,,,,,0,13,13,24,1,3,2,,,,,,,,,,,,,,,,,,,,,,,,,,,,,,,,,,,,,,,,,,,,,,,,,,,,,,,,,,,,,,,,,,,,,,,,,,,
,,,,,,,,,,stimuli/images/PICTURE_491.png,SERIES,5e9f0bc126557006ea49d1f4,16/12/1953,2020-07-09_21h10.49.355,proactive,2020.1.2,MacIntel,60,5f073de81c76c3308c0e4fb3,5f0779175e7f00000b2436d8,4,,,,,,rug,,,,,,0,14,14,39,1,4,2,,,,,,,,,,,,,,,,,,,,,,,,,,,,,,,,,,,,,,,,,,,,,,,,,,,,,,,,,,,,,,,,,,,,,,,,,,,
,,,,,,,,,,stimuli/images/PICTURE_677.png,FAMILY,5e9f0bc126557006ea49d1f4,16/12/1953,2020-07-09_21h10.49.355,proactive,2020.1.2,MacIntel,60,5f073de81c76c3308c0e4fb3,5f0779175e7f00000b2436d8,4,,,,,,map,,,,,,0,15,15,53,1,6,2,,,,,,,,,,,,,,,,,,,,,,,,,,,,,,,,,,,,,,,,,,,,,,,,,,,,,,,,,,,,,,,,,,,,,,,,,,,
,,,,,,,,,,stimuli/images/PICTURE_208.png,SPIRIT,5e9f0bc126557006ea49d1f4,16/12/1953,2020-07-09_21h10.49.355,proactive,2020.1.2,MacIntel,60,5f073de81c76c3308c0e4fb3,5f0779175e7f00000b2436d8,4,,,,,,microphone,,,,,,0,16,16,28,1,3,2,,,,,,,,,,,,,,,,,,,,,,,,,,,,,,,,,,,,,,,,,,,,,,,,,,,,,,,,,,,,,,,,,,,,,,,,,,,
,,,,,,,,,,stimuli/images/PICTURE_348.png,DUDE,5e9f0bc126557006ea49d1f4,16/12/1953,2020-07-09_21h10.49.355,proactive,2020.1.2,MacIntel,60,5f073de81c76c3308c0e4fb3,5f0779175e7f00000b2436d8,4,,,,,,pepper,,,,,,0,17,17,59,1,6,2,,,,,,,,,,,,,,,,,,,,,,,,,,,,,,,,,,,,,,,,,,,,,,,,,,,,,,,,,,,,,,,,,,,,,,,,,,,
,,,,,,,,,,stimuli/images/PICTURE_655.png,SALE,5e9f0bc126557006ea49d1f4,16/12/1953,2020-07-09_21h10.49.355,proactive,2020.1.2,MacIntel,60,5f073de81c76c3308c0e4fb3,5f0779175e7f00000b2436d8,4,,,,,,megaphone,,,,,,0,18,18,57,1,6,2,,,,,,,,,,,,,,,,,,,,,,,,,,,,,,,,,,,,,,,,,,,,,,,,,,,,,,,,,,,,,,,,,,,,,,,,,,,
,,,,,,,,,,stimuli/images/PICTURE_692.png,DUDE,5e9f0bc126557006ea49d1f4,16/12/1953,2020-07-09_21h10.49.355,proactive,2020.1.2,MacIntel,60,5f073de81c76c3308c0e4fb3,5f0779175e7f00000b2436d8,4,,,,,,cherry,,,,,,0,19,19,47,1,5,2,,,,,,,,,,,,,,,,,,,,,,,,,,,,,,,,,,,,,,,,,,,,,,,,,,,,,,,,,,,,,,,,,,,,,,,,,,,
,,,,,,,,,,stimuli/images/PICTURE_57.png,CANDY,5e9f0bc126557006ea49d1f4,16/12/1953,2020-07-09_21h10.49.355,proactive,2020.1.2,MacIntel,60,5f073de81c76c3308c0e4fb3,5f0779175e7f00000b2436d8,4,,,,,,stamp,,,,,,0,20,20,52,1,6,2,,,,,,,,,,,,,,,,,,,,,,,,,,,,,,,,,,,,,,,,,,,,,,,,,,,,,,,,,,,,,,,,,,,,,,,,,,,
,,,,,,,,,,stimuli/images/PICTURE_470.png,BEAUTY,5e9f0bc126557006ea49d1f4,16/12/1953,2020-07-09_21h10.49.355,proactive,2020.1.2,MacIntel,60,5f073de81c76c3308c0e4fb3,5f0779175e7f00000b2436d8,4,,,,,,motorbike,,,,,,0,21,21,26,1,3,2,,,,,,,,,,,,,,,,,,,,,,,,,,,,,,,,,,,,,,,,,,,,,,,,,,,,,,,,,,,,,,,,,,,,,,,,,,,
,,,,,,,,,,stimuli/images/PICTURE_654.png,YEAR,5e9f0bc126557006ea49d1f4,16/12/1953,2020-07-09_21h10.49.355,proactive,2020.1.2,MacIntel,60,5f073de81c76c3308c0e4fb3,5f0779175e7f00000b2436d8,4,,,,,,pencil,,,,,,0,22,22,41,1,5,2,,,,,,,,,,,,,,,,,,,,,,,,,,,,,,,,,,,,,,,,,,,,,,,,,,,,,,,,,,,,,,,,,,,,,,,,,,,
,,,,,,,,,,stimuli/images/PICTURE_297.png,BODY,5e9f0bc126557006ea49d1f4,16/12/1953,2020-07-09_21h10.49.355,proactive,2020.1.2,MacIntel,60,5f073de81c76c3308c0e4fb3,5f0779175e7f00000b2436d8,4,,,,,,aeroplane,,,,,,0,23,23,51,1,6,2,,,,,,,,,,,,,,,,,,,,,,,,,,,,,,,,,,,,,,,,,,,,,,,,,,,,,,,,,,,,,,,,,,,,,,,,,,,
,,,,,,,,,,stimuli/images/PICTURE_255.png,PENNY,5e9f0bc126557006ea49d1f4,16/12/1953,2020-07-09_21h10.49.355,proactive,2020.1.2,MacIntel,60,5f073de81c76c3308c0e4fb3,5f0779175e7f00000b2436d8,4,,,,,,shovel,,,,,,0,24,24,19,1,2,2,,,,,,,,,,,,,,,,,,,,,,,,,,,,,,,,,,,,,,,,,,,,,,,,,,,,,,,,,,,,,,,,,,,,,,,,,,,
,,,,,,,,,,stimuli/images/PICTURE_18.png,RIVER,5e9f0bc126557006ea49d1f4,16/12/1953,2020-07-09_21h10.49.355,proactive,2020.1.2,MacIntel,60,5f073de81c76c3308c0e4fb3,5f0779175e7f00000b2436d8,4,,,,,,planet,,,,,,0,25,25,22,1,3,2,,,,,,,,,,,,,,,,,,,,,,,,,,,,,,,,,,,,,,,,,,,,,,,,,,,,,,,,,,,,,,,,,,,,,,,,,,,
,,,,,,,,,,stimuli/images/PICTURE_32.png,LETTER,5e9f0bc126557006ea49d1f4,16/12/1953,2020-07-09_21h10.49.355,proactive,2020.1.2,MacIntel,60,5f073de81c76c3308c0e4fb3,5f0779175e7f00000b2436d8,4,,,,,,crown,,,,,,0,26,26,56,1,6,2,,,,,,,,,,,,,,,,,,,,,,,,,,,,,,,,,,,,,,,,,,,,,,,,,,,,,,,,,,,,,,,,,,,,,,,,,,,
,,,,,,,,,,stimuli/images/PICTURE_509.png,APPLE,5e9f0bc126557006ea49d1f4,16/12/1953,2020-07-09_21h10.49.355,proactive,2020.1.2,MacIntel,60,5f073de81c76c3308c0e4fb3,5f0779175e7f00000b2436d8,4,,,,,,telephone,,,,,,0,27,27,38,1,4,2,,,,,,,,,,,,,,,,,,,,,,,,,,,,,,,,,,,,,,,,,,,,,,,,,,,,,,,,,,,,,,,,,,,,,,,,,,,
,,,,,,,,,,stimuli/images/PICTURE_509.png,BATH,5e9f0bc126557006ea49d1f4,16/12/1953,2020-07-09_21h10.49.355,proactive,2020.1.2,MacIntel,60,5f073de81c76c3308c0e4fb3,5f0779175e7f00000b2436d8,4,,,,,,telephone,,,,,,0,28,28,15,1,2,2,,,,,,,,,,,,,,,,,,,,,,,,,,,,,,,,,,,,,,,,,,,,,,,,,,,,,,,,,,,,,,,,,,,,,,,,,,,
,,,,,,,,,,stimuli/images/PICTURE_147.png,LEADER,5e9f0bc126557006ea49d1f4,16/12/1953,2020-07-09_21h10.49.355,proactive,2020.1.2,MacIntel,60,5f073de81c76c3308c0e4fb3,5f0779175e7f00000b2436d8,4,,,,,,hanger,,,,,,0,29,29,33,1,4,2,,,,,,,,,,,,,,,,,,,,,,,,,,,,,,,,,,,,,,,,,,,,,,,,,,,,,,,,,,,,,,,,,,,,,,,,,,,
,,,,,,,,,,stimuli/images/PICTURE_285.png,WRITER,5e9f0bc126557006ea49d1f4,16/12/1953,2020-07-09_21h10.49.355,proactive,2020.1.2,MacIntel,60,5f073de81c76c3308c0e4fb3,5f0779175e7f00000b2436d8,4,,,,,,carrot,,,,,,0,30,30,6,1,1,2,,,,,,,,,,,,,,,,,,,,,,,,,,,,,,,,,,,,,,,,,,,,,,,,,,,,,,,,,,,,,,,,,,,,,,,,,,,
,,,,,,,,,,stimuli/images/PICTURE_314.png,SPEECH,5e9f0bc126557006ea49d1f4,16/12/1953,2020-07-09_21h10.49.355,proactive,2020.1.2,MacIntel,60,5f073de81c76c3308c0e4fb3,5f0779175e7f00000b2436d8,4,,,,,,perfume,,,,,,0,31,31,35,1,4,2,,,,,,,,,,,,,,,,,,,,,,,,,,,,,,,,,,,,,,,,,,,,,,,,,,,,,,,,,,,,,,,,,,,,,,,,,,,
,,,,,,,,,,stimuli/images/PICTURE_2.png,JUNGLE,5e9f0bc126557006ea49d1f4,16/12/1953,2020-07-09_21h10.49.355,proactive,2020.1.2,MacIntel,60,5f073de81c76c3308c0e4fb3,5f0779175e7f00000b2436d8,4,,,,,,tyre,,,,,,0,32,32,1,1,1,2,,,,,,,,,,,,,,,,,,,,,,,,,,,,,,,,,,,,,,,,,,,,,,,,,,,,,,,,,,,,,,,,,,,,,,,,,,,
,,,,,,,,,,stimuli/images/PICTURE_2.png,YARD,5e9f0bc126557006ea49d1f4,16/12/1953,2020-07-09_21h10.49.355,proactive,2020.1.2,MacIntel,60,5f073de81c76c3308c0e4fb3,5f0779175e7f00000b2436d8,4,,,,,,tyre,,,,,,0,33,33,55,1,6,2,,,,,,,,,,,,,,,,,,,,,,,,,,,,,,,,,,,,,,,,,,,,,,,,,,,,,,,,,,,,,,,,,,,,,,,,,,,
,,,,,,,,,,stimuli/images/PICTURE_68.png,KIND,5e9f0bc126557006ea49d1f4,16/12/1953,2020-07-09_21h10.49.355,proactive,2020.1.2,MacIntel,60,5f073de81c76c3308c0e4fb3,5f0779175e7f00000b2436d8,4,,,,,,candle,,,,,,0,34,34,23,1,3,2,,,,,,,,,,,,,,,,,,,,,,,,,,,,,,,,,,,,,,,,,,,,,,,,,,,,,,,,,,,,,,,,,,,,,,,,,,,
,,,,,,,,,,stimuli/images/PICTURE_296.png,CLOCK,5e9f0bc126557006ea49d1f4,16/12/1953,2020-07-09_21h10.49.355,proactive,2020.1.2,MacIntel,60,5f073de81c76c3308c0e4fb3,5f0779175e7f00000b2436d8,4,,,,,,bolt,,,,,,0,35,35,18,1,2,2,,,,,,,,,,,,,,,,,,,,,,,,,,,,,,,,,,,,,,,,,,,,,,,,,,,,,,,,,,,,,,,,,,,,,,,,,,,
,,,,,,,,,,stimuli/images/PICTURE_708.png,VALLEY,5e9f0bc126557006ea49d1f4,16/12/1953,2020-07-09_21h10.49.355,proactive,2020.1.2,MacIntel,60,5f073de81c76c3308c0e4fb3,5f0779175e7f00000b2436d8,4,,,,,,monkey,,,,,,0,36,36,45,1,5,2,,,,,,,,,,,,,,,,,,,,,,,,,,,,,,,,,,,,,,,,,,,,,,,,,,,,,,,,,,,,,,,,,,,,,,,,,,,
,,,,,,,,,,stimuli/images/PICTURE_470.png,MOMENT,5e9f0bc126557006ea49d1f4,16/12/1953,2020-07-09_21h10.49.355,proactive,2020.1.2,MacIntel,60,5f073de81c76c3308c0e4fb3,5f0779175e7f00000b2436d8,4,,,,,,motorbike,,,,,,0,37,37,40,1,5,2,,,,,,,,,,,,,,,,,,,,,,,,,,,,,,,,,,,,,,,,,,,,,,,,,,,,,,,,,,,,,,,,,,,,,,,,,,,
,,,,,,,,,,stimuli/images/PICTURE_311.png,FLESH,5e9f0bc126557006ea49d1f4,16/12/1953,2020-07-09_21h10.49.355,proactive,2020.1.2,MacIntel,60,5f073de81c76c3308c0e4fb3,5f0779175e7f00000b2436d8,4,,,,,,razor,,,,,,0,38,38,3,1,1,2,,,,,,,,,,,,,,,,,,,,,,,,,,,,,,,,,,,,,,,,,,,,,,,,,,,,,,,,,,,,,,,,,,,,,,,,,,,
,,,,,,,,,,stimuli/images/PICTURE_403.png,FAMILY,5e9f0bc126557006ea49d1f4,16/12/1953,2020-07-09_21h10.49.355,proactive,2020.1.2,MacIntel,60,5f073de81c76c3308c0e4fb3,5f0779175e7f00000b2436d8,4,,,,,,cathedral,,,,,,0,39,39,9,1,1,2,,,,,,,,,,,,,,,,,,,,,,,,,,,,,,,,,,,,,,,,,,,,,,,,,,,,,,,,,,,,,,,,,,,,,,,,,,,
,,,,,,,,,,stimuli/images/PICTURE_564.png,PLENTY,5e9f0bc126557006ea49d1f4,16/12/1953,2020-07-09_21h10.49.355,proactive,2020.1.2,MacIntel,60,5f073de81c76c3308c0e4fb3,5f0779175e7f00000b2436d8,4,,,,,,spoon,,,,,,0,40,40,11,1,2,2,,,,,,,,,,,,,,,,,,,,,,,,,,,,,,,,,,,,,,,,,,,,,,,,,,,,,,,,,,,,,,,,,,,,,,,,,,,
,,,,,,,,,,stimuli/images/PICTURE_509.png,MILLER,5e9f0bc126557006ea49d1f4,16/12/1953,2020-07-09_21h10.49.355,proactive,2020.1.2,MacIntel,60,5f073de81c76c3308c0e4fb3,5f0779175e7f00000b2436d8,4,,,,,,telephone,,,,,,0,41,41,49,1,5,2,,,,,,,,,,,,,,,,,,,,,,,,,,,,,,,,,,,,,,,,,,,,,,,,,,,,,,,,,,,,,,,,,,,,,,,,,,,
,,,,,,,,,,stimuli/images/PICTURE_2.png,AREA,5e9f0bc126557006ea49d1f4,16/12/1953,2020-07-09_21h10.49.355,proactive,2020.1.2,MacIntel,60,5f073de81c76c3308c0e4fb3,5f0779175e7f00000b2436d8,4,,,,,,tyre,,,,,,0,42,42,32,1,4,2,,,,,,,,,,,,,,,,,,,,,,,,,,,,,,,,,,,,,,,,,,,,,,,,,,,,,,,,,,,,,,,,,,,,,,,,,,,
,,,,,,,,,,stimuli/images/PICTURE_177.png,HOUSE,5e9f0bc126557006ea49d1f4,16/12/1953,2020-07-09_21h10.49.355,proactive,2020.1.2,MacIntel,60,5f073de81c76c3308c0e4fb3,5f0779175e7f00000b2436d8,4,,,,,,mushroom,,,,,,0,43,43,25,1,3,2,,,,,,,,,,,,,,,,,,,,,,,,,,,,,,,,,,,,,,,,,,,,,,,,,,,,,,,,,,,,,,,,,,,,,,,,,,,
,,,,,,,,,,stimuli/images/PICTURE_667.png,GLASS,5e9f0bc126557006ea49d1f4,16/12/1953,2020-07-09_21h10.49.355,proactive,2020.1.2,MacIntel,60,5f073de81c76c3308c0e4fb3,5f0779175e7f00000b2436d8,4,,,,,,daisy,,,,,,0,44,44,27,1,3,2,,,,,,,,,,,,,,,,,,,,,,,,,,,,,,,,,,,,,,,,,,,,,,,,,,,,,,,,,,,,,,,,,,,,,,,,,,,
,,,,,,,,,,stimuli/images/PICTURE_33.png,COPS,5e9f0bc126557006ea49d1f4,16/12/1953,2020-07-09_21h10.49.355,proactive,2020.1.2,MacIntel,60,5f073de81c76c3308c0e4fb3,5f0779175e7f00000b2436d8,4,,,,,,frame,,,,,,0,45,45,29,1,3,2,,,,,,,,,,,,,,,,,,,,,,,,,,,,,,,,,,,,,,,,,,,,,,,,,,,,,,,,,,,,,,,,,,,,,,,,,,,
,,,,,,,,,,stimuli/images/PICTURE_57.png,CASINO,5e9f0bc126557006ea49d1f4,16/12/1953,2020-07-09_21h10.49.355,proactive,2020.1.2,MacIntel,60,5f073de81c76c3308c0e4fb3,5f0779175e7f00000b2436d8,4,,,,,,stamp,,,,,,0,46,46,12,1,2,2,,,,,,,,,,,,,,,,,,,,,,,,,,,,,,,,,,,,,,,,,,,,,,,,,,,,,,,,,,,,,,,,,,,,,,,,,,,
,,,,,,,,,,stimuli/images/PICTURE_93.png,GIRL,5e9f0bc126557006ea49d1f4,16/12/1953,2020-07-09_21h10.49.355,proactive,2020.1.2,MacIntel,60,5f073de81c76c3308c0e4fb3,5f0779175e7f00000b2436d8,4,,,,,,skateboard,,,,,,0,47,47,31,1,4,2,,,,,,,,,,,,,,,,,,,,,,,,,,,,,,,,,,,,,,,,,,,,,,,,,,,,,,,,,,,,,,,,,,,,,,,,,,,
,,,,,,,,,,stimuli/images/PICTURE_504.png,HOUSE,5e9f0bc126557006ea49d1f4,16/12/1953,2020-07-09_21h10.49.355,proactive,2020.1.2,MacIntel,60,5f073de81c76c3308c0e4fb3,5f0779175e7f00000b2436d8,4,,,,,,wheel,,,,,,0,48,48,36,1,4,2,,,,,,,,,,,,,,,,,,,,,,,,,,,,,,,,,,,,,,,,,,,,,,,,,,,,,,,,,,,,,,,,,,,,,,,,,,,
,,,,,,,,,,stimuli/images/PICTURE_311.png,TOILET,5e9f0bc126557006ea49d1f4,16/12/1953,2020-07-09_21h10.49.355,proactive,2020.1.2,MacIntel,60,5f073de81c76c3308c0e4fb3,5f0779175e7f00000b2436d8,4,,,,,,razor,,,,,,0,49,49,54,1,6,2,,,,,,,,,,,,,,,,,,,,,,,,,,,,,,,,,,,,,,,,,,,,,,,,,,,,,,,,,,,,,,,,,,,,,,,,,,,
,,,,,,,,,,stimuli/images/PICTURE_688.png,CLOCK,5e9f0bc126557006ea49d1f4,16/12/1953,2020-07-09_21h10.49.355,proactive,2020.1.2,MacIntel,60,5f073de81c76c3308c0e4fb3,5f0779175e7f00000b2436d8,4,,,,,,runner,,,,,,0,50,50,42,1,5,2,,,,,,,,,,,,,,,,,,,,,,,,,,,,,,,,,,,,,,,,,,,,,,,,,,,,,,,,,,,,,,,,,,,,,,,,,,,
,,,,,,,,,,stimuli/images/PICTURE_215.png,FOOD,5e9f0bc126557006ea49d1f4,16/12/1953,2020-07-09_21h10.49.355,proactive,2020.1.2,MacIntel,60,5f073de81c76c3308c0e4fb3,5f0779175e7f00000b2436d8,4,,,,,,boot,,,,,,0,51,51,5,1,1,2,,,,,,,,,,,,,,,,,,,,,,,,,,,,,,,,,,,,,,,,,,,,,,,,,,,,,,,,,,,,,,,,,,,,,,,,,,,
,,,,,,,,,,stimuli/images/PICTURE_57.png,NATION,5e9f0bc126557006ea49d1f4,16/12/1953,2020-07-09_21h10.49.355,proactive,2020.1.2,MacIntel,60,5f073de81c76c3308c0e4fb3,5f0779175e7f00000b2436d8,4,,,,,,stamp,,,,,,0,52,52,21,1,3,2,,,,,,,,,,,,,,,,,,,,,,,,,,,,,,,,,,,,,,,,,,,,,,,,,,,,,,,,,,,,,,,,,,,,,,,,,,,
,,,,,,,,,,stimuli/images/PICTURE_327.png,LEADER,5e9f0bc126557006ea49d1f4,16/12/1953,2020-07-09_21h10.49.355,proactive,2020.1.2,MacIntel,60,5f073de81c76c3308c0e4fb3,5f0779175e7f00000b2436d8,4,,,,,,helmet,,,,,,0,53,53,17,1,2,2,,,,,,,,,,,,,,,,,,,,,,,,,,,,,,,,,,,,,,,,,,,,,,,,,,,,,,,,,,,,,,,,,,,,,,,,,,,
,,,,,,,,,,stimuli/images/PICTURE_95.png,NIGHT,5e9f0bc126557006ea49d1f4,16/12/1953,2020-07-09_21h10.49.355,proactive,2020.1.2,MacIntel,60,5f073de81c76c3308c0e4fb3,5f0779175e7f00000b2436d8,4,,,,,,suitcase,,,,,,0,54,54,37,1,4,2,,,,,,,,,,,,,,,,,,,,,,,,,,,,,,,,,,,,,,,,,,,,,,,,,,,,,,,,,,,,,,,,,,,,,,,,,,,
,,,,,,,,,,stimuli/images/PICTURE_348.png,TOILET,5e9f0bc126557006ea49d1f4,16/12/1953,2020-07-09_21h10.49.355,proactive,2020.1.2,MacIntel,60,5f073de81c76c3308c0e4fb3,5f0779175e7f00000b2436d8,4,,,,,,pepper,,,,,,0,55,55,4,1,1,2,,,,,,,,,,,,,,,,,,,,,,,,,,,,,,,,,,,,,,,,,,,,,,,,,,,,,,,,,,,,,,,,,,,,,,,,,,,
,,,,,,,,,,stimuli/images/PICTURE_677.png,PHOTO,5e9f0bc126557006ea49d1f4,16/12/1953,2020-07-09_21h10.49.355,proactive,2020.1.2,MacIntel,60,5f073de81c76c3308c0e4fb3,5f0779175e7f00000b2436d8,4,,,,,,map,,,,,,0,56,56,14,1,2,2,,,,,,,,,,,,,,,,,,,,,,,,,,,,,,,,,,,,,,,,,,,,,,,,,,,,,,,,,,,,,,,,,,,,,,,,,,,
,,,,,,,,,,stimuli/images/PICTURE_405.png,JUNGLE,5e9f0bc126557006ea49d1f4,16/12/1953,2020-07-09_21h10.49.355,proactive,2020.1.2,MacIntel,60,5f073de81c76c3308c0e4fb3,5f0779175e7f00000b2436d8,4,,,,,,anchor,,,,,,0,57,57,13,1,2,2,,,,,,,,,,,,,,,,,,,,,,,,,,,,,,,,,,,,,,,,,,,,,,,,,,,,,,,,,,,,,,,,,,,,,,,,,,,
,,,,,,,,,,stimuli/images/PICTURE_141.png,CLIENT,5e9f0bc126557006ea49d1f4,16/12/1953,2020-07-09_21h10.49.355,proactive,2020.1.2,MacIntel,60,5f073de81c76c3308c0e4fb3,5f0779175e7f00000b2436d8,4,,,,,,sunflower,,,,,,0,58,58,30,1,4,2,,,,,,,,,,,,,,,,,,,,,,,,,,,,,,,,,,,,,,,,,,,,,,,,,,,,,,,,,,,,,,,,,,,,,,,,,,,
,,?,0.001,0,,,,,,stimuli/images/PICTURE_215.png,BOYS,5e9f0bc126557006ea49d1f4,16/12/1953,2020-07-09_21h10.49.355,proactive,2020.1.2,MacIntel,60,5f073de81c76c3308c0e4fb3,5f0779175e7f00000b2436d8,4,,,,,,boot,,,,,,,,,,,3,2,0,0,0,24,1,,,,,,,,,,,,,,,,,,,,,,,,,,,,,,,,,,,,,,,,,,,,,,,,,,,,,,,,,,,,,,,,,,,,,,
,,?,0.002,0,,,,,,stimuli/images/PICTURE_311.png,FLESH,5e9f0bc126557006ea49d1f4,16/12/1953,2020-07-09_21h10.49.355,proactive,2020.1.2,MacIntel,60,5f073de81c76c3308c0e4fb3,5f0779175e7f00000b2436d8,4,,,,,,razor,,,,,,,,,,,1,2,0,1,1,3,1,,,,,,,,,,,,,,,,,,,,,,,,,,,,,,,,,,,,,,,,,,,,,,,,,,,,,,,,,,,,,,,,,,,,,,
,,?,0.001,0,,,,,,stimuli/images/PICTURE_655.png,SALE,5e9f0bc126557006ea49d1f4,16/12/1953,2020-07-09_21h10.49.355,proactive,2020.1.2,MacIntel,60,5f073de81c76c3308c0e4fb3,5f0779175e7f00000b2436d8,4,,,,,,megaphone,,,,,,,,,,,6,2,0,2,2,57,1,,,,,,,,,,,,,,,,,,,,,,,,,,,,,,,,,,,,,,,,,,,,,,,,,,,,,,,,,,,,,,,,,,,,,,
,,AREA,5.875,1,,,,,,stimuli/images/PICTURE_2.png,AREA,5e9f0bc126557006ea49d1f4,16/12/1953,2020-07-09_21h10.49.355,proactive,2020.1.2,MacIntel,60,5f073de81c76c3308c0e4fb3,5f0779175e7f00000b2436d8,4,,,,,,tyre,,,,,,,,,,,4,2,0,3,3,32,1,,,,,,,,,,,,,,,,,,,,,,,,,,,,,,,,,,,,,,,,,,,,,,,,,,,,,,,,,,,,,,,,,,,,,,
,,?,0.001,0,,,,,,stimuli/images/PICTURE_677.png,FAMILY,5e9f0bc126557006ea49d1f4,16/12/1953,2020-07-09_21h10.49.355,proactive,2020.1.2,MacIntel,60,5f073de81c76c3308c0e4fb3,5f0779175e7f00000b2436d8,4,,,,,,map,,,,,,,,,,,6,2,0,4,4,53,1,,,,,,,,,,,,,,,,,,,,,,,,,,,,,,,,,,,,,,,,,,,,,,,,,,,,,,,,,,,,,,,,,,,,,,
,,?,0.001,0,,,,,,stimuli/images/PICTURE_2.png,YARD,5e9f0bc126557006ea49d1f4,16/12/1953,2020-07-09_21h10.49.355,proactive,2020.1.2,MacIntel,60,5f073de81c76c3308c0e4fb3,5f0779175e7f00000b2436d8,4,,,,,,tyre,,,,,,,,,,,6,2,0,5,5,55,1,,,,,,,,,,,,,,,,,,,,,,,,,,,,,,,,,,,,,,,,,,,,,,,,,,,,,,,,,,,,,,,,,,,,,,
,,?,0.001,0,,,,,,stimuli/images/PICTURE_297.png,BODY,5e9f0bc126557006ea49d1f4,16/12/1953,2020-07-09_21h10.49.355,proactive,2020.1.2,MacIntel,60,5f073de81c76c3308c0e4fb3,5f0779175e7f00000b2436d8,4,,,,,,aeroplane,,,,,,,,,,,6,2,0,6,6,51,1,,,,,,,,,,,,,,,,,,,,,,,,,,,,,,,,,,,,,,,,,,,,,,,,,,,,,,,,,,,,,,,,,,,,,,
,,?,0.001,0,,,,,,stimuli/images/PICTURE_285.png,PRINCE,5e9f0bc126557006ea49d1f4,16/12/1953,2020-07-09_21h10.49.355,proactive,2020.1.2,MacIntel,60,5f073de81c76c3308c0e4fb3,5f0779175e7f00000b2436d8,4,,,,,,carrot,,,,,,,,,,,3,2,0,7,7,20,1,,,,,,,,,,,,,,,,,,,,,,,,,,,,,,,,,,,,,,,,,,,,,,,,,,,,,,,,,,,,,,,,,,,,,,
,,CLIENT,6.427,1,,,,,,stimuli/images/PICTURE_141.png,CLIENT,5e9f0bc126557006ea49d1f4,16/12/1953,2020-07-09_21h10.49.355,proactive,2020.1.2,MacIntel,60,5f073de81c76c3308c0e4fb3,5f0779175e7f00000b2436d8,4,,,,,,sunflower,,,,,,,,,,,4,2,0,8,8,30,1,,,,,,,,,,,,,,,,,,,,,,,,,,,,,,,,,,,,,,,,,,,,,,,,,,,,,,,,,,,,,,,,,,,,,,
,,?,0.001,0,,,,,,stimuli/images/PICTURE_296.png,CLOCK,5e9f0bc126557006ea49d1f4,16/12/1953,2020-07-09_21h10.49.355,proactive,2020.1.2,MacIntel,60,5f073de81c76c3308c0e4fb3,5f0779175e7f00000b2436d8,4,,,,,,bolt,,,,,,,,,,,2,2,0,9,9,18,1,,,,,,,,,,,,,,,,,,,,,,,,,,,,,,,,,,,,,,,,,,,,,,,,,,,,,,,,,,,,,,,,,,,,,,
,,?,0.001,0,,,,,,stimuli/images/PICTURE_123.png,SALE,5e9f0bc126557006ea49d1f4,16/12/1953,2020-07-09_21h10.49.355,proactive,2020.1.2,MacIntel,60,5f073de81c76c3308c0e4fb3,5f0779175e7f00000b2436d8,4,,,,,,dart,,,,,,,,,,,1,2,0,10,10,8,1,,,,,,,,,,,,,,,,,,,,,,,,,,,,,,,,,,,,,,,,,,,,,,,,,,,,,,,,,,,,,,,,,,,,,,
,,?,0,0,,,,,,stimuli/images/PICTURE_405.png,HOUSE,5e9f0bc126557006ea49d1f4,16/12/1953,2020-07-09_21h10.49.355,proactive,2020.1.2,MacIntel,60,5f073de81c76c3308c0e4fb3,5f0779175e7f00000b2436d8,4,,,,,,anchor,,,,,,,,,,,1,2,0,11,11,2,1,,,,,,,,,,,,,,,,,,,,,,,,,,,,,,,,,,,,,,,,,,,,,,,,,,,,,,,,,,,,,,,,,,,,,,
,,APPLE,6.096,1,,,,,,stimuli/images/PICTURE_509.png,APPLE,5e9f0bc126557006ea49d1f4,16/12/1953,2020-07-09_21h10.49.355,proactive,2020.1.2,MacIntel,60,5f073de81c76c3308c0e4fb3,5f0779175e7f00000b2436d8,4,,,,,,telephone,,,,,,,,,,,4,2,0,12,12,38,1,,,,,,,,,,,,,,,,,,,,,,,,,,,,,,,,,,,,,,,,,,,,,,,,,,,,,,,,,,,,,,,,,,,,,,
,,NIGHT,4.834,1,,,,,,stimuli/images/PICTURE_95.png,NIGHT,5e9f0bc126557006ea49d1f4,16/12/1953,2020-07-09_21h10.49.355,proactive,2020.1.2,MacIntel,60,5f073de81c76c3308c0e4fb3,5f0779175e7f00000b2436d8,4,,,,,,suitcase,,,,,,,,,,,4,2,0,13,13,37,1,,,,,,,,,,,,,,,,,,,,,,,,,,,,,,,,,,,,,,,,,,,,,,,,,,,,,,,,,,,,,,,,,,,,,,
,,?,0.001,0,,,,,,stimuli/images/PICTURE_470.png,MOMENT,5e9f0bc126557006ea49d1f4,16/12/1953,2020-07-09_21h10.49.355,proactive,2020.1.2,MacIntel,60,5f073de81c76c3308c0e4fb3,5f0779175e7f00000b2436d8,4,,,,,,motorbike,,,,,,,,,,,5,2,0,14,14,40,1,,,,,,,,,,,,,,,,,,,,,,,,,,,,,,,,,,,,,,,,,,,,,,,,,,,,,,,,,,,,,,,,,,,,,,
