consent_key.keys,consent_key.rt,recalled,recalled_rt,recall_acc,example_recall.thisRepN,example_recall.thisTrialN,example_recall.thisN,example_recall.thisIndex,example_recall.ran,file,word,participant,please enter your date of birth (dd/mm/yyyy),date,expName,psychopyVersion,OS,frameRate,STUDY_ID,SESSION_ID,list,prac_learn_study_loop.thisRepN,prac_learn_study_loop.thisTrialN,prac_learn_study_loop.thisN,prac_learn_study_loop.thisIndex,prac_learn_study_loop.ran,image,prac_learn_test_loop.thisRepN,prac_learn_test_loop.thisTrialN,prac_learn_test_loop.thisN,prac_learn_test_loop.thisIndex,prac_learn_test_loop.ran,learn_study_loop.thisRepN,learn_study_loop.thisTrialN,learn_study_loop.thisN,learn_study_loop.thisIndex,learn_study_loop.ran,list_no,block_no,learn_test_loop.thisRepN,learn_test_loop.thisTrialN,learn_test_loop.thisN,learn_test_loop.thisIndex,learn_test_loop.ran,learn_blocks.thisRepN,learn_blocks.thisTrialN,learn_blocks.thisN,learn_blocks.thisIndex,learn_blocks.ran,block_csv,key_resp_13.keys,key_resp_13.rt,learn_blocks_loop.thisRepN,learn_blocks_loop.thisTrialN,learn_blocks_loop.thisN,learn_blocks_loop.thisIndex,learn_blocks_loop.ran,final_learn_test.thisRepN,final_learn_test.thisTrialN,final_learn_test.thisN,final_learn_test.thisIndex,final_learn_test.ran,prac_wm_test_loop.thisRepN,prac_wm_test_loop.thisTrialN,prac_wm_test_loop.thisN,prac_wm_test_loop.thisIndex,prac_wm_test_loop.ran,wm_recalled1,wm_recall_rt1,wm_probed1,wm_recall_acc1,wm_recalled2,wm_recall_rt2,wm_probed2,wm_recall_acc2,wm_recalled3,wm_recall_rt3,wm_probed3,wm_recall_acc3,wm_recalled4,wm_recall_rt4,wm_probed4,wm_recall_acc4,prac_wm_trial_loop.thisRepN,prac_wm_trial_loop.thisTrialN,prac_wm_trial_loop.thisN,prac_wm_trial_loop.thisIndex,prac_wm_trial_loop.ran,word1,image1,file1,item_type1,word2,image2,file2,item_type2,word4,image4,file4,item_type4,word3,image3,file3,item_type3,wm_test_loop.thisRepN,wm_test_loop.thisTrialN,wm_test_loop.thisN,wm_test_loop.thisIndex,wm_test_loop.ran,wm_trial_loop.thisRepN,wm_trial_loop.thisTrialN,wm_trial_loop.thisN,wm_trial_loop.thisIndex,wm_trial_loop.ran
y,77.402105,TOUGH,8.644985,1,0,0,0,0,1,stimuli/images/PICTURE_747.png,TOUGH,5ea1950819664f04542a50bf,26/05/1940,2020-07-09_21h04.02.870,proactive,2020.1.2,Win32,60,5f073de81c76c3308c0e4fb3,5f077807b11b0f38bfc7eae0,4,,,,,,,,,,,,,,,,,,,,,,,,,,,,,,,,,,,,,,,,,,,,,,,,,,,,,,,,,,,,,,,,,,,,,,,,,,,,,,,,,,,,,,,,,,,,,
,,,,,,,,,,stimuli/images/PICTURE_269.png,GENIUS,5ea1950819664f04542a50bf,26/05/1940,2020-07-09_21h04.02.870,proactive,2020.1.2,Win32,60,5f073de81c76c3308c0e4fb3,5f077807b11b0f38bfc7eae0,4,0,0,0,0,1,chameleon,,,,,,,,,,,,,,,,,,,,,,,,,,,,,,,,,,,,,,,,,,,,,,,,,,,,,,,,,,,,,,,,,,,,,,,,,,,,,,,,,,,,,,,
,,,,,,,,,,stimuli/images/PICTURE_658.png,DEVIL,5ea1950819664f04542a50bf,26/05/1940,2020-07-09_21h04.02.870,proactive,2020.1.2,Win32,60,5f073de81c76c3308c0e4fb3,5f077807b11b0f38bfc7eae0,4,0,1,1,3,1,crow,,,,,,,,,,,,,,,,,,,,,,,,,,,,,,,,,,,,,,,,,,,,,,,,,,,,,,,,,,,,,,,,,,,,,,,,,,,,,,,,,,,,,,,
,,,,,,,,,,stimuli/images/PICTURE_727.png,CELL,5ea1950819664f04542a50bf,26/05/1940,2020-07-09_21h04.02.870,proactive,2020.1.2,Win32,60,5f073de81c76c3308c0e4fb3,5f077807b11b0f38bfc7eae0,4,0,2,2,1,1,hose,,,,,,,,,,,,,,,,,,,,,,,,,,,,,,,,,,,,,,,,,,,,,,,,,,,,,,,,,,,,,,,,,,,,,,,,,,,,,,,,,,,,,,,
,,,,,,,,,,stimuli/images/PICTURE_697.png,KILLER,5ea1950819664f04542a50bf,26/05/1940,2020-07-09_21h04.02.870,proactive,2020.1.2,Win32,60,5f073de81c76c3308c0e4fb3,5f077807b11b0f38bfc7eae0,4,0,3,3,4,1,peach,,,,,,,,,,,,,,,,,,,,,,,,,,,,,,,,,,,,,,,,,,,,,,,,,,,,,,,,,,,,,,,,,,,,,,,,,,,,,,,,,,,,,,,
,,GENIUS,8.376625,0,,,,,,stimuli/images/PICTURE_378.png,LOSS,5ea1950819664f04542a50bf,26/05/1940,2020-07-09_21h04.02.870,proactive,2020.1.2,Win32,60,5f073de81c76c3308c0e4fb3,5f077807b11b0f38bfc7eae0,4,,,,,,lobster,0,0,0,2,1,,,,,,,,,,,,,,,,,,,,,,,,,,,,,,,,,,,,,,,,,,,,,,,,,,,,,,,,,,,,,,,,,,,,,,,,,,,,,,,,,,
,,KILLER,13.3632,0,,,,,,stimuli/images/PICTURE_727.png,CELL,5ea1950819664f04542a50bf,26/05/1940,2020-07-09_21h04.02.870,proactive,2020.1.2,Win32,60,5f073de81c76c3308c0e4fb3,5f077807b11b0f38bfc7eae0,4,,,,,,hose,0,1,1,1,1,,,,,,,,,,,,,,,,,,,,,,,,,,,,,,,,,,,,,,,,,,,,,,,,,,,,,,,,,,,,,,,,,,,,,,,,,,,,,,,,,,
,,GENIUS,7.198845,1,,,,,,stimuli/images/PICTURE_269.png,GENIUS,5ea1950819664f04542a50bf,26/05/1940,2020-07-09_21h04.02.870,proactive,2020.1.2,Win32,60,5f073de81c76c3308c0e4fb3,5f077807b11b0f38bfc7eae0,4,,,,,,chameleon,0,2,2,0,1,,,,,,,,,,,,,,,,,,,,,,,,,,,,,,,,,,,,,,,,,,,,,,,,,,,,,,,,,,,,,,,,,,,,,,,,,,,,,,,,,,
,,KILLER,8.265605,1,,,,,,stimuli/images/PICTURE_697.png,KILLER,5ea1950819664f04542a50bf,26/05/1940,2020-07-09_21h04.02.870,proactive,2020.1.2,Win32,60,5f073de81c76c3308c0e4fb3,5f077807b11b0f38bfc7eae0,4,,,,,,peach,0,3,3,4,1,,,,,,,,,,,,,,,,,,,,,,,,,,,,,,,,,,,,,,,,,,,,,,,,,,,,,,,,,,,,,,,,,,,,,,,,,,,,,,,,,,
,,DEVIL,8.36466,1,,,,,,stimuli/images/PICTURE_658.png,DEVIL,5ea1950819664f04542a50bf,26/05/1940,2020-07-09_21h04.02.870,proactive,2020.1.2,Win32,60,5f073de81c76c3308c0e4fb3,5f077807b11b0f38bfc7eae0,4,,,,,,crow,0,4,4,3,1,,,,,,,,,,,,,,,,,,,,,,,,,,,,,,,,,,,,,,,,,,,,,,,,,,,,,,,,,,,,,,,,,,,,,,,,,,,,,,,,,,
,,,,,,,,,,stimuli/images/PICTURE_383.png,SERIES,5ea1950819664f04542a50bf,26/05/1940,2020-07-09_21h04.02.870,proactive,2020.1.2,Win32,60,5f073de81c76c3308c0e4fb3,5f077807b11b0f38bfc7eae0,4,,,,,,coin,,,,,,0,0,0,46,1,5,1,,,,,,,,,,,,,,,,,,,,,,,,,,,,,,,,,,,,,,,,,,,,,,,,,,,,,,,,,,,,,,,,,,,,,,,,,,,
,,,,,,,,,,stimuli/images/PICTURE_68.png,MILE,5ea1950819664f04542a50bf,26/05/1940,2020-07-09_21h04.02.870,proactive,2020.1.2,Win32,60,5f073de81c76c3308c0e4fb3,5f077807b11b0f38bfc7eae0,4,,,,,,candle,,,,,,0,1,1,51,1,6,1,,,,,,,,,,,,,,,,,,,,,,,,,,,,,,,,,,,,,,,,,,,,,,,,,,,,,,,,,,,,,,,,,,,,,,,,,,,
,,,,,,,,,,stimuli/images/PICTURE_340.png,LETTER,5ea1950819664f04542a50bf,26/05/1940,2020-07-09_21h04.02.870,proactive,2020.1.2,Win32,60,5f073de81c76c3308c0e4fb3,5f077807b11b0f38bfc7eae0,4,,,,,,mirror,,,,,,0,2,2,24,1,3,1,,,,,,,,,,,,,,,,,,,,,,,,,,,,,,,,,,,,,,,,,,,,,,,,,,,,,,,,,,,,,,,,,,,,,,,,,,,
,,,,,,,,,,stimuli/images/PICTURE_147.png,WOMEN,5ea1950819664f04542a50bf,26/05/1940,2020-07-09_21h04.02.870,proactive,2020.1.2,Win32,60,5f073de81c76c3308c0e4fb3,5f077807b11b0f38bfc7eae0,4,,,,,,hanger,,,,,,0,3,3,7,1,1,1,,,,,,,,,,,,,,,,,,,,,,,,,,,,,,,,,,,,,,,,,,,,,,,,,,,,,,,,,,,,,,,,,,,,,,,,,,,
,,,,,,,,,,stimuli/images/PICTURE_57.png,MOMENT,5ea1950819664f04542a50bf,26/05/1940,2020-07-09_21h04.02.870,proactive,2020.1.2,Win32,60,5f073de81c76c3308c0e4fb3,5f077807b11b0f38bfc7eae0,4,,,,,,stamp,,,,,,0,4,4,37,1,4,1,,,,,,,,,,,,,,,,,,,,,,,,,,,,,,,,,,,,,,,,,,,,,,,,,,,,,,,,,,,,,,,,,,,,,,,,,,,
,,,,,,,,,,stimuli/images/PICTURE_708.png,RECORD,5ea1950819664f04542a50bf,26/05/1940,2020-07-09_21h04.02.870,proactive,2020.1.2,Win32,60,5f073de81c76c3308c0e4fb3,5f077807b11b0f38bfc7eae0,4,,,,,,monkey,,,,,,0,5,5,58,1,6,1,,,,,,,,,,,,,,,,,,,,,,,,,,,,,,,,,,,,,,,,,,,,,,,,,,,,,,,,,,,,,,,,,,,,,,,,,,,
,,,,,,,,,,stimuli/images/PICTURE_32.png,KIND,5ea1950819664f04542a50bf,26/05/1940,2020-07-09_21h04.02.870,proactive,2020.1.2,Win32,60,5f073de81c76c3308c0e4fb3,5f077807b11b0f38bfc7eae0,4,,,,,,crown,,,,,,0,6,6,35,1,4,1,,,,,,,,,,,,,,,,,,,,,,,,,,,,,,,,,,,,,,,,,,,,,,,,,,,,,,,,,,,,,,,,,,,,,,,,,,,
,,,,,,,,,,stimuli/images/PICTURE_108.png,POLICY,5ea1950819664f04542a50bf,26/05/1940,2020-07-09_21h04.02.870,proactive,2020.1.2,Win32,60,5f073de81c76c3308c0e4fb3,5f077807b11b0f38bfc7eae0,4,,,,,,calendar,,,,,,0,7,7,22,1,3,1,,,,,,,,,,,,,,,,,,,,,,,,,,,,,,,,,,,,,,,,,,,,,,,,,,,,,,,,,,,,,,,,,,,,,,,,,,,
,,,,,,,,,,stimuli/images/PICTURE_308.png,FAMILY,5ea1950819664f04542a50bf,26/05/1940,2020-07-09_21h04.02.870,proactive,2020.1.2,Win32,60,5f073de81c76c3308c0e4fb3,5f077807b11b0f38bfc7eae0,4,,,,,,dice,,,,,,0,8,8,36,1,4,1,,,,,,,,,,,,,,,,,,,,,,,,,,,,,,,,,,,,,,,,,,,,,,,,,,,,,,,,,,,,,,,,,,,,,,,,,,,
,,,,,,,,,,stimuli/images/PICTURE_655.png,TOILET,5ea1950819664f04542a50bf,26/05/1940,2020-07-09_21h04.02.870,proactive,2020.1.2,Win32,60,5f073de81c76c3308c0e4fb3,5f077807b11b0f38bfc7eae0,4,,,,,,megaphone,,,,,,0,9,9,12,1,2,1,,,,,,,,,,,,,,,,,,,,,,,,,,,,,,,,,,,,,,,,,,,,,,,,,,,,,,,,,,,,,,,,,,,,,,,,,,,
,,,,,,,,,,stimuli/images/PICTURE_469.png,AGENT,5ea1950819664f04542a50bf,26/05/1940,2020-07-09_21h04.02.870,proactive,2020.1.2,Win32,60,5f073de81c76c3308c0e4fb3,5f077807b11b0f38bfc7eae0,4,,,,,,stool,,,,,,0,10,10,16,1,2,1,,,,,,,,,,,,,,,,,,,,,,,,,,,,,,,,,,,,,,,,,,,,,,,,,,,,,,,,,,,,,,,,,,,,,,,,,,,
,,,,,,,,,,stimuli/images/PICTURE_744.png,WEAPON,5ea1950819664f04542a50bf,26/05/1940,2020-07-09_21h04.02.870,proactive,2020.1.2,Win32,60,5f073de81c76c3308c0e4fb3,5f077807b11b0f38bfc7eae0,4,,,,,,ring,,,,,,0,11,11,50,1,6,1,,,,,,,,,,,,,,,,,,,,,,,,,,,,,,,,,,,,,,,,,,,,,,,,,,,,,,,,,,,,,,,,,,,,,,,,,,,
,,,,,,,,,,stimuli/images/PICTURE_297.png,RIVER,5ea1950819664f04542a50bf,26/05/1940,2020-07-09_21h04.02.870,proactive,2020.1.2,Win32,60,5f073de81c76c3308c0e4fb3,5f077807b11b0f38bfc7eae0,4,,,,,,aeroplane,,,,,,0,12,12,39,1,4,1,,,,,,,,,,,,,,,,,,,,,,,,,,,,,,,,,,,,,,,,,,,,,,,,,,,,,,,,,,,,,,,,,,,,,,,,,,,
,,,,,,,,,,stimuli/images/PICTURE_685.png,PENNY,5ea1950819664f04542a50bf,26/05/1940,2020-07-09_21h04.02.870,proactive,2020.1.2,Win32,60,5f073de81c76c3308c0e4fb3,5f077807b11b0f38bfc7eae0,4,,,,,,goose,,,,,,0,13,13,4,1,1,1,,,,,,,,,,,,,,,,,,,,,,,,,,,,,,,,,,,,,,,,,,,,,,,,,,,,,,,,,,,,,,,,,,,,,,,,,,,
,,,,,,,,,,stimuli/images/PICTURE_32.png,PILLS,5ea1950819664f04542a50bf,26/05/1940,2020-07-09_21h04.02.870,proactive,2020.1.2,Win32,60,5f073de81c76c3308c0e4fb3,5f077807b11b0f38bfc7eae0,4,,,,,,crown,,,,,,0,14,14,18,1,2,1,,,,,,,,,,,,,,,,,,,,,,,,,,,,,,,,,,,,,,,,,,,,,,,,,,,,,,,,,,,,,,,,,,,,,,,,,,,
,,,,,,,,,,stimuli/images/PICTURE_405.png,YEAR,5ea1950819664f04542a50bf,26/05/1940,2020-07-09_21h04.02.870,proactive,2020.1.2,Win32,60,5f073de81c76c3308c0e4fb3,5f077807b11b0f38bfc7eae0,4,,,,,,anchor,,,,,,0,15,15,34,1,4,1,,,,,,,,,,,,,,,,,,,,,,,,,,,,,,,,,,,,,,,,,,,,,,,,,,,,,,,,,,,,,,,,,,,,,,,,,,,
,,,,,,,,,,stimuli/images/PICTURE_296.png,LIFE,5ea1950819664f04542a50bf,26/05/1940,2020-07-09_21h04.02.870,proactive,2020.1.2,Win32,60,5f073de81c76c3308c0e4fb3,5f077807b11b0f38bfc7eae0,4,,,,,,bolt,,,,,,0,16,16,57,1,6,1,,,,,,,,,,,,,,,,,,,,,,,,,,,,,,,,,,,,,,,,,,,,,,,,,,,,,,,,,,,,,,,,,,,,,,,,,,,
,,,,,,,,,,stimuli/images/PICTURE_340.png,VALLEY,5ea1950819664f04542a50bf,26/05/1940,2020-07-09_21h04.02.870,proactive,2020.1.2,Win32,60,5f073de81c76c3308c0e4fb3,5f077807b11b0f38bfc7eae0,4,,,,,,mirror,,,,,,0,17,17,54,1,6,1,,,,,,,,,,,,,,,,,,,,,,,,,,,,,,,,,,,,,,,,,,,,,,,,,,,,,,,,,,,,,,,,,,,,,,,,,,,
,,,,,,,,,,stimuli/images/PICTURE_85.png,NATION,5ea1950819664f04542a50bf,26/05/1940,2020-07-09_21h04.02.870,proactive,2020.1.2,Win32,60,5f073de81c76c3308c0e4fb3,5f077807b11b0f38bfc7eae0,4,,,,,,diamond,,,,,,0,18,18,5,1,1,1,,,,,,,,,,,,,,,,,,,,,,,,,,,,,,,,,,,,,,,,,,,,,,,,,,,,,,,,,,,,,,,,,,,,,,,,,,,
,,,,,,,,,,stimuli/images/PICTURE_504.png,COPS,5ea1950819664f04542a50bf,26/05/1940,2020-07-09_21h04.02.870,proactive,2020.1.2,Win32,60,5f073de81c76c3308c0e4fb3,5f077807b11b0f38bfc7eae0,4,,,,,,wheel,,,,,,0,19,19,52,1,6,1,,,,,,,,,,,,,,,,,,,,,,,,,,,,,,,,,,,,,,,,,,,,,,,,,,,,,,,,,,,,,,,,,,,,,,,,,,,
,,,,,,,,,,stimuli/images/PICTURE_403.png,WRITER,5ea1950819664f04542a50bf,26/05/1940,2020-07-09_21h04.02.870,proactive,2020.1.2,Win32,60,5f073de81c76c3308c0e4fb3,5f077807b11b0f38bfc7eae0,4,,,,,,cathedral,,,,,,0,20,20,31,1,4,1,,,,,,,,,,,,,,,,,,,,,,,,,,,,,,,,,,,,,,,,,,,,,,,,,,,,,,,,,,,,,,,,,,,,,,,,,,,
,,,,,,,,,,stimuli/images/PICTURE_208.png,SYSTEM,5ea1950819664f04542a50bf,26/05/1940,2020-07-09_21h04.02.870,proactive,2020.1.2,Win32,60,5f073de81c76c3308c0e4fb3,5f077807b11b0f38bfc7eae0,4,,,,,,microphone,,,,,,0,21,21,32,1,4,1,,,,,,,,,,,,,,,,,,,,,,,,,,,,,,,,,,,,,,,,,,,,,,,,,,,,,,,,,,,,,,,,,,,,,,,,,,,
,,,,,,,,,,stimuli/images/PICTURE_95.png,HONEY,5ea1950819664f04542a50bf,26/05/1940,2020-07-09_21h04.02.870,proactive,2020.1.2,Win32,60,5f073de81c76c3308c0e4fb3,5f077807b11b0f38bfc7eae0,4,,,,,,suitcase,,,,,,0,22,22,44,1,5,1,,,,,,,,,,,,,,,,,,,,,,,,,,,,,,,,,,,,,,,,,,,,,,,,,,,,,,,,,,,,,,,,,,,,,,,,,,,
,,,,,,,,,,stimuli/images/PICTURE_380.png,CANDY,5ea1950819664f04542a50bf,26/05/1940,2020-07-09_21h04.02.870,proactive,2020.1.2,Win32,60,5f073de81c76c3308c0e4fb3,5f077807b11b0f38bfc7eae0,4,,,,,,gorilla,,,,,,0,23,23,0,1,1,1,,,,,,,,,,,,,,,,,,,,,,,,,,,,,,,,,,,,,,,,,,,,,,,,,,,,,,,,,,,,,,,,,,,,,,,,,,,
,,,,,,,,,,stimuli/images/PICTURE_491.png,GLASS,5ea1950819664f04542a50bf,26/05/1940,2020-07-09_21h04.02.870,proactive,2020.1.2,Win32,60,5f073de81c76c3308c0e4fb3,5f077807b11b0f38bfc7eae0,4,,,,,,rug,,,,,,0,24,24,14,1,2,1,,,,,,,,,,,,,,,,,,,,,,,,,,,,,,,,,,,,,,,,,,,,,,,,,,,,,,,,,,,,,,,,,,,,,,,,,,,
,,,,,,,,,,stimuli/images/PICTURE_2.png,FLIGHT,5ea1950819664f04542a50bf,26/05/1940,2020-07-09_21h04.02.870,proactive,2020.1.2,Win32,60,5f073de81c76c3308c0e4fb3,5f077807b11b0f38bfc7eae0,4,,,,,,tyre,,,,,,0,25,25,15,1,2,1,,,,,,,,,,,,,,,,,,,,,,,,,,,,,,,,,,,,,,,,,,,,,,,,,,,,,,,,,,,,,,,,,,,,,,,,,,,
,,,,,,,,,,stimuli/images/PICTURE_296.png,LOTS,5ea1950819664f04542a50bf,26/05/1940,2020-07-09_21h04.02.870,proactive,2020.1.2,Win32,60,5f073de81c76c3308c0e4fb3,5f077807b11b0f38bfc7eae0,4,,,,,,bolt,,,,,,0,26,26,9,1,1,1,,,,,,,,,,,,,,,,,,,,,,,,,,,,,,,,,,,,,,,,,,,,,,,,,,,,,,,,,,,,,,,,,,,,,,,,,,,
,,,,,,,,,,stimuli/images/PICTURE_68.png,ROOF,5ea1950819664f04542a50bf,26/05/1940,2020-07-09_21h04.02.870,proactive,2020.1.2,Win32,60,5f073de81c76c3308c0e4fb3,5f077807b11b0f38bfc7eae0,4,,,,,,candle,,,,,,0,27,27,38,1,4,1,,,,,,,,,,,,,,,,,,,,,,,,,,,,,,,,,,,,,,,,,,,,,,,,,,,,,,,,,,,,,,,,,,,,,,,,,,,
,,,,,,,,,,stimuli/images/PICTURE_203.png,NIGHT,5ea1950819664f04542a50bf,26/05/1940,2020-07-09_21h04.02.870,proactive,2020.1.2,Win32,60,5f073de81c76c3308c0e4fb3,5f077807b11b0f38bfc7eae0,4,,,,,,cap,,,,,,0,28,28,2,1,1,1,,,,,,,,,,,,,,,,,,,,,,,,,,,,,,,,,,,,,,,,,,,,,,,,,,,,,,,,,,,,,,,,,,,,,,,,,,,
,,,,,,,,,,stimuli/images/PICTURE_405.png,PLENTY,5ea1950819664f04542a50bf,26/05/1940,2020-07-09_21h04.02.870,proactive,2020.1.2,Win32,60,5f073de81c76c3308c0e4fb3,5f077807b11b0f38bfc7eae0,4,,,,,,anchor,,,,,,0,29,29,23,1,3,1,,,,,,,,,,,,,,,,,,,,,,,,,,,,,,,,,,,,,,,,,,,,,,,,,,,,,,,,,,,,,,,,,,,,,,,,,,,
,,,,,,,,,,stimuli/images/PICTURE_285.png,LIFE,5ea1950819664f04542a50bf,26/05/1940,2020-07-09_21h04.02.870,proactive,2020.1.2,Win32,60,5f073de81c76c3308c0e4fb3,5f077807b11b0f38bfc7eae0,4,,,,,,carrot,,,,,,0,30,30,33,1,4,1,,,,,,,,,,,,,,,,,,,,,,,,,,,,,,,,,,,,,,,,,,,,,,,,,,,,,,,,,,,,,,,,,,,,,,,,,,,
,,,,,,,,,,stimuli/images/PICTURE_95.png,BOYS,5ea1950819664f04542a50bf,26/05/1940,2020-07-09_21h04.02.870,proactive,2020.1.2,Win32,60,5f073de81c76c3308c0e4fb3,5f077807b11b0f38bfc7eae0,4,,,,,,suitcase,,,,,,0,31,31,1,1,1,1,,,,,,,,,,,,,,,,,,,,,,,,,,,,,,,,,,,,,,,,,,,,,,,,,,,,,,,,,,,,,,,,,,,,,,,,,,,
,,,,,,,,,,stimuli/images/PICTURE_383.png,WRITER,5ea1950819664f04542a50bf,26/05/1940,2020-07-09_21h04.02.870,proactive,2020.1.2,Win32,60,5f073de81c76c3308c0e4fb3,5f077807b11b0f38bfc7eae0,4,,,,,,coin,,,,,,0,32,32,28,1,3,1,,,,,,,,,,,,,,,,,,,,,,,,,,,,,,,,,,,,,,,,,,,,,,,,,,,,,,,,,,,,,,,,,,,,,,,,,,,
,,,,,,,,,,stimuli/images/PICTURE_564.png,BATH,5ea1950819664f04542a50bf,26/05/1940,2020-07-09_21h04.02.870,proactive,2020.1.2,Win32,60,5f073de81c76c3308c0e4fb3,5f077807b11b0f38bfc7eae0,4,,,,,,spoon,,,,,,0,33,33,26,1,3,1,,,,,,,,,,,,,,,,,,,,,,,,,,,,,,,,,,,,,,,,,,,,,,,,,,,,,,,,,,,,,,,,,,,,,,,,,,,
,,,,,,,,,,stimuli/images/PICTURE_750.png,HOTEL,5ea1950819664f04542a50bf,26/05/1940,2020-07-09_21h04.02.870,proactive,2020.1.2,Win32,60,5f073de81c76c3308c0e4fb3,5f077807b11b0f38bfc7eae0,4,,,,,,kettle,,,,,,0,34,34,27,1,3,1,,,,,,,,,,,,,,,,,,,,,,,,,,,,,,,,,,,,,,,,,,,,,,,,,,,,,,,,,,,,,,,,,,,,,,,,,,,
,,,,,,,,,,stimuli/images/PICTURE_33.png,FRIEND,5ea1950819664f04542a50bf,26/05/1940,2020-07-09_21h04.02.870,proactive,2020.1.2,Win32,60,5f073de81c76c3308c0e4fb3,5f077807b11b0f38bfc7eae0,4,,,,,,frame,,,,,,0,35,35,8,1,1,1,,,,,,,,,,,,,,,,,,,,,,,,,,,,,,,,,,,,,,,,,,,,,,,,,,,,,,,,,,,,,,,,,,,,,,,,,,,
,,,,,,,,,,stimuli/images/PICTURE_487.png,GIRL,5ea1950819664f04542a50bf,26/05/1940,2020-07-09_21h04.02.870,proactive,2020.1.2,Win32,60,5f073de81c76c3308c0e4fb3,5f077807b11b0f38bfc7eae0,4,,,,,,basket,,,,,,0,36,36,45,1,5,1,,,,,,,,,,,,,,,,,,,,,,,,,,,,,,,,,,,,,,,,,,,,,,,,,,,,,,,,,,,,,,,,,,,,,,,,,,,
,,,,,,,,,,stimuli/images/PICTURE_504.png,YEAR,5ea1950819664f04542a50bf,26/05/1940,2020-07-09_21h04.02.870,proactive,2020.1.2,Win32,60,5f073de81c76c3308c0e4fb3,5f077807b11b0f38bfc7eae0,4,,,,,,wheel,,,,,,0,37,37,13,1,2,1,,,,,,,,,,,,,,,,,,,,,,,,,,,,,,,,,,,,,,,,,,,,,,,,,,,,,,,,,,,,,,,,,,,,,,,,,,,
,,,,,,,,,,stimuli/images/PICTURE_108.png,FLIGHT,5ea1950819664f04542a50bf,26/05/1940,2020-07-09_21h04.02.870,proactive,2020.1.2,Win32,60,5f073de81c76c3308c0e4fb3,5f077807b11b0f38bfc7eae0,4,,,,,,calendar,,,,,,0,38,38,59,1,6,1,,,,,,,,,,,,,,,,,,,,,,,,,,,,,,,,,,,,,,,,,,,,,,,,,,,,,,,,,,,,,,,,,,,,,,,,,,,
,,,,,,,,,,stimuli/images/PICTURE_677.png,APPLE,5ea1950819664f04542a50bf,26/05/1940,2020-07-09_21h04.02.870,proactive,2020.1.2,Win32,60,5f073de81c76c3308c0e4fb3,5f077807b11b0f38bfc7eae0,4,,,,,,map,,,,,,0,39,39,43,1,5,1,,,,,,,,,,,,,,,,,,,,,,,,,,,,,,,,,,,,,,,,,,,,,,,,,,,,,,,,,,,,,,,,,,,,,,,,,,,
,,,,,,,,,,stimuli/images/PICTURE_233.png,LOTS,5ea1950819664f04542a50bf,26/05/1940,2020-07-09_21h04.02.870,proactive,2020.1.2,Win32,60,5f073de81c76c3308c0e4fb3,5f077807b11b0f38bfc7eae0,4,,,,,,salt,,,,,,0,40,40,42,1,5,1,,,,,,,,,,,,,,,,,,,,,,,,,,,,,,,,,,,,,,,,,,,,,,,,,,,,,,,,,,,,,,,,,,,,,,,,,,,
,,,,,,,,,,stimuli/images/PICTURE_467.png,POLICY,5ea1950819664f04542a50bf,26/05/1940,2020-07-09_21h04.02.870,proactive,2020.1.2,Win32,60,5f073de81c76c3308c0e4fb3,5f077807b11b0f38bfc7eae0,4,,,,,,peg,,,,,,0,41,41,53,1,6,1,,,,,,,,,,,,,,,,,,,,,,,,,,,,,,,,,,,,,,,,,,,,,,,,,,,,,,,,,,,,,,,,,,,,,,,,,,,
,,,,,,,,,,stimuli/images/PICTURE_675.png,SALE,5ea1950819664f04542a50bf,26/05/1940,2020-07-09_21h04.02.870,proactive,2020.1.2,Win32,60,5f073de81c76c3308c0e4fb3,5f077807b11b0f38bfc7eae0,4,,,,,,windmill,,,,,,0,42,42,47,1,5,1,,,,,,,,,,,,,,,,,,,,,,,,,,,,,,,,,,,,,,,,,,,,,,,,,,,,,,,,,,,,,,,,,,,,,,,,,,,
,,,,,,,,,,stimuli/images/PICTURE_504.png,ARTIST,5ea1950819664f04542a50bf,26/05/1940,2020-07-09_21h04.02.870,proactive,2020.1.2,Win32,60,5f073de81c76c3308c0e4fb3,5f077807b11b0f38bfc7eae0,4,,,,,,wheel,,,,,,0,43,43,49,1,5,1,,,,,,,,,,,,,,,,,,,,,,,,,,,,,,,,,,,,,,,,,,,,,,,,,,,,,,,,,,,,,,,,,,,,,,,,,,,
,,,,,,,,,,stimuli/images/PICTURE_449.png,DUDE,5ea1950819664f04542a50bf,26/05/1940,2020-07-09_21h04.02.870,proactive,2020.1.2,Win32,60,5f073de81c76c3308c0e4fb3,5f077807b11b0f38bfc7eae0,4,,,,,,bench,,,,,,0,44,44,17,1,2,1,,,,,,,,,,,,,,,,,,,,,,,,,,,,,,,,,,,,,,,,,,,,,,,,,,,,,,,,,,,,,,,,,,,,,,,,,,,
,,,,,,,,,,stimuli/images/PICTURE_177.png,WRITER,5ea1950819664f04542a50bf,26/05/1940,2020-07-09_21h04.02.870,proactive,2020.1.2,Win32,60,5f073de81c76c3308c0e4fb3,5f077807b11b0f38bfc7eae0,4,,,,,,mushroom,,,,,,0,45,45,41,1,5,1,,,,,,,,,,,,,,,,,,,,,,,,,,,,,,,,,,,,,,,,,,,,,,,,,,,,,,,,,,,,,,,,,,,,,,,,,,,
,,,,,,,,,,stimuli/images/PICTURE_654.png,MONTH,5ea1950819664f04542a50bf,26/05/1940,2020-07-09_21h04.02.870,proactive,2020.1.2,Win32,60,5f073de81c76c3308c0e4fb3,5f077807b11b0f38bfc7eae0,4,,,,,,pencil,,,,,,0,46,46,29,1,3,1,,,,,,,,,,,,,,,,,,,,,,,,,,,,,,,,,,,,,,,,,,,,,,,,,,,,,,,,,,,,,,,,,,,,,,,,,,,
,,,,,,,,,,stimuli/images/PICTURE_403.png,TOILET,5ea1950819664f04542a50bf,26/05/1940,2020-07-09_21h04.02.870,proactive,2020.1.2,Win32,60,5f073de81c76c3308c0e4fb3,5f077807b11b0f38bfc7eae0,4,,,,,,cathedral,,,,,,0,47,47,25,1,3,1,,,,,,,,,,,,,,,,,,,,,,,,,,,,,,,,,,,,,,,,,,,,,,,,,,,,,,,,,,,,,,,,,,,,,,,,,,,
,,,,,,,,,,stimuli/images/PICTURE_339.png,CLIENT,5ea1950819664f04542a50bf,26/05/1940,2020-07-09_21h04.02.870,proactive,2020.1.2,Win32,60,5f073de81c76c3308c0e4fb3,5f077807b11b0f38bfc7eae0,4,,,,,,backpack,,,,,,0,48,48,11,1,2,1,,,,,,,,,,,,,,,,,,,,,,,,,,,,,,,,,,,,,,,,,,,,,,,,,,,,,,,,,,,,,,,,,,,,,,,,,,,
,,,,,,,,,,stimuli/images/PICTURE_327.png,SERIES,5ea1950819664f04542a50bf,26/05/1940,2020-07-09_21h04.02.870,proactive,2020.1.2,Win32,60,5f073de81c76c3308c0e4fb3,5f077807b11b0f38bfc7eae0,4,,,,,,helmet,,,,,,0,49,49,3,1,1,1,,,,,,,,,,,,,,,,,,,,,,,,,,,,,,,,,,,,,,,,,,,,,,,,,,,,,,,,,,,,,,,,,,,,,,,,,,,
,,,,,,,,,,stimuli/images/PICTURE_667.png,RIVER,5ea1950819664f04542a50bf,26/05/1940,2020-07-09_21h04.02.870,proactive,2020.1.2,Win32,60,5f073de81c76c3308c0e4fb3,5f077807b11b0f38bfc7eae0,4,,,,,,daisy,,,,,,0,50,50,10,1,2,1,,,,,,,,,,,,,,,,,,,,,,,,,,,,,,,,,,,,,,,,,,,,,,,,,,,,,,,,,,,,,,,,,,,,,,,,,,,
,,,,,,,,,,stimuli/images/PICTURE_403.png,RIVER,5ea1950819664f04542a50bf,26/05/1940,2020-07-09_21h04.02.870,proactive,2020.1.2,Win32,60,5f073de81c76c3308c0e4fb3,5f077807b11b0f38bfc7eae0,4,,,,,,cathedral,,,,,,0,51,51,40,1,5,1,,,,,,,,,,,,,,,,,,,,,,,,,,,,,,,,,,,,,,,,,,,,,,,,,,,,,,,,,,,,,,,,,,,,,,,,,,,
,,,,,,,,,,stimuli/images/PICTURE_147.png,YEAR,5ea1950819664f04542a50bf,26/05/1940,2020-07-09_21h04.02.870,proactive,2020.1.2,Win32,60,5f073de81c76c3308c0e4fb3,5f077807b11b0f38bfc7eae0,4,,,,,,hanger,,,,,,0,52,52,21,1,3,1,,,,,,,,,,,,,,,,,,,,,,,,,,,,,,,,,,,,,,,,,,,,,,,,,,,,,,,,,,,,,,,,,,,,,,,,,,,
,,,,,,,,,,stimuli/images/PICTURE_380.png,HONEY,5ea1950819664f04542a50bf,26/05/1940,2020-07-09_21h04.02.870,proactive,2020.1.2,Win32,60,5f073de81c76c3308c0e4fb3,5f077807b11b0f38bfc7eae0,4,,,,,,gorilla,,,,,,0,53,53,19,1,2,1,,,,,,,,,,,,,,,,,,,,,,,,,,,,,,,,,,,,,,,,,,,,,,,,,,,,,,,,,,,,,,,,,,,,,,,,,,,
,,,,,,,,,,stimuli/images/PICTURE_203.png,GODS,5ea1950819664f04542a50bf,26/05/1940,2020-07-09_21h04.02.870,proactive,2020.1.2,Win32,60,5f073de81c76c3308c0e4fb3,5f077807b11b0f38bfc7eae0,4,,,,,,cap,,,,,,0,54,54,30,1,4,1,,,,,,,,,,,,,,,,,,,,,,,,,,,,,,,,,,,,,,,,,,,,,,,,,,,,,,,,,,,,,,,,,,,,,,,,,,,
,,,,,,,,,,stimuli/images/PICTURE_491.png,RIVER,5ea1950819664f04542a50bf,26/05/1940,2020-07-09_21h04.02.870,proactive,2020.1.2,Win32,60,5f073de81c76c3308c0e4fb3,5f077807b11b0f38bfc7eae0,4,,,,,,rug,,,,,,0,55,55,6,1,1,1,,,,,,,,,,,,,,,,,,,,,,,,,,,,,,,,,,,,,,,,,,,,,,,,,,,,,,,,,,,,,,,,,,,,,,,,,,,
,,,,,,,,,,stimuli/images/PICTURE_95.png,MILLER,5ea1950819664f04542a50bf,26/05/1940,2020-07-09_21h04.02.870,proactive,2020.1.2,Win32,60,5f073de81c76c3308c0e4fb3,5f077807b11b0f38bfc7eae0,4,,,,,,suitcase,,,,,,0,56,56,56,1,6,1,,,,,,,,,,,,,,,,,,,,,,,,,,,,,,,,,,,,,,,,,,,,,,,,,,,,,,,,,,,,,,,,,,,,,,,,,,,
,,,,,,,,,,stimuli/images/PICTURE_85.png,TOILET,5ea1950819664f04542a50bf,26/05/1940,2020-07-09_21h04.02.870,proactive,2020.1.2,Win32,60,5f073de81c76c3308c0e4fb3,5f077807b11b0f38bfc7eae0,4,,,,,,diamond,,,,,,0,57,57,48,1,5,1,,,,,,,,,,,,,,,,,,,,,,,,,,,,,,,,,,,,,,,,,,,,,,,,,,,,,,,,,,,,,,,,,,,,,,,,,,,
,,,,,,,,,,stimuli/images/PICTURE_42.png,BOYS,5ea1950819664f04542a50bf,26/05/1940,2020-07-09_21h04.02.870,proactive,2020.1.2,Win32,60,5f073de81c76c3308c0e4fb3,5f077807b11b0f38bfc7eae0,4,,,,,,pear,,,,,,0,58,58,55,1,6,1,,,,,,,,,,,,,,,,,,,,,,,,,,,,,,,,,,,,,,,,,,,,,,,,,,,,,,,,,,,,,,,,,,,,,,,,,,,
,,?,0.002305,0,,,,,,stimuli/images/PICTURE_667.png,RIVER,5ea1950819664f04542a50bf,26/05/1940,2020-07-09_21h04.02.870,proactive,2020.1.2,Win32,60,5f073de81c76c3308c0e4fb3,5f077807b11b0f38bfc7eae0,4,,,,,,daisy,,,,,,,,,,,2,1,0,0,0,10,1,,,,,,,,,,,,,,,,,,,,,,,,,,,,,,,,,,,,,,,,,,,,,,,,,,,,,,,,,,,,,,,,,,,,,,
,,?,0.00273,0,,,,,,stimuli/images/PICTURE_491.png,GLASS,5ea1950819664f04542a50bf,26/05/1940,2020-07-09_21h04.02.870,proactive,2020.1.2,Win32,60,5f073de81c76c3308c0e4fb3,5f077807b11b0f38bfc7eae0,4,,,,,,rug,,,,,,,,,,,2,1,0,1,1,14,1,,,,,,,,,,,,,,,,,,,,,,,,,,,,,,,,,,,,,,,,,,,,,,,,,,,,,,,,,,,,,,,,,,,,,,
,,GODS,8.32919,1,,,,,,stimuli/images/PICTURE_203.png,GODS,5ea1950819664f04542a50bf,26/05/1940,2020-07-09_21h04.02.870,proactive,2020.1.2,Win32,60,5f073de81c76c3308c0e4fb3,5f077807b11b0f38bfc7eae0,4,,,,,,cap,,,,,,,,,,,4,1,0,2,2,30,1,,,,,,,,,,,,,,,,,,,,,,,,,,,,,,,,,,,,,,,,,,,,,,,,,,,,,,,,,,,,,,,,,,,,,,
,,?,0.002005,0,,,,,,stimuli/images/PICTURE_95.png,MILLER,5ea1950819664f04542a50bf,26/05/1940,2020-07-09_21h04.02.870,proactive,2020.1.2,Win32,60,5f073de81c76c3308c0e4fb3,5f077807b11b0f38bfc7eae0,4,,,,,,suitcase,,,,,,,,,,,6,1,0,3,3,56,1,,,,,,,,,,,,,,,,,,,,,,,,,,,,,,,,,,,,,,,,,,,,,,,,,,,,,,,,,,,,,,,,,,,,,,
,,?,0.00192,0,,,,,,stimuli/images/PICTURE_405.png,PLENTY,5ea1950819664f04542a50bf,26/05/1940,2020-07-09_21h04.02.870,proactive,2020.1.2,Win32,60,5f073de81c76c3308c0e4fb3,5f077807b11b0f38bfc7eae0,4,,,,,,anchor,,,,,,,,,,,3,1,0,4,4,23,1,,,,,,,,,,,,,,,,,,,,,,,,,,,,,,,,,,,,,,,,,,,,,,,,,,,,,,,,,,,,,,,,,,,,,,
,,?,0.002165,0,,,,,,stimuli/images/PICTURE_33.png,FRIEND,5ea1950819664f04542a50bf,26/05/1940,2020-07-09_21h04.02.870,proactive,2020.1.2,Win32,60,5f073de81c76c3308c0e4fb3,5f077807b11b0f38bfc7eae0,4,,,,,,frame,,,,,,,,,,,1,1,0,5,5,8,1,,,,,,,,,,,,,,,,,,,,,,,,,,,,,,,,,,,,,,,,,,,,,,,,,,,,,,,,,,,,,,,,,,,,,,
,,?,0.001625,0,,,,,,stimuli/images/PICTURE_380.png,CANDY,5ea1950819664f04542a50bf,26/05/1940,2020-07-09_21h04.02.870,proactive,2020.1.2,Win32,60,5f073de81c76c3308c0e4fb3,5f077807b11b0f38bfc7eae0,4,,,,,,gorilla,,,,,,,,,,,1,1,0,6,6,0,1,,,,,,,,,,,,,,,,,,,,,,,,,,,,,,,,,,,,,,,,,,,,,,,,,,,,,,,,,,,,,,,,,,,,,,
,,?,0.0013,0,,,,,,stimuli/images/PICTURE_744.png,WEAPON,5ea1950819664f04542a50bf,26/05/1940,2020-07-09_21h04.02.870,proactive,2020.1.2,Win32,60,5f073de81c76c3308c0e4fb3,5f077807b11b0f38bfc7eae0,4,,,,,,ring,,,,,,,,,,,6,1,0,7,7,50,1,,,,,,,,,,,,,,,,,,,,,,,,,,,,,,,,,,,,,,,,,,,,,,,,,,,,,,,,,,,,,,,,,,,,,,
,,?,0.00188,0,,,,,,stimuli/images/PICTURE_403.png,RIVER,5ea1950819664f04542a50bf,26/05/1940,2020-07-09_21h04.02.870,proactive,2020.1.2,Win32,60,5f073de81c76c3308c0e4fb3,5f077807b11b0f38bfc7eae0,4,,,,,,cathedral,,,,,,,,,,,5,1,0,8,8,40,1,,,,,,,,,,,,,,,,,,,,,,,,,,,,,,,,,,,,,,,,,,,,,,,,,,,,,,,,,,,,,,,,,,,,,,
,,?,0.00211,0,,,,,,stimuli/images/PICTURE_675.png,SALE,5ea1950819664f04542a50bf,26/05/1940,2020-07-09_21h04.02.870,proactive,2020.1.2,Win32,60,5f073de81c76c3308c0e4fb3,5f077807b11b0f38bfc7eae0,4,,,,,,windmill,,,,,,,,,,,5,1,0,9,9,47,1,,,,,,,,,,,,,,,,,,,,,,,,,,,,,,,,,,,,,,,,,,,,,,,,,,,,,,,,,,,,,,,,,,,,,,
,,?,0.00256,0,,,,,,stimuli/images/PICTURE_2.png,FLIGHT,5ea1950819664f04542a50bf,26/05/1940,2020-07-09_21h04.02.870,proactive,2020.1.2,Win32,60,5f073de81c76c3308c0e4fb3,5f077807b11b0f38bfc7eae0,4,,,,,,tyre,,,,,,,,,,,2,1,0,10,10,15,1,,,,,,,,,,,,,,,,,,,,,,,,,,,,,,,,,,,,,,,,,,,,,,,,,,,,,,,,,,,,,,,,,,,,,,
,,?,0.002035,0,,,,,,stimuli/images/PICTURE_95.png,HONEY,5ea1950819664f04542a50bf,26/05/1940,2020-07-09_21h04.02.870,proactive,2020.1.2,Win32,60,5f073de81c76c3308c0e4fb3,5f077807b11b0f38bfc7eae0,4,,,,,,suitcase,,,,,,,,,,,5,1,0,11,11,44,1,,,,,,,,,,,,,,,,,,,,,,,,,,,,,,,,,,,,,,,,,,,,,,,,,,,,,,,,,,,,,,,,,,,,,,
,,?,0.001935,0,,,,,,stimuli/images/PICTURE_654.png,MONTH,5ea1950819664f04542a50bf,26/05/1940,2020-07-09_21h04.02.870,proactive,2020.1.2,Win32,60,5f073de81c76c3308c0e4fb3,5f077807b11b0f38bfc7eae0,4,,,,,,pencil,,,,,,,,,,,3,1,0,12,12,29,1,,,,,,,,,,,,,,,,,,,,,,,,,,,,,,,,,,,,,,,,,,,,,,,,,,,,,,,,,,,,,,,,,,,,,,
,,?,0.00189,0,,,,,,stimuli/images/PICTURE_677.png,APPLE,5ea1950819664f04542a50bf,26/05/1940,2020-07-09_21h04.02.870,proactive,2020.1.2,Win32,60,5f073de81c76c3308c0e4fb3,5f077807b11b0f38bfc7eae0,4,,,,,,map,,,,,,,,,,,5,1,0,13,13,43,1,,,,,,,,,,,,,,,,,,,,,,,,,,,,,,,,,,,,,,,,,,,,,,,,,,,,,,,,,,,,,,,,,,,,,,
,,?,0.00201,0,,,,,,stimuli/images/PICTURE_108.png,FLIGHT,5ea1950819664f04542a50bf,26/05/1940,2020-07-09_21h04.02.870,proactive,2020.1.2,Win32,60,5f073de81c76c3308c0e4fb3,5f077807b11b0f38bfc7eae0,4,,,,,,calendar,,,,,,,,,,,6,1,0,14,14,59,1,,,,,,,,,,,,,,,,,,,,,,,,,,,,,,,,,,,,,,,,,,,,,,,,,,,,,,,,,,,,,,,,,,,,,,
,,MOMENT,15.003515,1,,,,,,stimuli/images/PICTURE_57.png,MOMENT,5ea1950819664f04542a50bf,26/05/1940,2020-07-09_21h04.02.870,proactive,2020.1.2,Win32,60,5f073de81c76c3308c0e4fb3,5f077807b11b0f38bfc7eae0,4,,,,,,stamp,,,,,,,,,,,4,1,0,15,15,37,1,,,,,,,,,,,,,,,,,,,,,,,,,,,,,,,,,,,,,,,,,,,,,,,,,,,,,,,,,,,,,,,,,,,,,,
,,?,0.00231,0,,,,,,stimuli/images/PICTURE_564.png,BATH,5ea1950819664f04542a50bf,26/05/1940,2020-07-09_21h04.02.870,proactive,2020.1.2,Win32,60,5f073de81c76c3308c0e4fb3,5f077807b11b0f38bfc7eae0,4,,,,,,spoon,,,,,,,,,,,3,1,0,16,16,26,1,,,,,,,,,,,,,,,,,,,,,,,,,,,,,,,,,,,,,,,,,,,,,,,,,,,,,,,,,,,,,,,,,,,,,,
,,?,0.00164,0,,,,,,stimuli/images/PICTURE_469.png,AGENT,5ea1950819664f04542a50bf,26/05/1940,2020-07-09_21h04.02.870,proactive,2020.1.2,Win32,60,5f073de81c76c3308c0e4fb3,5f077807b11b0f38bfc7eae0,4,,,,,,stool,,,,,,,,,,,2,1,0,17,17,16,1,,,,,,,,,,,,,,,,,,,,,,,,,,,,,,,,,,,,,,,,,,,,,,,,,,,,,,,,,,,,,,,,,,,,,,
,,?,0.00148,0,,,,,,stimuli/images/PICTURE_750.png,HOTEL,5ea1950819664f04542a50bf,26/05/1940,2020-07-09_21h04.02.870,proactive,2020.1.2,Win32,60,5f073de81c76c3308c0e4fb3,5f077807b11b0f38bfc7eae0,4,,,,,,kettle,,,,,,,,,,,3,1,0,18,18,27,1,,,,,,,,,,,,,,,,,,,,,,,,,,,,,,,,,,,,,,,,,,,,,,,,,,,,,,,,,,,,,,,,,,,,,,
,,?,0.00167,0,,,,,,stimuli/images/PICTURE_85.png,NATION,5ea1950819664f04542a50bf,26/05/1940,2020-07-09_21h04.02.870,proactive,2020.1.2,Win32,60,5f073de81c76c3308c0e4fb3,5f077807b11b0f38bfc7eae0,4,,,,,,diamond,,,,,,,,,,,1,1,0,19,19,5,1,,,,,,,,,,,,,,,,,,,,,,,,,,,,,,,,,,,,,,,,,,,,,,,,,,,,,,,,,,,,,,,,,,,,,,
,,?,0.001625,0,,,,,,stimuli/images/PICTURE_708.png,RECORD,5ea1950819664f04542a50bf,26/05/1940,2020-07-09_21h04.02.870,proactive,2020.1.2,Win32,60,5f073de81c76c3308c0e4fb3,5f077807b11b0f38bfc7eae0,4,,,,,,monkey,,,,,,,,,,,6,1,0,20,20,58,1,,,,,,,,,,,,,,,,,,,,,,,,,,,,,,,,,,,,,,,,,,,,,,,,,,,,,,,,,,,,,,,,,,,,,,
,,?,0.001475,0,,,,,,stimuli/images/PICTURE_68.png,MILE,5ea1950819664f04542a50bf,26/05/1940,2020-07-09_21h04.02.870,proactive,2020.1.2,Win32,60,5f073de81c76c3308c0e4fb3,5f077807b11b0f38bfc7eae0,4,,,,,,candle,,,,,,,,,,,6,1,0,21,21,51,1,,,,,,,,,,,,,,,,,,,,,,,,,,,,,,,,,,,,,,,,,,,,,,,,,,,,,,,,,,,,,,,,,,,,,,
,,?,0.0015,0,,,,,,stimuli/images/PICTURE_340.png,LETTER,5ea1950819664f04542a50bf,26/05/1940,2020-07-09_21h04.02.870,proactive,2020.1.2,Win32,60,5f073de81c76c3308c0e4fb3,5f077807b11b0f38bfc7eae0,4,,,,,,mirror,,,,,,,,,,,3,1,0,22,22,24,1,,,,,,,,,,,,,,,,,,,,,,,,,,,,,,,,,,,,,,,,,,,,,,,,,,,,,,,,,,,,,,,,,,,,,,
,,?,0.00142,0,,,,,,stimuli/images/PICTURE_340.png,VALLEY,5ea1950819664f04542a50bf,26/05/1940,2020-07-09_21h04.02.870,proactive,2020.1.2,Win32,60,5f073de81c76c3308c0e4fb3,5f077807b11b0f38bfc7eae0,4,,,,,,mirror,,,,,,,,,,,6,1,0,23,23,54,1,,,,,,,,,,,,,,,,,,,,,,,,,,,,,,,,,,,,,,,,,,,,,,,,,,,,,,,,,,,,,,,,,,,,,,
,,YEAR,8.982005,1,,,,,,stimuli/images/PICTURE_405.png,YEAR,5ea1950819664f04542a50bf,26/05/1940,2020-07-09_21h04.02.870,proactive,2020.1.2,Win32,60,5f073de81c76c3308c0e4fb3,5f077807b11b0f38bfc7eae0,4,,,,,,anchor,,,,,,,,,,,4,1,0,24,24,34,1,,,,,,,,,,,,,,,,,,,,,,,,,,,,,,,,,,,,,,,,,,,,,,,,,,,,,,,,,,,,,,,,,,,,,,
,,?,0.002,0,,,,,,stimuli/images/PICTURE_327.png,CASINO,5ea1950819664f04542a50bf,26/05/1940,2020-07-09_21h04.02.870,proactive,2020.1.2,Win32,60,5f073de81c76c3308c0e4fb3,5f077807b11b0f38bfc7eae0,4,,,,,,helmet,,,,,,,,,,,3,1,0,25,25,20,1,,,,,,,,,,,,,,,,,,,,,,,,,,,,,,,,,,,,,,,,,,,,,,,,,,,,,,,,,,,,,,,,,,,,,,
,,?,0.0014,0,,,,,,stimuli/images/PICTURE_147.png,YEAR,5ea1950819664f04542a50bf,26/05/1940,2020-07-09_21h04.02.870,proactive,2020.1.2,Win32,60,5f073de81c76c3308c0e4fb3,5f077807b11b0f38bfc7eae0,4,,,,,,hanger,,,,,,,,,,,3,1,0,26,26,21,1,,,,,,,,,,,,,,,,,,,,,,,,,,,,,,,,,,,,,,,,,,,,,,,,,,,,,,,,,,,,,,,,,,,,,,
,,LIFE,11.590485,0,,,,,,stimuli/images/PICTURE_68.png,ROOF,5ea1950819664f04542a50bf,26/05/1940,2020-07-09_21h04.02.870,proactive,2020.1.2,Win32,60,5f073de81c76c3308c0e4fb3,5f077807b11b0f38bfc7eae0,4,,,,,,candle,,,,,,,,,,,4,1,0,27,27,38,1,,,,,,,,,,,,,,,,,,,,,,,,,,,,,,,,,,,,,,,,,,,,,,,,,,,,,,,,,,,,,,,,,,,,,,
,,?,0.001735,0,,,,,,stimuli/images/PICTURE_85.png,TOILET,5ea1950819664f04542a50bf,26/05/1940,2020-07-09_21h04.02.870,proactive,2020.1.2,Win32,60,5f073de81c76c3308c0e4fb3,5f077807b11b0f38bfc7eae0,4,,,,,,diamond,,,,,,,,,,,5,1,0,28,28,48,1,,,,,,,,,,,,,,,,,,,,,,,,,,,,,,,,,,,,,,,,,,,,,,,,,,,,,,,,,,,,,,,,,,,,,,
,,?,0.001405,0,,,,,,stimuli/images/PICTURE_296.png,LOTS,5ea1950819664f04542a50bf,26/05/1940,2020-07-09_21h04.02.870,proactive,2020.1.2,Win32,60,5f073de81c76c3308c0e4fb3,5f077807b11b0f38bfc7eae0,4,,,,,,bolt,,,,,,,,,,,1,1,0,29,29,9,1,,,,,,,,,,,,,,,,,,,,,,,,,,,,,,,,,,,,,,,,,,,,,,,,,,,,,,,,,,,,,,,,,,,,,,
,,?,0.00141,0,,,,,,stimuli/images/PICTURE_504.png,YEAR,5ea1950819664f04542a50bf,26/05/1940,2020-07-09_21h04.02.870,proactive,2020.1.2,Win32,60,5f073de81c76c3308c0e4fb3,5f077807b11b0f38bfc7eae0,4,,,,,,wheel,,,,,,,,,,,2,1,0,30,30,13,1,,,,,,,,,,,,,,,,,,,,,,,,,,,,,,,,,,,,,,,,,,,,,,,,,,,,,,,,,,,,,,,,,,,,,,
,,?,0.001355,0,,,,,,stimuli/images/PICTURE_383.png,SERIES,5ea1950819664f04542a50bf,26/05/1940,2020-07-09_21h04.02.870,proactive,2020.1.2,Win32,60,5f073de81c76c3308c0e4fb3,5f077807b11b0f38bfc7eae0,4,,,,,,coin,,,,,,,,,,,5,1,0,31,31,46,1,,,,,,,,,,,,,,,,,,,,,,,,,,,,,,,,,,,,,,,,,,,,,,,,,,,,,,,,,,,,,,,,,,,,,,
,,LIFE,9.562655,1,,,,,,stimuli/images/PICTURE_285.png,LIFE,5ea1950819664f04542a50bf,26/05/1940,2020-07-09_21h04.02.870,proactive,2020.1.2,Win32,60,5f073de81c76c3308c0e4fb3,5f077807b11b0f38bfc7eae0,4,,,,,,carrot,,,,,,,,,,,4,1,0,32,32,33,1,,,,,,,,,,,,,,,,,,,,,,,,,,,,,,,,,,,,,,,,,,,,,,,,,,,,,,,,,,,,,,,,,,,,,,
,,?,0.002125,0,,,,,,stimuli/images/PICTURE_147.png,WOMEN,5ea1950819664f04542a50bf,26/05/1940,2020-07-09_21h04.02.870,proactive,2020.1.2,Win32,60,5f073de81c76c3308c0e4fb3,5f077807b11b0f38bfc7eae0,4,,,,,,hanger,,,,,,,,,,,1,1,0,33,33,7,1,,,,,,,,,,,,,,,,,,,,,,,,,,,,,,,,,,,,,,,,,,,,,,,,,,,,,,,,,,,,,,,,,,,,,,
,,?,0.00181,0,,,,,,stimuli/images/PICTURE_449.png,DUDE,5ea1950819664f04542a50bf,26/05/1940,2020-07-09_21h04.02.870,proactive,2020.1.2,Win32,60,5f073de81c76c3308c0e4fb3,5f077807b11b0f38bfc7eae0,4,,,,,,bench,,,,,,,,,,,2,1,0,34,34,17,1,,,,,,,,,,,,,,,,,,,,,,,,,,,,,,,,,,,,,,,,,,,,,,,,,,,,,,,,,,,,,,,,,,,,,,
,,?,0.00206,0,,,,,,stimuli/images/PICTURE_403.png,TOILET,5ea1950819664f04542a50bf,26/05/1940,2020-07-09_21h04.02.870,proactive,2020.1.2,Win32,60,5f073de81c76c3308c0e4fb3,5f077807b11b0f38bfc7eae0,4,,,,,,cathedral,,,,,,,,,,,3,1,0,35,35,25,1,,,,,,,,,,,,,,,,,,,,,,,,,,,,,,,,,,,,,,,,,,,,,,,,,,,,,,,,,,,,,,,,,,,,,,
,,?,0.002435,0,,,,,,stimuli/images/PICTURE_95.png,BOYS,5ea1950819664f04542a50bf,26/05/1940,2020-07-09_21h04.02.870,proactive,2020.1.2,Win32,60,5f073de81c76c3308c0e4fb3,5f077807b11b0f38bfc7eae0,4,,,,,,suitcase,,,,,,,,,,,1,1,0,36,36,1,1,,,,,,,,,,,,,,,,,,,,,,,,,,,,,,,,,,,,,,,,,,,,,,,,,,,,,,,,,,,,,,,,,,,,,,
,,SYSTEM,12.56285,1,,,,,,stimuli/images/PICTURE_208.png,SYSTEM,5ea1950819664f04542a50bf,26/05/1940,2020-07-09_21h04.02.870,proactive,2020.1.2,Win32,60,5f073de81c76c3308c0e4fb3,5f077807b11b0f38bfc7eae0,4,,,,,,microphone,,,,,,,,,,,4,1,0,37,37,32,1,,,,,,,,,,,,,,,,,,,,,,,,,,,,,,,,,,,,,,,,,,,,,,,,,,,,,,,,,,,,,,,,,,,,,,
,,?,0.002055,0,,,,,,stimuli/images/PICTURE_467.png,POLICY,5ea1950819664f04542a50bf,26/05/1940,2020-07-09_21h04.02.870,proactive,2020.1.2,Win32,60,5f073de81c76c3308c0e4fb3,5f077807b11b0f38bfc7eae0,4,,,,,,peg,,,,,,,,,,,6,1,0,38,38,53,1,,,,,,,,,,,,,,,,,,,,,,,,,,,,,,,,,,,,,,,,,,,,,,,,,,,,,,,,,,,,,,,,,,,,,,
,,?,0.00177,0,,,,,,stimuli/images/PICTURE_491.png,RIVER,5ea1950819664f04542a50bf,26/05/1940,2020-07-09_21h04.02.870,proactive,2020.1.2,Win32,60,5f073de81c76c3308c0e4fb3,5f077807b11b0f38bfc7eae0,4,,,,,,rug,,,,,,,,,,,1,1,0,39,39,6,1,,,,,,,,,,,,,,,,,,,,,,,,,,,,,,,,,,,,,,,,,,,,,,,,,,,,,,,,,,,,,,,,,,,,,,
,,RIVER,7.272845,1,,,,,,stimuli/images/PICTURE_297.png,RIVER,5ea1950819664f04542a50bf,26/05/1940,2020-07-09_21h04.02.870,proactive,2020.1.2,Win32,60,5f073de81c76c3308c0e4fb3,5f077807b11b0f38bfc7eae0,4,,,,,,aeroplane,,,,,,,,,,,4,1,0,40,40,39,1,,,,,,,,,,,,,,,,,,,,,,,,,,,,,,,,,,,,,,,,,,,,,,,,,,,,,,,,,,,,,,,,,,,,,,
,,?,0.001385,0,,,,,,stimuli/images/PICTURE_383.png,WRITER,5ea1950819664f04542a50bf,26/05/1940,2020-07-09_21h04.02.870,proactive,2020.1.2,Win32,60,5f073de81c76c3308c0e4fb3,5f077807b11b0f38bfc7eae0,4,,,,,,coin,,,,,,,,,,,3,1,0,41,41,28,1,,,,,,,,,,,,,,,,,,,,,,,,,,,,,,,,,,,,,,,,,,,,,,,,,,,,,,,,,,,,,,,,,,,,,,
,,?,0.00144,0,,,,,,stimuli/images/PICTURE_504.png,COPS,5ea1950819664f04542a50bf,26/05/1940,2020-07-09_21h04.02.870,proactive,2020.1.2,Win32,60,5f073de81c76c3308c0e4fb3,5f077807b11b0f38bfc7eae0,4,,,,,,wheel,,,,,,,,,,,6,1,0,42,42,52,1,,,,,,,,,,,,,,,,,,,,,,,,,,,,,,,,,,,,,,,,,,,,,,,,,,,,,,,,,,,,,,,,,,,,,,
,,?,0.00148,0,,,,,,stimuli/images/PICTURE_327.png,SERIES,5ea1950819664f04542a50bf,26/05/1940,2020-07-09_21h04.02.870,proactive,2020.1.2,Win32,60,5f073de81c76c3308c0e4fb3,5f077807b11b0f38bfc7eae0,4,,,,,,helmet,,,,,,,,,,,1,1,0,43,43,3,1,,,,,,,,,,,,,,,,,,,,,,,,,,,,,,,,,,,,,,,,,,,,,,,,,,,,,,,,,,,,,,,,,,,,,,
,,FAMILY,13.08698,1,,,,,,stimuli/images/PICTURE_308.png,FAMILY,5ea1950819664f04542a50bf,26/05/1940,2020-07-09_21h04.02.870,proactive,2020.1.2,Win32,60,5f073de81c76c3308c0e4fb3,5f077807b11b0f38bfc7eae0,4,,,,,,dice,,,,,,,,,,,4,1,0,44,44,36,1,,,,,,,,,,,,,,,,,,,,,,,,,,,,,,,,,,,,,,,,,,,,,,,,,,,,,,,,,,,,,,,,,,,,,,
,,?,0.005485,0,,,,,,stimuli/images/PICTURE_655.png,TOILET,5ea1950819664f04542a50bf,26/05/1940,2020-07-09_21h04.02.870,proactive,2020.1.2,Win32,60,5f073de81c76c3308c0e4fb3,5f077807b11b0f38bfc7eae0,4,,,,,,megaphone,,,,,,,,,,,2,1,0,45,45,12,1,,,,,,,,,,,,,,,,,,,,,,,,,,,,,,,,,,,,,,,,,,,,,,,,,,,,,,,,,,,,,,,,,,,,,,
,,?,0.001295,0,,,,,,stimuli/images/PICTURE_504.png,ARTIST,5ea1950819664f04542a50bf,26/05/1940,2020-07-09_21h04.02.870,proactive,2020.1.2,Win32,60,5f073de81c76c3308c0e4fb3,5f077807b11b0f38bfc7eae0,4,,,,,,wheel,,,,,,,,,,,5,1,0,46,46,49,1,,,,,,,,,,,,,,,,,,,,,,,,,,,,,,,,,,,,,,,,,,,,,,,,,,,,,,,,,,,,,,,,,,,,,,
,,?,0.00123,0,,,,,,stimuli/images/PICTURE_177.png,WRITER,5ea1950819664f04542a50bf,26/05/1940,2020-07-09_21h04.02.870,proactive,2020.1.2,Win32,60,5f073de81c76c3308c0e4fb3,5f077807b11b0f38bfc7eae0,4,,,,,,mushroom,,,,,,,,,,,5,1,0,47,47,41,1,,,,,,,,,,,,,,,,,,,,,,,,,,,,,,,,,,,,,,,,,,,,,,,,,,,,,,,,,,,,,,,,,,,,,,
,,WRITER,11.25152,1,,,,,,stimuli/images/PICTURE_403.png,WRITER,5ea1950819664f04542a50bf,26/05/1940,2020-07-09_21h04.02.870,proactive,2020.1.2,Win32,60,5f073de81c76c3308c0e4fb3,5f077807b11b0f38bfc7eae0,4,,,,,,cathedral,,,,,,,,,,,4,1,0,48,48,31,1,,,,,,,,,,,,,,,,,,,,,,,,,,,,,,,,,,,,,,,,,,,,,,,,,,,,,,,,,,,,,,,,,,,,,,
,,?,0.001865,0,,,,,,stimuli/images/PICTURE_108.png,POLICY,5ea1950819664f04542a50bf,26/05/1940,2020-07-09_21h04.02.870,proactive,2020.1.2,Win32,60,5f073de81c76c3308c0e4fb3,5f077807b11b0f38bfc7eae0,4,,,,,,calendar,,,,,,,,,,,3,1,0,49,49,22,1,,,,,,,,,,,,,,,,,,,,,,,,,,,,,,,,,,,,,,,,,,,,,,,,,,,,,,,,,,,,,,,,,,,,,,
,,?,0.00155,0,,,,,,stimuli/images/PICTURE_203.png,NIGHT,5ea1950819664f04542a50bf,26/05/1940,2020-07-09_21h04.02.870,proactive,2020.1.2,Win32,60,5f073de81c76c3308c0e4fb3,5f077807b11b0f38bfc7eae0,4,,,,,,cap,,,,,,,,,,,1,1,0,50,50,2,1,,,,,,,,,,,,,,,,,,,,,,,,,,,,,,,,,,,,,,,,,,,,,,,,,,,,,,,,,,,,,,,,,,,,,,
,,KIND,6.574045,1,,,,,,stimuli/images/PICTURE_32.png,KIND,5ea1950819664f04542a50bf,26/05/1940,2020-07-09_21h04.02.870,proactive,2020.1.2,Win32,60,5f073de81c76c3308c0e4fb3,5f077807b11b0f38bfc7eae0,4,,,,,,crown,,,,,,,,,,,4,1,0,51,51,35,1,,,,,,,,,,,,,,,,,,,,,,,,,,,,,,,,,,,,,,,,,,,,,,,,,,,,,,,,,,,,,,,,,,,,,,
,,?,0.001275,0,,,,,,stimuli/images/PICTURE_32.png,PILLS,5ea1950819664f04542a50bf,26/05/1940,2020-07-09_21h04.02.870,proactive,2020.1.2,Win32,60,5f073de81c76c3308c0e4fb3,5f077807b11b0f38bfc7eae0,4,,,,,,crown,,,,,,,,,,,2,1,0,52,52,18,1,,,,,,,,,,,,,,,,,,,,,,,,,,,,,,,,,,,,,,,,,,,,,,,,,,,,,,,,,,,,,,,,,,,,,,
,,?,0.001595,0,,,,,,stimuli/images/PICTURE_296.png,LIFE,5ea1950819664f04542a50bf,26/05/1940,2020-07-09_21h04.02.870,proactive,2020.1.2,Win32,60,5f073de81c76c3308c0e4fb3,5f077807b11b0f38bfc7eae0,4,,,,,,bolt,,,,,,,,,,,6,1,0,53,53,57,1,,,,,,,,,,,,,,,,,,,,,,,,,,,,,,,,,,,,,,,,,,,,,,,,,,,,,,,,,,,,,,,,,,,,,,
,,?,0.002125,0,,,,,,stimuli/images/PICTURE_233.png,LOTS,5ea1950819664f04542a50bf,26/05/1940,2020-07-09_21h04.02.870,proactive,2020.1.2,Win32,60,5f073de81c76c3308c0e4fb3,5f077807b11b0f38bfc7eae0,4,,,,,,salt,,,,,,,,,,,5,1,0,54,54,42,1,,,,,,,,,,,,,,,,,,,,,,,,,,,,,,,,,,,,,,,,,,,,,,,,,,,,,,,,,,,,,,,,,,,,,,
,,?,0.001985,0,,,,,,stimuli/images/PICTURE_380.png,HONEY,5ea1950819664f04542a50bf,26/05/1940,2020-07-09_21h04.02.870,proactive,2020.1.2,Win32,60,5f073de81c76c3308c0e4fb3,5f077807b11b0f38bfc7eae0,4,,,,,,gorilla,,,,,,,,,,,2,1,0,55,55,19,1,,,,,,,,,,,,,,,,,,,,,,,,,,,,,,,,,,,,,,,,,,,,,,,,,,,,,,,,,,,,,,,,,,,,,,
,,?,0.001995,0,,,,,,stimuli/images/PICTURE_42.png,BOYS,5ea1950819664f04542a50bf,26/05/1940,2020-07-09_21h04.02.870,proactive,2020.1.2,Win32,60,5f073de81c76c3308c0e4fb3,5f077807b11b0f38bfc7eae0,4,,,,,,pear,,,,,,,,,,,6,1,0,56,56,55,1,,,,,,,,,,,,,,,,,,,,,,,,,,,,,,,,,,,,,,,,,,,,,,,,,,,,,,,,,,,,,,,,,,,,,,
,,?,0.001485,0,,,,,,stimuli/images/PICTURE_487.png,GIRL,5ea1950819664f04542a50bf,26/05/1940,2020-07-09_21h04.02.870,proactive,2020.1.2,Win32,60,5f073de81c76c3308c0e4fb3,5f077807b11b0f38bfc7eae0,4,,,,,,basket,,,,,,,,,,,5,1,0,57,57,45,1,,,,,,,,,,,,,,,,,,,,,,,,,,,,,,,,,,,,,,,,,,,,,,,,,,,,,,,,,,,,,,,,,,,,,,
,,?,0.002755,0,,,,,,stimuli/images/PICTURE_685.png,PENNY,5ea1950819664f04542a50bf,26/05/1940,2020-07-09_21h04.02.870,proactive,2020.1.2,Win32,60,5f073de81c76c3308c0e4fb3,5f077807b11b0f38bfc7eae0,4,,,,,,goose,,,,,,,,,,,1,1,0,58,58,4,1,,,,,,,,,,,,,,,,,,,,,,,,,,,,,,,,,,,,,,,,,,,,,,,,,,,,,,,,,,,,,,,,,,,,,,
,,?,0.00186,0,,,,,,stimuli/images/PICTURE_339.png,CLIENT,5ea1950819664f04542a50bf,26/05/1940,2020-07-09_21h04.02.870,proactive,2020.1.2,Win32,60,5f073de81c76c3308c0e4fb3,5f077807b11b0f38bfc7eae0,4,,,,,,backpack,,,,,,,,,,,2,1,0,59,59,11,1,,,,,,,,,,,,,,,,,,,,,,,,,,,,,,,,,,,,,,,,,,,,,,,,,,,,,,,,,,,,,,,,,,,,,,
,,,,,,,,,,,,5ea1950819664f04542a50bf,26/05/1940,2020-07-09_21h04.02.870,proactive,2020.1.2,Win32,60,5f073de81c76c3308c0e4fb3,5f077807b11b0f38bfc7eae0,4,,,,,,,,,,,,,,,,,,,,,,,,0,0,0,1,1,stimuli/learn-block2.csv,,,,,,,,,,,,,,,,,,,,,,,,,,,,,,,,,,,,,,,,,,,,,,,,,,,,,,,,,,,,,,,,
,,,,,,,,,,stimuli/images/PICTURE_311.png,FRIEND,5ea1950819664f04542a50bf,26/05/1940,2020-07-09_21h04.02.870,proactive,2020.1.2,Win32,60,5f073de81c76c3308c0e4fb3,5f077807b11b0f38bfc7eae0,4,,,,,,razor,,,,,,0,0,0,34,1,4,0,,,,,,,,,,,,,,,,,,,,,,,,,,,,,,,,,,,,,,,,,,,,,,,,,,,,,,,,,,,,,,,,,,,,,,,,,,,
,,,,,,,,,,stimuli/images/PICTURE_285.png,ADVICE,5ea1950819664f04542a50bf,26/05/1940,2020-07-09_21h04.02.870,proactive,2020.1.2,Win32,60,5f073de81c76c3308c0e4fb3,5f077807b11b0f38bfc7eae0,4,,,,,,carrot,,,,,,0,1,1,12,1,2,0,,,,,,,,,,,,,,,,,,,,,,,,,,,,,,,,,,,,,,,,,,,,,,,,,,,,,,,,,,,,,,,,,,,,,,,,,,,
,,,,,,,,,,stimuli/images/PICTURE_509.png,PHOTO,5ea1950819664f04542a50bf,26/05/1940,2020-07-09_21h04.02.870,proactive,2020.1.2,Win32,60,5f073de81c76c3308c0e4fb3,5f077807b11b0f38bfc7eae0,4,,,,,,telephone,,,,,,0,2,2,21,1,3,0,,,,,,,,,,,,,,,,,,,,,,,,,,,,,,,,,,,,,,,,,,,,,,,,,,,,,,,,,,,,,,,,,,,,,,,,,,,
,,,,,,,,,,stimuli/images/PICTURE_314.png,GODS,5ea1950819664f04542a50bf,26/05/1940,2020-07-09_21h04.02.870,proactive,2020.1.2,Win32,60,5f073de81c76c3308c0e4fb3,5f077807b11b0f38bfc7eae0,4,,,,,,perfume,,,,,,0,3,3,11,1,2,0,,,,,,,,,,,,,,,,,,,,,,,,,,,,,,,,,,,,,,,,,,,,,,,,,,,,,,,,,,,,,,,,,,,,,,,,,,,
,,,,,,,,,,stimuli/images/PICTURE_314.png,SAKE,5ea1950819664f04542a50bf,26/05/1940,2020-07-09_21h04.02.870,proactive,2020.1.2,Win32,60,5f073de81c76c3308c0e4fb3,5f077807b11b0f38bfc7eae0,4,,,,,,perfume,,,,,,0,4,4,7,1,1,0,,,,,,,,,,,,,,,,,,,,,,,,,,,,,,,,,,,,,,,,,,,,,,,,,,,,,,,,,,,,,,,,,,,,,,,,,,,
,,,,,,,,,,stimuli/images/PICTURE_233.png,IDEAS,5ea1950819664f04542a50bf,26/05/1940,2020-07-09_21h04.02.870,proactive,2020.1.2,Win32,60,5f073de81c76c3308c0e4fb3,5f077807b11b0f38bfc7eae0,4,,,,,,salt,,,,,,0,5,5,28,1,3,0,,,,,,,,,,,,,,,,,,,,,,,,,,,,,,,,,,,,,,,,,,,,,,,,,,,,,,,,,,,,,,,,,,,,,,,,,,,
,,,,,,,,,,stimuli/images/PICTURE_208.png,THING,5ea1950819664f04542a50bf,26/05/1940,2020-07-09_21h04.02.870,proactive,2020.1.2,Win32,60,5f073de81c76c3308c0e4fb3,5f077807b11b0f38bfc7eae0,4,,,,,,microphone,,,,,,0,6,6,47,1,5,0,,,,,,,,,,,,,,,,,,,,,,,,,,,,,,,,,,,,,,,,,,,,,,,,,,,,,,,,,,,,,,,,,,,,,,,,,,,
,,,,,,,,,,stimuli/images/PICTURE_151.png,GIRL,5ea1950819664f04542a50bf,26/05/1940,2020-07-09_21h04.02.870,proactive,2020.1.2,Win32,60,5f073de81c76c3308c0e4fb3,5f077807b11b0f38bfc7eae0,4,,,,,,tray,,,,,,0,7,7,19,1,2,0,,,,,,,,,,,,,,,,,,,,,,,,,,,,,,,,,,,,,,,,,,,,,,,,,,,,,,,,,,,,,,,,,,,,,,,,,,,
,,,,,,,,,,stimuli/images/PICTURE_469.png,ARTIST,5ea1950819664f04542a50bf,26/05/1940,2020-07-09_21h04.02.870,proactive,2020.1.2,Win32,60,5f073de81c76c3308c0e4fb3,5f077807b11b0f38bfc7eae0,4,,,,,,stool,,,,,,0,8,8,6,1,1,0,,,,,,,,,,,,,,,,,,,,,,,,,,,,,,,,,,,,,,,,,,,,,,,,,,,,,,,,,,,,,,,,,,,,,,,,,,,
,,,,,,,,,,stimuli/images/PICTURE_208.png,LOTS,5ea1950819664f04542a50bf,26/05/1940,2020-07-09_21h04.02.870,proactive,2020.1.2,Win32,60,5f073de81c76c3308c0e4fb3,5f077807b11b0f38bfc7eae0,4,,,,,,microphone,,,,,,0,9,9,10,1,2,0,,,,,,,,,,,,,,,,,,,,,,,,,,,,,,,,,,,,,,,,,,,,,,,,,,,,,,,,,,,,,,,,,,,,,,,,,,,
,,,,,,,,,,stimuli/images/PICTURE_160.png,LEADER,5ea1950819664f04542a50bf,26/05/1940,2020-07-09_21h04.02.870,proactive,2020.1.2,Win32,60,5f073de81c76c3308c0e4fb3,5f077807b11b0f38bfc7eae0,4,,,,,,wheelbarrow,,,,,,0,10,10,3,1,1,0,,,,,,,,,,,,,,,,,,,,,,,,,,,,,,,,,,,,,,,,,,,,,,,,,,,,,,,,,,,,,,,,,,,,,,,,,,,
,,,,,,,,,,stimuli/images/PICTURE_667.png,PLENTY,5ea1950819664f04542a50bf,26/05/1940,2020-07-09_21h04.02.870,proactive,2020.1.2,Win32,60,5f073de81c76c3308c0e4fb3,5f077807b11b0f38bfc7eae0,4,,,,,,daisy,,,,,,0,11,11,41,1,5,0,,,,,,,,,,,,,,,,,,,,,,,,,,,,,,,,,,,,,,,,,,,,,,,,,,,,,,,,,,,,,,,,,,,,,,,,,,,
,,,,,,,,,,stimuli/images/PICTURE_467.png,DEMON,5ea1950819664f04542a50bf,26/05/1940,2020-07-09_21h04.02.870,proactive,2020.1.2,Win32,60,5f073de81c76c3308c0e4fb3,5f077807b11b0f38bfc7eae0,4,,,,,,peg,,,,,,0,12,12,23,1,3,0,,,,,,,,,,,,,,,,,,,,,,,,,,,,,,,,,,,,,,,,,,,,,,,,,,,,,,,,,,,,,,,,,,,,,,,,,,,
,,,,,,,,,,stimuli/images/PICTURE_255.png,AREA,5ea1950819664f04542a50bf,26/05/1940,2020-07-09_21h04.02.870,proactive,2020.1.2,Win32,60,5f073de81c76c3308c0e4fb3,5f077807b11b0f38bfc7eae0,4,,,,,,shovel,,,,,,0,13,13,22,1,3,0,,,,,,,,,,,,,,,,,,,,,,,,,,,,,,,,,,,,,,,,,,,,,,,,,,,,,,,,,,,,,,,,,,,,,,,,,,,
,,,,,,,,,,stimuli/images/PICTURE_32.png,JUNGLE,5ea1950819664f04542a50bf,26/05/1940,2020-07-09_21h04.02.870,proactive,2020.1.2,Win32,60,5f073de81c76c3308c0e4fb3,5f077807b11b0f38bfc7eae0,4,,,,,,crown,,,,,,0,14,14,45,1,5,0,,,,,,,,,,,,,,,,,,,,,,,,,,,,,,,,,,,,,,,,,,,,,,,,,,,,,,,,,,,,,,,,,,,,,,,,,,,
,,,,,,,,,,stimuli/images/PICTURE_688.png,WOMEN,5ea1950819664f04542a50bf,26/05/1940,2020-07-09_21h04.02.870,proactive,2020.1.2,Win32,60,5f073de81c76c3308c0e4fb3,5f077807b11b0f38bfc7eae0,4,,,,,,runner,,,,,,0,15,15,14,1,2,0,,,,,,,,,,,,,,,,,,,,,,,,,,,,,,,,,,,,,,,,,,,,,,,,,,,,,,,,,,,,,,,,,,,,,,,,,,,
,,,,,,,,,,stimuli/images/PICTURE_654.png,VALLEY,5ea1950819664f04542a50bf,26/05/1940,2020-07-09_21h04.02.870,proactive,2020.1.2,Win32,60,5f073de81c76c3308c0e4fb3,5f077807b11b0f38bfc7eae0,4,,,,,,pencil,,,,,,0,16,16,1,1,1,0,,,,,,,,,,,,,,,,,,,,,,,,,,,,,,,,,,,,,,,,,,,,,,,,,,,,,,,,,,,,,,,,,,,,,,,,,,,
,,,,,,,,,,stimuli/images/PICTURE_708.png,PENNY,5ea1950819664f04542a50bf,26/05/1940,2020-07-09_21h04.02.870,proactive,2020.1.2,Win32,60,5f073de81c76c3308c0e4fb3,5f077807b11b0f38bfc7eae0,4,,,,,,monkey,,,,,,0,17,17,31,1,4,0,,,,,,,,,,,,,,,,,,,,,,,,,,,,,,,,,,,,,,,,,,,,,,,,,,,,,,,,,,,,,,,,,,,,,,,,,,,
,,,,,,,,,,stimuli/images/PICTURE_470.png,CASINO,5ea1950819664f04542a50bf,26/05/1940,2020-07-09_21h04.02.870,proactive,2020.1.2,Win32,60,5f073de81c76c3308c0e4fb3,5f077807b11b0f38bfc7eae0,4,,,,,,motorbike,,,,,,0,18,18,36,1,4,0,,,,,,,,,,,,,,,,,,,,,,,,,,,,,,,,,,,,,,,,,,,,,,,,,,,,,,,,,,,,,,,,,,,,,,,,,,,
,,,,,,,,,,stimuli/images/PICTURE_308.png,KIND,5ea1950819664f04542a50bf,26/05/1940,2020-07-09_21h04.02.870,proactive,2020.1.2,Win32,60,5f073de81c76c3308c0e4fb3,5f077807b11b0f38bfc7eae0,4,,,,,,dice,,,,,,0,19,19,54,1,6,0,,,,,,,,,,,,,,,,,,,,,,,,,,,,,,,,,,,,,,,,,,,,,,,,,,,,,,,,,,,,,,,,,,,,,,,,,,,
,,,,,,,,,,stimuli/images/PICTURE_327.png,BEAUTY,5ea1950819664f04542a50bf,26/05/1940,2020-07-09_21h04.02.870,proactive,2020.1.2,Win32,60,5f073de81c76c3308c0e4fb3,5f077807b11b0f38bfc7eae0,4,,,,,,helmet,,,,,,0,20,20,48,1,5,0,,,,,,,,,,,,,,,,,,,,,,,,,,,,,,,,,,,,,,,,,,,,,,,,,,,,,,,,,,,,,,,,,,,,,,,,,,,
,,,,,,,,,,stimuli/images/PICTURE_744.png,SAKE,5ea1950819664f04542a50bf,26/05/1940,2020-07-09_21h04.02.870,proactive,2020.1.2,Win32,60,5f073de81c76c3308c0e4fb3,5f077807b11b0f38bfc7eae0,4,,,,,,ring,,,,,,0,21,21,17,1,2,0,,,,,,,,,,,,,,,,,,,,,,,,,,,,,,,,,,,,,,,,,,,,,,,,,,,,,,,,,,,,,,,,,,,,,,,,,,,
,,,,,,,,,,stimuli/images/PICTURE_487.png,FLIGHT,5ea1950819664f04542a50bf,26/05/1940,2020-07-09_21h04.02.870,proactive,2020.1.2,Win32,60,5f073de81c76c3308c0e4fb3,5f077807b11b0f38bfc7eae0,4,,,,,,basket,,,,,,0,22,22,9,1,1,0,,,,,,,,,,,,,,,,,,,,,,,,,,,,,,,,,,,,,,,,,,,,,,,,,,,,,,,,,,,,,,,,,,,,,,,,,,,
,,,,,,,,,,stimuli/images/PICTURE_215.png,PLENTY,5ea1950819664f04542a50bf,26/05/1940,2020-07-09_21h04.02.870,proactive,2020.1.2,Win32,60,5f073de81c76c3308c0e4fb3,5f077807b11b0f38bfc7eae0,4,,,,,,boot,,,,,,0,23,23,37,1,4,0,,,,,,,,,,,,,,,,,,,,,,,,,,,,,,,,,,,,,,,,,,,,,,,,,,,,,,,,,,,,,,,,,,,,,,,,,,,
,,,,,,,,,,stimuli/images/PICTURE_123.png,ADVICE,5ea1950819664f04542a50bf,26/05/1940,2020-07-09_21h04.02.870,proactive,2020.1.2,Win32,60,5f073de81c76c3308c0e4fb3,5f077807b11b0f38bfc7eae0,4,,,,,,dart,,,,,,0,24,24,50,1,6,0,,,,,,,,,,,,,,,,,,,,,,,,,,,,,,,,,,,,,,,,,,,,,,,,,,,,,,,,,,,,,,,,,,,,,,,,,,,
,,,,,,,,,,stimuli/images/PICTURE_248.png,DOZEN,5ea1950819664f04542a50bf,26/05/1940,2020-07-09_21h04.02.870,proactive,2020.1.2,Win32,60,5f073de81c76c3308c0e4fb3,5f077807b11b0f38bfc7eae0,4,,,,,,cart,,,,,,0,25,25,39,1,4,0,,,,,,,,,,,,,,,,,,,,,,,,,,,,,,,,,,,,,,,,,,,,,,,,,,,,,,,,,,,,,,,,,,,,,,,,,,,
,,,,,,,,,,stimuli/images/PICTURE_308.png,ESTATE,5ea1950819664f04542a50bf,26/05/1940,2020-07-09_21h04.02.870,proactive,2020.1.2,Win32,60,5f073de81c76c3308c0e4fb3,5f077807b11b0f38bfc7eae0,4,,,,,,dice,,,,,,0,26,26,46,1,5,0,,,,,,,,,,,,,,,,,,,,,,,,,,,,,,,,,,,,,,,,,,,,,,,,,,,,,,,,,,,,,,,,,,,,,,,,,,,
,,,,,,,,,,stimuli/images/PICTURE_311.png,BEAUTY,5ea1950819664f04542a50bf,26/05/1940,2020-07-09_21h04.02.870,proactive,2020.1.2,Win32,60,5f073de81c76c3308c0e4fb3,5f077807b11b0f38bfc7eae0,4,,,,,,razor,,,,,,0,27,27,13,1,2,0,,,,,,,,,,,,,,,,,,,,,,,,,,,,,,,,,,,,,,,,,,,,,,,,,,,,,,,,,,,,,,,,,,,,,,,,,,,
,,,,,,,,,,stimuli/images/PICTURE_339.png,PLENTY,5ea1950819664f04542a50bf,26/05/1940,2020-07-09_21h04.02.870,proactive,2020.1.2,Win32,60,5f073de81c76c3308c0e4fb3,5f077807b11b0f38bfc7eae0,4,,,,,,backpack,,,,,,0,28,28,0,1,1,0,,,,,,,,,,,,,,,,,,,,,,,,,,,,,,,,,,,,,,,,,,,,,,,,,,,,,,,,,,,,,,,,,,,,,,,,,,,
,,,,,,,,,,stimuli/images/PICTURE_491.png,WRITER,5ea1950819664f04542a50bf,26/05/1940,2020-07-09_21h04.02.870,proactive,2020.1.2,Win32,60,5f073de81c76c3308c0e4fb3,5f077807b11b0f38bfc7eae0,4,,,,,,rug,,,,,,0,29,29,57,1,6,0,,,,,,,,,,,,,,,,,,,,,,,,,,,,,,,,,,,,,,,,,,,,,,,,,,,,,,,,,,,,,,,,,,,,,,,,,,,
,,,,,,,,,,stimuli/images/PICTURE_203.png,ARTIST,5ea1950819664f04542a50bf,26/05/1940,2020-07-09_21h04.02.870,proactive,2020.1.2,Win32,60,5f073de81c76c3308c0e4fb3,5f077807b11b0f38bfc7eae0,4,,,,,,cap,,,,,,0,30,30,26,1,3,0,,,,,,,,,,,,,,,,,,,,,,,,,,,,,,,,,,,,,,,,,,,,,,,,,,,,,,,,,,,,,,,,,,,,,,,,,,,
,,,,,,,,,,stimuli/images/PICTURE_380.png,PHOTO,5ea1950819664f04542a50bf,26/05/1940,2020-07-09_21h04.02.870,proactive,2020.1.2,Win32,60,5f073de81c76c3308c0e4fb3,5f077807b11b0f38bfc7eae0,4,,,,,,gorilla,,,,,,0,31,31,52,1,6,0,,,,,,,,,,,,,,,,,,,,,,,,,,,,,,,,,,,,,,,,,,,,,,,,,,,,,,,,,,,,,,,,,,,,,,,,,,,
,,,,,,,,,,stimuli/images/PICTURE_356.png,DANGER,5ea1950819664f04542a50bf,26/05/1940,2020-07-09_21h04.02.870,proactive,2020.1.2,Win32,60,5f073de81c76c3308c0e4fb3,5f077807b11b0f38bfc7eae0,4,,,,,,pawn,,,,,,0,32,32,55,1,6,0,,,,,,,,,,,,,,,,,,,,,,,,,,,,,,,,,,,,,,,,,,,,,,,,,,,,,,,,,,,,,,,,,,,,,,,,,,,
,,,,,,,,,,stimuli/images/PICTURE_453.png,PLENTY,5ea1950819664f04542a50bf,26/05/1940,2020-07-09_21h04.02.870,proactive,2020.1.2,Win32,60,5f073de81c76c3308c0e4fb3,5f077807b11b0f38bfc7eae0,4,,,,,,scissors,,,,,,0,33,33,56,1,6,0,,,,,,,,,,,,,,,,,,,,,,,,,,,,,,,,,,,,,,,,,,,,,,,,,,,,,,,,,,,,,,,,,,,,,,,,,,,
,,,,,,,,,,stimuli/images/PICTURE_692.png,MONTH,5ea1950819664f04542a50bf,26/05/1940,2020-07-09_21h04.02.870,proactive,2020.1.2,Win32,60,5f073de81c76c3308c0e4fb3,5f077807b11b0f38bfc7eae0,4,,,,,,cherry,,,,,,0,34,34,16,1,2,0,,,,,,,,,,,,,,,,,,,,,,,,,,,,,,,,,,,,,,,,,,,,,,,,,,,,,,,,,,,,,,,,,,,,,,,,,,,
,,,,,,,,,,stimuli/images/PICTURE_504.png,BODY,5ea1950819664f04542a50bf,26/05/1940,2020-07-09_21h04.02.870,proactive,2020.1.2,Win32,60,5f073de81c76c3308c0e4fb3,5f077807b11b0f38bfc7eae0,4,,,,,,wheel,,,,,,0,35,35,8,1,1,0,,,,,,,,,,,,,,,,,,,,,,,,,,,,,,,,,,,,,,,,,,,,,,,,,,,,,,,,,,,,,,,,,,,,,,,,,,,
,,,,,,,,,,stimuli/images/PICTURE_147.png,MOMENT,5ea1950819664f04542a50bf,26/05/1940,2020-07-09_21h04.02.870,proactive,2020.1.2,Win32,60,5f073de81c76c3308c0e4fb3,5f077807b11b0f38bfc7eae0,4,,,,,,hanger,,,,,,0,36,36,51,1,6,0,,,,,,,,,,,,,,,,,,,,,,,,,,,,,,,,,,,,,,,,,,,,,,,,,,,,,,,,,,,,,,,,,,,,,,,,,,,
,,,,,,,,,,stimuli/images/PICTURE_95.png,STYLE,5ea1950819664f04542a50bf,26/05/1940,2020-07-09_21h04.02.870,proactive,2020.1.2,Win32,60,5f073de81c76c3308c0e4fb3,5f077807b11b0f38bfc7eae0,4,,,,,,suitcase,,,,,,0,37,37,25,1,3,0,,,,,,,,,,,,,,,,,,,,,,,,,,,,,,,,,,,,,,,,,,,,,,,,,,,,,,,,,,,,,,,,,,,,,,,,,,,
,,,,,,,,,,stimuli/images/PICTURE_708.png,YARD,5ea1950819664f04542a50bf,26/05/1940,2020-07-09_21h04.02.870,proactive,2020.1.2,Win32,60,5f073de81c76c3308c0e4fb3,5f077807b11b0f38bfc7eae0,4,,,,,,monkey,,,,,,0,38,38,29,1,3,0,,,,,,,,,,,,,,,,,,,,,,,,,,,,,,,,,,,,,,,,,,,,,,,,,,,,,,,,,,,,,,,,,,,,,,,,,,,
,,,,,,,,,,stimuli/images/PICTURE_491.png,ROOF,5ea1950819664f04542a50bf,26/05/1940,2020-07-09_21h04.02.870,proactive,2020.1.2,Win32,60,5f073de81c76c3308c0e4fb3,5f077807b11b0f38bfc7eae0,4,,,,,,rug,,,,,,0,39,39,24,1,3,0,,,,,,,,,,,,,,,,,,,,,,,,,,,,,,,,,,,,,,,,,,,,,,,,,,,,,,,,,,,,,,,,,,,,,,,,,,,
,,,,,,,,,,stimuli/images/PICTURE_688.png,CASINO,5ea1950819664f04542a50bf,26/05/1940,2020-07-09_21h04.02.870,proactive,2020.1.2,Win32,60,5f073de81c76c3308c0e4fb3,5f077807b11b0f38bfc7eae0,4,,,,,,runner,,,,,,0,40,40,2,1,1,0,,,,,,,,,,,,,,,,,,,,,,,,,,,,,,,,,,,,,,,,,,,,,,,,,,,,,,,,,,,,,,,,,,,,,,,,,,,
,,,,,,,,,,stimuli/images/PICTURE_677.png,MILE,5ea1950819664f04542a50bf,26/05/1940,2020-07-09_21h04.02.870,proactive,2020.1.2,Win32,60,5f073de81c76c3308c0e4fb3,5f077807b11b0f38bfc7eae0,4,,,,,,map,,,,,,0,41,41,30,1,4,0,,,,,,,,,,,,,,,,,,,,,,,,,,,,,,,,,,,,,,,,,,,,,,,,,,,,,,,,,,,,,,,,,,,,,,,,,,,
,,,,,,,,,,stimuli/images/PICTURE_233.png,WOMEN,5ea1950819664f04542a50bf,26/05/1940,2020-07-09_21h04.02.870,proactive,2020.1.2,Win32,60,5f073de81c76c3308c0e4fb3,5f077807b11b0f38bfc7eae0,4,,,,,,salt,,,,,,0,42,42,38,1,4,0,,,,,,,,,,,,,,,,,,,,,,,,,,,,,,,,,,,,,,,,,,,,,,,,,,,,,,,,,,,,,,,,,,,,,,,,,,,
,,,,,,,,,,stimuli/images/PICTURE_177.png,CARS,5ea1950819664f04542a50bf,26/05/1940,2020-07-09_21h04.02.870,proactive,2020.1.2,Win32,60,5f073de81c76c3308c0e4fb3,5f077807b11b0f38bfc7eae0,4,,,,,,mushroom,,,,,,0,43,43,35,1,4,0,,,,,,,,,,,,,,,,,,,,,,,,,,,,,,,,,,,,,,,,,,,,,,,,,,,,,,,,,,,,,,,,,,,,,,,,,,,
,,,,,,,,,,stimuli/images/PICTURE_123.png,ADVICE,5ea1950819664f04542a50bf,26/05/1940,2020-07-09_21h04.02.870,proactive,2020.1.2,Win32,60,5f073de81c76c3308c0e4fb3,5f077807b11b0f38bfc7eae0,4,,,,,,dart,,,,,,0,44,44,40,1,5,0,,,,,,,,,,,,,,,,,,,,,,,,,,,,,,,,,,,,,,,,,,,,,,,,,,,,,,,,,,,,,,,,,,,,,,,,,,,
,,,,,,,,,,stimuli/images/PICTURE_85.png,THING,5ea1950819664f04542a50bf,26/05/1940,2020-07-09_21h04.02.870,proactive,2020.1.2,Win32,60,5f073de81c76c3308c0e4fb3,5f077807b11b0f38bfc7eae0,4,,,,,,diamond,,,,,,0,45,45,15,1,2,0,,,,,,,,,,,,,,,,,,,,,,,,,,,,,,,,,,,,,,,,,,,,,,,,,,,,,,,,,,,,,,,,,,,,,,,,,,,
,,,,,,,,,,stimuli/images/PICTURE_208.png,MONTH,5ea1950819664f04542a50bf,26/05/1940,2020-07-09_21h04.02.870,proactive,2020.1.2,Win32,60,5f073de81c76c3308c0e4fb3,5f077807b11b0f38bfc7eae0,4,,,,,,microphone,,,,,,0,46,46,53,1,6,0,,,,,,,,,,,,,,,,,,,,,,,,,,,,,,,,,,,,,,,,,,,,,,,,,,,,,,,,,,,,,,,,,,,,,,,,,,,
,,,,,,,,,,stimuli/images/PICTURE_469.png,LETTER,5ea1950819664f04542a50bf,26/05/1940,2020-07-09_21h04.02.870,proactive,2020.1.2,Win32,60,5f073de81c76c3308c0e4fb3,5f077807b11b0f38bfc7eae0,4,,,,,,stool,,,,,,0,47,47,42,1,5,0,,,,,,,,,,,,,,,,,,,,,,,,,,,,,,,,,,,,,,,,,,,,,,,,,,,,,,,,,,,,,,,,,,,,,,,,,,,
,,,,,,,,,,stimuli/images/PICTURE_302.png,FAMILY,5ea1950819664f04542a50bf,26/05/1940,2020-07-09_21h04.02.870,proactive,2020.1.2,Win32,60,5f073de81c76c3308c0e4fb3,5f077807b11b0f38bfc7eae0,4,,,,,,taxi,,,,,,0,48,48,18,1,2,0,,,,,,,,,,,,,,,,,,,,,,,,,,,,,,,,,,,,,,,,,,,,,,,,,,,,,,,,,,,,,,,,,,,,,,,,,,,
,,,,,,,,,,stimuli/images/PICTURE_744.png,SYSTEM,5ea1950819664f04542a50bf,26/05/1940,2020-07-09_21h04.02.870,proactive,2020.1.2,Win32,60,5f073de81c76c3308c0e4fb3,5f077807b11b0f38bfc7eae0,4,,,,,,ring,,,,,,0,49,49,43,1,5,0,,,,,,,,,,,,,,,,,,,,,,,,,,,,,,,,,,,,,,,,,,,,,,,,,,,,,,,,,,,,,,,,,,,,,,,,,,,
,,,,,,,,,,stimuli/images/PICTURE_68.png,MILE,5ea1950819664f04542a50bf,26/05/1940,2020-07-09_21h04.02.870,proactive,2020.1.2,Win32,60,5f073de81c76c3308c0e4fb3,5f077807b11b0f38bfc7eae0,4,,,,,,candle,,,,,,0,50,50,44,1,5,0,,,,,,,,,,,,,,,,,,,,,,,,,,,,,,,,,,,,,,,,,,,,,,,,,,,,,,,,,,,,,,,,,,,,,,,,,,,
,,,,,,,,,,stimuli/images/PICTURE_380.png,DEATH,5ea1950819664f04542a50bf,26/05/1940,2020-07-09_21h04.02.870,proactive,2020.1.2,Win32,60,5f073de81c76c3308c0e4fb3,5f077807b11b0f38bfc7eae0,4,,,,,,gorilla,,,,,,0,51,51,49,1,5,0,,,,,,,,,,,,,,,,,,,,,,,,,,,,,,,,,,,,,,,,,,,,,,,,,,,,,,,,,,,,,,,,,,,,,,,,,,,
,,,,,,,,,,stimuli/images/PICTURE_708.png,CLIENT,5ea1950819664f04542a50bf,26/05/1940,2020-07-09_21h04.02.870,proactive,2020.1.2,Win32,60,5f073de81c76c3308c0e4fb3,5f077807b11b0f38bfc7eae0,4,,,,,,monkey,,,,,,0,52,52,5,1,1,0,,,,,,,,,,,,,,,,,,,,,,,,,,,,,,,,,,,,,,,,,,,,,,,,,,,,,,,,,,,,,,,,,,,,,,,,,,,
,,,,,,,,,,stimuli/images/PICTURE_675.png,WEAPON,5ea1950819664f04542a50bf,26/05/1940,2020-07-09_21h04.02.870,proactive,2020.1.2,Win32,60,5f073de81c76c3308c0e4fb3,5f077807b11b0f38bfc7eae0,4,,,,,,windmill,,,,,,0,53,53,32,1,4,0,,,,,,,,,,,,,,,,,,,,,,,,,,,,,,,,,,,,,,,,,,,,,,,,,,,,,,,,,,,,,,,,,,,,,,,,,,,
,,,,,,,,,,stimuli/images/PICTURE_449.png,THING,5ea1950819664f04542a50bf,26/05/1940,2020-07-09_21h04.02.870,proactive,2020.1.2,Win32,60,5f073de81c76c3308c0e4fb3,5f077807b11b0f38bfc7eae0,4,,,,,,bench,,,,,,0,54,54,59,1,6,0,,,,,,,,,,,,,,,,,,,,,,,,,,,,,,,,,,,,,,,,,,,,,,,,,,,,,,,,,,,,,,,,,,,,,,,,,,,
,,,,,,,,,,stimuli/images/PICTURE_348.png,SPEECH,5ea1950819664f04542a50bf,26/05/1940,2020-07-09_21h04.02.870,proactive,2020.1.2,Win32,60,5f073de81c76c3308c0e4fb3,5f077807b11b0f38bfc7eae0,4,,,,,,pepper,,,,,,0,55,55,20,1,3,0,,,,,,,,,,,,,,,,,,,,,,,,,,,,,,,,,,,,,,,,,,,,,,,,,,,,,,,,,,,,,,,,,,,,,,,,,,,
,,,,,,,,,,stimuli/images/PICTURE_453.png,DUDE,5ea1950819664f04542a50bf,26/05/1940,2020-07-09_21h04.02.870,proactive,2020.1.2,Win32,60,5f073de81c76c3308c0e4fb3,5f077807b11b0f38bfc7eae0,4,,,,,,scissors,,,,,,0,56,56,27,1,3,0,,,,,,,,,,,,,,,,,,,,,,,,,,,,,,,,,,,,,,,,,,,,,,,,,,,,,,,,,,,,,,,,,,,,,,,,,,,
,,,,,,,,,,stimuli/images/PICTURE_667.png,BATH,5ea1950819664f04542a50bf,26/05/1940,2020-07-09_21h04.02.870,proactive,2020.1.2,Win32,60,5f073de81c76c3308c0e4fb3,5f077807b11b0f38bfc7eae0,4,,,,,,daisy,,,,,,0,57,57,4,1,1,0,,,,,,,,,,,,,,,,,,,,,,,,,,,,,,,,,,,,,,,,,,,,,,,,,,,,,,,,,,,,,,,,,,,,,,,,,,,
,,,,,,,,,,stimuli/images/PICTURE_488.png,STYLE,5ea1950819664f04542a50bf,26/05/1940,2020-07-09_21h04.02.870,proactive,2020.1.2,Win32,60,5f073de81c76c3308c0e4fb3,5f077807b11b0f38bfc7eae0,4,,,,,,sun,,,,,,0,58,58,33,1,4,0,,,,,,,,,,,,,,,,,,,,,,,,,,,,,,,,,,,,,,,,,,,,,,,,,,,,,,,,,,,,,,,,,,,,,,,,,,,
,,?,0.002,0,,,,,,stimuli/images/PICTURE_380.png,PHOTO,5ea1950819664f04542a50bf,26/05/1940,2020-07-09_21h04.02.870,proactive,2020.1.2,Win32,60,5f073de81c76c3308c0e4fb3,5f077807b11b0f38bfc7eae0,4,,,,,,gorilla,,,,,,,,,,,6,0,0,0,0,52,1,,,,,,,,,,,,,,,,,,,,,,,,,,,,,,,,,,,,,,,,,,,,,,,,,,,,,,,,,,,,,,,,,,,,,,
,,?,0.001905,0,,,,,,stimuli/images/PICTURE_203.png,ARTIST,5ea1950819664f04542a50bf,26/05/1940,2020-07-09_21h04.02.870,proactive,2020.1.2,Win32,60,5f073de81c76c3308c0e4fb3,5f077807b11b0f38bfc7eae0,4,,,,,,cap,,,,,,,,,,,3,0,0,1,1,26,1,,,,,,,,,,,,,,,,,,,,,,,,,,,,,,,,,,,,,,,,,,,,,,,,,,,,,,,,,,,,,,,,,,,,,,
,,?,0.001385,0,,,,,,stimuli/images/PICTURE_487.png,FLIGHT,5ea1950819664f04542a50bf,26/05/1940,2020-07-09_21h04.02.870,proactive,2020.1.2,Win32,60,5f073de81c76c3308c0e4fb3,5f077807b11b0f38bfc7eae0,4,,,,,,basket,,,,,,,,,,,1,0,0,2,2,9,1,,,,,,,,,,,,,,,,,,,,,,,,,,,,,,,,,,,,,,,,,,,,,,,,,,,,,,,,,,,,,,,,,,,,,,
,,?,0.001515,0,,,,,,stimuli/images/PICTURE_453.png,DUDE,5ea1950819664f04542a50bf,26/05/1940,2020-07-09_21h04.02.870,proactive,2020.1.2,Win32,60,5f073de81c76c3308c0e4fb3,5f077807b11b0f38bfc7eae0,4,,,,,,scissors,,,,,,,,,,,3,0,0,3,3,27,1,,,,,,,,,,,,,,,,,,,,,,,,,,,,,,,,,,,,,,,,,,,,,,,,,,,,,,,,,,,,,,,,,,,,,,
,,?,0.00142,0,,,,,,stimuli/images/PICTURE_469.png,ARTIST,5ea1950819664f04542a50bf,26/05/1940,2020-07-09_21h04.02.870,proactive,2020.1.2,Win32,60,5f073de81c76c3308c0e4fb3,5f077807b11b0f38bfc7eae0,4,,,,,,stool,,,,,,,,,,,1,0,0,4,4,6,1,,,,,,,,,,,,,,,,,,,,,,,,,,,,,,,,,,,,,,,,,,,,,,,,,,,,,,,,,,,,,,,,,,,,,,
,,?,0.00197,0,,,,,,stimuli/images/PICTURE_453.png,PLENTY,5ea1950819664f04542a50bf,26/05/1940,2020-07-09_21h04.02.870,proactive,2020.1.2,Win32,60,5f073de81c76c3308c0e4fb3,5f077807b11b0f38bfc7eae0,4,,,,,,scissors,,,,,,,,,,,6,0,0,5,5,56,1,,,,,,,,,,,,,,,,,,,,,,,,,,,,,,,,,,,,,,,,,,,,,,,,,,,,,,,,,,,,,,,,,,,,,,
,,?,0.001355,0,,,,,,stimuli/images/PICTURE_311.png,BEAUTY,5ea1950819664f04542a50bf,26/05/1940,2020-07-09_21h04.02.870,proactive,2020.1.2,Win32,60,5f073de81c76c3308c0e4fb3,5f077807b11b0f38bfc7eae0,4,,,,,,razor,,,,,,,,,,,2,0,0,6,6,13,1,,,,,,,,,,,,,,,,,,,,,,,,,,,,,,,,,,,,,,,,,,,,,,,,,,,,,,,,,,,,,,,,,,,,,,
,,?,0.00149,0,,,,,,stimuli/images/PICTURE_123.png,ADVICE,5ea1950819664f04542a50bf,26/05/1940,2020-07-09_21h04.02.870,proactive,2020.1.2,Win32,60,5f073de81c76c3308c0e4fb3,5f077807b11b0f38bfc7eae0,4,,,,,,dart,,,,,,,,,,,6,0,0,7,7,50,1,,,,,,,,,,,,,,,,,,,,,,,,,,,,,,,,,,,,,,,,,,,,,,,,,,,,,,,,,,,,,,,,,,,,,,
,,?,0.00149,0,,,,,,stimuli/images/PICTURE_491.png,WRITER,5ea1950819664f04542a50bf,26/05/1940,2020-07-09_21h04.02.870,proactive,2020.1.2,Win32,60,5f073de81c76c3308c0e4fb3,5f077807b11b0f38bfc7eae0,4,,,,,,rug,,,,,,,,,,,6,0,0,8,8,57,1,,,,,,,,,,,,,,,,,,,,,,,,,,,,,,,,,,,,,,,,,,,,,,,,,,,,,,,,,,,,,,,,,,,,,,
,,?,0.001815,0,,,,,,stimuli/images/PICTURE_255.png,AREA,5ea1950819664f04542a50bf,26/05/1940,2020-07-09_21h04.02.870,proactive,2020.1.2,Win32,60,5f073de81c76c3308c0e4fb3,5f077807b11b0f38bfc7eae0,4,,,,,,shovel,,,,,,,,,,,3,0,0,9,9,22,1,,,,,,,,,,,,,,,,,,,,,,,,,,,,,,,,,,,,,,,,,,,,,,,,,,,,,,,,,,,,,,,,,,,,,,
,,CARS,9.683345,1,,,,,,stimuli/images/PICTURE_177.png,CARS,5ea1950819664f04542a50bf,26/05/1940,2020-07-09_21h04.02.870,proactive,2020.1.2,Win32,60,5f073de81c76c3308c0e4fb3,5f077807b11b0f38bfc7eae0,4,,,,,,mushroom,,,,,,,,,,,4,0,0,10,10,35,1,,,,,,,,,,,,,,,,,,,,,,,,,,,,,,,,,,,,,,,,,,,,,,,,,,,,,,,,,,,,,,,,,,,,,,
,,?,0.00117,0,,,,,,stimuli/images/PICTURE_667.png,BATH,5ea1950819664f04542a50bf,26/05/1940,2020-07-09_21h04.02.870,proactive,2020.1.2,Win32,60,5f073de81c76c3308c0e4fb3,5f077807b11b0f38bfc7eae0,4,,,,,,daisy,,,,,,,,,,,1,0,0,11,11,4,1,,,,,,,,,,,,,,,,,,,,,,,,,,,,,,,,,,,,,,,,,,,,,,,,,,,,,,,,,,,,,,,,,,,,,,
,,?,0.0019,0,,,,,,stimuli/images/PICTURE_314.png,SAKE,5ea1950819664f04542a50bf,26/05/1940,2020-07-09_21h04.02.870,proactive,2020.1.2,Win32,60,5f073de81c76c3308c0e4fb3,5f077807b11b0f38bfc7eae0,4,,,,,,perfume,,,,,,,,,,,1,0,0,12,12,7,1,,,,,,,,,,,,,,,,,,,,,,,,,,,,,,,,,,,,,,,,,,,,,,,,,,,,,,,,,,,,,,,,,,,,,,
,,?,0.00207,0,,,,,,stimuli/images/PICTURE_380.png,DEATH,5ea1950819664f04542a50bf,26/05/1940,2020-07-09_21h04.02.870,proactive,2020.1.2,Win32,60,5f073de81c76c3308c0e4fb3,5f077807b11b0f38bfc7eae0,4,,,,,,gorilla,,,,,,,,,,,5,0,0,13,13,49,1,,,,,,,,,,,,,,,,,,,,,,,,,,,,,,,,,,,,,,,,,,,,,,,,,,,,,,,,,,,,,,,,,,,,,,
,,?,0.00193,0,,,,,,stimuli/images/PICTURE_160.png,LEADER,5ea1950819664f04542a50bf,26/05/1940,2020-07-09_21h04.02.870,proactive,2020.1.2,Win32,60,5f073de81c76c3308c0e4fb3,5f077807b11b0f38bfc7eae0,4,,,,,,wheelbarrow,,,,,,,,,,,1,0,0,14,14,3,1,,,,,,,,,,,,,,,,,,,,,,,,,,,,,,,,,,,,,,,,,,,,,,,,,,,,,,,,,,,,,,,,,,,,,,
,,?,0.00195,0,,,,,,stimuli/images/PICTURE_744.png,SAKE,5ea1950819664f04542a50bf,26/05/1940,2020-07-09_21h04.02.870,proactive,2020.1.2,Win32,60,5f073de81c76c3308c0e4fb3,5f077807b11b0f38bfc7eae0,4,,,,,,ring,,,,,,,,,,,2,0,0,15,15,17,1,,,,,,,,,,,,,,,,,,,,,,,,,,,,,,,,,,,,,,,,,,,,,,,,,,,,,,,,,,,,,,,,,,,,,,
,,?,7.38872,0,,,,,,stimuli/images/PICTURE_311.png,FRIEND,5ea1950819664f04542a50bf,26/05/1940,2020-07-09_21h04.02.870,proactive,2020.1.2,Win32,60,5f073de81c76c3308c0e4fb3,5f077807b11b0f38bfc7eae0,4,,,,,,razor,,,,,,,,,,,4,0,0,16,16,34,1,,,,,,,,,,,,,,,,,,,,,,,,,,,,,,,,,,,,,,,,,,,,,,,,,,,,,,,,,,,,,,,,,,,,,,
,,?,0.004985,0,,,,,,stimuli/images/PICTURE_467.png,DEMON,5ea1950819664f04542a50bf,26/05/1940,2020-07-09_21h04.02.870,proactive,2020.1.2,Win32,60,5f073de81c76c3308c0e4fb3,5f077807b11b0f38bfc7eae0,4,,,,,,peg,,,,,,,,,,,3,0,0,17,17,23,1,,,,,,,,,,,,,,,,,,,,,,,,,,,,,,,,,,,,,,,,,,,,,,,,,,,,,,,,,,,,,,,,,,,,,,
,,?,0.0011,0,,,,,,stimuli/images/PICTURE_302.png,FAMILY,5ea1950819664f04542a50bf,26/05/1940,2020-07-09_21h04.02.870,proactive,2020.1.2,Win32,60,5f073de81c76c3308c0e4fb3,5f077807b11b0f38bfc7eae0,4,,,,,,taxi,,,,,,,,,,,2,0,0,18,18,18,1,,,,,,,,,,,,,,,,,,,,,,,,,,,,,,,,,,,,,,,,,,,,,,,,,,,,,,,,,,,,,,,,,,,,,,
,,?,0.00122,0,,,,,,stimuli/images/PICTURE_744.png,SYSTEM,5ea1950819664f04542a50bf,26/05/1940,2020-07-09_21h04.02.870,proactive,2020.1.2,Win32,60,5f073de81c76c3308c0e4fb3,5f077807b11b0f38bfc7eae0,4,,,,,,ring,,,,,,,,,,,5,0,0,19,19,43,1,,,,,,,,,,,,,,,,,,,,,,,,,,,,,,,,,,,,,,,,,,,,,,,,,,,,,,,,,,,,,,,,,,,,,,
,,?,0.00143,0,,,,,,stimuli/images/PICTURE_123.png,ADVICE,5ea1950819664f04542a50bf,26/05/1940,2020-07-09_21h04.02.870,proactive,2020.1.2,Win32,60,5f073de81c76c3308c0e4fb3,5f077807b11b0f38bfc7eae0,4,,,,,,dart,,,,,,,,,,,5,0,0,20,20,40,1,,,,,,,,,,,,,,,,,,,,,,,,,,,,,,,,,,,,,,,,,,,,,,,,,,,,,,,,,,,,,,,,,,,,,,
,,?,0.00138,0,,,,,,stimuli/images/PICTURE_160.png,FEET,5ea1950819664f04542a50bf,26/05/1940,2020-07-09_21h04.02.870,proactive,2020.1.2,Win32,60,5f073de81c76c3308c0e4fb3,5f077807b11b0f38bfc7eae0,4,,,,,,wheelbarrow,,,,,,,,,,,6,0,0,21,21,58,1,,,,,,,,,,,,,,,,,,,,,,,,,,,,,,,,,,,,,,,,,,,,,,,,,,,,,,,,,,,,,,,,,,,,,,
,,?,0.001195,0,,,,,,stimuli/images/PICTURE_233.png,IDEAS,5ea1950819664f04542a50bf,26/05/1940,2020-07-09_21h04.02.870,proactive,2020.1.2,Win32,60,5f073de81c76c3308c0e4fb3,5f077807b11b0f38bfc7eae0,4,,,,,,salt,,,,,,,,,,,3,0,0,22,22,28,1,,,,,,,,,,,,,,,,,,,,,,,,,,,,,,,,,,,,,,,,,,,,,,,,,,,,,,,,,,,,,,,,,,,,,,
,,?,0.001325,0,,,,,,stimuli/images/PICTURE_688.png,WOMEN,5ea1950819664f04542a50bf,26/05/1940,2020-07-09_21h04.02.870,proactive,2020.1.2,Win32,60,5f073de81c76c3308c0e4fb3,5f077807b11b0f38bfc7eae0,4,,,,,,runner,,,,,,,,,,,2,0,0,23,23,14,1,,,,,,,,,,,,,,,,,,,,,,,,,,,,,,,,,,,,,,,,,,,,,,,,,,,,,,,,,,,,,,,,,,,,,,
,,?,0.00131,0,,,,,,stimuli/images/PICTURE_32.png,JUNGLE,5ea1950819664f04542a50bf,26/05/1940,2020-07-09_21h04.02.870,proactive,2020.1.2,Win32,60,5f073de81c76c3308c0e4fb3,5f077807b11b0f38bfc7eae0,4,,,,,,crown,,,,,,,,,,,5,0,0,24,24,45,1,,,,,,,,,,,,,,,,,,,,,,,,,,,,,,,,,,,,,,,,,,,,,,,,,,,,,,,,,,,,,,,,,,,,,,
,,?,0.001725,0,,,,,,stimuli/images/PICTURE_208.png,LOTS,5ea1950819664f04542a50bf,26/05/1940,2020-07-09_21h04.02.870,proactive,2020.1.2,Win32,60,5f073de81c76c3308c0e4fb3,5f077807b11b0f38bfc7eae0,4,,,,,,microphone,,,,,,,,,,,2,0,0,25,25,10,1,,,,,,,,,,,,,,,,,,,,,,,,,,,,,,,,,,,,,,,,,,,,,,,,,,,,,,,,,,,,,,,,,,,,,,
,,?,0.001265,0,,,,,,stimuli/images/PICTURE_708.png,YARD,5ea1950819664f04542a50bf,26/05/1940,2020-07-09_21h04.02.870,proactive,2020.1.2,Win32,60,5f073de81c76c3308c0e4fb3,5f077807b11b0f38bfc7eae0,4,,,,,,monkey,,,,,,,,,,,3,0,0,26,26,29,1,,,,,,,,,,,,,,,,,,,,,,,,,,,,,,,,,,,,,,,,,,,,,,,,,,,,,,,,,,,,,,,,,,,,,,
,,?,0.001655,0,,,,,,stimuli/images/PICTURE_469.png,LETTER,5ea1950819664f04542a50bf,26/05/1940,2020-07-09_21h04.02.870,proactive,2020.1.2,Win32,60,5f073de81c76c3308c0e4fb3,5f077807b11b0f38bfc7eae0,4,,,,,,stool,,,,,,,,,,,5,0,0,27,27,42,1,,,,,,,,,,,,,,,,,,,,,,,,,,,,,,,,,,,,,,,,,,,,,,,,,,,,,,,,,,,,,,,,,,,,,,
,,?,0.001335,0,,,,,,stimuli/images/PICTURE_208.png,MONTH,5ea1950819664f04542a50bf,26/05/1940,2020-07-09_21h04.02.870,proactive,2020.1.2,Win32,60,5f073de81c76c3308c0e4fb3,5f077807b11b0f38bfc7eae0,4,,,,,,microphone,,,,,,,,,,,6,0,0,28,28,53,1,,,,,,,,,,,,,,,,,,,,,,,,,,,,,,,,,,,,,,,,,,,,,,,,,,,,,,,,,,,,,,,,,,,,,,
,,?,0.00148,0,,,,,,stimuli/images/PICTURE_151.png,GIRL,5ea1950819664f04542a50bf,26/05/1940,2020-07-09_21h04.02.870,proactive,2020.1.2,Win32,60,5f073de81c76c3308c0e4fb3,5f077807b11b0f38bfc7eae0,4,,,,,,tray,,,,,,,,,,,2,0,0,29,29,19,1,,,,,,,,,,,,,,,,,,,,,,,,,,,,,,,,,,,,,,,,,,,,,,,,,,,,,,,,,,,,,,,,,,,,,,
,,WEAPON,8.40214,1,,,,,,stimuli/images/PICTURE_675.png,WEAPON,5ea1950819664f04542a50bf,26/05/1940,2020-07-09_21h04.02.870,proactive,2020.1.2,Win32,60,5f073de81c76c3308c0e4fb3,5f077807b11b0f38bfc7eae0,4,,,,,,windmill,,,,,,,,,,,4,0,0,30,30,32,1,,,,,,,,,,,,,,,,,,,,,,,,,,,,,,,,,,,,,,,,,,,,,,,,,,,,,,,,,,,,,,,,,,,,,,
,,PLENTY,9.514655,1,,,,,,stimuli/images/PICTURE_215.png,PLENTY,5ea1950819664f04542a50bf,26/05/1940,2020-07-09_21h04.02.870,proactive,2020.1.2,Win32,60,5f073de81c76c3308c0e4fb3,5f077807b11b0f38bfc7eae0,4,,,,,,boot,,,,,,,,,,,4,0,0,31,31,37,1,,,,,,,,,,,,,,,,,,,,,,,,,,,,,,,,,,,,,,,,,,,,,,,,,,,,,,,,,,,,,,,,,,,,,,
,,?,0.00214,0,,,,,,stimuli/images/PICTURE_449.png,THING,5ea1950819664f04542a50bf,26/05/1940,2020-07-09_21h04.02.870,proactive,2020.1.2,Win32,60,5f073de81c76c3308c0e4fb3,5f077807b11b0f38bfc7eae0,4,,,,,,bench,,,,,,,,,,,6,0,0,32,32,59,1,,,,,,,,,,,,,,,,,,,,,,,,,,,,,,,,,,,,,,,,,,,,,,,,,,,,,,,,,,,,,,,,,,,,,,
,,PENNY,6.6264,1,,,,,,stimuli/images/PICTURE_708.png,PENNY,5ea1950819664f04542a50bf,26/05/1940,2020-07-09_21h04.02.870,proactive,2020.1.2,Win32,60,5f073de81c76c3308c0e4fb3,5f077807b11b0f38bfc7eae0,4,,,,,,monkey,,,,,,,,,,,4,0,0,33,33,31,1,,,,,,,,,,,,,,,,,,,,,,,,,,,,,,,,,,,,,,,,,,,,,,,,,,,,,,,,,,,,,,,,,,,,,,
,,?,0.001085,0,,,,,,stimuli/images/PICTURE_208.png,THING,5ea1950819664f04542a50bf,26/05/1940,2020-07-09_21h04.02.870,proactive,2020.1.2,Win32,60,5f073de81c76c3308c0e4fb3,5f077807b11b0f38bfc7eae0,4,,,,,,microphone,,,,,,,,,,,5,0,0,34,34,47,1,,,,,,,,,,,,,,,,,,,,,,,,,,,,,,,,,,,,,,,,,,,,,,,,,,,,,,,,,,,,,,,,,,,,,,
,,?,0.001575,0,,,,,,stimuli/images/PICTURE_667.png,PLENTY,5ea1950819664f04542a50bf,26/05/1940,2020-07-09_21h04.02.870,proactive,2020.1.2,Win32,60,5f073de81c76c3308c0e4fb3,5f077807b11b0f38bfc7eae0,4,,,,,,daisy,,,,,,,,,,,5,0,0,35,35,41,1,,,,,,,,,,,,,,,,,,,,,,,,,,,,,,,,,,,,,,,,,,,,,,,,,,,,,,,,,,,,,,,,,,,,,,
,,?,0.001535,0,,,,,,stimuli/images/PICTURE_348.png,SPEECH,5ea1950819664f04542a50bf,26/05/1940,2020-07-09_21h04.02.870,proactive,2020.1.2,Win32,60,5f073de81c76c3308c0e4fb3,5f077807b11b0f38bfc7eae0,4,,,,,,pepper,,,,,,,,,,,3,0,0,36,36,20,1,,,,,,,,,,,,,,,,,,,,,,,,,,,,,,,,,,,,,,,,,,,,,,,,,,,,,,,,,,,,,,,,,,,,,,
,,?,0.00464,0,,,,,,stimuli/images/PICTURE_654.png,VALLEY,5ea1950819664f04542a50bf,26/05/1940,2020-07-09_21h04.02.870,proactive,2020.1.2,Win32,60,5f073de81c76c3308c0e4fb3,5f077807b11b0f38bfc7eae0,4,,,,,,pencil,,,,,,,,,,,1,0,0,37,37,1,1,,,,,,,,,,,,,,,,,,,,,,,,,,,,,,,,,,,,,,,,,,,,,,,,,,,,,,,,,,,,,,,,,,,,,,
,,MILE,7.180215,1,,,,,,stimuli/images/PICTURE_677.png,MILE,5ea1950819664f04542a50bf,26/05/1940,2020-07-09_21h04.02.870,proactive,2020.1.2,Win32,60,5f073de81c76c3308c0e4fb3,5f077807b11b0f38bfc7eae0,4,,,,,,map,,,,,,,,,,,4,0,0,38,38,30,1,,,,,,,,,,,,,,,,,,,,,,,,,,,,,,,,,,,,,,,,,,,,,,,,,,,,,,,,,,,,,,,,,,,,,,
,,?,0.00117,0,,,,,,stimuli/images/PICTURE_147.png,MOMENT,5ea1950819664f04542a50bf,26/05/1940,2020-07-09_21h04.02.870,proactive,2020.1.2,Win32,60,5f073de81c76c3308c0e4fb3,5f077807b11b0f38bfc7eae0,4,,,,,,hanger,,,,,,,,,,,6,0,0,39,39,51,1,,,,,,,,,,,,,,,,,,,,,,,,,,,,,,,,,,,,,,,,,,,,,,,,,,,,,,,,,,,,,,,,,,,,,,
,,?,0.0015,0,,,,,,stimuli/images/PICTURE_692.png,MONTH,5ea1950819664f04542a50bf,26/05/1940,2020-07-09_21h04.02.870,proactive,2020.1.2,Win32,60,5f073de81c76c3308c0e4fb3,5f077807b11b0f38bfc7eae0,4,,,,,,cherry,,,,,,,,,,,2,0,0,40,40,16,1,,,,,,,,,,,,,,,,,,,,,,,,,,,,,,,,,,,,,,,,,,,,,,,,,,,,,,,,,,,,,,,,,,,,,,
,,?,0.001165,0,,,,,,stimuli/images/PICTURE_708.png,CLIENT,5ea1950819664f04542a50bf,26/05/1940,2020-07-09_21h04.02.870,proactive,2020.1.2,Win32,60,5f073de81c76c3308c0e4fb3,5f077807b11b0f38bfc7eae0,4,,,,,,monkey,,,,,,,,,,,1,0,0,41,41,5,1,,,,,,,,,,,,,,,,,,,,,,,,,,,,,,,,,,,,,,,,,,,,,,,,,,,,,,,,,,,,,,,,,,,,,,
,,?,0.001195,0,,,,,,stimuli/images/PICTURE_68.png,MILE,5ea1950819664f04542a50bf,26/05/1940,2020-07-09_21h04.02.870,proactive,2020.1.2,Win32,60,5f073de81c76c3308c0e4fb3,5f077807b11b0f38bfc7eae0,4,,,,,,candle,,,,,,,,,,,5,0,0,42,42,44,1,,,,,,,,,,,,,,,,,,,,,,,,,,,,,,,,,,,,,,,,,,,,,,,,,,,,,,,,,,,,,,,,,,,,,,
,,?,0.00178,0,,,,,,stimuli/images/PICTURE_509.png,PHOTO,5ea1950819664f04542a50bf,26/05/1940,2020-07-09_21h04.02.870,proactive,2020.1.2,Win32,60,5f073de81c76c3308c0e4fb3,5f077807b11b0f38bfc7eae0,4,,,,,,telephone,,,,,,,,,,,3,0,0,43,43,21,1,,,,,,,,,,,,,,,,,,,,,,,,,,,,,,,,,,,,,,,,,,,,,,,,,,,,,,,,,,,,,,,,,,,,,,
,,?,0.00116,0,,,,,,stimuli/images/PICTURE_285.png,ADVICE,5ea1950819664f04542a50bf,26/05/1940,2020-07-09_21h04.02.870,proactive,2020.1.2,Win32,60,5f073de81c76c3308c0e4fb3,5f077807b11b0f38bfc7eae0,4,,,,,,carrot,,,,,,,,,,,2,0,0,44,44,12,1,,,,,,,,,,,,,,,,,,,,,,,,,,,,,,,,,,,,,,,,,,,,,,,,,,,,,,,,,,,,,,,,,,,,,,
,,?,0.00142,0,,,,,,stimuli/images/PICTURE_688.png,CASINO,5ea1950819664f04542a50bf,26/05/1940,2020-07-09_21h04.02.870,proactive,2020.1.2,Win32,60,5f073de81c76c3308c0e4fb3,5f077807b11b0f38bfc7eae0,4,,,,,,runner,,,,,,,,,,,1,0,0,45,45,2,1,,,,,,,,,,,,,,,,,,,,,,,,,,,,,,,,,,,,,,,,,,,,,,,,,,,,,,,,,,,,,,,,,,,,,,
,,?,0.00121,0,,,,,,stimuli/images/PICTURE_491.png,ROOF,5ea1950819664f04542a50bf,26/05/1940,2020-07-09_21h04.02.870,proactive,2020.1.2,Win32,60,5f073de81c76c3308c0e4fb3,5f077807b11b0f38bfc7eae0,4,,,,,,rug,,,,,,,,,,,3,0,0,46,46,24,1,,,,,,,,,,,,,,,,,,,,,,,,,,,,,,,,,,,,,,,,,,,,,,,,,,,,,,,,,,,,,,,,,,,,,,
,,?,0.00148,0,,,,,,stimuli/images/PICTURE_85.png,THING,5ea1950819664f04542a50bf,26/05/1940,2020-07-09_21h04.02.870,proactive,2020.1.2,Win32,60,5f073de81c76c3308c0e4fb3,5f077807b11b0f38bfc7eae0,4,,,,,,diamond,,,,,,,,,,,2,0,0,47,47,15,1,,,,,,,,,,,,,,,,,,,,,,,,,,,,,,,,,,,,,,,,,,,,,,,,,,,,,,,,,,,,,,,,,,,,,,
,,?,0.00129,0,,,,,,stimuli/images/PICTURE_339.png,PLENTY,5ea1950819664f04542a50bf,26/05/1940,2020-07-09_21h04.02.870,proactive,2020.1.2,Win32,60,5f073de81c76c3308c0e4fb3,5f077807b11b0f38bfc7eae0,4,,,,,,backpack,,,,,,,,,,,1,0,0,48,48,0,1,,,,,,,,,,,,,,,,,,,,,,,,,,,,,,,,,,,,,,,,,,,,,,,,,,,,,,,,,,,,,,,,,,,,,,
,,BOY,14.82983,0,,,,,,stimuli/images/PICTURE_470.png,CASINO,5ea1950819664f04542a50bf,26/05/1940,2020-07-09_21h04.02.870,proactive,2020.1.2,Win32,60,5f073de81c76c3308c0e4fb3,5f077807b11b0f38bfc7eae0,4,,,,,,motorbike,,,,,,,,,,,4,0,0,49,49,36,1,,,,,,,,,,,,,,,,,,,,,,,,,,,,,,,,,,,,,,,,,,,,,,,,,,,,,,,,,,,,,,,,,,,,,,
,,?,0.00183,0,,,,,,stimuli/images/PICTURE_95.png,STYLE,5ea1950819664f04542a50bf,26/05/1940,2020-07-09_21h04.02.870,proactive,2020.1.2,Win32,60,5f073de81c76c3308c0e4fb3,5f077807b11b0f38bfc7eae0,4,,,,,,suitcase,,,,,,,,,,,3,0,0,50,50,25,1,,,,,,,,,,,,,,,,,,,,,,,,,,,,,,,,,,,,,,,,,,,,,,,,,,,,,,,,,,,,,,,,,,,,,,
,,?,0.00113,0,,,,,,stimuli/images/PICTURE_314.png,GODS,5ea1950819664f04542a50bf,26/05/1940,2020-07-09_21h04.02.870,proactive,2020.1.2,Win32,60,5f073de81c76c3308c0e4fb3,5f077807b11b0f38bfc7eae0,4,,,,,,perfume,,,,,,,,,,,2,0,0,51,51,11,1,,,,,,,,,,,,,,,,,,,,,,,,,,,,,,,,,,,,,,,,,,,,,,,,,,,,,,,,,,,,,,,,,,,,,,
,,?,0.001155,0,,,,,,stimuli/images/PICTURE_504.png,BODY,5ea1950819664f04542a50bf,26/05/1940,2020-07-09_21h04.02.870,proactive,2020.1.2,Win32,60,5f073de81c76c3308c0e4fb3,5f077807b11b0f38bfc7eae0,4,,,,,,wheel,,,,,,,,,,,1,0,0,52,52,8,1,,,,,,,,,,,,,,,,,,,,,,,,,,,,,,,,,,,,,,,,,,,,,,,,,,,,,,,,,,,,,,,,,,,,,,
,,?,0.00114,0,,,,,,stimuli/images/PICTURE_327.png,BEAUTY,5ea1950819664f04542a50bf,26/05/1940,2020-07-09_21h04.02.870,proactive,2020.1.2,Win32,60,5f073de81c76c3308c0e4fb3,5f077807b11b0f38bfc7eae0,4,,,,,,helmet,,,,,,,,,,,5,0,0,53,53,48,1,,,,,,,,,,,,,,,,,,,,,,,,,,,,,,,,,,,,,,,,,,,,,,,,,,,,,,,,,,,,,,,,,,,,,,
,,WOMAN,10.66869,0,,,,,,stimuli/images/PICTURE_233.png,WOMEN,5ea1950819664f04542a50bf,26/05/1940,2020-07-09_21h04.02.870,proactive,2020.1.2,Win32,60,5f073de81c76c3308c0e4fb3,5f077807b11b0f38bfc7eae0,4,,,,,,salt,,,,,,,,,,,4,0,0,54,54,38,1,,,,,,,,,,,,,,,,,,,,,,,,,,,,,,,,,,,,,,,,,,,,,,,,,,,,,,,,,,,,,,,,,,,,,,
,,?,0.00138,0,,,,,,stimuli/images/PICTURE_308.png,ESTATE,5ea1950819664f04542a50bf,26/05/1940,2020-07-09_21h04.02.870,proactive,2020.1.2,Win32,60,5f073de81c76c3308c0e4fb3,5f077807b11b0f38bfc7eae0,4,,,,,,dice,,,,,,,,,,,5,0,0,55,55,46,1,,,,,,,,,,,,,,,,,,,,,,,,,,,,,,,,,,,,,,,,,,,,,,,,,,,,,,,,,,,,,,,,,,,,,,
,,?,0.001475,0,,,,,,stimuli/images/PICTURE_356.png,DANGER,5ea1950819664f04542a50bf,26/05/1940,2020-07-09_21h04.02.870,proactive,2020.1.2,Win32,60,5f073de81c76c3308c0e4fb3,5f077807b11b0f38bfc7eae0,4,,,,,,pawn,,,,,,,,,,,6,0,0,56,56,55,1,,,,,,,,,,,,,,,,,,,,,,,,,,,,,,,,,,,,,,,,,,,,,,,,,,,,,,,,,,,,,,,,,,,,,,
,,DOZEN,11.25853,1,,,,,,stimuli/images/PICTURE_248.png,DOZEN,5ea1950819664f04542a50bf,26/05/1940,2020-07-09_21h04.02.870,proactive,2020.1.2,Win32,60,5f073de81c76c3308c0e4fb3,5f077807b11b0f38bfc7eae0,4,,,,,,cart,,,,,,,,,,,4,0,0,57,57,39,1,,,,,,,,,,,,,,,,,,,,,,,,,,,,,,,,,,,,,,,,,,,,,,,,,,,,,,,,,,,,,,,,,,,,,,
,,STYLE,9.61585,1,,,,,,stimuli/images/PICTURE_488.png,STYLE,5ea1950819664f04542a50bf,26/05/1940,2020-07-09_21h04.02.870,proactive,2020.1.2,Win32,60,5f073de81c76c3308c0e4fb3,5f077807b11b0f38bfc7eae0,4,,,,,,sun,,,,,,,,,,,4,0,0,58,58,33,1,,,,,,,,,,,,,,,,,,,,,,,,,,,,,,,,,,,,,,,,,,,,,,,,,,,,,,,,,,,,,,,,,,,,,,
,,?,0.0013,0,,,,,,stimuli/images/PICTURE_308.png,KIND,5ea1950819664f04542a50bf,26/05/1940,2020-07-09_21h04.02.870,proactive,2020.1.2,Win32,60,5f073de81c76c3308c0e4fb3,5f077807b11b0f38bfc7eae0,4,,,,,,dice,,,,,,,,,,,6,0,0,59,59,54,1,,,,,,,,,,,,,,,,,,,,,,,,,,,,,,,,,,,,,,,,,,,,,,,,,,,,,,,,,,,,,,,,,,,,,,
,,,,,,,,,,,,5ea1950819664f04542a50bf,26/05/1940,2020-07-09_21h04.02.870,proactive,2020.1.2,Win32,60,5f073de81c76c3308c0e4fb3,5f077807b11b0f38bfc7eae0,4,,,,,,,,,,,,,,,,,,,,,,,,0,1,1,0,1,stimuli/learn-block1.csv,,,,,,,,,,,,,,,,,,,,,,,,,,,,,,,,,,,,,,,,,,,,,,,,,,,,,,,,,,,,,,,,
,,,,,,,,,,stimuli/images/PICTURE_2.png,AREA,5ea1950819664f04542a50bf,26/05/1940,2020-07-09_21h04.02.870,proactive,2020.1.2,Win32,60,5f073de81c76c3308c0e4fb3,5f077807b11b0f38bfc7eae0,4,,,,,,tyre,,,,,,0,0,0,32,1,4,2,,,,,,,,,,,,,,,,,,,,,,,,,,,,,,,,,,,,,,,,,,,,,,,,,,,,,,,,,,,,,,,,,,,,,,,,,,,
,,,,,,,,,,stimuli/images/PICTURE_215.png,BOYS,5ea1950819664f04542a50bf,26/05/1940,2020-07-09_21h04.02.870,proactive,2020.1.2,Win32,60,5f073de81c76c3308c0e4fb3,5f077807b11b0f38bfc7eae0,4,,,,,,boot,,,,,,0,1,1,24,1,3,2,,,,,,,,,,,,,,,,,,,,,,,,,,,,,,,,,,,,,,,,,,,,,,,,,,,,,,,,,,,,,,,,,,,,,,,,,,,
,,,,,,,,,,stimuli/images/PICTURE_311.png,TOILET,5ea1950819664f04542a50bf,26/05/1940,2020-07-09_21h04.02.870,proactive,2020.1.2,Win32,60,5f073de81c76c3308c0e4fb3,5f077807b11b0f38bfc7eae0,4,,,,,,razor,,,,,,0,2,2,54,1,6,2,,,,,,,,,,,,,,,,,,,,,,,,,,,,,,,,,,,,,,,,,,,,,,,,,,,,,,,,,,,,,,,,,,,,,,,,,,,
,,,,,,,,,,stimuli/images/PICTURE_285.png,WRITER,5ea1950819664f04542a50bf,26/05/1940,2020-07-09_21h04.02.870,proactive,2020.1.2,Win32,60,5f073de81c76c3308c0e4fb3,5f077807b11b0f38bfc7eae0,4,,,,,,carrot,,,,,,0,3,3,6,1,1,2,,,,,,,,,,,,,,,,,,,,,,,,,,,,,,,,,,,,,,,,,,,,,,,,,,,,,,,,,,,,,,,,,,,,,,,,,,,
,,,,,,,,,,stimuli/images/PICTURE_311.png,FLESH,5ea1950819664f04542a50bf,26/05/1940,2020-07-09_21h04.02.870,proactive,2020.1.2,Win32,60,5f073de81c76c3308c0e4fb3,5f077807b11b0f38bfc7eae0,4,,,,,,razor,,,,,,0,4,4,3,1,1,2,,,,,,,,,,,,,,,,,,,,,,,,,,,,,,,,,,,,,,,,,,,,,,,,,,,,,,,,,,,,,,,,,,,,,,,,,,,
,,,,,,,,,,stimuli/images/PICTURE_348.png,TOILET,5ea1950819664f04542a50bf,26/05/1940,2020-07-09_21h04.02.870,proactive,2020.1.2,Win32,60,5f073de81c76c3308c0e4fb3,5f077807b11b0f38bfc7eae0,4,,,,,,pepper,,,,,,0,5,5,4,1,1,2,,,,,,,,,,,,,,,,,,,,,,,,,,,,,,,,,,,,,,,,,,,,,,,,,,,,,,,,,,,,,,,,,,,,,,,,,,,
,,,,,,,,,,stimuli/images/PICTURE_405.png,JUNGLE,5ea1950819664f04542a50bf,26/05/1940,2020-07-09_21h04.02.870,proactive,2020.1.2,Win32,60,5f073de81c76c3308c0e4fb3,5f077807b11b0f38bfc7eae0,4,,,,,,anchor,,,,,,0,6,6,58,1,6,2,,,,,,,,,,,,,,,,,,,,,,,,,,,,,,,,,,,,,,,,,,,,,,,,,,,,,,,,,,,,,,,,,,,,,,,,,,,
,,,,,,,,,,stimuli/images/PICTURE_708.png,VALLEY,5ea1950819664f04542a50bf,26/05/1940,2020-07-09_21h04.02.870,proactive,2020.1.2,Win32,60,5f073de81c76c3308c0e4fb3,5f077807b11b0f38bfc7eae0,4,,,,,,monkey,,,,,,0,7,7,45,1,5,2,,,,,,,,,,,,,,,,,,,,,,,,,,,,,,,,,,,,,,,,,,,,,,,,,,,,,,,,,,,,,,,,,,,,,,,,,,,
,,,,,,,,,,stimuli/images/PICTURE_564.png,PLENTY,5ea1950819664f04542a50bf,26/05/1940,2020-07-09_21h04.02.870,proactive,2020.1.2,Win32,60,5f073de81c76c3308c0e4fb3,5f077807b11b0f38bfc7eae0,4,,,,,,spoon,,,,,,0,8,8,11,1,2,2,,,,,,,,,,,,,,,,,,,,,,,,,,,,,,,,,,,,,,,,,,,,,,,,,,,,,,,,,,,,,,,,,,,,,,,,,,,
,,,,,,,,,,stimuli/images/PICTURE_123.png,SALE,5ea1950819664f04542a50bf,26/05/1940,2020-07-09_21h04.02.870,proactive,2020.1.2,Win32,60,5f073de81c76c3308c0e4fb3,5f077807b11b0f38bfc7eae0,4,,,,,,dart,,,,,,0,9,9,8,1,1,2,,,,,,,,,,,,,,,,,,,,,,,,,,,,,,,,,,,,,,,,,,,,,,,,,,,,,,,,,,,,,,,,,,,,,,,,,,,
,,,,,,,,,,stimuli/images/PICTURE_692.png,DUDE,5ea1950819664f04542a50bf,26/05/1940,2020-07-09_21h04.02.870,proactive,2020.1.2,Win32,60,5f073de81c76c3308c0e4fb3,5f077807b11b0f38bfc7eae0,4,,,,,,cherry,,,,,,0,10,10,47,1,5,2,,,,,,,,,,,,,,,,,,,,,,,,,,,,,,,,,,,,,,,,,,,,,,,,,,,,,,,,,,,,,,,,,,,,,,,,,,,
,,,,,,,,,,stimuli/images/PICTURE_255.png,PENNY,5ea1950819664f04542a50bf,26/05/1940,2020-07-09_21h04.02.870,proactive,2020.1.2,Win32,60,5f073de81c76c3308c0e4fb3,5f077807b11b0f38bfc7eae0,4,,,,,,shovel,,,,,,0,11,11,19,1,2,2,,,,,,,,,,,,,,,,,,,,,,,,,,,,,,,,,,,,,,,,,,,,,,,,,,,,,,,,,,,,,,,,,,,,,,,,,,,
,,,,,,,,,,stimuli/images/PICTURE_509.png,BATH,5ea1950819664f04542a50bf,26/05/1940,2020-07-09_21h04.02.870,proactive,2020.1.2,Win32,60,5f073de81c76c3308c0e4fb3,5f077807b11b0f38bfc7eae0,4,,,,,,telephone,,,,,,0,12,12,15,1,2,2,,,,,,,,,,,,,,,,,,,,,,,,,,,,,,,,,,,,,,,,,,,,,,,,,,,,,,,,,,,,,,,,,,,,,,,,,,,
,,,,,,,,,,stimuli/images/PICTURE_677.png,PHOTO,5ea1950819664f04542a50bf,26/05/1940,2020-07-09_21h04.02.870,proactive,2020.1.2,Win32,60,5f073de81c76c3308c0e4fb3,5f077807b11b0f38bfc7eae0,4,,,,,,map,,,,,,0,13,13,14,1,2,2,,,,,,,,,,,,,,,,,,,,,,,,,,,,,,,,,,,,,,,,,,,,,,,,,,,,,,,,,,,,,,,,,,,,,,,,,,,
,,,,,,,,,,stimuli/images/PICTURE_403.png,FAMILY,5ea1950819664f04542a50bf,26/05/1940,2020-07-09_21h04.02.870,proactive,2020.1.2,Win32,60,5f073de81c76c3308c0e4fb3,5f077807b11b0f38bfc7eae0,4,,,,,,cathedral,,,,,,0,14,14,9,1,1,2,,,,,,,,,,,,,,,,,,,,,,,,,,,,,,,,,,,,,,,,,,,,,,,,,,,,,,,,,,,,,,,,,,,,,,,,,,,
,,,,,,,,,,stimuli/images/PICTURE_93.png,GIRL,5ea1950819664f04542a50bf,26/05/1940,2020-07-09_21h04.02.870,proactive,2020.1.2,Win32,60,5f073de81c76c3308c0e4fb3,5f077807b11b0f38bfc7eae0,4,,,,,,skateboard,,,,,,0,15,15,31,1,4,2,,,,,,,,,,,,,,,,,,,,,,,,,,,,,,,,,,,,,,,,,,,,,,,,,,,,,,,,,,,,,,,,,,,,,,,,,,,
,,,,,,,,,,stimuli/images/PICTURE_208.png,SPIRIT,5ea1950819664f04542a50bf,26/05/1940,2020-07-09_21h04.02.870,proactive,2020.1.2,Win32,60,5f073de81c76c3308c0e4fb3,5f077807b11b0f38bfc7eae0,4,,,,,,microphone,,,,,,0,16,16,28,1,3,2,,,,,,,,,,,,,,,,,,,,,,,,,,,,,,,,,,,,,,,,,,,,,,,,,,,,,,,,,,,,,,,,,,,,,,,,,,,
,,,,,,,,,,stimuli/images/PICTURE_688.png,CLOCK,5ea1950819664f04542a50bf,26/05/1940,2020-07-09_21h04.02.870,proactive,2020.1.2,Win32,60,5f073de81c76c3308c0e4fb3,5f077807b11b0f38bfc7eae0,4,,,,,,runner,,,,,,0,17,17,42,1,5,2,,,,,,,,,,,,,,,,,,,,,,,,,,,,,,,,,,,,,,,,,,,,,,,,,,,,,,,,,,,,,,,,,,,,,,,,,,,
,,,,,,,,,,stimuli/images/PICTURE_327.png,LEADER,5ea1950819664f04542a50bf,26/05/1940,2020-07-09_21h04.02.870,proactive,2020.1.2,Win32,60,5f073de81c76c3308c0e4fb3,5f077807b11b0f38bfc7eae0,4,,,,,,helmet,,,,,,0,18,18,17,1,2,2,,,,,,,,,,,,,,,,,,,,,,,,,,,,,,,,,,,,,,,,,,,,,,,,,,,,,,,,,,,,,,,,,,,,,,,,,,,
,,,,,,,,,,stimuli/images/PICTURE_677.png,FAMILY,5ea1950819664f04542a50bf,26/05/1940,2020-07-09_21h04.02.870,proactive,2020.1.2,Win32,60,5f073de81c76c3308c0e4fb3,5f077807b11b0f38bfc7eae0,4,,,,,,map,,,,,,0,19,19,53,1,6,2,,,,,,,,,,,,,,,,,,,,,,,,,,,,,,,,,,,,,,,,,,,,,,,,,,,,,,,,,,,,,,,,,,,,,,,,,,,
,,,,,,,,,,stimuli/images/PICTURE_491.png,SERIES,5ea1950819664f04542a50bf,26/05/1940,2020-07-09_21h04.02.870,proactive,2020.1.2,Win32,60,5f073de81c76c3308c0e4fb3,5f077807b11b0f38bfc7eae0,4,,,,,,rug,,,,,,0,20,20,39,1,4,2,,,,,,,,,,,,,,,,,,,,,,,,,,,,,,,,,,,,,,,,,,,,,,,,,,,,,,,,,,,,,,,,,,,,,,,,,,,
,,,,,,,,,,stimuli/images/PICTURE_504.png,HOUSE,5ea1950819664f04542a50bf,26/05/1940,2020-07-09_21h04.02.870,proactive,2020.1.2,Win32,60,5f073de81c76c3308c0e4fb3,5f077807b11b0f38bfc7eae0,4,,,,,,wheel,,,,,,0,21,21,36,1,4,2,,,,,,,,,,,,,,,,,,,,,,,,,,,,,,,,,,,,,,,,,,,,,,,,,,,,,,,,,,,,,,,,,,,,,,,,,,,
,,,,,,,,,,stimuli/images/PICTURE_453.png,FAMILY,5ea1950819664f04542a50bf,26/05/1940,2020-07-09_21h04.02.870,proactive,2020.1.2,Win32,60,5f073de81c76c3308c0e4fb3,5f077807b11b0f38bfc7eae0,4,,,,,,scissors,,,,,,0,22,22,48,1,5,2,,,,,,,,,,,,,,,,,,,,,,,,,,,,,,,,,,,,,,,,,,,,,,,,,,,,,,,,,,,,,,,,,,,,,,,,,,,
,,,,,,,,,,stimuli/images/PICTURE_356.png,CANDY,5ea1950819664f04542a50bf,26/05/1940,2020-07-09_21h04.02.870,proactive,2020.1.2,Win32,60,5f073de81c76c3308c0e4fb3,5f077807b11b0f38bfc7eae0,4,,,,,,pawn,,,,,,0,23,23,46,1,5,2,,,,,,,,,,,,,,,,,,,,,,,,,,,,,,,,,,,,,,,,,,,,,,,,,,,,,,,,,,,,,,,,,,,,,,,,,,,
,,,,,,,,,,stimuli/images/PICTURE_296.png,CLOCK,5ea1950819664f04542a50bf,26/05/1940,2020-07-09_21h04.02.870,proactive,2020.1.2,Win32,60,5f073de81c76c3308c0e4fb3,5f077807b11b0f38bfc7eae0,4,,,,,,bolt,,,,,,0,24,24,18,1,2,2,,,,,,,,,,,,,,,,,,,,,,,,,,,,,,,,,,,,,,,,,,,,,,,,,,,,,,,,,,,,,,,,,,,,,,,,,,,
,,,,,,,,,,stimuli/images/PICTURE_509.png,APPLE,5ea1950819664f04542a50bf,26/05/1940,2020-07-09_21h04.02.870,proactive,2020.1.2,Win32,60,5f073de81c76c3308c0e4fb3,5f077807b11b0f38bfc7eae0,4,,,,,,telephone,,,,,,0,25,25,38,1,4,2,,,,,,,,,,,,,,,,,,,,,,,,,,,,,,,,,,,,,,,,,,,,,,,,,,,,,,,,,,,,,,,,,,,,,,,,,,,
,,,,,,,,,,stimuli/images/PICTURE_147.png,LEADER,5ea1950819664f04542a50bf,26/05/1940,2020-07-09_21h04.02.870,proactive,2020.1.2,Win32,60,5f073de81c76c3308c0e4fb3,5f077807b11b0f38bfc7eae0,4,,,,,,hanger,,,,,,0,26,26,33,1,4,2,,,,,,,,,,,,,,,,,,,,,,,,,,,,,,,,,,,,,,,,,,,,,,,,,,,,,,,,,,,,,,,,,,,,,,,,,,,
,,,,,,,,,,stimuli/images/PICTURE_667.png,GLASS,5ea1950819664f04542a50bf,26/05/1940,2020-07-09_21h04.02.870,proactive,2020.1.2,Win32,60,5f073de81c76c3308c0e4fb3,5f077807b11b0f38bfc7eae0,4,,,,,,daisy,,,,,,0,27,27,27,1,3,2,,,,,,,,,,,,,,,,,,,,,,,,,,,,,,,,,,,,,,,,,,,,,,,,,,,,,,,,,,,,,,,,,,,,,,,,,,,
,,,,,,,,,,stimuli/images/PICTURE_18.png,RIVER,5ea1950819664f04542a50bf,26/05/1940,2020-07-09_21h04.02.870,proactive,2020.1.2,Win32,60,5f073de81c76c3308c0e4fb3,5f077807b11b0f38bfc7eae0,4,,,,,,planet,,,,,,0,28,28,22,1,3,2,,,,,,,,,,,,,,,,,,,,,,,,,,,,,,,,,,,,,,,,,,,,,,,,,,,,,,,,,,,,,,,,,,,,,,,,,,,
,,,,,,,,,,stimuli/images/PICTURE_141.png,CLIENT,5ea1950819664f04542a50bf,26/05/1940,2020-07-09_21h04.02.870,proactive,2020.1.2,Win32,60,5f073de81c76c3308c0e4fb3,5f077807b11b0f38bfc7eae0,4,,,,,,sunflower,,,,,,0,29,29,30,1,4,2,,,,,,,,,,,,,,,,,,,,,,,,,,,,,,,,,,,,,,,,,,,,,,,,,,,,,,,,,,,,,,,,,,,,,,,,,,,
,,,,,,,,,,stimuli/images/PICTURE_32.png,LETTER,5ea1950819664f04542a50bf,26/05/1940,2020-07-09_21h04.02.870,proactive,2020.1.2,Win32,60,5f073de81c76c3308c0e4fb3,5f077807b11b0f38bfc7eae0,4,,,,,,crown,,,,,,0,30,30,56,1,6,2,,,,,,,,,,,,,,,,,,,,,,,,,,,,,,,,,,,,,,,,,,,,,,,,,,,,,,,,,,,,,,,,,,,,,,,,,,,
,,,,,,,,,,stimuli/images/PICTURE_654.png,COPS,5ea1950819664f04542a50bf,26/05/1940,2020-07-09_21h04.02.870,proactive,2020.1.2,Win32,60,5f073de81c76c3308c0e4fb3,5f077807b11b0f38bfc7eae0,4,,,,,,pencil,,,,,,0,31,31,10,1,2,2,,,,,,,,,,,,,,,,,,,,,,,,,,,,,,,,,,,,,,,,,,,,,,,,,,,,,,,,,,,,,,,,,,,,,,,,,,,
,,,,,,,,,,stimuli/images/PICTURE_487.png,ROOF,5ea1950819664f04542a50bf,26/05/1940,2020-07-09_21h04.02.870,proactive,2020.1.2,Win32,60,5f073de81c76c3308c0e4fb3,5f077807b11b0f38bfc7eae0,4,,,,,,basket,,,,,,0,32,32,50,1,6,2,,,,,,,,,,,,,,,,,,,,,,,,,,,,,,,,,,,,,,,,,,,,,,,,,,,,,,,,,,,,,,,,,,,,,,,,,,,
,,,,,,,,,,stimuli/images/PICTURE_655.png,SALE,5ea1950819664f04542a50bf,26/05/1940,2020-07-09_21h04.02.870,proactive,2020.1.2,Win32,60,5f073de81c76c3308c0e4fb3,5f077807b11b0f38bfc7eae0,4,,,,,,megaphone,,,,,,0,33,33,57,1,6,2,,,,,,,,,,,,,,,,,,,,,,,,,,,,,,,,,,,,,,,,,,,,,,,,,,,,,,,,,,,,,,,,,,,,,,,,,,,
,,,,,,,,,,stimuli/images/PICTURE_285.png,PRINCE,5ea1950819664f04542a50bf,26/05/1940,2020-07-09_21h04.02.870,proactive,2020.1.2,Win32,60,5f073de81c76c3308c0e4fb3,5f077807b11b0f38bfc7eae0,4,,,,,,carrot,,,,,,0,34,34,20,1,3,2,,,,,,,,,,,,,,,,,,,,,,,,,,,,,,,,,,,,,,,,,,,,,,,,,,,,,,,,,,,,,,,,,,,,,,,,,,,
,,,,,,,,,,stimuli/images/PICTURE_215.png,LEADER,5ea1950819664f04542a50bf,26/05/1940,2020-07-09_21h04.02.870,proactive,2020.1.2,Win32,60,5f073de81c76c3308c0e4fb3,5f077807b11b0f38bfc7eae0,4,,,,,,boot,,,,,,0,35,35,43,1,5,2,,,,,,,,,,,,,,,,,,,,,,,,,,,,,,,,,,,,,,,,,,,,,,,,,,,,,,,,,,,,,,,,,,,,,,,,,,,
,,,,,,,,,,stimuli/images/PICTURE_314.png,SPEECH,5ea1950819664f04542a50bf,26/05/1940,2020-07-09_21h04.02.870,proactive,2020.1.2,Win32,60,5f073de81c76c3308c0e4fb3,5f077807b11b0f38bfc7eae0,4,,,,,,perfume,,,,,,0,36,36,35,1,4,2,,,,,,,,,,,,,,,,,,,,,,,,,,,,,,,,,,,,,,,,,,,,,,,,,,,,,,,,,,,,,,,,,,,,,,,,,,,
,,,,,,,,,,stimuli/images/PICTURE_405.png,JUNGLE,5ea1950819664f04542a50bf,26/05/1940,2020-07-09_21h04.02.870,proactive,2020.1.2,Win32,60,5f073de81c76c3308c0e4fb3,5f077807b11b0f38bfc7eae0,4,,,,,,anchor,,,,,,0,37,37,13,1,2,2,,,,,,,,,,,,,,,,,,,,,,,,,,,,,,,,,,,,,,,,,,,,,,,,,,,,,,,,,,,,,,,,,,,,,,,,,,,
,,,,,,,,,,stimuli/images/PICTURE_215.png,FOOD,5ea1950819664f04542a50bf,26/05/1940,2020-07-09_21h04.02.870,proactive,2020.1.2,Win32,60,5f073de81c76c3308c0e4fb3,5f077807b11b0f38bfc7eae0,4,,,,,,boot,,,,,,0,38,38,5,1,1,2,,,,,,,,,,,,,,,,,,,,,,,,,,,,,,,,,,,,,,,,,,,,,,,,,,,,,,,,,,,,,,,,,,,,,,,,,,,
,,,,,,,,,,stimuli/images/PICTURE_487.png,POLICY,5ea1950819664f04542a50bf,26/05/1940,2020-07-09_21h04.02.870,proactive,2020.1.2,Win32,60,5f073de81c76c3308c0e4fb3,5f077807b11b0f38bfc7eae0,4,,,,,,basket,,,,,,0,39,39,34,1,4,2,,,,,,,,,,,,,,,,,,,,,,,,,,,,,,,,,,,,,,,,,,,,,,,,,,,,,,,,,,,,,,,,,,,,,,,,,,,
,,,,,,,,,,stimuli/images/PICTURE_750.png,POLICY,5ea1950819664f04542a50bf,26/05/1940,2020-07-09_21h04.02.870,proactive,2020.1.2,Win32,60,5f073de81c76c3308c0e4fb3,5f077807b11b0f38bfc7eae0,4,,,,,,kettle,,,,,,0,40,40,44,1,5,2,,,,,,,,,,,,,,,,,,,,,,,,,,,,,,,,,,,,,,,,,,,,,,,,,,,,,,,,,,,,,,,,,,,,,,,,,,,
,,,,,,,,,,stimuli/images/PICTURE_405.png,HOUSE,5ea1950819664f04542a50bf,26/05/1940,2020-07-09_21h04.02.870,proactive,2020.1.2,Win32,60,5f073de81c76c3308c0e4fb3,5f077807b11b0f38bfc7eae0,4,,,,,,anchor,,,,,,0,41,41,2,1,1,2,,,,,,,,,,,,,,,,,,,,,,,,,,,,,,,,,,,,,,,,,,,,,,,,,,,,,,,,,,,,,,,,,,,,,,,,,,,
,,,,,,,,,,stimuli/images/PICTURE_177.png,HOUSE,5ea1950819664f04542a50bf,26/05/1940,2020-07-09_21h04.02.870,proactive,2020.1.2,Win32,60,5f073de81c76c3308c0e4fb3,5f077807b11b0f38bfc7eae0,4,,,,,,mushroom,,,,,,0,42,42,25,1,3,2,,,,,,,,,,,,,,,,,,,,,,,,,,,,,,,,,,,,,,,,,,,,,,,,,,,,,,,,,,,,,,,,,,,,,,,,,,,
,,,,,,,,,,stimuli/images/PICTURE_33.png,COPS,5ea1950819664f04542a50bf,26/05/1940,2020-07-09_21h04.02.870,proactive,2020.1.2,Win32,60,5f073de81c76c3308c0e4fb3,5f077807b11b0f38bfc7eae0,4,,,,,,frame,,,,,,0,43,43,29,1,3,2,,,,,,,,,,,,,,,,,,,,,,,,,,,,,,,,,,,,,,,,,,,,,,,,,,,,,,,,,,,,,,,,,,,,,,,,,,,
,,,,,,,,,,stimuli/images/PICTURE_470.png,BEAUTY,5ea1950819664f04542a50bf,26/05/1940,2020-07-09_21h04.02.870,proactive,2020.1.2,Win32,60,5f073de81c76c3308c0e4fb3,5f077807b11b0f38bfc7eae0,4,,,,,,motorbike,,,,,,0,44,44,26,1,3,2,,,,,,,,,,,,,,,,,,,,,,,,,,,,,,,,,,,,,,,,,,,,,,,,,,,,,,,,,,,,,,,,,,,,,,,,,,,
,,,,,,,,,,stimuli/images/PICTURE_509.png,MILLER,5ea1950819664f04542a50bf,26/05/1940,2020-07-09_21h04.02.870,proactive,2020.1.2,Win32,60,5f073de81c76c3308c0e4fb3,5f077807b11b0f38bfc7eae0,4,,,,,,telephone,,,,,,0,45,45,49,1,5,2,,,,,,,,,,,,,,,,,,,,,,,,,,,,,,,,,,,,,,,,,,,,,,,,,,,,,,,,,,,,,,,,,,,,,,,,,,,
,,,,,,,,,,stimuli/images/PICTURE_2.png,JUNGLE,5ea1950819664f04542a50bf,26/05/1940,2020-07-09_21h04.02.870,proactive,2020.1.2,Win32,60,5f073de81c76c3308c0e4fb3,5f077807b11b0f38bfc7eae0,4,,,,,,tyre,,,,,,0,46,46,1,1,1,2,,,,,,,,,,,,,,,,,,,,,,,,,,,,,,,,,,,,,,,,,,,,,,,,,,,,,,,,,,,,,,,,,,,,,,,,,,,
,,,,,,,,,,stimuli/images/PICTURE_509.png,SHOTS,5ea1950819664f04542a50bf,26/05/1940,2020-07-09_21h04.02.870,proactive,2020.1.2,Win32,60,5f073de81c76c3308c0e4fb3,5f077807b11b0f38bfc7eae0,4,,,,,,telephone,,,,,,0,47,47,7,1,1,2,,,,,,,,,,,,,,,,,,,,,,,,,,,,,,,,,,,,,,,,,,,,,,,,,,,,,,,,,,,,,,,,,,,,,,,,,,,
,,,,,,,,,,stimuli/images/PICTURE_654.png,YEAR,5ea1950819664f04542a50bf,26/05/1940,2020-07-09_21h04.02.870,proactive,2020.1.2,Win32,60,5f073de81c76c3308c0e4fb3,5f077807b11b0f38bfc7eae0,4,,,,,,pencil,,,,,,0,48,48,41,1,5,2,,,,,,,,,,,,,,,,,,,,,,,,,,,,,,,,,,,,,,,,,,,,,,,,,,,,,,,,,,,,,,,,,,,,,,,,,,,
,,,,,,,,,,stimuli/images/PICTURE_57.png,NATION,5ea1950819664f04542a50bf,26/05/1940,2020-07-09_21h04.02.870,proactive,2020.1.2,Win32,60,5f073de81c76c3308c0e4fb3,5f077807b11b0f38bfc7eae0,4,,,,,,stamp,,,,,,0,49,49,21,1,3,2,,,,,,,,,,,,,,,,,,,,,,,,,,,,,,,,,,,,,,,,,,,,,,,,,,,,,,,,,,,,,,,,,,,,,,,,,,,
,,,,,,,,,,stimuli/images/PICTURE_57.png,CASINO,5ea1950819664f04542a50bf,26/05/1940,2020-07-09_21h04.02.870,proactive,2020.1.2,Win32,60,5f073de81c76c3308c0e4fb3,5f077807b11b0f38bfc7eae0,4,,,,,,stamp,,,,,,0,50,50,12,1,2,2,,,,,,,,,,,,,,,,,,,,,,,,,,,,,,,,,,,,,,,,,,,,,,,,,,,,,,,,,,,,,,,,,,,,,,,,,,,
,,,,,,,,,,stimuli/images/PICTURE_57.png,CANDY,5ea1950819664f04542a50bf,26/05/1940,2020-07-09_21h04.02.870,proactive,2020.1.2,Win32,60,5f073de81c76c3308c0e4fb3,5f077807b11b0f38bfc7eae0,4,,,,,,stamp,,,,,,0,51,51,52,1,6,2,,,,,,,,,,,,,,,,,,,,,,,,,,,,,,,,,,,,,,,,,,,,,,,,,,,,,,,,,,,,,,,,,,,,,,,,,,,
,,,,,,,,,,stimuli/images/PICTURE_470.png,MOMENT,5ea1950819664f04542a50bf,26/05/1940,2020-07-09_21h04.02.870,proactive,2020.1.2,Win32,60,5f073de81c76c3308c0e4fb3,5f077807b11b0f38bfc7eae0,4,,,,,,motorbike,,,,,,0,52,52,40,1,5,2,,,,,,,,,,,,,,,,,,,,,,,,,,,,,,,,,,,,,,,,,,,,,,,,,,,,,,,,,,,,,,,,,,,,,,,,,,,
,,,,,,,,,,stimuli/images/PICTURE_160.png,HOTEL,5ea1950819664f04542a50bf,26/05/1940,2020-07-09_21h04.02.870,proactive,2020.1.2,Win32,60,5f073de81c76c3308c0e4fb3,5f077807b11b0f38bfc7eae0,4,,,,,,wheelbarrow,,,,,,0,53,53,16,1,2,2,,,,,,,,,,,,,,,,,,,,,,,,,,,,,,,,,,,,,,,,,,,,,,,,,,,,,,,,,,,,,,,,,,,,,,,,,,,
,,,,,,,,,,stimuli/images/PICTURE_297.png,BODY,5ea1950819664f04542a50bf,26/05/1940,2020-07-09_21h04.02.870,proactive,2020.1.2,Win32,60,5f073de81c76c3308c0e4fb3,5f077807b11b0f38bfc7eae0,4,,,,,,aeroplane,,,,,,0,54,54,51,1,6,2,,,,,,,,,,,,,,,,,,,,,,,,,,,,,,,,,,,,,,,,,,,,,,,,,,,,,,,,,,,,,,,,,,,,,,,,,,,
,,,,,,,,,,stimuli/images/PICTURE_68.png,KIND,5ea1950819664f04542a50bf,26/05/1940,2020-07-09_21h04.02.870,proactive,2020.1.2,Win32,60,5f073de81c76c3308c0e4fb3,5f077807b11b0f38bfc7eae0,4,,,,,,candle,,,,,,0,55,55,23,1,3,2,,,,,,,,,,,,,,,,,,,,,,,,,,,,,,,,,,,,,,,,,,,,,,,,,,,,,,,,,,,,,,,,,,,,,,,,,,,
,,,,,,,,,,stimuli/images/PICTURE_95.png,NIGHT,5ea1950819664f04542a50bf,26/05/1940,2020-07-09_21h04.02.870,proactive,2020.1.2,Win32,60,5f073de81c76c3308c0e4fb3,5f077807b11b0f38bfc7eae0,4,,,,,,suitcase,,,,,,0,56,56,37,1,4,2,,,,,,,,,,,,,,,,,,,,,,,,,,,,,,,,,,,,,,,,,,,,,,,,,,,,,,,,,,,,,,,,,,,,,,,,,,,
,,,,,,,,,,stimuli/images/PICTURE_348.png,DUDE,5ea1950819664f04542a50bf,26/05/1940,2020-07-09_21h04.02.870,proactive,2020.1.2,Win32,60,5f073de81c76c3308c0e4fb3,5f077807b11b0f38bfc7eae0,4,,,,,,pepper,,,,,,0,57,57,59,1,6,2,,,,,,,,,,,,,,,,,,,,,,,,,,,,,,,,,,,,,,,,,,,,,,,,,,,,,,,,,,,,,,,,,,,,,,,,,,,
,,,,,,,,,,stimuli/images/PICTURE_2.png,YARD,5ea1950819664f04542a50bf,26/05/1940,2020-07-09_21h04.02.870,proactive,2020.1.2,Win32,60,5f073de81c76c3308c0e4fb3,5f077807b11b0f38bfc7eae0,4,,,,,,tyre,,,,,,0,58,58,55,1,6,2,,,,,,,,,,,,,,,,,,,,,,,,,,,,,,,,,,,,,,,,,,,,,,,,,,,,,,,,,,,,,,,,,,,,,,,,,,,
,,?,0.001315,0,,,,,,stimuli/images/PICTURE_160.png,HOTEL,5ea1950819664f04542a50bf,26/05/1940,2020-07-09_21h04.02.870,proactive,2020.1.2,Win32,60,5f073de81c76c3308c0e4fb3,5f077807b11b0f38bfc7eae0,4,,,,,,wheelbarrow,,,,,,,,,,,2,2,0,0,0,16,1,,,,,,,,,,,,,,,,,,,,,,,,,,,,,,,,,,,,,,,,,,,,,,,,,,,,,,,,,,,,,,,,,,,,,,
,,?,0.001355,0,,,,,,stimuli/images/PICTURE_692.png,DUDE,5ea1950819664f04542a50bf,26/05/1940,2020-07-09_21h04.02.870,proactive,2020.1.2,Win32,60,5f073de81c76c3308c0e4fb3,5f077807b11b0f38bfc7eae0,4,,,,,,cherry,,,,,,,,,,,5,2,0,1,1,47,1,,,,,,,,,,,,,,,,,,,,,,,,,,,,,,,,,,,,,,,,,,,,,,,,,,,,,,,,,,,,,,,,,,,,,,
,,?,0.001235,0,,,,,,stimuli/images/PICTURE_123.png,SALE,5ea1950819664f04542a50bf,26/05/1940,2020-07-09_21h04.02.870,proactive,2020.1.2,Win32,60,5f073de81c76c3308c0e4fb3,5f077807b11b0f38bfc7eae0,4,,,,,,dart,,,,,,,,,,,1,2,0,2,2,8,1,,,,,,,,,,,,,,,,,,,,,,,,,,,,,,,,,,,,,,,,,,,,,,,,,,,,,,,,,,,,,,,,,,,,,,
,,?,0.001235,0,,,,,,stimuli/images/PICTURE_57.png,NATION,5ea1950819664f04542a50bf,26/05/1940,2020-07-09_21h04.02.870,proactive,2020.1.2,Win32,60,5f073de81c76c3308c0e4fb3,5f077807b11b0f38bfc7eae0,4,,,,,,stamp,,,,,,,,,,,3,2,0,3,3,21,1,,,,,,,,,,,,,,,,,,,,,,,,,,,,,,,,,,,,,,,,,,,,,,,,,,,,,,,,,,,,,,,,,,,,,,
,,?,0.001205,0,,,,,,stimuli/images/PICTURE_297.png,BODY,5ea1950819664f04542a50bf,26/05/1940,2020-07-09_21h04.02.870,proactive,2020.1.2,Win32,60,5f073de81c76c3308c0e4fb3,5f077807b11b0f38bfc7eae0,4,,,,,,aeroplane,,,,,,,,,,,6,2,0,4,4,51,1,,,,,,,,,,,,,,,,,,,,,,,,,,,,,,,,,,,,,,,,,,,,,,,,,,,,,,,,,,,,,,,,,,,,,,
,,?,0.00144,0,,,,,,stimuli/images/PICTURE_405.png,JUNGLE,5ea1950819664f04542a50bf,26/05/1940,2020-07-09_21h04.02.870,proactive,2020.1.2,Win32,60,5f073de81c76c3308c0e4fb3,5f077807b11b0f38bfc7eae0,4,,,,,,anchor,,,,,,,,,,,2,2,0,5,5,13,1,,,,,,,,,,,,,,,,,,,,,,,,,,,,,,,,,,,,,,,,,,,,,,,,,,,,,,,,,,,,,,,,,,,,,,
,,?,0.001205,0,,,,,,stimuli/images/PICTURE_2.png,JUNGLE,5ea1950819664f04542a50bf,26/05/1940,2020-07-09_21h04.02.870,proactive,2020.1.2,Win32,60,5f073de81c76c3308c0e4fb3,5f077807b11b0f38bfc7eae0,4,,,,,,tyre,,,,,,,,,,,1,2,0,6,6,1,1,,,,,,,,,,,,,,,,,,,,,,,,,,,,,,,,,,,,,,,,,,,,,,,,,,,,,,,,,,,,,,,,,,,,,,
,,SPEECH,10.46609,1,,,,,,stimuli/images/PICTURE_314.png,SPEECH,5ea1950819664f04542a50bf,26/05/1940,2020-07-09_21h04.02.870,proactive,2020.1.2,Win32,60,5f073de81c76c3308c0e4fb3,5f077807b11b0f38bfc7eae0,4,,,,,,perfume,,,,,,,,,,,4,2,0,7,7,35,1,,,,,,,,,,,,,,,,,,,,,,,,,,,,,,,,,,,,,,,,,,,,,,,,,,,,,,,,,,,,,,,,,,,,,,
,,?,0.002255,0,,,,,,stimuli/images/PICTURE_509.png,MILLER,5ea1950819664f04542a50bf,26/05/1940,2020-07-09_21h04.02.870,proactive,2020.1.2,Win32,60,5f073de81c76c3308c0e4fb3,5f077807b11b0f38bfc7eae0,4,,,,,,telephone,,,,,,,,,,,5,2,0,8,8,49,1,,,,,,,,,,,,,,,,,,,,,,,,,,,,,,,,,,,,,,,,,,,,,,,,,,,,,,,,,,,,,,,,,,,,,,
,,?,0.00129,0,,,,,,stimuli/images/PICTURE_33.png,COPS,5ea1950819664f04542a50bf,26/05/1940,2020-07-09_21h04.02.870,proactive,2020.1.2,Win32,60,5f073de81c76c3308c0e4fb3,5f077807b11b0f38bfc7eae0,4,,,,,,frame,,,,,,,,,,,3,2,0,9,9,29,1,,,,,,,,,,,,,,,,,,,,,,,,,,,,,,,,,,,,,,,,,,,,,,,,,,,,,,,,,,,,,,,,,,,,,,
,,?,0.00126,0,,,,,,stimuli/images/PICTURE_470.png,BEAUTY,5ea1950819664f04542a50bf,26/05/1940,2020-07-09_21h04.02.870,proactive,2020.1.2,Win32,60,5f073de81c76c3308c0e4fb3,5f077807b11b0f38bfc7eae0,4,,,,,,motorbike,,,,,,,,,,,3,2,0,10,10,26,1,,,,,,,,,,,,,,,,,,,,,,,,,,,,,,,,,,,,,,,,,,,,,,,,,,,,,,,,,,,,,,,,,,,,,,
,,?,0.00406,0,,,,,,stimuli/images/PICTURE_405.png,JUNGLE,5ea1950819664f04542a50bf,26/05/1940,2020-07-09_21h04.02.870,proactive,2020.1.2,Win32,60,5f073de81c76c3308c0e4fb3,5f077807b11b0f38bfc7eae0,4,,,,,,anchor,,,,,,,,,,,6,2,0,11,11,58,1,,,,,,,,,,,,,,,,,,,,,,,,,,,,,,,,,,,,,,,,,,,,,,,,,,,,,,,,,,,,,,,,,,,,,,
,,?,15.01383,0,,,,,,stimuli/images/PICTURE_93.png,GIRL,5ea1950819664f04542a50bf,26/05/1940,2020-07-09_21h04.02.870,proactive,2020.1.2,Win32,60,5f073de81c76c3308c0e4fb3,5f077807b11b0f38bfc7eae0,4,,,,,,skateboard,,,,,,,,,,,4,2,0,12,12,31,1,,,,,,,,,,,,,,,,,,,,,,,,,,,,,,,,,,,,,,,,,,,,,,,,,,,,,,,,,,,,,,,,,,,,,,
,,?,0.002345,0,,,,,,stimuli/images/PICTURE_655.png,SALE,5ea1950819664f04542a50bf,26/05/1940,2020-07-09_21h04.02.870,proactive,2020.1.2,Win32,60,5f073de81c76c3308c0e4fb3,5f077807b11b0f38bfc7eae0,4,,,,,,megaphone,,,,,,,,,,,6,2,0,13,13,57,1,,,,,,,,,,,,,,,,,,,,,,,,,,,,,,,,,,,,,,,,,,,,,,,,,,,,,,,,,,,,,,,,,,,,,,
,,?,0.00191,0,,,,,,stimuli/images/PICTURE_255.png,PENNY,5ea1950819664f04542a50bf,26/05/1940,2020-07-09_21h04.02.870,proactive,2020.1.2,Win32,60,5f073de81c76c3308c0e4fb3,5f077807b11b0f38bfc7eae0,4,,,,,,shovel,,,,,,,,,,,2,2,0,14,14,19,1,,,,,,,,,,,,,,,,,,,,,,,,,,,,,,,,,,,,,,,,,,,,,,,,,,,,,,,,,,,,,,,,,,,,,,
,,?,0.00219,0,,,,,,stimuli/images/PICTURE_296.png,CLOCK,5ea1950819664f04542a50bf,26/05/1940,2020-07-09_21h04.02.870,proactive,2020.1.2,Win32,60,5f073de81c76c3308c0e4fb3,5f077807b11b0f38bfc7eae0,4,,,,,,bolt,,,,,,,,,,,2,2,0,15,15,18,1,,,,,,,,,,,,,,,,,,,,,,,,,,,,,,,,,,,,,,,,,,,,,,,,,,,,,,,,,,,,,,,,,,,,,,
,,?,0.00214,0,,,,,,stimuli/images/PICTURE_2.png,YARD,5ea1950819664f04542a50bf,26/05/1940,2020-07-09_21h04.02.870,proactive,2020.1.2,Win32,60,5f073de81c76c3308c0e4fb3,5f077807b11b0f38bfc7eae0,4,,,,,,tyre,,,,,,,,,,,6,2,0,16,16,55,1,,,,,,,,,,,,,,,,,,,,,,,,,,,,,,,,,,,,,,,,,,,,,,,,,,,,,,,,,,,,,,,,,,,,,,
