consent_key.keys,consent_key.rt,recalled,recalled_rt,recall_acc,example_recall.thisRepN,example_recall.thisTrialN,example_recall.thisN,example_recall.thisIndex,example_recall.ran,file,word,participant,please enter your date of birth (dd/mm/yyyy),date,expName,psychopyVersion,OS,frameRate,STUDY_ID,SESSION_ID,list,prac_learn_study_loop.thisRepN,prac_learn_study_loop.thisTrialN,prac_learn_study_loop.thisN,prac_learn_study_loop.thisIndex,prac_learn_study_loop.ran,image,prac_learn_test_loop.thisRepN,prac_learn_test_loop.thisTrialN,prac_learn_test_loop.thisN,prac_learn_test_loop.thisIndex,prac_learn_test_loop.ran,learn_study_loop.thisRepN,learn_study_loop.thisTrialN,learn_study_loop.thisN,learn_study_loop.thisIndex,learn_study_loop.ran,list_no,block_no,learn_test_loop.thisRepN,learn_test_loop.thisTrialN,learn_test_loop.thisN,learn_test_loop.thisIndex,learn_test_loop.ran,learn_blocks.thisRepN,learn_blocks.thisTrialN,learn_blocks.thisN,learn_blocks.thisIndex,learn_blocks.ran,block_csv,key_resp_13.keys,key_resp_13.rt,learn_blocks_loop.thisRepN,learn_blocks_loop.thisTrialN,learn_blocks_loop.thisN,learn_blocks_loop.thisIndex,learn_blocks_loop.ran,final_learn_test.thisRepN,final_learn_test.thisTrialN,final_learn_test.thisN,final_learn_test.thisIndex,final_learn_test.ran,prac_wm_test_loop.thisRepN,prac_wm_test_loop.thisTrialN,prac_wm_test_loop.thisN,prac_wm_test_loop.thisIndex,prac_wm_test_loop.ran,wm_recalled1,wm_recall_rt1,wm_probed1,wm_recall_acc1,wm_recalled2,wm_recall_rt2,wm_probed2,wm_recall_acc2,wm_recalled3,wm_recall_rt3,wm_probed3,wm_recall_acc3,wm_recalled4,wm_recall_rt4,wm_probed4,wm_recall_acc4,prac_wm_trial_loop.thisRepN,prac_wm_trial_loop.thisTrialN,prac_wm_trial_loop.thisN,prac_wm_trial_loop.thisIndex,prac_wm_trial_loop.ran,word1,image1,file1,item_type1,word2,image2,file2,item_type2,word4,image4,file4,item_type4,word3,image3,file3,item_type3,wm_test_loop.thisRepN,wm_test_loop.thisTrialN,wm_test_loop.thisN,wm_test_loop.thisIndex,wm_test_loop.ran,wm_trial_loop.thisRepN,wm_trial_loop.thisTrialN,wm_trial_loop.thisN,wm_trial_loop.thisIndex,wm_trial_loop.ran
y,8.94426,TOUGH,13.05025,1,0,0,0,0,1,stimuli/images/PICTURE_747.png,TOUGH,5ea16e9df548030009513cb7,13/10/1952,2020-07-09_21h11.26.158,proactive,2020.1.2,Win32,60,5f073de81c76c3308c0e4fb3,5f07795f29b738397c8bbc0c,1,,,,,,,,,,,,,,,,,,,,,,,,,,,,,,,,,,,,,,,,,,,,,,,,,,,,,,,,,,,,,,,,,,,,,,,,,,,,,,,,,,,,,,,,,,,,,
,,,,,,,,,,stimuli/images/PICTURE_727.png,CELL,5ea16e9df548030009513cb7,13/10/1952,2020-07-09_21h11.26.158,proactive,2020.1.2,Win32,60,5f073de81c76c3308c0e4fb3,5f07795f29b738397c8bbc0c,1,0,0,0,1,1,hose,,,,,,,,,,,,,,,,,,,,,,,,,,,,,,,,,,,,,,,,,,,,,,,,,,,,,,,,,,,,,,,,,,,,,,,,,,,,,,,,,,,,,,,
,,,,,,,,,,stimuli/images/PICTURE_697.png,KILLER,5ea16e9df548030009513cb7,13/10/1952,2020-07-09_21h11.26.158,proactive,2020.1.2,Win32,60,5f073de81c76c3308c0e4fb3,5f07795f29b738397c8bbc0c,1,0,1,1,4,1,peach,,,,,,,,,,,,,,,,,,,,,,,,,,,,,,,,,,,,,,,,,,,,,,,,,,,,,,,,,,,,,,,,,,,,,,,,,,,,,,,,,,,,,,,
,,,,,,,,,,stimuli/images/PICTURE_269.png,GENIUS,5ea16e9df548030009513cb7,13/10/1952,2020-07-09_21h11.26.158,proactive,2020.1.2,Win32,60,5f073de81c76c3308c0e4fb3,5f07795f29b738397c8bbc0c,1,0,2,2,0,1,chameleon,,,,,,,,,,,,,,,,,,,,,,,,,,,,,,,,,,,,,,,,,,,,,,,,,,,,,,,,,,,,,,,,,,,,,,,,,,,,,,,,,,,,,,,
,,,,,,,,,,stimuli/images/PICTURE_658.png,DEVIL,5ea16e9df548030009513cb7,13/10/1952,2020-07-09_21h11.26.158,proactive,2020.1.2,Win32,60,5f073de81c76c3308c0e4fb3,5f07795f29b738397c8bbc0c,1,0,3,3,3,1,crow,,,,,,,,,,,,,,,,,,,,,,,,,,,,,,,,,,,,,,,,,,,,,,,,,,,,,,,,,,,,,,,,,,,,,,,,,,,,,,,,,,,,,,,
,,KILLER,15.003755,1,,,,,,stimuli/images/PICTURE_697.png,KILLER,5ea16e9df548030009513cb7,13/10/1952,2020-07-09_21h11.26.158,proactive,2020.1.2,Win32,60,5f073de81c76c3308c0e4fb3,5f07795f29b738397c8bbc0c,1,,,,,,peach,0,0,0,4,1,,,,,,,,,,,,,,,,,,,,,,,,,,,,,,,,,,,,,,,,,,,,,,,,,,,,,,,,,,,,,,,,,,,,,,,,,,,,,,,,,,
,,DEVIL,6.596225,1,,,,,,stimuli/images/PICTURE_658.png,DEVIL,5ea16e9df548030009513cb7,13/10/1952,2020-07-09_21h11.26.158,proactive,2020.1.2,Win32,60,5f073de81c76c3308c0e4fb3,5f07795f29b738397c8bbc0c,1,,,,,,crow,0,1,1,3,1,,,,,,,,,,,,,,,,,,,,,,,,,,,,,,,,,,,,,,,,,,,,,,,,,,,,,,,,,,,,,,,,,,,,,,,,,,,,,,,,,,
,,LOSS,3.996675,1,,,,,,stimuli/images/PICTURE_378.png,LOSS,5ea16e9df548030009513cb7,13/10/1952,2020-07-09_21h11.26.158,proactive,2020.1.2,Win32,60,5f073de81c76c3308c0e4fb3,5f07795f29b738397c8bbc0c,1,,,,,,lobster,0,2,2,2,1,,,,,,,,,,,,,,,,,,,,,,,,,,,,,,,,,,,,,,,,,,,,,,,,,,,,,,,,,,,,,,,,,,,,,,,,,,,,,,,,,,
,,GENIES,11.442895,0,,,,,,stimuli/images/PICTURE_269.png,GENIUS,5ea16e9df548030009513cb7,13/10/1952,2020-07-09_21h11.26.158,proactive,2020.1.2,Win32,60,5f073de81c76c3308c0e4fb3,5f07795f29b738397c8bbc0c,1,,,,,,chameleon,0,3,3,0,1,,,,,,,,,,,,,,,,,,,,,,,,,,,,,,,,,,,,,,,,,,,,,,,,,,,,,,,,,,,,,,,,,,,,,,,,,,,,,,,,,,
,,CELL,6.594285,1,,,,,,stimuli/images/PICTURE_727.png,CELL,5ea16e9df548030009513cb7,13/10/1952,2020-07-09_21h11.26.158,proactive,2020.1.2,Win32,60,5f073de81c76c3308c0e4fb3,5f07795f29b738397c8bbc0c,1,,,,,,hose,0,4,4,1,1,,,,,,,,,,,,,,,,,,,,,,,,,,,,,,,,,,,,,,,,,,,,,,,,,,,,,,,,,,,,,,,,,,,,,,,,,,,,,,,,,,
,,,,,,,,,,stimuli/images/PICTURE_340.png,LETTER,5ea16e9df548030009513cb7,13/10/1952,2020-07-09_21h11.26.158,proactive,2020.1.2,Win32,60,5f073de81c76c3308c0e4fb3,5f07795f29b738397c8bbc0c,1,,,,,,mirror,,,,,,0,0,0,24,1,3,1,,,,,,,,,,,,,,,,,,,,,,,,,,,,,,,,,,,,,,,,,,,,,,,,,,,,,,,,,,,,,,,,,,,,,,,,,,,
,,,,,,,,,,stimuli/images/PICTURE_68.png,ROOF,5ea16e9df548030009513cb7,13/10/1952,2020-07-09_21h11.26.158,proactive,2020.1.2,Win32,60,5f073de81c76c3308c0e4fb3,5f07795f29b738397c8bbc0c,1,,,,,,candle,,,,,,0,1,1,38,1,4,1,,,,,,,,,,,,,,,,,,,,,,,,,,,,,,,,,,,,,,,,,,,,,,,,,,,,,,,,,,,,,,,,,,,,,,,,,,,
,,,,,,,,,,stimuli/images/PICTURE_654.png,MONTH,5ea16e9df548030009513cb7,13/10/1952,2020-07-09_21h11.26.158,proactive,2020.1.2,Win32,60,5f073de81c76c3308c0e4fb3,5f07795f29b738397c8bbc0c,1,,,,,,pencil,,,,,,0,2,2,29,1,3,1,,,,,,,,,,,,,,,,,,,,,,,,,,,,,,,,,,,,,,,,,,,,,,,,,,,,,,,,,,,,,,,,,,,,,,,,,,,
,,,,,,,,,,stimuli/images/PICTURE_504.png,ARTIST,5ea16e9df548030009513cb7,13/10/1952,2020-07-09_21h11.26.158,proactive,2020.1.2,Win32,60,5f073de81c76c3308c0e4fb3,5f07795f29b738397c8bbc0c,1,,,,,,wheel,,,,,,0,3,3,49,1,5,1,,,,,,,,,,,,,,,,,,,,,,,,,,,,,,,,,,,,,,,,,,,,,,,,,,,,,,,,,,,,,,,,,,,,,,,,,,,
,,,,,,,,,,stimuli/images/PICTURE_491.png,GLASS,5ea16e9df548030009513cb7,13/10/1952,2020-07-09_21h11.26.158,proactive,2020.1.2,Win32,60,5f073de81c76c3308c0e4fb3,5f07795f29b738397c8bbc0c,1,,,,,,rug,,,,,,0,4,4,14,1,2,1,,,,,,,,,,,,,,,,,,,,,,,,,,,,,,,,,,,,,,,,,,,,,,,,,,,,,,,,,,,,,,,,,,,,,,,,,,,
,,,,,,,,,,stimuli/images/PICTURE_403.png,RIVER,5ea16e9df548030009513cb7,13/10/1952,2020-07-09_21h11.26.158,proactive,2020.1.2,Win32,60,5f073de81c76c3308c0e4fb3,5f07795f29b738397c8bbc0c,1,,,,,,cathedral,,,,,,0,5,5,40,1,5,1,,,,,,,,,,,,,,,,,,,,,,,,,,,,,,,,,,,,,,,,,,,,,,,,,,,,,,,,,,,,,,,,,,,,,,,,,,,
,,,,,,,,,,stimuli/images/PICTURE_2.png,FLIGHT,5ea16e9df548030009513cb7,13/10/1952,2020-07-09_21h11.26.158,proactive,2020.1.2,Win32,60,5f073de81c76c3308c0e4fb3,5f07795f29b738397c8bbc0c,1,,,,,,tyre,,,,,,0,6,6,15,1,2,1,,,,,,,,,,,,,,,,,,,,,,,,,,,,,,,,,,,,,,,,,,,,,,,,,,,,,,,,,,,,,,,,,,,,,,,,,,,
,,,,,,,,,,stimuli/images/PICTURE_108.png,FLIGHT,5ea16e9df548030009513cb7,13/10/1952,2020-07-09_21h11.26.158,proactive,2020.1.2,Win32,60,5f073de81c76c3308c0e4fb3,5f07795f29b738397c8bbc0c,1,,,,,,calendar,,,,,,0,7,7,59,1,6,1,,,,,,,,,,,,,,,,,,,,,,,,,,,,,,,,,,,,,,,,,,,,,,,,,,,,,,,,,,,,,,,,,,,,,,,,,,,
,,,,,,,,,,stimuli/images/PICTURE_403.png,WRITER,5ea16e9df548030009513cb7,13/10/1952,2020-07-09_21h11.26.158,proactive,2020.1.2,Win32,60,5f073de81c76c3308c0e4fb3,5f07795f29b738397c8bbc0c,1,,,,,,cathedral,,,,,,0,8,8,31,1,4,1,,,,,,,,,,,,,,,,,,,,,,,,,,,,,,,,,,,,,,,,,,,,,,,,,,,,,,,,,,,,,,,,,,,,,,,,,,,
,,,,,,,,,,stimuli/images/PICTURE_285.png,LIFE,5ea16e9df548030009513cb7,13/10/1952,2020-07-09_21h11.26.158,proactive,2020.1.2,Win32,60,5f073de81c76c3308c0e4fb3,5f07795f29b738397c8bbc0c,1,,,,,,carrot,,,,,,0,9,9,33,1,4,1,,,,,,,,,,,,,,,,,,,,,,,,,,,,,,,,,,,,,,,,,,,,,,,,,,,,,,,,,,,,,,,,,,,,,,,,,,,
,,,,,,,,,,stimuli/images/PICTURE_380.png,HONEY,5ea16e9df548030009513cb7,13/10/1952,2020-07-09_21h11.26.158,proactive,2020.1.2,Win32,60,5f073de81c76c3308c0e4fb3,5f07795f29b738397c8bbc0c,1,,,,,,gorilla,,,,,,0,10,10,19,1,2,1,,,,,,,,,,,,,,,,,,,,,,,,,,,,,,,,,,,,,,,,,,,,,,,,,,,,,,,,,,,,,,,,,,,,,,,,,,,
,,,,,,,,,,stimuli/images/PICTURE_32.png,KIND,5ea16e9df548030009513cb7,13/10/1952,2020-07-09_21h11.26.158,proactive,2020.1.2,Win32,60,5f073de81c76c3308c0e4fb3,5f07795f29b738397c8bbc0c,1,,,,,,crown,,,,,,0,11,11,35,1,4,1,,,,,,,,,,,,,,,,,,,,,,,,,,,,,,,,,,,,,,,,,,,,,,,,,,,,,,,,,,,,,,,,,,,,,,,,,,,
,,,,,,,,,,stimuli/images/PICTURE_233.png,LOTS,5ea16e9df548030009513cb7,13/10/1952,2020-07-09_21h11.26.158,proactive,2020.1.2,Win32,60,5f073de81c76c3308c0e4fb3,5f07795f29b738397c8bbc0c,1,,,,,,salt,,,,,,0,12,12,42,1,5,1,,,,,,,,,,,,,,,,,,,,,,,,,,,,,,,,,,,,,,,,,,,,,,,,,,,,,,,,,,,,,,,,,,,,,,,,,,,
,,,,,,,,,,stimuli/images/PICTURE_504.png,COPS,5ea16e9df548030009513cb7,13/10/1952,2020-07-09_21h11.26.158,proactive,2020.1.2,Win32,60,5f073de81c76c3308c0e4fb3,5f07795f29b738397c8bbc0c,1,,,,,,wheel,,,,,,0,13,13,52,1,6,1,,,,,,,,,,,,,,,,,,,,,,,,,,,,,,,,,,,,,,,,,,,,,,,,,,,,,,,,,,,,,,,,,,,,,,,,,,,
,,,,,,,,,,stimuli/images/PICTURE_675.png,SALE,5ea16e9df548030009513cb7,13/10/1952,2020-07-09_21h11.26.158,proactive,2020.1.2,Win32,60,5f073de81c76c3308c0e4fb3,5f07795f29b738397c8bbc0c,1,,,,,,windmill,,,,,,0,14,14,47,1,5,1,,,,,,,,,,,,,,,,,,,,,,,,,,,,,,,,,,,,,,,,,,,,,,,,,,,,,,,,,,,,,,,,,,,,,,,,,,,
,,,,,,,,,,stimuli/images/PICTURE_308.png,FAMILY,5ea16e9df548030009513cb7,13/10/1952,2020-07-09_21h11.26.158,proactive,2020.1.2,Win32,60,5f073de81c76c3308c0e4fb3,5f07795f29b738397c8bbc0c,1,,,,,,dice,,,,,,0,15,15,36,1,4,1,,,,,,,,,,,,,,,,,,,,,,,,,,,,,,,,,,,,,,,,,,,,,,,,,,,,,,,,,,,,,,,,,,,,,,,,,,,
,,,,,,,,,,stimuli/images/PICTURE_297.png,RIVER,5ea16e9df548030009513cb7,13/10/1952,2020-07-09_21h11.26.158,proactive,2020.1.2,Win32,60,5f073de81c76c3308c0e4fb3,5f07795f29b738397c8bbc0c,1,,,,,,aeroplane,,,,,,0,16,16,39,1,4,1,,,,,,,,,,,,,,,,,,,,,,,,,,,,,,,,,,,,,,,,,,,,,,,,,,,,,,,,,,,,,,,,,,,,,,,,,,,
,,,,,,,,,,stimuli/images/PICTURE_564.png,BATH,5ea16e9df548030009513cb7,13/10/1952,2020-07-09_21h11.26.158,proactive,2020.1.2,Win32,60,5f073de81c76c3308c0e4fb3,5f07795f29b738397c8bbc0c,1,,,,,,spoon,,,,,,0,17,17,26,1,3,1,,,,,,,,,,,,,,,,,,,,,,,,,,,,,,,,,,,,,,,,,,,,,,,,,,,,,,,,,,,,,,,,,,,,,,,,,,,
,,,,,,,,,,stimuli/images/PICTURE_491.png,RIVER,5ea16e9df548030009513cb7,13/10/1952,2020-07-09_21h11.26.158,proactive,2020.1.2,Win32,60,5f073de81c76c3308c0e4fb3,5f07795f29b738397c8bbc0c,1,,,,,,rug,,,,,,0,18,18,6,1,1,1,,,,,,,,,,,,,,,,,,,,,,,,,,,,,,,,,,,,,,,,,,,,,,,,,,,,,,,,,,,,,,,,,,,,,,,,,,,
,,,,,,,,,,stimuli/images/PICTURE_467.png,POLICY,5ea16e9df548030009513cb7,13/10/1952,2020-07-09_21h11.26.158,proactive,2020.1.2,Win32,60,5f073de81c76c3308c0e4fb3,5f07795f29b738397c8bbc0c,1,,,,,,peg,,,,,,0,19,19,53,1,6,1,,,,,,,,,,,,,,,,,,,,,,,,,,,,,,,,,,,,,,,,,,,,,,,,,,,,,,,,,,,,,,,,,,,,,,,,,,,
,,,,,,,,,,stimuli/images/PICTURE_685.png,PENNY,5ea16e9df548030009513cb7,13/10/1952,2020-07-09_21h11.26.158,proactive,2020.1.2,Win32,60,5f073de81c76c3308c0e4fb3,5f07795f29b738397c8bbc0c,1,,,,,,goose,,,,,,0,20,20,4,1,1,1,,,,,,,,,,,,,,,,,,,,,,,,,,,,,,,,,,,,,,,,,,,,,,,,,,,,,,,,,,,,,,,,,,,,,,,,,,,
,,,,,,,,,,stimuli/images/PICTURE_383.png,WRITER,5ea16e9df548030009513cb7,13/10/1952,2020-07-09_21h11.26.158,proactive,2020.1.2,Win32,60,5f073de81c76c3308c0e4fb3,5f07795f29b738397c8bbc0c,1,,,,,,coin,,,,,,0,21,21,28,1,3,1,,,,,,,,,,,,,,,,,,,,,,,,,,,,,,,,,,,,,,,,,,,,,,,,,,,,,,,,,,,,,,,,,,,,,,,,,,,
,,,,,,,,,,stimuli/images/PICTURE_85.png,NATION,5ea16e9df548030009513cb7,13/10/1952,2020-07-09_21h11.26.158,proactive,2020.1.2,Win32,60,5f073de81c76c3308c0e4fb3,5f07795f29b738397c8bbc0c,1,,,,,,diamond,,,,,,0,22,22,5,1,1,1,,,,,,,,,,,,,,,,,,,,,,,,,,,,,,,,,,,,,,,,,,,,,,,,,,,,,,,,,,,,,,,,,,,,,,,,,,,
,,,,,,,,,,stimuli/images/PICTURE_750.png,HOTEL,5ea16e9df548030009513cb7,13/10/1952,2020-07-09_21h11.26.158,proactive,2020.1.2,Win32,60,5f073de81c76c3308c0e4fb3,5f07795f29b738397c8bbc0c,1,,,,,,kettle,,,,,,0,23,23,27,1,3,1,,,,,,,,,,,,,,,,,,,,,,,,,,,,,,,,,,,,,,,,,,,,,,,,,,,,,,,,,,,,,,,,,,,,,,,,,,,
,,,,,,,,,,stimuli/images/PICTURE_380.png,CANDY,5ea16e9df548030009513cb7,13/10/1952,2020-07-09_21h11.26.158,proactive,2020.1.2,Win32,60,5f073de81c76c3308c0e4fb3,5f07795f29b738397c8bbc0c,1,,,,,,gorilla,,,,,,0,24,24,0,1,1,1,,,,,,,,,,,,,,,,,,,,,,,,,,,,,,,,,,,,,,,,,,,,,,,,,,,,,,,,,,,,,,,,,,,,,,,,,,,
,,,,,,,,,,stimuli/images/PICTURE_469.png,AGENT,5ea16e9df548030009513cb7,13/10/1952,2020-07-09_21h11.26.158,proactive,2020.1.2,Win32,60,5f073de81c76c3308c0e4fb3,5f07795f29b738397c8bbc0c,1,,,,,,stool,,,,,,0,25,25,16,1,2,1,,,,,,,,,,,,,,,,,,,,,,,,,,,,,,,,,,,,,,,,,,,,,,,,,,,,,,,,,,,,,,,,,,,,,,,,,,,
,,,,,,,,,,stimuli/images/PICTURE_449.png,DUDE,5ea16e9df548030009513cb7,13/10/1952,2020-07-09_21h11.26.158,proactive,2020.1.2,Win32,60,5f073de81c76c3308c0e4fb3,5f07795f29b738397c8bbc0c,1,,,,,,bench,,,,,,0,26,26,17,1,2,1,,,,,,,,,,,,,,,,,,,,,,,,,,,,,,,,,,,,,,,,,,,,,,,,,,,,,,,,,,,,,,,,,,,,,,,,,,,
,,,,,,,,,,stimuli/images/PICTURE_677.png,APPLE,5ea16e9df548030009513cb7,13/10/1952,2020-07-09_21h11.26.158,proactive,2020.1.2,Win32,60,5f073de81c76c3308c0e4fb3,5f07795f29b738397c8bbc0c,1,,,,,,map,,,,,,0,27,27,43,1,5,1,,,,,,,,,,,,,,,,,,,,,,,,,,,,,,,,,,,,,,,,,,,,,,,,,,,,,,,,,,,,,,,,,,,,,,,,,,,
,,,,,,,,,,stimuli/images/PICTURE_147.png,WOMEN,5ea16e9df548030009513cb7,13/10/1952,2020-07-09_21h11.26.158,proactive,2020.1.2,Win32,60,5f073de81c76c3308c0e4fb3,5f07795f29b738397c8bbc0c,1,,,,,,hanger,,,,,,0,28,28,7,1,1,1,,,,,,,,,,,,,,,,,,,,,,,,,,,,,,,,,,,,,,,,,,,,,,,,,,,,,,,,,,,,,,,,,,,,,,,,,,,
,,,,,,,,,,stimuli/images/PICTURE_95.png,MILLER,5ea16e9df548030009513cb7,13/10/1952,2020-07-09_21h11.26.158,proactive,2020.1.2,Win32,60,5f073de81c76c3308c0e4fb3,5f07795f29b738397c8bbc0c,1,,,,,,suitcase,,,,,,0,29,29,56,1,6,1,,,,,,,,,,,,,,,,,,,,,,,,,,,,,,,,,,,,,,,,,,,,,,,,,,,,,,,,,,,,,,,,,,,,,,,,,,,
,,,,,,,,,,stimuli/images/PICTURE_208.png,SYSTEM,5ea16e9df548030009513cb7,13/10/1952,2020-07-09_21h11.26.158,proactive,2020.1.2,Win32,60,5f073de81c76c3308c0e4fb3,5f07795f29b738397c8bbc0c,1,,,,,,microphone,,,,,,0,30,30,32,1,4,1,,,,,,,,,,,,,,,,,,,,,,,,,,,,,,,,,,,,,,,,,,,,,,,,,,,,,,,,,,,,,,,,,,,,,,,,,,,
,,,,,,,,,,stimuli/images/PICTURE_177.png,WRITER,5ea16e9df548030009513cb7,13/10/1952,2020-07-09_21h11.26.158,proactive,2020.1.2,Win32,60,5f073de81c76c3308c0e4fb3,5f07795f29b738397c8bbc0c,1,,,,,,mushroom,,,,,,0,31,31,41,1,5,1,,,,,,,,,,,,,,,,,,,,,,,,,,,,,,,,,,,,,,,,,,,,,,,,,,,,,,,,,,,,,,,,,,,,,,,,,,,
,,,,,,,,,,stimuli/images/PICTURE_339.png,CLIENT,5ea16e9df548030009513cb7,13/10/1952,2020-07-09_21h11.26.158,proactive,2020.1.2,Win32,60,5f073de81c76c3308c0e4fb3,5f07795f29b738397c8bbc0c,1,,,,,,backpack,,,,,,0,32,32,11,1,2,1,,,,,,,,,,,,,,,,,,,,,,,,,,,,,,,,,,,,,,,,,,,,,,,,,,,,,,,,,,,,,,,,,,,,,,,,,,,
,,,,,,,,,,stimuli/images/PICTURE_383.png,SERIES,5ea16e9df548030009513cb7,13/10/1952,2020-07-09_21h11.26.158,proactive,2020.1.2,Win32,60,5f073de81c76c3308c0e4fb3,5f07795f29b738397c8bbc0c,1,,,,,,coin,,,,,,0,33,33,46,1,5,1,,,,,,,,,,,,,,,,,,,,,,,,,,,,,,,,,,,,,,,,,,,,,,,,,,,,,,,,,,,,,,,,,,,,,,,,,,,
,,,,,,,,,,stimuli/images/PICTURE_655.png,TOILET,5ea16e9df548030009513cb7,13/10/1952,2020-07-09_21h11.26.158,proactive,2020.1.2,Win32,60,5f073de81c76c3308c0e4fb3,5f07795f29b738397c8bbc0c,1,,,,,,megaphone,,,,,,0,34,34,12,1,2,1,,,,,,,,,,,,,,,,,,,,,,,,,,,,,,,,,,,,,,,,,,,,,,,,,,,,,,,,,,,,,,,,,,,,,,,,,,,
,,,,,,,,,,stimuli/images/PICTURE_403.png,TOILET,5ea16e9df548030009513cb7,13/10/1952,2020-07-09_21h11.26.158,proactive,2020.1.2,Win32,60,5f073de81c76c3308c0e4fb3,5f07795f29b738397c8bbc0c,1,,,,,,cathedral,,,,,,0,35,35,25,1,3,1,,,,,,,,,,,,,,,,,,,,,,,,,,,,,,,,,,,,,,,,,,,,,,,,,,,,,,,,,,,,,,,,,,,,,,,,,,,
,,,,,,,,,,stimuli/images/PICTURE_68.png,MILE,5ea16e9df548030009513cb7,13/10/1952,2020-07-09_21h11.26.158,proactive,2020.1.2,Win32,60,5f073de81c76c3308c0e4fb3,5f07795f29b738397c8bbc0c,1,,,,,,candle,,,,,,0,36,36,51,1,6,1,,,,,,,,,,,,,,,,,,,,,,,,,,,,,,,,,,,,,,,,,,,,,,,,,,,,,,,,,,,,,,,,,,,,,,,,,,,
,,,,,,,,,,stimuli/images/PICTURE_667.png,RIVER,5ea16e9df548030009513cb7,13/10/1952,2020-07-09_21h11.26.158,proactive,2020.1.2,Win32,60,5f073de81c76c3308c0e4fb3,5f07795f29b738397c8bbc0c,1,,,,,,daisy,,,,,,0,37,37,10,1,2,1,,,,,,,,,,,,,,,,,,,,,,,,,,,,,,,,,,,,,,,,,,,,,,,,,,,,,,,,,,,,,,,,,,,,,,,,,,,
,,,,,,,,,,stimuli/images/PICTURE_327.png,SERIES,5ea16e9df548030009513cb7,13/10/1952,2020-07-09_21h11.26.158,proactive,2020.1.2,Win32,60,5f073de81c76c3308c0e4fb3,5f07795f29b738397c8bbc0c,1,,,,,,helmet,,,,,,0,38,38,3,1,1,1,,,,,,,,,,,,,,,,,,,,,,,,,,,,,,,,,,,,,,,,,,,,,,,,,,,,,,,,,,,,,,,,,,,,,,,,,,,
,,,,,,,,,,stimuli/images/PICTURE_203.png,GODS,5ea16e9df548030009513cb7,13/10/1952,2020-07-09_21h11.26.158,proactive,2020.1.2,Win32,60,5f073de81c76c3308c0e4fb3,5f07795f29b738397c8bbc0c,1,,,,,,cap,,,,,,0,39,39,30,1,4,1,,,,,,,,,,,,,,,,,,,,,,,,,,,,,,,,,,,,,,,,,,,,,,,,,,,,,,,,,,,,,,,,,,,,,,,,,,,
,,,,,,,,,,stimuli/images/PICTURE_708.png,RECORD,5ea16e9df548030009513cb7,13/10/1952,2020-07-09_21h11.26.158,proactive,2020.1.2,Win32,60,5f073de81c76c3308c0e4fb3,5f07795f29b738397c8bbc0c,1,,,,,,monkey,,,,,,0,40,40,58,1,6,1,,,,,,,,,,,,,,,,,,,,,,,,,,,,,,,,,,,,,,,,,,,,,,,,,,,,,,,,,,,,,,,,,,,,,,,,,,,
,,,,,,,,,,stimuli/images/PICTURE_95.png,HONEY,5ea16e9df548030009513cb7,13/10/1952,2020-07-09_21h11.26.158,proactive,2020.1.2,Win32,60,5f073de81c76c3308c0e4fb3,5f07795f29b738397c8bbc0c,1,,,,,,suitcase,,,,,,0,41,41,44,1,5,1,,,,,,,,,,,,,,,,,,,,,,,,,,,,,,,,,,,,,,,,,,,,,,,,,,,,,,,,,,,,,,,,,,,,,,,,,,,
,,,,,,,,,,stimuli/images/PICTURE_95.png,BOYS,5ea16e9df548030009513cb7,13/10/1952,2020-07-09_21h11.26.158,proactive,2020.1.2,Win32,60,5f073de81c76c3308c0e4fb3,5f07795f29b738397c8bbc0c,1,,,,,,suitcase,,,,,,0,42,42,1,1,1,1,,,,,,,,,,,,,,,,,,,,,,,,,,,,,,,,,,,,,,,,,,,,,,,,,,,,,,,,,,,,,,,,,,,,,,,,,,,
,,,,,,,,,,stimuli/images/PICTURE_296.png,LOTS,5ea16e9df548030009513cb7,13/10/1952,2020-07-09_21h11.26.158,proactive,2020.1.2,Win32,60,5f073de81c76c3308c0e4fb3,5f07795f29b738397c8bbc0c,1,,,,,,bolt,,,,,,0,43,43,9,1,1,1,,,,,,,,,,,,,,,,,,,,,,,,,,,,,,,,,,,,,,,,,,,,,,,,,,,,,,,,,,,,,,,,,,,,,,,,,,,
,,,,,,,,,,stimuli/images/PICTURE_405.png,PLENTY,5ea16e9df548030009513cb7,13/10/1952,2020-07-09_21h11.26.158,proactive,2020.1.2,Win32,60,5f073de81c76c3308c0e4fb3,5f07795f29b738397c8bbc0c,1,,,,,,anchor,,,,,,0,44,44,23,1,3,1,,,,,,,,,,,,,,,,,,,,,,,,,,,,,,,,,,,,,,,,,,,,,,,,,,,,,,,,,,,,,,,,,,,,,,,,,,,
,,,,,,,,,,stimuli/images/PICTURE_33.png,FRIEND,5ea16e9df548030009513cb7,13/10/1952,2020-07-09_21h11.26.158,proactive,2020.1.2,Win32,60,5f073de81c76c3308c0e4fb3,5f07795f29b738397c8bbc0c,1,,,,,,frame,,,,,,0,45,45,8,1,1,1,,,,,,,,,,,,,,,,,,,,,,,,,,,,,,,,,,,,,,,,,,,,,,,,,,,,,,,,,,,,,,,,,,,,,,,,,,,
,,,,,,,,,,stimuli/images/PICTURE_32.png,PILLS,5ea16e9df548030009513cb7,13/10/1952,2020-07-09_21h11.26.158,proactive,2020.1.2,Win32,60,5f073de81c76c3308c0e4fb3,5f07795f29b738397c8bbc0c,1,,,,,,crown,,,,,,0,46,46,18,1,2,1,,,,,,,,,,,,,,,,,,,,,,,,,,,,,,,,,,,,,,,,,,,,,,,,,,,,,,,,,,,,,,,,,,,,,,,,,,,
,,,,,,,,,,stimuli/images/PICTURE_340.png,VALLEY,5ea16e9df548030009513cb7,13/10/1952,2020-07-09_21h11.26.158,proactive,2020.1.2,Win32,60,5f073de81c76c3308c0e4fb3,5f07795f29b738397c8bbc0c,1,,,,,,mirror,,,,,,0,47,47,54,1,6,1,,,,,,,,,,,,,,,,,,,,,,,,,,,,,,,,,,,,,,,,,,,,,,,,,,,,,,,,,,,,,,,,,,,,,,,,,,,
,,,,,,,,,,stimuli/images/PICTURE_108.png,POLICY,5ea16e9df548030009513cb7,13/10/1952,2020-07-09_21h11.26.158,proactive,2020.1.2,Win32,60,5f073de81c76c3308c0e4fb3,5f07795f29b738397c8bbc0c,1,,,,,,calendar,,,,,,0,48,48,22,1,3,1,,,,,,,,,,,,,,,,,,,,,,,,,,,,,,,,,,,,,,,,,,,,,,,,,,,,,,,,,,,,,,,,,,,,,,,,,,,
,,,,,,,,,,stimuli/images/PICTURE_42.png,BOYS,5ea16e9df548030009513cb7,13/10/1952,2020-07-09_21h11.26.158,proactive,2020.1.2,Win32,60,5f073de81c76c3308c0e4fb3,5f07795f29b738397c8bbc0c,1,,,,,,pear,,,,,,0,49,49,55,1,6,1,,,,,,,,,,,,,,,,,,,,,,,,,,,,,,,,,,,,,,,,,,,,,,,,,,,,,,,,,,,,,,,,,,,,,,,,,,,
,,,,,,,,,,stimuli/images/PICTURE_203.png,NIGHT,5ea16e9df548030009513cb7,13/10/1952,2020-07-09_21h11.26.158,proactive,2020.1.2,Win32,60,5f073de81c76c3308c0e4fb3,5f07795f29b738397c8bbc0c,1,,,,,,cap,,,,,,0,50,50,2,1,1,1,,,,,,,,,,,,,,,,,,,,,,,,,,,,,,,,,,,,,,,,,,,,,,,,,,,,,,,,,,,,,,,,,,,,,,,,,,,
,,,,,,,,,,stimuli/images/PICTURE_147.png,YEAR,5ea16e9df548030009513cb7,13/10/1952,2020-07-09_21h11.26.158,proactive,2020.1.2,Win32,60,5f073de81c76c3308c0e4fb3,5f07795f29b738397c8bbc0c,1,,,,,,hanger,,,,,,0,51,51,21,1,3,1,,,,,,,,,,,,,,,,,,,,,,,,,,,,,,,,,,,,,,,,,,,,,,,,,,,,,,,,,,,,,,,,,,,,,,,,,,,
,,,,,,,,,,stimuli/images/PICTURE_487.png,GIRL,5ea16e9df548030009513cb7,13/10/1952,2020-07-09_21h11.26.158,proactive,2020.1.2,Win32,60,5f073de81c76c3308c0e4fb3,5f07795f29b738397c8bbc0c,1,,,,,,basket,,,,,,0,52,52,45,1,5,1,,,,,,,,,,,,,,,,,,,,,,,,,,,,,,,,,,,,,,,,,,,,,,,,,,,,,,,,,,,,,,,,,,,,,,,,,,,
,,,,,,,,,,stimuli/images/PICTURE_327.png,CASINO,5ea16e9df548030009513cb7,13/10/1952,2020-07-09_21h11.26.158,proactive,2020.1.2,Win32,60,5f073de81c76c3308c0e4fb3,5f07795f29b738397c8bbc0c,1,,,,,,helmet,,,,,,0,53,53,20,1,3,1,,,,,,,,,,,,,,,,,,,,,,,,,,,,,,,,,,,,,,,,,,,,,,,,,,,,,,,,,,,,,,,,,,,,,,,,,,,
,,,,,,,,,,stimuli/images/PICTURE_57.png,MOMENT,5ea16e9df548030009513cb7,13/10/1952,2020-07-09_21h11.26.158,proactive,2020.1.2,Win32,60,5f073de81c76c3308c0e4fb3,5f07795f29b738397c8bbc0c,1,,,,,,stamp,,,,,,0,54,54,37,1,4,1,,,,,,,,,,,,,,,,,,,,,,,,,,,,,,,,,,,,,,,,,,,,,,,,,,,,,,,,,,,,,,,,,,,,,,,,,,,
,,,,,,,,,,stimuli/images/PICTURE_405.png,YEAR,5ea16e9df548030009513cb7,13/10/1952,2020-07-09_21h11.26.158,proactive,2020.1.2,Win32,60,5f073de81c76c3308c0e4fb3,5f07795f29b738397c8bbc0c,1,,,,,,anchor,,,,,,0,55,55,34,1,4,1,,,,,,,,,,,,,,,,,,,,,,,,,,,,,,,,,,,,,,,,,,,,,,,,,,,,,,,,,,,,,,,,,,,,,,,,,,,
,,,,,,,,,,stimuli/images/PICTURE_296.png,LIFE,5ea16e9df548030009513cb7,13/10/1952,2020-07-09_21h11.26.158,proactive,2020.1.2,Win32,60,5f073de81c76c3308c0e4fb3,5f07795f29b738397c8bbc0c,1,,,,,,bolt,,,,,,0,56,56,57,1,6,1,,,,,,,,,,,,,,,,,,,,,,,,,,,,,,,,,,,,,,,,,,,,,,,,,,,,,,,,,,,,,,,,,,,,,,,,,,,
,,,,,,,,,,stimuli/images/PICTURE_504.png,YEAR,5ea16e9df548030009513cb7,13/10/1952,2020-07-09_21h11.26.158,proactive,2020.1.2,Win32,60,5f073de81c76c3308c0e4fb3,5f07795f29b738397c8bbc0c,1,,,,,,wheel,,,,,,0,57,57,13,1,2,1,,,,,,,,,,,,,,,,,,,,,,,,,,,,,,,,,,,,,,,,,,,,,,,,,,,,,,,,,,,,,,,,,,,,,,,,,,,
,,,,,,,,,,stimuli/images/PICTURE_744.png,WEAPON,5ea16e9df548030009513cb7,13/10/1952,2020-07-09_21h11.26.158,proactive,2020.1.2,Win32,60,5f073de81c76c3308c0e4fb3,5f07795f29b738397c8bbc0c,1,,,,,,ring,,,,,,0,58,58,50,1,6,1,,,,,,,,,,,,,,,,,,,,,,,,,,,,,,,,,,,,,,,,,,,,,,,,,,,,,,,,,,,,,,,,,,,,,,,,,,,
,,?,0.00061,0,,,,,,stimuli/images/PICTURE_380.png,HONEY,5ea16e9df548030009513cb7,13/10/1952,2020-07-09_21h11.26.158,proactive,2020.1.2,Win32,60,5f073de81c76c3308c0e4fb3,5f07795f29b738397c8bbc0c,1,,,,,,gorilla,,,,,,,,,,,2,1,0,0,0,19,1,,,,,,,,,,,,,,,,,,,,,,,,,,,,,,,,,,,,,,,,,,,,,,,,,,,,,,,,,,,,,,,,,,,,,,
,,?,0.000375,0,,,,,,stimuli/images/PICTURE_108.png,POLICY,5ea16e9df548030009513cb7,13/10/1952,2020-07-09_21h11.26.158,proactive,2020.1.2,Win32,60,5f073de81c76c3308c0e4fb3,5f07795f29b738397c8bbc0c,1,,,,,,calendar,,,,,,,,,,,3,1,0,1,1,22,1,,,,,,,,,,,,,,,,,,,,,,,,,,,,,,,,,,,,,,,,,,,,,,,,,,,,,,,,,,,,,,,,,,,,,,
,,?,0.00038,0,,,,,,stimuli/images/PICTURE_504.png,ARTIST,5ea16e9df548030009513cb7,13/10/1952,2020-07-09_21h11.26.158,proactive,2020.1.2,Win32,60,5f073de81c76c3308c0e4fb3,5f07795f29b738397c8bbc0c,1,,,,,,wheel,,,,,,,,,,,5,1,0,2,2,49,1,,,,,,,,,,,,,,,,,,,,,,,,,,,,,,,,,,,,,,,,,,,,,,,,,,,,,,,,,,,,,,,,,,,,,,
,,?,0.0004,0,,,,,,stimuli/images/PICTURE_654.png,MONTH,5ea16e9df548030009513cb7,13/10/1952,2020-07-09_21h11.26.158,proactive,2020.1.2,Win32,60,5f073de81c76c3308c0e4fb3,5f07795f29b738397c8bbc0c,1,,,,,,pencil,,,,,,,,,,,3,1,0,3,3,29,1,,,,,,,,,,,,,,,,,,,,,,,,,,,,,,,,,,,,,,,,,,,,,,,,,,,,,,,,,,,,,,,,,,,,,,
,,?,0.00038,0,,,,,,stimuli/images/PICTURE_339.png,CLIENT,5ea16e9df548030009513cb7,13/10/1952,2020-07-09_21h11.26.158,proactive,2020.1.2,Win32,60,5f073de81c76c3308c0e4fb3,5f07795f29b738397c8bbc0c,1,,,,,,backpack,,,,,,,,,,,2,1,0,4,4,11,1,,,,,,,,,,,,,,,,,,,,,,,,,,,,,,,,,,,,,,,,,,,,,,,,,,,,,,,,,,,,,,,,,,,,,,
,,?,0.000375,0,,,,,,stimuli/images/PICTURE_85.png,TOILET,5ea16e9df548030009513cb7,13/10/1952,2020-07-09_21h11.26.158,proactive,2020.1.2,Win32,60,5f073de81c76c3308c0e4fb3,5f07795f29b738397c8bbc0c,1,,,,,,diamond,,,,,,,,,,,5,1,0,5,5,48,1,,,,,,,,,,,,,,,,,,,,,,,,,,,,,,,,,,,,,,,,,,,,,,,,,,,,,,,,,,,,,,,,,,,,,,
,,?,0.00038,0,,,,,,stimuli/images/PICTURE_469.png,AGENT,5ea16e9df548030009513cb7,13/10/1952,2020-07-09_21h11.26.158,proactive,2020.1.2,Win32,60,5f073de81c76c3308c0e4fb3,5f07795f29b738397c8bbc0c,1,,,,,,stool,,,,,,,,,,,2,1,0,6,6,16,1,,,,,,,,,,,,,,,,,,,,,,,,,,,,,,,,,,,,,,,,,,,,,,,,,,,,,,,,,,,,,,,,,,,,,,
,,?,0.000385,0,,,,,,stimuli/images/PICTURE_487.png,GIRL,5ea16e9df548030009513cb7,13/10/1952,2020-07-09_21h11.26.158,proactive,2020.1.2,Win32,60,5f073de81c76c3308c0e4fb3,5f07795f29b738397c8bbc0c,1,,,,,,basket,,,,,,,,,,,5,1,0,7,7,45,1,,,,,,,,,,,,,,,,,,,,,,,,,,,,,,,,,,,,,,,,,,,,,,,,,,,,,,,,,,,,,,,,,,,,,,
,,?,0.00039,0,,,,,,stimuli/images/PICTURE_677.png,APPLE,5ea16e9df548030009513cb7,13/10/1952,2020-07-09_21h11.26.158,proactive,2020.1.2,Win32,60,5f073de81c76c3308c0e4fb3,5f07795f29b738397c8bbc0c,1,,,,,,map,,,,,,,,,,,5,1,0,8,8,43,1,,,,,,,,,,,,,,,,,,,,,,,,,,,,,,,,,,,,,,,,,,,,,,,,,,,,,,,,,,,,,,,,,,,,,,
,,?,0.000385,0,,,,,,stimuli/images/PICTURE_449.png,DUDE,5ea16e9df548030009513cb7,13/10/1952,2020-07-09_21h11.26.158,proactive,2020.1.2,Win32,60,5f073de81c76c3308c0e4fb3,5f07795f29b738397c8bbc0c,1,,,,,,bench,,,,,,,,,,,2,1,0,9,9,17,1,,,,,,,,,,,,,,,,,,,,,,,,,,,,,,,,,,,,,,,,,,,,,,,,,,,,,,,,,,,,,,,,,,,,,,
,,?,0.00038,0,,,,,,stimuli/images/PICTURE_308.png,FAMILY,5ea16e9df548030009513cb7,13/10/1952,2020-07-09_21h11.26.158,proactive,2020.1.2,Win32,60,5f073de81c76c3308c0e4fb3,5f07795f29b738397c8bbc0c,1,,,,,,dice,,,,,,,,,,,4,1,0,10,10,36,1,,,,,,,,,,,,,,,,,,,,,,,,,,,,,,,,,,,,,,,,,,,,,,,,,,,,,,,,,,,,,,,,,,,,,,
,,?,0.000405,0,,,,,,stimuli/images/PICTURE_403.png,WRITER,5ea16e9df548030009513cb7,13/10/1952,2020-07-09_21h11.26.158,proactive,2020.1.2,Win32,60,5f073de81c76c3308c0e4fb3,5f07795f29b738397c8bbc0c,1,,,,,,cathedral,,,,,,,,,,,4,1,0,11,11,31,1,,,,,,,,,,,,,,,,,,,,,,,,,,,,,,,,,,,,,,,,,,,,,,,,,,,,,,,,,,,,,,,,,,,,,,
,,?,0.00039,0,,,,,,stimuli/images/PICTURE_405.png,YEAR,5ea16e9df548030009513cb7,13/10/1952,2020-07-09_21h11.26.158,proactive,2020.1.2,Win32,60,5f073de81c76c3308c0e4fb3,5f07795f29b738397c8bbc0c,1,,,,,,anchor,,,,,,,,,,,4,1,0,12,12,34,1,,,,,,,,,,,,,,,,,,,,,,,,,,,,,,,,,,,,,,,,,,,,,,,,,,,,,,,,,,,,,,,,,,,,,,
,,?,0.00308,0,,,,,,stimuli/images/PICTURE_467.png,POLICY,5ea16e9df548030009513cb7,13/10/1952,2020-07-09_21h11.26.158,proactive,2020.1.2,Win32,60,5f073de81c76c3308c0e4fb3,5f07795f29b738397c8bbc0c,1,,,,,,peg,,,,,,,,,,,6,1,0,13,13,53,1,,,,,,,,,,,,,,,,,,,,,,,,,,,,,,,,,,,,,,,,,,,,,,,,,,,,,,,,,,,,,,,,,,,,,,
,,?,0.00043,0,,,,,,stimuli/images/PICTURE_208.png,SYSTEM,5ea16e9df548030009513cb7,13/10/1952,2020-07-09_21h11.26.158,proactive,2020.1.2,Win32,60,5f073de81c76c3308c0e4fb3,5f07795f29b738397c8bbc0c,1,,,,,,microphone,,,,,,,,,,,4,1,0,14,14,32,1,,,,,,,,,,,,,,,,,,,,,,,,,,,,,,,,,,,,,,,,,,,,,,,,,,,,,,,,,,,,,,,,,,,,,,
,,?,0.000395,0,,,,,,stimuli/images/PICTURE_655.png,TOILET,5ea16e9df548030009513cb7,13/10/1952,2020-07-09_21h11.26.158,proactive,2020.1.2,Win32,60,5f073de81c76c3308c0e4fb3,5f07795f29b738397c8bbc0c,1,,,,,,megaphone,,,,,,,,,,,2,1,0,15,15,12,1,,,,,,,,,,,,,,,,,,,,,,,,,,,,,,,,,,,,,,,,,,,,,,,,,,,,,,,,,,,,,,,,,,,,,,
,,?,0.000385,0,,,,,,stimuli/images/PICTURE_95.png,HONEY,5ea16e9df548030009513cb7,13/10/1952,2020-07-09_21h11.26.158,proactive,2020.1.2,Win32,60,5f073de81c76c3308c0e4fb3,5f07795f29b738397c8bbc0c,1,,,,,,suitcase,,,,,,,,,,,5,1,0,16,16,44,1,,,,,,,,,,,,,,,,,,,,,,,,,,,,,,,,,,,,,,,,,,,,,,,,,,,,,,,,,,,,,,,,,,,,,,
,,?,0.00146,0,,,,,,stimuli/images/PICTURE_383.png,WRITER,5ea16e9df548030009513cb7,13/10/1952,2020-07-09_21h11.26.158,proactive,2020.1.2,Win32,60,5f073de81c76c3308c0e4fb3,5f07795f29b738397c8bbc0c,1,,,,,,coin,,,,,,,,,,,3,1,0,17,17,28,1,,,,,,,,,,,,,,,,,,,,,,,,,,,,,,,,,,,,,,,,,,,,,,,,,,,,,,,,,,,,,,,,,,,,,,
,,PENNY,9.901685,1,,,,,,stimuli/images/PICTURE_685.png,PENNY,5ea16e9df548030009513cb7,13/10/1952,2020-07-09_21h11.26.158,proactive,2020.1.2,Win32,60,5f073de81c76c3308c0e4fb3,5f07795f29b738397c8bbc0c,1,,,,,,goose,,,,,,,,,,,1,1,0,18,18,4,1,,,,,,,,,,,,,,,,,,,,,,,,,,,,,,,,,,,,,,,,,,,,,,,,,,,,,,,,,,,,,,,,,,,,,,
,,?,15.008695,0,,,,,,stimuli/images/PICTURE_327.png,SERIES,5ea16e9df548030009513cb7,13/10/1952,2020-07-09_21h11.26.158,proactive,2020.1.2,Win32,60,5f073de81c76c3308c0e4fb3,5f07795f29b738397c8bbc0c,1,,,,,,helmet,,,,,,,,,,,1,1,0,19,19,3,1,,,,,,,,,,,,,,,,,,,,,,,,,,,,,,,,,,,,,,,,,,,,,,,,,,,,,,,,,,,,,,,,,,,,,,
,,?,0.00078,0,,,,,,stimuli/images/PICTURE_744.png,WEAPON,5ea16e9df548030009513cb7,13/10/1952,2020-07-09_21h11.26.158,proactive,2020.1.2,Win32,60,5f073de81c76c3308c0e4fb3,5f07795f29b738397c8bbc0c,1,,,,,,ring,,,,,,,,,,,6,1,0,20,20,50,1,,,,,,,,,,,,,,,,,,,,,,,,,,,,,,,,,,,,,,,,,,,,,,,,,,,,,,,,,,,,,,,,,,,,,,
,,?,0.000355,0,,,,,,stimuli/images/PICTURE_340.png,VALLEY,5ea16e9df548030009513cb7,13/10/1952,2020-07-09_21h11.26.158,proactive,2020.1.2,Win32,60,5f073de81c76c3308c0e4fb3,5f07795f29b738397c8bbc0c,1,,,,,,mirror,,,,,,,,,,,6,1,0,21,21,54,1,,,,,,,,,,,,,,,,,,,,,,,,,,,,,,,,,,,,,,,,,,,,,,,,,,,,,,,,,,,,,,,,,,,,,,
,,WOMAN,7.876095,0,,,,,,stimuli/images/PICTURE_147.png,WOMEN,5ea16e9df548030009513cb7,13/10/1952,2020-07-09_21h11.26.158,proactive,2020.1.2,Win32,60,5f073de81c76c3308c0e4fb3,5f07795f29b738397c8bbc0c,1,,,,,,hanger,,,,,,,,,,,1,1,0,22,22,7,1,,,,,,,,,,,,,,,,,,,,,,,,,,,,,,,,,,,,,,,,,,,,,,,,,,,,,,,,,,,,,,,,,,,,,,
,,?,0.00158,0,,,,,,stimuli/images/PICTURE_327.png,CASINO,5ea16e9df548030009513cb7,13/10/1952,2020-07-09_21h11.26.158,proactive,2020.1.2,Win32,60,5f073de81c76c3308c0e4fb3,5f07795f29b738397c8bbc0c,1,,,,,,helmet,,,,,,,,,,,3,1,0,23,23,20,1,,,,,,,,,,,,,,,,,,,,,,,,,,,,,,,,,,,,,,,,,,,,,,,,,,,,,,,,,,,,,,,,,,,,,,
,,NATION,8.67245,1,,,,,,stimuli/images/PICTURE_85.png,NATION,5ea16e9df548030009513cb7,13/10/1952,2020-07-09_21h11.26.158,proactive,2020.1.2,Win32,60,5f073de81c76c3308c0e4fb3,5f07795f29b738397c8bbc0c,1,,,,,,diamond,,,,,,,,,,,1,1,0,24,24,5,1,,,,,,,,,,,,,,,,,,,,,,,,,,,,,,,,,,,,,,,,,,,,,,,,,,,,,,,,,,,,,,,,,,,,,,
,,?,0.00159,0,,,,,,stimuli/images/PICTURE_147.png,YEAR,5ea16e9df548030009513cb7,13/10/1952,2020-07-09_21h11.26.158,proactive,2020.1.2,Win32,60,5f073de81c76c3308c0e4fb3,5f07795f29b738397c8bbc0c,1,,,,,,hanger,,,,,,,,,,,3,1,0,25,25,21,1,,,,,,,,,,,,,,,,,,,,,,,,,,,,,,,,,,,,,,,,,,,,,,,,,,,,,,,,,,,,,,,,,,,,,,
,,?,0.0013,0,,,,,,stimuli/images/PICTURE_297.png,RIVER,5ea16e9df548030009513cb7,13/10/1952,2020-07-09_21h11.26.158,proactive,2020.1.2,Win32,60,5f073de81c76c3308c0e4fb3,5f07795f29b738397c8bbc0c,1,,,,,,aeroplane,,,,,,,,,,,4,1,0,26,26,39,1,,,,,,,,,,,,,,,,,,,,,,,,,,,,,,,,,,,,,,,,,,,,,,,,,,,,,,,,,,,,,,,,,,,,,,
,,?,0.00139,0,,,,,,stimuli/images/PICTURE_68.png,MILE,5ea16e9df548030009513cb7,13/10/1952,2020-07-09_21h11.26.158,proactive,2020.1.2,Win32,60,5f073de81c76c3308c0e4fb3,5f07795f29b738397c8bbc0c,1,,,,,,candle,,,,,,,,,,,6,1,0,27,27,51,1,,,,,,,,,,,,,,,,,,,,,,,,,,,,,,,,,,,,,,,,,,,,,,,,,,,,,,,,,,,,,,,,,,,,,,
,,?,0.00137,0,,,,,,stimuli/images/PICTURE_504.png,COPS,5ea16e9df548030009513cb7,13/10/1952,2020-07-09_21h11.26.158,proactive,2020.1.2,Win32,60,5f073de81c76c3308c0e4fb3,5f07795f29b738397c8bbc0c,1,,,,,,wheel,,,,,,,,,,,6,1,0,28,28,52,1,,,,,,,,,,,,,,,,,,,,,,,,,,,,,,,,,,,,,,,,,,,,,,,,,,,,,,,,,,,,,,,,,,,,,,
,,CANDY,7.647035,1,,,,,,stimuli/images/PICTURE_380.png,CANDY,5ea16e9df548030009513cb7,13/10/1952,2020-07-09_21h11.26.158,proactive,2020.1.2,Win32,60,5f073de81c76c3308c0e4fb3,5f07795f29b738397c8bbc0c,1,,,,,,gorilla,,,,,,,,,,,1,1,0,29,29,0,1,,,,,,,,,,,,,,,,,,,,,,,,,,,,,,,,,,,,,,,,,,,,,,,,,,,,,,,,,,,,,,,,,,,,,,
,,NIGHT,12.525805,1,,,,,,stimuli/images/PICTURE_203.png,NIGHT,5ea16e9df548030009513cb7,13/10/1952,2020-07-09_21h11.26.158,proactive,2020.1.2,Win32,60,5f073de81c76c3308c0e4fb3,5f07795f29b738397c8bbc0c,1,,,,,,cap,,,,,,,,,,,1,1,0,30,30,2,1,,,,,,,,,,,,,,,,,,,,,,,,,,,,,,,,,,,,,,,,,,,,,,,,,,,,,,,,,,,,,,,,,,,,,,
,,?,0.001585,0,,,,,,stimuli/images/PICTURE_667.png,RIVER,5ea16e9df548030009513cb7,13/10/1952,2020-07-09_21h11.26.158,proactive,2020.1.2,Win32,60,5f073de81c76c3308c0e4fb3,5f07795f29b738397c8bbc0c,1,,,,,,daisy,,,,,,,,,,,2,1,0,31,31,10,1,,,,,,,,,,,,,,,,,,,,,,,,,,,,,,,,,,,,,,,,,,,,,,,,,,,,,,,,,,,,,,,,,,,,,,
,,?,0.001305,0,,,,,,stimuli/images/PICTURE_750.png,HOTEL,5ea16e9df548030009513cb7,13/10/1952,2020-07-09_21h11.26.158,proactive,2020.1.2,Win32,60,5f073de81c76c3308c0e4fb3,5f07795f29b738397c8bbc0c,1,,,,,,kettle,,,,,,,,,,,3,1,0,32,32,27,1,,,,,,,,,,,,,,,,,,,,,,,,,,,,,,,,,,,,,,,,,,,,,,,,,,,,,,,,,,,,,,,,,,,,,,
,,BOYS,8.204015,1,,,,,,stimuli/images/PICTURE_95.png,BOYS,5ea16e9df548030009513cb7,13/10/1952,2020-07-09_21h11.26.158,proactive,2020.1.2,Win32,60,5f073de81c76c3308c0e4fb3,5f07795f29b738397c8bbc0c,1,,,,,,suitcase,,,,,,,,,,,1,1,0,33,33,1,1,,,,,,,,,,,,,,,,,,,,,,,,,,,,,,,,,,,,,,,,,,,,,,,,,,,,,,,,,,,,,,,,,,,,,,
,,?,15.009345,0,,,,,,stimuli/images/PICTURE_33.png,FRIEND,5ea16e9df548030009513cb7,13/10/1952,2020-07-09_21h11.26.158,proactive,2020.1.2,Win32,60,5f073de81c76c3308c0e4fb3,5f07795f29b738397c8bbc0c,1,,,,,,frame,,,,,,,,,,,1,1,0,34,34,8,1,,,,,,,,,,,,,,,,,,,,,,,,,,,,,,,,,,,,,,,,,,,,,,,,,,,,,,,,,,,,,,,,,,,,,,
,,?,0.001595,0,,,,,,stimuli/images/PICTURE_233.png,LOTS,5ea16e9df548030009513cb7,13/10/1952,2020-07-09_21h11.26.158,proactive,2020.1.2,Win32,60,5f073de81c76c3308c0e4fb3,5f07795f29b738397c8bbc0c,1,,,,,,salt,,,,,,,,,,,5,1,0,35,35,42,1,,,,,,,,,,,,,,,,,,,,,,,,,,,,,,,,,,,,,,,,,,,,,,,,,,,,,,,,,,,,,,,,,,,,,,
,,?,0.00132,0,,,,,,stimuli/images/PICTURE_108.png,FLIGHT,5ea16e9df548030009513cb7,13/10/1952,2020-07-09_21h11.26.158,proactive,2020.1.2,Win32,60,5f073de81c76c3308c0e4fb3,5f07795f29b738397c8bbc0c,1,,,,,,calendar,,,,,,,,,,,6,1,0,36,36,59,1,,,,,,,,,,,,,,,,,,,,,,,,,,,,,,,,,,,,,,,,,,,,,,,,,,,,,,,,,,,,,,,,,,,,,,
,,?,0.00136,0,,,,,,stimuli/images/PICTURE_95.png,MILLER,5ea16e9df548030009513cb7,13/10/1952,2020-07-09_21h11.26.158,proactive,2020.1.2,Win32,60,5f073de81c76c3308c0e4fb3,5f07795f29b738397c8bbc0c,1,,,,,,suitcase,,,,,,,,,,,6,1,0,37,37,56,1,,,,,,,,,,,,,,,,,,,,,,,,,,,,,,,,,,,,,,,,,,,,,,,,,,,,,,,,,,,,,,,,,,,,,,
,,?,0.001325,0,,,,,,stimuli/images/PICTURE_708.png,RECORD,5ea16e9df548030009513cb7,13/10/1952,2020-07-09_21h11.26.158,proactive,2020.1.2,Win32,60,5f073de81c76c3308c0e4fb3,5f07795f29b738397c8bbc0c,1,,,,,,monkey,,,,,,,,,,,6,1,0,38,38,58,1,,,,,,,,,,,,,,,,,,,,,,,,,,,,,,,,,,,,,,,,,,,,,,,,,,,,,,,,,,,,,,,,,,,,,,
,,?,0.001575,0,,,,,,stimuli/images/PICTURE_340.png,LETTER,5ea16e9df548030009513cb7,13/10/1952,2020-07-09_21h11.26.158,proactive,2020.1.2,Win32,60,5f073de81c76c3308c0e4fb3,5f07795f29b738397c8bbc0c,1,,,,,,mirror,,,,,,,,,,,3,1,0,39,39,24,1,,,,,,,,,,,,,,,,,,,,,,,,,,,,,,,,,,,,,,,,,,,,,,,,,,,,,,,,,,,,,,,,,,,,,,
,,?,0.001265,0,,,,,,stimuli/images/PICTURE_203.png,GODS,5ea16e9df548030009513cb7,13/10/1952,2020-07-09_21h11.26.158,proactive,2020.1.2,Win32,60,5f073de81c76c3308c0e4fb3,5f07795f29b738397c8bbc0c,1,,,,,,cap,,,,,,,,,,,4,1,0,40,40,30,1,,,,,,,,,,,,,,,,,,,,,,,,,,,,,,,,,,,,,,,,,,,,,,,,,,,,,,,,,,,,,,,,,,,,,,
,,?,0.00126,0,,,,,,stimuli/images/PICTURE_564.png,BATH,5ea16e9df548030009513cb7,13/10/1952,2020-07-09_21h11.26.158,proactive,2020.1.2,Win32,60,5f073de81c76c3308c0e4fb3,5f07795f29b738397c8bbc0c,1,,,,,,spoon,,,,,,,,,,,3,1,0,41,41,26,1,,,,,,,,,,,,,,,,,,,,,,,,,,,,,,,,,,,,,,,,,,,,,,,,,,,,,,,,,,,,,,,,,,,,,,
,,?,0.0013,0,,,,,,stimuli/images/PICTURE_504.png,YEAR,5ea16e9df548030009513cb7,13/10/1952,2020-07-09_21h11.26.158,proactive,2020.1.2,Win32,60,5f073de81c76c3308c0e4fb3,5f07795f29b738397c8bbc0c,1,,,,,,wheel,,,,,,,,,,,2,1,0,42,42,13,1,,,,,,,,,,,,,,,,,,,,,,,,,,,,,,,,,,,,,,,,,,,,,,,,,,,,,,,,,,,,,,,,,,,,,,
,,?,0.001295,0,,,,,,stimuli/images/PICTURE_405.png,PLENTY,5ea16e9df548030009513cb7,13/10/1952,2020-07-09_21h11.26.158,proactive,2020.1.2,Win32,60,5f073de81c76c3308c0e4fb3,5f07795f29b738397c8bbc0c,1,,,,,,anchor,,,,,,,,,,,3,1,0,43,43,23,1,,,,,,,,,,,,,,,,,,,,,,,,,,,,,,,,,,,,,,,,,,,,,,,,,,,,,,,,,,,,,,,,,,,,,,
,,RIVER,6.613505,1,,,,,,stimuli/images/PICTURE_491.png,RIVER,5ea16e9df548030009513cb7,13/10/1952,2020-07-09_21h11.26.158,proactive,2020.1.2,Win32,60,5f073de81c76c3308c0e4fb3,5f07795f29b738397c8bbc0c,1,,,,,,rug,,,,,,,,,,,1,1,0,44,44,6,1,,,,,,,,,,,,,,,,,,,,,,,,,,,,,,,,,,,,,,,,,,,,,,,,,,,,,,,,,,,,,,,,,,,,,,
,,?,0.00162,0,,,,,,stimuli/images/PICTURE_491.png,GLASS,5ea16e9df548030009513cb7,13/10/1952,2020-07-09_21h11.26.158,proactive,2020.1.2,Win32,60,5f073de81c76c3308c0e4fb3,5f07795f29b738397c8bbc0c,1,,,,,,rug,,,,,,,,,,,2,1,0,45,45,14,1,,,,,,,,,,,,,,,,,,,,,,,,,,,,,,,,,,,,,,,,,,,,,,,,,,,,,,,,,,,,,,,,,,,,,,
,,LOTS,5.642025,1,,,,,,stimuli/images/PICTURE_296.png,LOTS,5ea16e9df548030009513cb7,13/10/1952,2020-07-09_21h11.26.158,proactive,2020.1.2,Win32,60,5f073de81c76c3308c0e4fb3,5f07795f29b738397c8bbc0c,1,,,,,,bolt,,,,,,,,,,,1,1,0,46,46,9,1,,,,,,,,,,,,,,,,,,,,,,,,,,,,,,,,,,,,,,,,,,,,,,,,,,,,,,,,,,,,,,,,,,,,,,
,,?,0.002325,0,,,,,,stimuli/images/PICTURE_296.png,LIFE,5ea16e9df548030009513cb7,13/10/1952,2020-07-09_21h11.26.158,proactive,2020.1.2,Win32,60,5f073de81c76c3308c0e4fb3,5f07795f29b738397c8bbc0c,1,,,,,,bolt,,,,,,,,,,,6,1,0,47,47,57,1,,,,,,,,,,,,,,,,,,,,,,,,,,,,,,,,,,,,,,,,,,,,,,,,,,,,,,,,,,,,,,,,,,,,,,
,,?,0.00139,0,,,,,,stimuli/images/PICTURE_675.png,SALE,5ea16e9df548030009513cb7,13/10/1952,2020-07-09_21h11.26.158,proactive,2020.1.2,Win32,60,5f073de81c76c3308c0e4fb3,5f07795f29b738397c8bbc0c,1,,,,,,windmill,,,,,,,,,,,5,1,0,48,48,47,1,,,,,,,,,,,,,,,,,,,,,,,,,,,,,,,,,,,,,,,,,,,,,,,,,,,,,,,,,,,,,,,,,,,,,,
,,?,0.001445,0,,,,,,stimuli/images/PICTURE_383.png,SERIES,5ea16e9df548030009513cb7,13/10/1952,2020-07-09_21h11.26.158,proactive,2020.1.2,Win32,60,5f073de81c76c3308c0e4fb3,5f07795f29b738397c8bbc0c,1,,,,,,coin,,,,,,,,,,,5,1,0,49,49,46,1,,,,,,,,,,,,,,,,,,,,,,,,,,,,,,,,,,,,,,,,,,,,,,,,,,,,,,,,,,,,,,,,,,,,,,
,,?,0.001375,0,,,,,,stimuli/images/PICTURE_57.png,MOMENT,5ea16e9df548030009513cb7,13/10/1952,2020-07-09_21h11.26.158,proactive,2020.1.2,Win32,60,5f073de81c76c3308c0e4fb3,5f07795f29b738397c8bbc0c,1,,,,,,stamp,,,,,,,,,,,4,1,0,50,50,37,1,,,,,,,,,,,,,,,,,,,,,,,,,,,,,,,,,,,,,,,,,,,,,,,,,,,,,,,,,,,,,,,,,,,,,,
,,?,0.001405,0,,,,,,stimuli/images/PICTURE_32.png,KIND,5ea16e9df548030009513cb7,13/10/1952,2020-07-09_21h11.26.158,proactive,2020.1.2,Win32,60,5f073de81c76c3308c0e4fb3,5f07795f29b738397c8bbc0c,1,,,,,,crown,,,,,,,,,,,4,1,0,51,51,35,1,,,,,,,,,,,,,,,,,,,,,,,,,,,,,,,,,,,,,,,,,,,,,,,,,,,,,,,,,,,,,,,,,,,,,,
,,?,0.00135,0,,,,,,stimuli/images/PICTURE_285.png,LIFE,5ea16e9df548030009513cb7,13/10/1952,2020-07-09_21h11.26.158,proactive,2020.1.2,Win32,60,5f073de81c76c3308c0e4fb3,5f07795f29b738397c8bbc0c,1,,,,,,carrot,,,,,,,,,,,4,1,0,52,52,33,1,,,,,,,,,,,,,,,,,,,,,,,,,,,,,,,,,,,,,,,,,,,,,,,,,,,,,,,,,,,,,,,,,,,,,,
,,?,0.001405,0,,,,,,stimuli/images/PICTURE_403.png,RIVER,5ea16e9df548030009513cb7,13/10/1952,2020-07-09_21h11.26.158,proactive,2020.1.2,Win32,60,5f073de81c76c3308c0e4fb3,5f07795f29b738397c8bbc0c,1,,,,,,cathedral,,,,,,,,,,,5,1,0,53,53,40,1,,,,,,,,,,,,,,,,,,,,,,,,,,,,,,,,,,,,,,,,,,,,,,,,,,,,,,,,,,,,,,,,,,,,,,
,,?,0.00138,0,,,,,,stimuli/images/PICTURE_2.png,FLIGHT,5ea16e9df548030009513cb7,13/10/1952,2020-07-09_21h11.26.158,proactive,2020.1.2,Win32,60,5f073de81c76c3308c0e4fb3,5f07795f29b738397c8bbc0c,1,,,,,,tyre,,,,,,,,,,,2,1,0,54,54,15,1,,,,,,,,,,,,,,,,,,,,,,,,,,,,,,,,,,,,,,,,,,,,,,,,,,,,,,,,,,,,,,,,,,,,,,
,,?,0.001365,0,,,,,,stimuli/images/PICTURE_403.png,TOILET,5ea16e9df548030009513cb7,13/10/1952,2020-07-09_21h11.26.158,proactive,2020.1.2,Win32,60,5f073de81c76c3308c0e4fb3,5f07795f29b738397c8bbc0c,1,,,,,,cathedral,,,,,,,,,,,3,1,0,55,55,25,1,,,,,,,,,,,,,,,,,,,,,,,,,,,,,,,,,,,,,,,,,,,,,,,,,,,,,,,,,,,,,,,,,,,,,,
,,?,0.001385,0,,,,,,stimuli/images/PICTURE_177.png,WRITER,5ea16e9df548030009513cb7,13/10/1952,2020-07-09_21h11.26.158,proactive,2020.1.2,Win32,60,5f073de81c76c3308c0e4fb3,5f07795f29b738397c8bbc0c,1,,,,,,mushroom,,,,,,,,,,,5,1,0,56,56,41,1,,,,,,,,,,,,,,,,,,,,,,,,,,,,,,,,,,,,,,,,,,,,,,,,,,,,,,,,,,,,,,,,,,,,,,
,,?,0.001355,0,,,,,,stimuli/images/PICTURE_42.png,BOYS,5ea16e9df548030009513cb7,13/10/1952,2020-07-09_21h11.26.158,proactive,2020.1.2,Win32,60,5f073de81c76c3308c0e4fb3,5f07795f29b738397c8bbc0c,1,,,,,,pear,,,,,,,,,,,6,1,0,57,57,55,1,,,,,,,,,,,,,,,,,,,,,,,,,,,,,,,,,,,,,,,,,,,,,,,,,,,,,,,,,,,,,,,,,,,,,,
,,?,0.00089,0,,,,,,stimuli/images/PICTURE_68.png,ROOF,5ea16e9df548030009513cb7,13/10/1952,2020-07-09_21h11.26.158,proactive,2020.1.2,Win32,60,5f073de81c76c3308c0e4fb3,5f07795f29b738397c8bbc0c,1,,,,,,candle,,,,,,,,,,,4,1,0,58,58,38,1,,,,,,,,,,,,,,,,,,,,,,,,,,,,,,,,,,,,,,,,,,,,,,,,,,,,,,,,,,,,,,,,,,,,,,
,,?,0.000545,0,,,,,,stimuli/images/PICTURE_32.png,PILLS,5ea16e9df548030009513cb7,13/10/1952,2020-07-09_21h11.26.158,proactive,2020.1.2,Win32,60,5f073de81c76c3308c0e4fb3,5f07795f29b738397c8bbc0c,1,,,,,,crown,,,,,,,,,,,2,1,0,59,59,18,1,,,,,,,,,,,,,,,,,,,,,,,,,,,,,,,,,,,,,,,,,,,,,,,,,,,,,,,,,,,,,,,,,,,,,,
,,,,,,,,,,,,5ea16e9df548030009513cb7,13/10/1952,2020-07-09_21h11.26.158,proactive,2020.1.2,Win32,60,5f073de81c76c3308c0e4fb3,5f07795f29b738397c8bbc0c,1,,,,,,,,,,,,,,,,,,,,,,,,0,0,0,1,1,stimuli/learn-block2.csv,,,,,,,,,,,,,,,,,,,,,,,,,,,,,,,,,,,,,,,,,,,,,,,,,,,,,,,,,,,,,,,,
,,,,,,,,,,stimuli/images/PICTURE_688.png,CASINO,5ea16e9df548030009513cb7,13/10/1952,2020-07-09_21h11.26.158,proactive,2020.1.2,Win32,60,5f073de81c76c3308c0e4fb3,5f07795f29b738397c8bbc0c,1,,,,,,runner,,,,,,0,0,0,2,1,1,0,,,,,,,,,,,,,,,,,,,,,,,,,,,,,,,,,,,,,,,,,,,,,,,,,,,,,,,,,,,,,,,,,,,,,,,,,,,
,,,,,,,,,,stimuli/images/PICTURE_692.png,MONTH,5ea16e9df548030009513cb7,13/10/1952,2020-07-09_21h11.26.158,proactive,2020.1.2,Win32,60,5f073de81c76c3308c0e4fb3,5f07795f29b738397c8bbc0c,1,,,,,,cherry,,,,,,0,1,1,16,1,2,0,,,,,,,,,,,,,,,,,,,,,,,,,,,,,,,,,,,,,,,,,,,,,,,,,,,,,,,,,,,,,,,,,,,,,,,,,,,
,,,,,,,,,,stimuli/images/PICTURE_356.png,DANGER,5ea16e9df548030009513cb7,13/10/1952,2020-07-09_21h11.26.158,proactive,2020.1.2,Win32,60,5f073de81c76c3308c0e4fb3,5f07795f29b738397c8bbc0c,1,,,,,,pawn,,,,,,0,2,2,55,1,6,0,,,,,,,,,,,,,,,,,,,,,,,,,,,,,,,,,,,,,,,,,,,,,,,,,,,,,,,,,,,,,,,,,,,,,,,,,,,
,,,,,,,,,,stimuli/images/PICTURE_123.png,ADVICE,5ea16e9df548030009513cb7,13/10/1952,2020-07-09_21h11.26.158,proactive,2020.1.2,Win32,60,5f073de81c76c3308c0e4fb3,5f07795f29b738397c8bbc0c,1,,,,,,dart,,,,,,0,3,3,50,1,6,0,,,,,,,,,,,,,,,,,,,,,,,,,,,,,,,,,,,,,,,,,,,,,,,,,,,,,,,,,,,,,,,,,,,,,,,,,,,
,,,,,,,,,,stimuli/images/PICTURE_380.png,DEATH,5ea16e9df548030009513cb7,13/10/1952,2020-07-09_21h11.26.158,proactive,2020.1.2,Win32,60,5f073de81c76c3308c0e4fb3,5f07795f29b738397c8bbc0c,1,,,,,,gorilla,,,,,,0,4,4,49,1,5,0,,,,,,,,,,,,,,,,,,,,,,,,,,,,,,,,,,,,,,,,,,,,,,,,,,,,,,,,,,,,,,,,,,,,,,,,,,,
,,,,,,,,,,stimuli/images/PICTURE_744.png,SAKE,5ea16e9df548030009513cb7,13/10/1952,2020-07-09_21h11.26.158,proactive,2020.1.2,Win32,60,5f073de81c76c3308c0e4fb3,5f07795f29b738397c8bbc0c,1,,,,,,ring,,,,,,0,5,5,17,1,2,0,,,,,,,,,,,,,,,,,,,,,,,,,,,,,,,,,,,,,,,,,,,,,,,,,,,,,,,,,,,,,,,,,,,,,,,,,,,
,,,,,,,,,,stimuli/images/PICTURE_233.png,WOMEN,5ea16e9df548030009513cb7,13/10/1952,2020-07-09_21h11.26.158,proactive,2020.1.2,Win32,60,5f073de81c76c3308c0e4fb3,5f07795f29b738397c8bbc0c,1,,,,,,salt,,,,,,0,6,6,38,1,4,0,,,,,,,,,,,,,,,,,,,,,,,,,,,,,,,,,,,,,,,,,,,,,,,,,,,,,,,,,,,,,,,,,,,,,,,,,,,
,,,,,,,,,,stimuli/images/PICTURE_308.png,KIND,5ea16e9df548030009513cb7,13/10/1952,2020-07-09_21h11.26.158,proactive,2020.1.2,Win32,60,5f073de81c76c3308c0e4fb3,5f07795f29b738397c8bbc0c,1,,,,,,dice,,,,,,0,7,7,54,1,6,0,,,,,,,,,,,,,,,,,,,,,,,,,,,,,,,,,,,,,,,,,,,,,,,,,,,,,,,,,,,,,,,,,,,,,,,,,,,
,,,,,,,,,,stimuli/images/PICTURE_215.png,PLENTY,5ea16e9df548030009513cb7,13/10/1952,2020-07-09_21h11.26.158,proactive,2020.1.2,Win32,60,5f073de81c76c3308c0e4fb3,5f07795f29b738397c8bbc0c,1,,,,,,boot,,,,,,0,8,8,37,1,4,0,,,,,,,,,,,,,,,,,,,,,,,,,,,,,,,,,,,,,,,,,,,,,,,,,,,,,,,,,,,,,,,,,,,,,,,,,,,
,,,,,,,,,,stimuli/images/PICTURE_208.png,LOTS,5ea16e9df548030009513cb7,13/10/1952,2020-07-09_21h11.26.158,proactive,2020.1.2,Win32,60,5f073de81c76c3308c0e4fb3,5f07795f29b738397c8bbc0c,1,,,,,,microphone,,,,,,0,9,9,10,1,2,0,,,,,,,,,,,,,,,,,,,,,,,,,,,,,,,,,,,,,,,,,,,,,,,,,,,,,,,,,,,,,,,,,,,,,,,,,,,
,,,,,,,,,,stimuli/images/PICTURE_467.png,DEMON,5ea16e9df548030009513cb7,13/10/1952,2020-07-09_21h11.26.158,proactive,2020.1.2,Win32,60,5f073de81c76c3308c0e4fb3,5f07795f29b738397c8bbc0c,1,,,,,,peg,,,,,,0,10,10,23,1,3,0,,,,,,,,,,,,,,,,,,,,,,,,,,,,,,,,,,,,,,,,,,,,,,,,,,,,,,,,,,,,,,,,,,,,,,,,,,,
,,,,,,,,,,stimuli/images/PICTURE_95.png,STYLE,5ea16e9df548030009513cb7,13/10/1952,2020-07-09_21h11.26.158,proactive,2020.1.2,Win32,60,5f073de81c76c3308c0e4fb3,5f07795f29b738397c8bbc0c,1,,,,,,suitcase,,,,,,0,11,11,25,1,3,0,,,,,,,,,,,,,,,,,,,,,,,,,,,,,,,,,,,,,,,,,,,,,,,,,,,,,,,,,,,,,,,,,,,,,,,,,,,
,,,,,,,,,,stimuli/images/PICTURE_32.png,JUNGLE,5ea16e9df548030009513cb7,13/10/1952,2020-07-09_21h11.26.158,proactive,2020.1.2,Win32,60,5f073de81c76c3308c0e4fb3,5f07795f29b738397c8bbc0c,1,,,,,,crown,,,,,,0,12,12,45,1,5,0,,,,,,,,,,,,,,,,,,,,,,,,,,,,,,,,,,,,,,,,,,,,,,,,,,,,,,,,,,,,,,,,,,,,,,,,,,,
,,,,,,,,,,stimuli/images/PICTURE_491.png,WRITER,5ea16e9df548030009513cb7,13/10/1952,2020-07-09_21h11.26.158,proactive,2020.1.2,Win32,60,5f073de81c76c3308c0e4fb3,5f07795f29b738397c8bbc0c,1,,,,,,rug,,,,,,0,13,13,57,1,6,0,,,,,,,,,,,,,,,,,,,,,,,,,,,,,,,,,,,,,,,,,,,,,,,,,,,,,,,,,,,,,,,,,,,,,,,,,,,
,,,,,,,,,,stimuli/images/PICTURE_488.png,STYLE,5ea16e9df548030009513cb7,13/10/1952,2020-07-09_21h11.26.158,proactive,2020.1.2,Win32,60,5f073de81c76c3308c0e4fb3,5f07795f29b738397c8bbc0c,1,,,,,,sun,,,,,,0,14,14,33,1,4,0,,,,,,,,,,,,,,,,,,,,,,,,,,,,,,,,,,,,,,,,,,,,,,,,,,,,,,,,,,,,,,,,,,,,,,,,,,,
,,,,,,,,,,stimuli/images/PICTURE_708.png,PENNY,5ea16e9df548030009513cb7,13/10/1952,2020-07-09_21h11.26.158,proactive,2020.1.2,Win32,60,5f073de81c76c3308c0e4fb3,5f07795f29b738397c8bbc0c,1,,,,,,monkey,,,,,,0,15,15,31,1,4,0,,,,,,,,,,,,,,,,,,,,,,,,,,,,,,,,,,,,,,,,,,,,,,,,,,,,,,,,,,,,,,,,,,,,,,,,,,,
,,,,,,,,,,stimuli/images/PICTURE_208.png,THING,5ea16e9df548030009513cb7,13/10/1952,2020-07-09_21h11.26.158,proactive,2020.1.2,Win32,60,5f073de81c76c3308c0e4fb3,5f07795f29b738397c8bbc0c,1,,,,,,microphone,,,,,,0,16,16,47,1,5,0,,,,,,,,,,,,,,,,,,,,,,,,,,,,,,,,,,,,,,,,,,,,,,,,,,,,,,,,,,,,,,,,,,,,,,,,,,,
,,,,,,,,,,stimuli/images/PICTURE_233.png,IDEAS,5ea16e9df548030009513cb7,13/10/1952,2020-07-09_21h11.26.158,proactive,2020.1.2,Win32,60,5f073de81c76c3308c0e4fb3,5f07795f29b738397c8bbc0c,1,,,,,,salt,,,,,,0,17,17,28,1,3,0,,,,,,,,,,,,,,,,,,,,,,,,,,,,,,,,,,,,,,,,,,,,,,,,,,,,,,,,,,,,,,,,,,,,,,,,,,,
,,,,,,,,,,stimuli/images/PICTURE_255.png,AREA,5ea16e9df548030009513cb7,13/10/1952,2020-07-09_21h11.26.158,proactive,2020.1.2,Win32,60,5f073de81c76c3308c0e4fb3,5f07795f29b738397c8bbc0c,1,,,,,,shovel,,,,,,0,18,18,22,1,3,0,,,,,,,,,,,,,,,,,,,,,,,,,,,,,,,,,,,,,,,,,,,,,,,,,,,,,,,,,,,,,,,,,,,,,,,,,,,
,,,,,,,,,,stimuli/images/PICTURE_314.png,SAKE,5ea16e9df548030009513cb7,13/10/1952,2020-07-09_21h11.26.158,proactive,2020.1.2,Win32,60,5f073de81c76c3308c0e4fb3,5f07795f29b738397c8bbc0c,1,,,,,,perfume,,,,,,0,19,19,7,1,1,0,,,,,,,,,,,,,,,,,,,,,,,,,,,,,,,,,,,,,,,,,,,,,,,,,,,,,,,,,,,,,,,,,,,,,,,,,,,
,,,,,,,,,,stimuli/images/PICTURE_160.png,FEET,5ea16e9df548030009513cb7,13/10/1952,2020-07-09_21h11.26.158,proactive,2020.1.2,Win32,60,5f073de81c76c3308c0e4fb3,5f07795f29b738397c8bbc0c,1,,,,,,wheelbarrow,,,,,,0,20,20,58,1,6,0,,,,,,,,,,,,,,,,,,,,,,,,,,,,,,,,,,,,,,,,,,,,,,,,,,,,,,,,,,,,,,,,,,,,,,,,,,,
,,,,,,,,,,stimuli/images/PICTURE_327.png,BEAUTY,5ea16e9df548030009513cb7,13/10/1952,2020-07-09_21h11.26.158,proactive,2020.1.2,Win32,60,5f073de81c76c3308c0e4fb3,5f07795f29b738397c8bbc0c,1,,,,,,helmet,,,,,,0,21,21,48,1,5,0,,,,,,,,,,,,,,,,,,,,,,,,,,,,,,,,,,,,,,,,,,,,,,,,,,,,,,,,,,,,,,,,,,,,,,,,,,,
,,,,,,,,,,stimuli/images/PICTURE_147.png,MOMENT,5ea16e9df548030009513cb7,13/10/1952,2020-07-09_21h11.26.158,proactive,2020.1.2,Win32,60,5f073de81c76c3308c0e4fb3,5f07795f29b738397c8bbc0c,1,,,,,,hanger,,,,,,0,22,22,51,1,6,0,,,,,,,,,,,,,,,,,,,,,,,,,,,,,,,,,,,,,,,,,,,,,,,,,,,,,,,,,,,,,,,,,,,,,,,,,,,
,,,,,,,,,,stimuli/images/PICTURE_314.png,GODS,5ea16e9df548030009513cb7,13/10/1952,2020-07-09_21h11.26.158,proactive,2020.1.2,Win32,60,5f073de81c76c3308c0e4fb3,5f07795f29b738397c8bbc0c,1,,,,,,perfume,,,,,,0,23,23,11,1,2,0,,,,,,,,,,,,,,,,,,,,,,,,,,,,,,,,,,,,,,,,,,,,,,,,,,,,,,,,,,,,,,,,,,,,,,,,,,,
,,,,,,,,,,stimuli/images/PICTURE_339.png,PLENTY,5ea16e9df548030009513cb7,13/10/1952,2020-07-09_21h11.26.158,proactive,2020.1.2,Win32,60,5f073de81c76c3308c0e4fb3,5f07795f29b738397c8bbc0c,1,,,,,,backpack,,,,,,0,24,24,0,1,1,0,,,,,,,,,,,,,,,,,,,,,,,,,,,,,,,,,,,,,,,,,,,,,,,,,,,,,,,,,,,,,,,,,,,,,,,,,,,
,,,,,,,,,,stimuli/images/PICTURE_449.png,THING,5ea16e9df548030009513cb7,13/10/1952,2020-07-09_21h11.26.158,proactive,2020.1.2,Win32,60,5f073de81c76c3308c0e4fb3,5f07795f29b738397c8bbc0c,1,,,,,,bench,,,,,,0,25,25,59,1,6,0,,,,,,,,,,,,,,,,,,,,,,,,,,,,,,,,,,,,,,,,,,,,,,,,,,,,,,,,,,,,,,,,,,,,,,,,,,,
,,,,,,,,,,stimuli/images/PICTURE_308.png,ESTATE,5ea16e9df548030009513cb7,13/10/1952,2020-07-09_21h11.26.158,proactive,2020.1.2,Win32,60,5f073de81c76c3308c0e4fb3,5f07795f29b738397c8bbc0c,1,,,,,,dice,,,,,,0,26,26,46,1,5,0,,,,,,,,,,,,,,,,,,,,,,,,,,,,,,,,,,,,,,,,,,,,,,,,,,,,,,,,,,,,,,,,,,,,,,,,,,,
,,,,,,,,,,stimuli/images/PICTURE_311.png,FRIEND,5ea16e9df548030009513cb7,13/10/1952,2020-07-09_21h11.26.158,proactive,2020.1.2,Win32,60,5f073de81c76c3308c0e4fb3,5f07795f29b738397c8bbc0c,1,,,,,,razor,,,,,,0,27,27,34,1,4,0,,,,,,,,,,,,,,,,,,,,,,,,,,,,,,,,,,,,,,,,,,,,,,,,,,,,,,,,,,,,,,,,,,,,,,,,,,,
,,,,,,,,,,stimuli/images/PICTURE_248.png,DOZEN,5ea16e9df548030009513cb7,13/10/1952,2020-07-09_21h11.26.158,proactive,2020.1.2,Win32,60,5f073de81c76c3308c0e4fb3,5f07795f29b738397c8bbc0c,1,,,,,,cart,,,,,,0,28,28,39,1,4,0,,,,,,,,,,,,,,,,,,,,,,,,,,,,,,,,,,,,,,,,,,,,,,,,,,,,,,,,,,,,,,,,,,,,,,,,,,,
,,,,,,,,,,stimuli/images/PICTURE_380.png,PHOTO,5ea16e9df548030009513cb7,13/10/1952,2020-07-09_21h11.26.158,proactive,2020.1.2,Win32,60,5f073de81c76c3308c0e4fb3,5f07795f29b738397c8bbc0c,1,,,,,,gorilla,,,,,,0,29,29,52,1,6,0,,,,,,,,,,,,,,,,,,,,,,,,,,,,,,,,,,,,,,,,,,,,,,,,,,,,,,,,,,,,,,,,,,,,,,,,,,,
,,,,,,,,,,stimuli/images/PICTURE_177.png,CARS,5ea16e9df548030009513cb7,13/10/1952,2020-07-09_21h11.26.158,proactive,2020.1.2,Win32,60,5f073de81c76c3308c0e4fb3,5f07795f29b738397c8bbc0c,1,,,,,,mushroom,,,,,,0,30,30,35,1,4,0,,,,,,,,,,,,,,,,,,,,,,,,,,,,,,,,,,,,,,,,,,,,,,,,,,,,,,,,,,,,,,,,,,,,,,,,,,,
,,,,,,,,,,stimuli/images/PICTURE_677.png,MILE,5ea16e9df548030009513cb7,13/10/1952,2020-07-09_21h11.26.158,proactive,2020.1.2,Win32,60,5f073de81c76c3308c0e4fb3,5f07795f29b738397c8bbc0c,1,,,,,,map,,,,,,0,31,31,30,1,4,0,,,,,,,,,,,,,,,,,,,,,,,,,,,,,,,,,,,,,,,,,,,,,,,,,,,,,,,,,,,,,,,,,,,,,,,,,,,
,,,,,,,,,,stimuli/images/PICTURE_453.png,PLENTY,5ea16e9df548030009513cb7,13/10/1952,2020-07-09_21h11.26.158,proactive,2020.1.2,Win32,60,5f073de81c76c3308c0e4fb3,5f07795f29b738397c8bbc0c,1,,,,,,scissors,,,,,,0,32,32,56,1,6,0,,,,,,,,,,,,,,,,,,,,,,,,,,,,,,,,,,,,,,,,,,,,,,,,,,,,,,,,,,,,,,,,,,,,,,,,,,,
,,,,,,,,,,stimuli/images/PICTURE_675.png,WEAPON,5ea16e9df548030009513cb7,13/10/1952,2020-07-09_21h11.26.158,proactive,2020.1.2,Win32,60,5f073de81c76c3308c0e4fb3,5f07795f29b738397c8bbc0c,1,,,,,,windmill,,,,,,0,33,33,32,1,4,0,,,,,,,,,,,,,,,,,,,,,,,,,,,,,,,,,,,,,,,,,,,,,,,,,,,,,,,,,,,,,,,,,,,,,,,,,,,
,,,,,,,,,,stimuli/images/PICTURE_469.png,LETTER,5ea16e9df548030009513cb7,13/10/1952,2020-07-09_21h11.26.158,proactive,2020.1.2,Win32,60,5f073de81c76c3308c0e4fb3,5f07795f29b738397c8bbc0c,1,,,,,,stool,,,,,,0,34,34,42,1,5,0,,,,,,,,,,,,,,,,,,,,,,,,,,,,,,,,,,,,,,,,,,,,,,,,,,,,,,,,,,,,,,,,,,,,,,,,,,,
,,,,,,,,,,stimuli/images/PICTURE_311.png,BEAUTY,5ea16e9df548030009513cb7,13/10/1952,2020-07-09_21h11.26.158,proactive,2020.1.2,Win32,60,5f073de81c76c3308c0e4fb3,5f07795f29b738397c8bbc0c,1,,,,,,razor,,,,,,0,35,35,13,1,2,0,,,,,,,,,,,,,,,,,,,,,,,,,,,,,,,,,,,,,,,,,,,,,,,,,,,,,,,,,,,,,,,,,,,,,,,,,,,
,,,,,,,,,,stimuli/images/PICTURE_285.png,ADVICE,5ea16e9df548030009513cb7,13/10/1952,2020-07-09_21h11.26.158,proactive,2020.1.2,Win32,60,5f073de81c76c3308c0e4fb3,5f07795f29b738397c8bbc0c,1,,,,,,carrot,,,,,,0,36,36,12,1,2,0,,,,,,,,,,,,,,,,,,,,,,,,,,,,,,,,,,,,,,,,,,,,,,,,,,,,,,,,,,,,,,,,,,,,,,,,,,,
,,,,,,,,,,stimuli/images/PICTURE_487.png,FLIGHT,5ea16e9df548030009513cb7,13/10/1952,2020-07-09_21h11.26.158,proactive,2020.1.2,Win32,60,5f073de81c76c3308c0e4fb3,5f07795f29b738397c8bbc0c,1,,,,,,basket,,,,,,0,37,37,9,1,1,0,,,,,,,,,,,,,,,,,,,,,,,,,,,,,,,,,,,,,,,,,,,,,,,,,,,,,,,,,,,,,,,,,,,,,,,,,,,
,,,,,,,,,,stimuli/images/PICTURE_470.png,CASINO,5ea16e9df548030009513cb7,13/10/1952,2020-07-09_21h11.26.158,proactive,2020.1.2,Win32,60,5f073de81c76c3308c0e4fb3,5f07795f29b738397c8bbc0c,1,,,,,,motorbike,,,,,,0,38,38,36,1,4,0,,,,,,,,,,,,,,,,,,,,,,,,,,,,,,,,,,,,,,,,,,,,,,,,,,,,,,,,,,,,,,,,,,,,,,,,,,,
,,,,,,,,,,stimuli/images/PICTURE_667.png,PLENTY,5ea16e9df548030009513cb7,13/10/1952,2020-07-09_21h11.26.158,proactive,2020.1.2,Win32,60,5f073de81c76c3308c0e4fb3,5f07795f29b738397c8bbc0c,1,,,,,,daisy,,,,,,0,39,39,41,1,5,0,,,,,,,,,,,,,,,,,,,,,,,,,,,,,,,,,,,,,,,,,,,,,,,,,,,,,,,,,,,,,,,,,,,,,,,,,,,
,,,,,,,,,,stimuli/images/PICTURE_491.png,ROOF,5ea16e9df548030009513cb7,13/10/1952,2020-07-09_21h11.26.158,proactive,2020.1.2,Win32,60,5f073de81c76c3308c0e4fb3,5f07795f29b738397c8bbc0c,1,,,,,,rug,,,,,,0,40,40,24,1,3,0,,,,,,,,,,,,,,,,,,,,,,,,,,,,,,,,,,,,,,,,,,,,,,,,,,,,,,,,,,,,,,,,,,,,,,,,,,,
,,,,,,,,,,stimuli/images/PICTURE_68.png,MILE,5ea16e9df548030009513cb7,13/10/1952,2020-07-09_21h11.26.158,proactive,2020.1.2,Win32,60,5f073de81c76c3308c0e4fb3,5f07795f29b738397c8bbc0c,1,,,,,,candle,,,,,,0,41,41,44,1,5,0,,,,,,,,,,,,,,,,,,,,,,,,,,,,,,,,,,,,,,,,,,,,,,,,,,,,,,,,,,,,,,,,,,,,,,,,,,,
,,,,,,,,,,stimuli/images/PICTURE_160.png,LEADER,5ea16e9df548030009513cb7,13/10/1952,2020-07-09_21h11.26.158,proactive,2020.1.2,Win32,60,5f073de81c76c3308c0e4fb3,5f07795f29b738397c8bbc0c,1,,,,,,wheelbarrow,,,,,,0,42,42,3,1,1,0,,,,,,,,,,,,,,,,,,,,,,,,,,,,,,,,,,,,,,,,,,,,,,,,,,,,,,,,,,,,,,,,,,,,,,,,,,,
,,,,,,,,,,stimuli/images/PICTURE_504.png,BODY,5ea16e9df548030009513cb7,13/10/1952,2020-07-09_21h11.26.158,proactive,2020.1.2,Win32,60,5f073de81c76c3308c0e4fb3,5f07795f29b738397c8bbc0c,1,,,,,,wheel,,,,,,0,43,43,8,1,1,0,,,,,,,,,,,,,,,,,,,,,,,,,,,,,,,,,,,,,,,,,,,,,,,,,,,,,,,,,,,,,,,,,,,,,,,,,,,
,,,,,,,,,,stimuli/images/PICTURE_453.png,DUDE,5ea16e9df548030009513cb7,13/10/1952,2020-07-09_21h11.26.158,proactive,2020.1.2,Win32,60,5f073de81c76c3308c0e4fb3,5f07795f29b738397c8bbc0c,1,,,,,,scissors,,,,,,0,44,44,27,1,3,0,,,,,,,,,,,,,,,,,,,,,,,,,,,,,,,,,,,,,,,,,,,,,,,,,,,,,,,,,,,,,,,,,,,,,,,,,,,
,,,,,,,,,,stimuli/images/PICTURE_302.png,FAMILY,5ea16e9df548030009513cb7,13/10/1952,2020-07-09_21h11.26.158,proactive,2020.1.2,Win32,60,5f073de81c76c3308c0e4fb3,5f07795f29b738397c8bbc0c,1,,,,,,taxi,,,,,,0,45,45,18,1,2,0,,,,,,,,,,,,,,,,,,,,,,,,,,,,,,,,,,,,,,,,,,,,,,,,,,,,,,,,,,,,,,,,,,,,,,,,,,,
,,,,,,,,,,stimuli/images/PICTURE_708.png,CLIENT,5ea16e9df548030009513cb7,13/10/1952,2020-07-09_21h11.26.158,proactive,2020.1.2,Win32,60,5f073de81c76c3308c0e4fb3,5f07795f29b738397c8bbc0c,1,,,,,,monkey,,,,,,0,46,46,5,1,1,0,,,,,,,,,,,,,,,,,,,,,,,,,,,,,,,,,,,,,,,,,,,,,,,,,,,,,,,,,,,,,,,,,,,,,,,,,,,
,,,,,,,,,,stimuli/images/PICTURE_469.png,ARTIST,5ea16e9df548030009513cb7,13/10/1952,2020-07-09_21h11.26.158,proactive,2020.1.2,Win32,60,5f073de81c76c3308c0e4fb3,5f07795f29b738397c8bbc0c,1,,,,,,stool,,,,,,0,47,47,6,1,1,0,,,,,,,,,,,,,,,,,,,,,,,,,,,,,,,,,,,,,,,,,,,,,,,,,,,,,,,,,,,,,,,,,,,,,,,,,,,
,,,,,,,,,,stimuli/images/PICTURE_85.png,THING,5ea16e9df548030009513cb7,13/10/1952,2020-07-09_21h11.26.158,proactive,2020.1.2,Win32,60,5f073de81c76c3308c0e4fb3,5f07795f29b738397c8bbc0c,1,,,,,,diamond,,,,,,0,48,48,15,1,2,0,,,,,,,,,,,,,,,,,,,,,,,,,,,,,,,,,,,,,,,,,,,,,,,,,,,,,,,,,,,,,,,,,,,,,,,,,,,
,,,,,,,,,,stimuli/images/PICTURE_688.png,WOMEN,5ea16e9df548030009513cb7,13/10/1952,2020-07-09_21h11.26.158,proactive,2020.1.2,Win32,60,5f073de81c76c3308c0e4fb3,5f07795f29b738397c8bbc0c,1,,,,,,runner,,,,,,0,49,49,14,1,2,0,,,,,,,,,,,,,,,,,,,,,,,,,,,,,,,,,,,,,,,,,,,,,,,,,,,,,,,,,,,,,,,,,,,,,,,,,,,
,,,,,,,,,,stimuli/images/PICTURE_654.png,VALLEY,5ea16e9df548030009513cb7,13/10/1952,2020-07-09_21h11.26.158,proactive,2020.1.2,Win32,60,5f073de81c76c3308c0e4fb3,5f07795f29b738397c8bbc0c,1,,,,,,pencil,,,,,,0,50,50,1,1,1,0,,,,,,,,,,,,,,,,,,,,,,,,,,,,,,,,,,,,,,,,,,,,,,,,,,,,,,,,,,,,,,,,,,,,,,,,,,,
,,,,,,,,,,stimuli/images/PICTURE_151.png,GIRL,5ea16e9df548030009513cb7,13/10/1952,2020-07-09_21h11.26.158,proactive,2020.1.2,Win32,60,5f073de81c76c3308c0e4fb3,5f07795f29b738397c8bbc0c,1,,,,,,tray,,,,,,0,51,51,19,1,2,0,,,,,,,,,,,,,,,,,,,,,,,,,,,,,,,,,,,,,,,,,,,,,,,,,,,,,,,,,,,,,,,,,,,,,,,,,,,
,,,,,,,,,,stimuli/images/PICTURE_348.png,SPEECH,5ea16e9df548030009513cb7,13/10/1952,2020-07-09_21h11.26.158,proactive,2020.1.2,Win32,60,5f073de81c76c3308c0e4fb3,5f07795f29b738397c8bbc0c,1,,,,,,pepper,,,,,,0,52,52,20,1,3,0,,,,,,,,,,,,,,,,,,,,,,,,,,,,,,,,,,,,,,,,,,,,,,,,,,,,,,,,,,,,,,,,,,,,,,,,,,,
,,,,,,,,,,stimuli/images/PICTURE_123.png,ADVICE,5ea16e9df548030009513cb7,13/10/1952,2020-07-09_21h11.26.158,proactive,2020.1.2,Win32,60,5f073de81c76c3308c0e4fb3,5f07795f29b738397c8bbc0c,1,,,,,,dart,,,,,,0,53,53,40,1,5,0,,,,,,,,,,,,,,,,,,,,,,,,,,,,,,,,,,,,,,,,,,,,,,,,,,,,,,,,,,,,,,,,,,,,,,,,,,,
,,,,,,,,,,stimuli/images/PICTURE_667.png,BATH,5ea16e9df548030009513cb7,13/10/1952,2020-07-09_21h11.26.158,proactive,2020.1.2,Win32,60,5f073de81c76c3308c0e4fb3,5f07795f29b738397c8bbc0c,1,,,,,,daisy,,,,,,0,54,54,4,1,1,0,,,,,,,,,,,,,,,,,,,,,,,,,,,,,,,,,,,,,,,,,,,,,,,,,,,,,,,,,,,,,,,,,,,,,,,,,,,
,,,,,,,,,,stimuli/images/PICTURE_744.png,SYSTEM,5ea16e9df548030009513cb7,13/10/1952,2020-07-09_21h11.26.158,proactive,2020.1.2,Win32,60,5f073de81c76c3308c0e4fb3,5f07795f29b738397c8bbc0c,1,,,,,,ring,,,,,,0,55,55,43,1,5,0,,,,,,,,,,,,,,,,,,,,,,,,,,,,,,,,,,,,,,,,,,,,,,,,,,,,,,,,,,,,,,,,,,,,,,,,,,,
,,,,,,,,,,stimuli/images/PICTURE_203.png,ARTIST,5ea16e9df548030009513cb7,13/10/1952,2020-07-09_21h11.26.158,proactive,2020.1.2,Win32,60,5f073de81c76c3308c0e4fb3,5f07795f29b738397c8bbc0c,1,,,,,,cap,,,,,,0,56,56,26,1,3,0,,,,,,,,,,,,,,,,,,,,,,,,,,,,,,,,,,,,,,,,,,,,,,,,,,,,,,,,,,,,,,,,,,,,,,,,,,,
,,,,,,,,,,stimuli/images/PICTURE_509.png,PHOTO,5ea16e9df548030009513cb7,13/10/1952,2020-07-09_21h11.26.158,proactive,2020.1.2,Win32,60,5f073de81c76c3308c0e4fb3,5f07795f29b738397c8bbc0c,1,,,,,,telephone,,,,,,0,57,57,21,1,3,0,,,,,,,,,,,,,,,,,,,,,,,,,,,,,,,,,,,,,,,,,,,,,,,,,,,,,,,,,,,,,,,,,,,,,,,,,,,
,,,,,,,,,,stimuli/images/PICTURE_708.png,YARD,5ea16e9df548030009513cb7,13/10/1952,2020-07-09_21h11.26.158,proactive,2020.1.2,Win32,60,5f073de81c76c3308c0e4fb3,5f07795f29b738397c8bbc0c,1,,,,,,monkey,,,,,,0,58,58,29,1,3,0,,,,,,,,,,,,,,,,,,,,,,,,,,,,,,,,,,,,,,,,,,,,,,,,,,,,,,,,,,,,,,,,,,,,,,,,,,,
,,?,0.001675,0,,,,,,stimuli/images/PICTURE_285.png,ADVICE,5ea16e9df548030009513cb7,13/10/1952,2020-07-09_21h11.26.158,proactive,2020.1.2,Win32,60,5f073de81c76c3308c0e4fb3,5f07795f29b738397c8bbc0c,1,,,,,,carrot,,,,,,,,,,,2,0,0,0,0,12,1,,,,,,,,,,,,,,,,,,,,,,,,,,,,,,,,,,,,,,,,,,,,,,,,,,,,,,,,,,,,,,,,,,,,,,
,,?,0.0014,0,,,,,,stimuli/images/PICTURE_708.png,YARD,5ea16e9df548030009513cb7,13/10/1952,2020-07-09_21h11.26.158,proactive,2020.1.2,Win32,60,5f073de81c76c3308c0e4fb3,5f07795f29b738397c8bbc0c,1,,,,,,monkey,,,,,,,,,,,3,0,0,1,1,29,1,,,,,,,,,,,,,,,,,,,,,,,,,,,,,,,,,,,,,,,,,,,,,,,,,,,,,,,,,,,,,,,,,,,,,,
,,VALLEY,11.7395,1,,,,,,stimuli/images/PICTURE_654.png,VALLEY,5ea16e9df548030009513cb7,13/10/1952,2020-07-09_21h11.26.158,proactive,2020.1.2,Win32,60,5f073de81c76c3308c0e4fb3,5f07795f29b738397c8bbc0c,1,,,,,,pencil,,,,,,,,,,,1,0,0,2,2,1,1,,,,,,,,,,,,,,,,,,,,,,,,,,,,,,,,,,,,,,,,,,,,,,,,,,,,,,,,,,,,,,,,,,,,,,
,,?,0.00164,0,,,,,,stimuli/images/PICTURE_348.png,SPEECH,5ea16e9df548030009513cb7,13/10/1952,2020-07-09_21h11.26.158,proactive,2020.1.2,Win32,60,5f073de81c76c3308c0e4fb3,5f07795f29b738397c8bbc0c,1,,,,,,pepper,,,,,,,,,,,3,0,0,3,3,20,1,,,,,,,,,,,,,,,,,,,,,,,,,,,,,,,,,,,,,,,,,,,,,,,,,,,,,,,,,,,,,,,,,,,,,,
,,FLIGHT,6.175135,1,,,,,,stimuli/images/PICTURE_487.png,FLIGHT,5ea16e9df548030009513cb7,13/10/1952,2020-07-09_21h11.26.158,proactive,2020.1.2,Win32,60,5f073de81c76c3308c0e4fb3,5f07795f29b738397c8bbc0c,1,,,,,,basket,,,,,,,,,,,1,0,0,4,4,9,1,,,,,,,,,,,,,,,,,,,,,,,,,,,,,,,,,,,,,,,,,,,,,,,,,,,,,,,,,,,,,,,,,,,,,,
,,?,0.001635,0,,,,,,stimuli/images/PICTURE_208.png,MONTH,5ea16e9df548030009513cb7,13/10/1952,2020-07-09_21h11.26.158,proactive,2020.1.2,Win32,60,5f073de81c76c3308c0e4fb3,5f07795f29b738397c8bbc0c,1,,,,,,microphone,,,,,,,,,,,6,0,0,5,5,53,1,,,,,,,,,,,,,,,,,,,,,,,,,,,,,,,,,,,,,,,,,,,,,,,,,,,,,,,,,,,,,,,,,,,,,,
,,?,0.00128,0,,,,,,stimuli/images/PICTURE_667.png,PLENTY,5ea16e9df548030009513cb7,13/10/1952,2020-07-09_21h11.26.158,proactive,2020.1.2,Win32,60,5f073de81c76c3308c0e4fb3,5f07795f29b738397c8bbc0c,1,,,,,,daisy,,,,,,,,,,,5,0,0,6,6,41,1,,,,,,,,,,,,,,,,,,,,,,,,,,,,,,,,,,,,,,,,,,,,,,,,,,,,,,,,,,,,,,,,,,,,,,
,,BATH,4.872215,1,,,,,,stimuli/images/PICTURE_667.png,BATH,5ea16e9df548030009513cb7,13/10/1952,2020-07-09_21h11.26.158,proactive,2020.1.2,Win32,60,5f073de81c76c3308c0e4fb3,5f07795f29b738397c8bbc0c,1,,,,,,daisy,,,,,,,,,,,1,0,0,7,7,4,1,,,,,,,,,,,,,,,,,,,,,,,,,,,,,,,,,,,,,,,,,,,,,,,,,,,,,,,,,,,,,,,,,,,,,,
,,?,0.001525,0,,,,,,stimuli/images/PICTURE_160.png,FEET,5ea16e9df548030009513cb7,13/10/1952,2020-07-09_21h11.26.158,proactive,2020.1.2,Win32,60,5f073de81c76c3308c0e4fb3,5f07795f29b738397c8bbc0c,1,,,,,,wheelbarrow,,,,,,,,,,,6,0,0,8,8,58,1,,,,,,,,,,,,,,,,,,,,,,,,,,,,,,,,,,,,,,,,,,,,,,,,,,,,,,,,,,,,,,,,,,,,,,
,,?,0.001335,0,,,,,,stimuli/images/PICTURE_208.png,THING,5ea16e9df548030009513cb7,13/10/1952,2020-07-09_21h11.26.158,proactive,2020.1.2,Win32,60,5f073de81c76c3308c0e4fb3,5f07795f29b738397c8bbc0c,1,,,,,,microphone,,,,,,,,,,,5,0,0,9,9,47,1,,,,,,,,,,,,,,,,,,,,,,,,,,,,,,,,,,,,,,,,,,,,,,,,,,,,,,,,,,,,,,,,,,,,,,
,,?,0.001335,0,,,,,,stimuli/images/PICTURE_248.png,DOZEN,5ea16e9df548030009513cb7,13/10/1952,2020-07-09_21h11.26.158,proactive,2020.1.2,Win32,60,5f073de81c76c3308c0e4fb3,5f07795f29b738397c8bbc0c,1,,,,,,cart,,,,,,,,,,,4,0,0,10,10,39,1,,,,,,,,,,,,,,,,,,,,,,,,,,,,,,,,,,,,,,,,,,,,,,,,,,,,,,,,,,,,,,,,,,,,,,
,,?,0.00134,0,,,,,,stimuli/images/PICTURE_744.png,SYSTEM,5ea16e9df548030009513cb7,13/10/1952,2020-07-09_21h11.26.158,proactive,2020.1.2,Win32,60,5f073de81c76c3308c0e4fb3,5f07795f29b738397c8bbc0c,1,,,,,,ring,,,,,,,,,,,5,0,0,11,11,43,1,,,,,,,,,,,,,,,,,,,,,,,,,,,,,,,,,,,,,,,,,,,,,,,,,,,,,,,,,,,,,,,,,,,,,,
,,?,0.001325,0,,,,,,stimuli/images/PICTURE_302.png,FAMILY,5ea16e9df548030009513cb7,13/10/1952,2020-07-09_21h11.26.158,proactive,2020.1.2,Win32,60,5f073de81c76c3308c0e4fb3,5f07795f29b738397c8bbc0c,1,,,,,,taxi,,,,,,,,,,,2,0,0,12,12,18,1,,,,,,,,,,,,,,,,,,,,,,,,,,,,,,,,,,,,,,,,,,,,,,,,,,,,,,,,,,,,,,,,,,,,,,
,,?,0.001315,0,,,,,,stimuli/images/PICTURE_453.png,DUDE,5ea16e9df548030009513cb7,13/10/1952,2020-07-09_21h11.26.158,proactive,2020.1.2,Win32,60,5f073de81c76c3308c0e4fb3,5f07795f29b738397c8bbc0c,1,,,,,,scissors,,,,,,,,,,,3,0,0,13,13,27,1,,,,,,,,,,,,,,,,,,,,,,,,,,,,,,,,,,,,,,,,,,,,,,,,,,,,,,,,,,,,,,,,,,,,,,
,,?,0.001315,0,,,,,,stimuli/images/PICTURE_151.png,GIRL,5ea16e9df548030009513cb7,13/10/1952,2020-07-09_21h11.26.158,proactive,2020.1.2,Win32,60,5f073de81c76c3308c0e4fb3,5f07795f29b738397c8bbc0c,1,,,,,,tray,,,,,,,,,,,2,0,0,14,14,19,1,,,,,,,,,,,,,,,,,,,,,,,,,,,,,,,,,,,,,,,,,,,,,,,,,,,,,,,,,,,,,,,,,,,,,,
,,?,0.00136,0,,,,,,stimuli/images/PICTURE_470.png,CASINO,5ea16e9df548030009513cb7,13/10/1952,2020-07-09_21h11.26.158,proactive,2020.1.2,Win32,60,5f073de81c76c3308c0e4fb3,5f07795f29b738397c8bbc0c,1,,,,,,motorbike,,,,,,,,,,,4,0,0,15,15,36,1,,,,,,,,,,,,,,,,,,,,,,,,,,,,,,,,,,,,,,,,,,,,,,,,,,,,,,,,,,,,,,,,,,,,,,
,,?,0.001335,0,,,,,,stimuli/images/PICTURE_311.png,FRIEND,5ea16e9df548030009513cb7,13/10/1952,2020-07-09_21h11.26.158,proactive,2020.1.2,Win32,60,5f073de81c76c3308c0e4fb3,5f07795f29b738397c8bbc0c,1,,,,,,razor,,,,,,,,,,,4,0,0,16,16,34,1,,,,,,,,,,,,,,,,,,,,,,,,,,,,,,,,,,,,,,,,,,,,,,,,,,,,,,,,,,,,,,,,,,,,,,
,,?,0.001305,0,,,,,,stimuli/images/PICTURE_708.png,PENNY,5ea16e9df548030009513cb7,13/10/1952,2020-07-09_21h11.26.158,proactive,2020.1.2,Win32,60,5f073de81c76c3308c0e4fb3,5f07795f29b738397c8bbc0c,1,,,,,,monkey,,,,,,,,,,,4,0,0,17,17,31,1,,,,,,,,,,,,,,,,,,,,,,,,,,,,,,,,,,,,,,,,,,,,,,,,,,,,,,,,,,,,,,,,,,,,,,
,,?,0.00125,0,,,,,,stimuli/images/PICTURE_85.png,THING,5ea16e9df548030009513cb7,13/10/1952,2020-07-09_21h11.26.158,proactive,2020.1.2,Win32,60,5f073de81c76c3308c0e4fb3,5f07795f29b738397c8bbc0c,1,,,,,,diamond,,,,,,,,,,,2,0,0,18,18,15,1,,,,,,,,,,,,,,,,,,,,,,,,,,,,,,,,,,,,,,,,,,,,,,,,,,,,,,,,,,,,,,,,,,,,,,
,,?,0.00143,0,,,,,,stimuli/images/PICTURE_327.png,BEAUTY,5ea16e9df548030009513cb7,13/10/1952,2020-07-09_21h11.26.158,proactive,2020.1.2,Win32,60,5f073de81c76c3308c0e4fb3,5f07795f29b738397c8bbc0c,1,,,,,,helmet,,,,,,,,,,,5,0,0,19,19,48,1,,,,,,,,,,,,,,,,,,,,,,,,,,,,,,,,,,,,,,,,,,,,,,,,,,,,,,,,,,,,,,,,,,,,,,
,,?,0.001005,0,,,,,,stimuli/images/PICTURE_123.png,ADVICE,5ea16e9df548030009513cb7,13/10/1952,2020-07-09_21h11.26.158,proactive,2020.1.2,Win32,60,5f073de81c76c3308c0e4fb3,5f07795f29b738397c8bbc0c,1,,,,,,dart,,,,,,,,,,,5,0,0,20,20,40,1,,,,,,,,,,,,,,,,,,,,,,,,,,,,,,,,,,,,,,,,,,,,,,,,,,,,,,,,,,,,,,,,,,,,,,
,,?,0.000525,0,,,,,,stimuli/images/PICTURE_233.png,WOMEN,5ea16e9df548030009513cb7,13/10/1952,2020-07-09_21h11.26.158,proactive,2020.1.2,Win32,60,5f073de81c76c3308c0e4fb3,5f07795f29b738397c8bbc0c,1,,,,,,salt,,,,,,,,,,,4,0,0,21,21,38,1,,,,,,,,,,,,,,,,,,,,,,,,,,,,,,,,,,,,,,,,,,,,,,,,,,,,,,,,,,,,,,,,,,,,,,
,,?,0.00052,0,,,,,,stimuli/images/PICTURE_469.png,LETTER,5ea16e9df548030009513cb7,13/10/1952,2020-07-09_21h11.26.158,proactive,2020.1.2,Win32,60,5f073de81c76c3308c0e4fb3,5f07795f29b738397c8bbc0c,1,,,,,,stool,,,,,,,,,,,5,0,0,22,22,42,1,,,,,,,,,,,,,,,,,,,,,,,,,,,,,,,,,,,,,,,,,,,,,,,,,,,,,,,,,,,,,,,,,,,,,,
,,?,0.00051,0,,,,,,stimuli/images/PICTURE_123.png,ADVICE,5ea16e9df548030009513cb7,13/10/1952,2020-07-09_21h11.26.158,proactive,2020.1.2,Win32,60,5f073de81c76c3308c0e4fb3,5f07795f29b738397c8bbc0c,1,,,,,,dart,,,,,,,,,,,6,0,0,23,23,50,1,,,,,,,,,,,,,,,,,,,,,,,,,,,,,,,,,,,,,,,,,,,,,,,,,,,,,,,,,,,,,,,,,,,,,,
,,?,0.00164,0,,,,,,stimuli/images/PICTURE_491.png,ROOF,5ea16e9df548030009513cb7,13/10/1952,2020-07-09_21h11.26.158,proactive,2020.1.2,Win32,60,5f073de81c76c3308c0e4fb3,5f07795f29b738397c8bbc0c,1,,,,,,rug,,,,,,,,,,,3,0,0,24,24,24,1,,,,,,,,,,,,,,,,,,,,,,,,,,,,,,,,,,,,,,,,,,,,,,,,,,,,,,,,,,,,,,,,,,,,,,
,,?,0.000565,0,,,,,,stimuli/images/PICTURE_311.png,BEAUTY,5ea16e9df548030009513cb7,13/10/1952,2020-07-09_21h11.26.158,proactive,2020.1.2,Win32,60,5f073de81c76c3308c0e4fb3,5f07795f29b738397c8bbc0c,1,,,,,,razor,,,,,,,,,,,2,0,0,25,25,13,1,,,,,,,,,,,,,,,,,,,,,,,,,,,,,,,,,,,,,,,,,,,,,,,,,,,,,,,,,,,,,,,,,,,,,,
,,?,0.000515,0,,,,,,stimuli/images/PICTURE_177.png,CARS,5ea16e9df548030009513cb7,13/10/1952,2020-07-09_21h11.26.158,proactive,2020.1.2,Win32,60,5f073de81c76c3308c0e4fb3,5f07795f29b738397c8bbc0c,1,,,,,,mushroom,,,,,,,,,,,4,0,0,26,26,35,1,,,,,,,,,,,,,,,,,,,,,,,,,,,,,,,,,,,,,,,,,,,,,,,,,,,,,,,,,,,,,,,,,,,,,,
,,?,0.000525,0,,,,,,stimuli/images/PICTURE_233.png,IDEAS,5ea16e9df548030009513cb7,13/10/1952,2020-07-09_21h11.26.158,proactive,2020.1.2,Win32,60,5f073de81c76c3308c0e4fb3,5f07795f29b738397c8bbc0c,1,,,,,,salt,,,,,,,,,,,3,0,0,27,27,28,1,,,,,,,,,,,,,,,,,,,,,,,,,,,,,,,,,,,,,,,,,,,,,,,,,,,,,,,,,,,,,,,,,,,,,,
,,SAKE,7.557805,1,,,,,,stimuli/images/PICTURE_314.png,SAKE,5ea16e9df548030009513cb7,13/10/1952,2020-07-09_21h11.26.158,proactive,2020.1.2,Win32,60,5f073de81c76c3308c0e4fb3,5f07795f29b738397c8bbc0c,1,,,,,,perfume,,,,,,,,,,,1,0,0,28,28,7,1,,,,,,,,,,,,,,,,,,,,,,,,,,,,,,,,,,,,,,,,,,,,,,,,,,,,,,,,,,,,,,,,,,,,,,
,,?,0.00159,0,,,,,,stimuli/images/PICTURE_208.png,LOTS,5ea16e9df548030009513cb7,13/10/1952,2020-07-09_21h11.26.158,proactive,2020.1.2,Win32,60,5f073de81c76c3308c0e4fb3,5f07795f29b738397c8bbc0c,1,,,,,,microphone,,,,,,,,,,,2,0,0,29,29,10,1,,,,,,,,,,,,,,,,,,,,,,,,,,,,,,,,,,,,,,,,,,,,,,,,,,,,,,,,,,,,,,,,,,,,,,
,,?,0.00145,0,,,,,,stimuli/images/PICTURE_356.png,DANGER,5ea16e9df548030009513cb7,13/10/1952,2020-07-09_21h11.26.158,proactive,2020.1.2,Win32,60,5f073de81c76c3308c0e4fb3,5f07795f29b738397c8bbc0c,1,,,,,,pawn,,,,,,,,,,,6,0,0,30,30,55,1,,,,,,,,,,,,,,,,,,,,,,,,,,,,,,,,,,,,,,,,,,,,,,,,,,,,,,,,,,,,,,,,,,,,,,
,,?,0.00143,0,,,,,,stimuli/images/PICTURE_467.png,DEMON,5ea16e9df548030009513cb7,13/10/1952,2020-07-09_21h11.26.158,proactive,2020.1.2,Win32,60,5f073de81c76c3308c0e4fb3,5f07795f29b738397c8bbc0c,1,,,,,,peg,,,,,,,,,,,3,0,0,31,31,23,1,,,,,,,,,,,,,,,,,,,,,,,,,,,,,,,,,,,,,,,,,,,,,,,,,,,,,,,,,,,,,,,,,,,,,,
,,BODY,6.717625,1,,,,,,stimuli/images/PICTURE_504.png,BODY,5ea16e9df548030009513cb7,13/10/1952,2020-07-09_21h11.26.158,proactive,2020.1.2,Win32,60,5f073de81c76c3308c0e4fb3,5f07795f29b738397c8bbc0c,1,,,,,,wheel,,,,,,,,,,,1,0,0,32,32,8,1,,,,,,,,,,,,,,,,,,,,,,,,,,,,,,,,,,,,,,,,,,,,,,,,,,,,,,,,,,,,,,,,,,,,,,
,,?,0.001555,0,,,,,,stimuli/images/PICTURE_308.png,KIND,5ea16e9df548030009513cb7,13/10/1952,2020-07-09_21h11.26.158,proactive,2020.1.2,Win32,60,5f073de81c76c3308c0e4fb3,5f07795f29b738397c8bbc0c,1,,,,,,dice,,,,,,,,,,,6,0,0,33,33,54,1,,,,,,,,,,,,,,,,,,,,,,,,,,,,,,,,,,,,,,,,,,,,,,,,,,,,,,,,,,,,,,,,,,,,,,
,,?,0.001395,0,,,,,,stimuli/images/PICTURE_453.png,PLENTY,5ea16e9df548030009513cb7,13/10/1952,2020-07-09_21h11.26.158,proactive,2020.1.2,Win32,60,5f073de81c76c3308c0e4fb3,5f07795f29b738397c8bbc0c,1,,,,,,scissors,,,,,,,,,,,6,0,0,34,34,56,1,,,,,,,,,,,,,,,,,,,,,,,,,,,,,,,,,,,,,,,,,,,,,,,,,,,,,,,,,,,,,,,,,,,,,,
,,?,0.001305,0,,,,,,stimuli/images/PICTURE_314.png,GODS,5ea16e9df548030009513cb7,13/10/1952,2020-07-09_21h11.26.158,proactive,2020.1.2,Win32,60,5f073de81c76c3308c0e4fb3,5f07795f29b738397c8bbc0c,1,,,,,,perfume,,,,,,,,,,,2,0,0,35,35,11,1,,,,,,,,,,,,,,,,,,,,,,,,,,,,,,,,,,,,,,,,,,,,,,,,,,,,,,,,,,,,,,,,,,,,,,
,,?,0.001445,0,,,,,,stimuli/images/PICTURE_509.png,PHOTO,5ea16e9df548030009513cb7,13/10/1952,2020-07-09_21h11.26.158,proactive,2020.1.2,Win32,60,5f073de81c76c3308c0e4fb3,5f07795f29b738397c8bbc0c,1,,,,,,telephone,,,,,,,,,,,3,0,0,36,36,21,1,,,,,,,,,,,,,,,,,,,,,,,,,,,,,,,,,,,,,,,,,,,,,,,,,,,,,,,,,,,,,,,,,,,,,,
,,?,0.00135,0,,,,,,stimuli/images/PICTURE_380.png,DEATH,5ea16e9df548030009513cb7,13/10/1952,2020-07-09_21h11.26.158,proactive,2020.1.2,Win32,60,5f073de81c76c3308c0e4fb3,5f07795f29b738397c8bbc0c,1,,,,,,gorilla,,,,,,,,,,,5,0,0,37,37,49,1,,,,,,,,,,,,,,,,,,,,,,,,,,,,,,,,,,,,,,,,,,,,,,,,,,,,,,,,,,,,,,,,,,,,,,
,,?,0.00128,0,,,,,,stimuli/images/PICTURE_675.png,WEAPON,5ea16e9df548030009513cb7,13/10/1952,2020-07-09_21h11.26.158,proactive,2020.1.2,Win32,60,5f073de81c76c3308c0e4fb3,5f07795f29b738397c8bbc0c,1,,,,,,windmill,,,,,,,,,,,4,0,0,38,38,32,1,,,,,,,,,,,,,,,,,,,,,,,,,,,,,,,,,,,,,,,,,,,,,,,,,,,,,,,,,,,,,,,,,,,,,,
,,?,0.00135,0,,,,,,stimuli/images/PICTURE_488.png,STYLE,5ea16e9df548030009513cb7,13/10/1952,2020-07-09_21h11.26.158,proactive,2020.1.2,Win32,60,5f073de81c76c3308c0e4fb3,5f07795f29b738397c8bbc0c,1,,,,,,sun,,,,,,,,,,,4,0,0,39,39,33,1,,,,,,,,,,,,,,,,,,,,,,,,,,,,,,,,,,,,,,,,,,,,,,,,,,,,,,,,,,,,,,,,,,,,,,
,,?,0.001285,0,,,,,,stimuli/images/PICTURE_147.png,MOMENT,5ea16e9df548030009513cb7,13/10/1952,2020-07-09_21h11.26.158,proactive,2020.1.2,Win32,60,5f073de81c76c3308c0e4fb3,5f07795f29b738397c8bbc0c,1,,,,,,hanger,,,,,,,,,,,6,0,0,40,40,51,1,,,,,,,,,,,,,,,,,,,,,,,,,,,,,,,,,,,,,,,,,,,,,,,,,,,,,,,,,,,,,,,,,,,,,,
,,?,0.001335,0,,,,,,stimuli/images/PICTURE_203.png,ARTIST,5ea16e9df548030009513cb7,13/10/1952,2020-07-09_21h11.26.158,proactive,2020.1.2,Win32,60,5f073de81c76c3308c0e4fb3,5f07795f29b738397c8bbc0c,1,,,,,,cap,,,,,,,,,,,3,0,0,41,41,26,1,,,,,,,,,,,,,,,,,,,,,,,,,,,,,,,,,,,,,,,,,,,,,,,,,,,,,,,,,,,,,,,,,,,,,,
,,CASINO,6.49391,1,,,,,,stimuli/images/PICTURE_688.png,CASINO,5ea16e9df548030009513cb7,13/10/1952,2020-07-09_21h11.26.158,proactive,2020.1.2,Win32,60,5f073de81c76c3308c0e4fb3,5f07795f29b738397c8bbc0c,1,,,,,,runner,,,,,,,,,,,1,0,0,42,42,2,1,,,,,,,,,,,,,,,,,,,,,,,,,,,,,,,,,,,,,,,,,,,,,,,,,,,,,,,,,,,,,,,,,,,,,,
,,?,0.0015,0,,,,,,stimuli/images/PICTURE_95.png,STYLE,5ea16e9df548030009513cb7,13/10/1952,2020-07-09_21h11.26.158,proactive,2020.1.2,Win32,60,5f073de81c76c3308c0e4fb3,5f07795f29b738397c8bbc0c,1,,,,,,suitcase,,,,,,,,,,,3,0,0,43,43,25,1,,,,,,,,,,,,,,,,,,,,,,,,,,,,,,,,,,,,,,,,,,,,,,,,,,,,,,,,,,,,,,,,,,,,,,
,,?,15.004845,0,,,,,,stimuli/images/PICTURE_708.png,CLIENT,5ea16e9df548030009513cb7,13/10/1952,2020-07-09_21h11.26.158,proactive,2020.1.2,Win32,60,5f073de81c76c3308c0e4fb3,5f07795f29b738397c8bbc0c,1,,,,,,monkey,,,,,,,,,,,1,0,0,44,44,5,1,,,,,,,,,,,,,,,,,,,,,,,,,,,,,,,,,,,,,,,,,,,,,,,,,,,,,,,,,,,,,,,,,,,,,,
,,?,0.001525,0,,,,,,stimuli/images/PICTURE_688.png,WOMEN,5ea16e9df548030009513cb7,13/10/1952,2020-07-09_21h11.26.158,proactive,2020.1.2,Win32,60,5f073de81c76c3308c0e4fb3,5f07795f29b738397c8bbc0c,1,,,,,,runner,,,,,,,,,,,2,0,0,45,45,14,1,,,,,,,,,,,,,,,,,,,,,,,,,,,,,,,,,,,,,,,,,,,,,,,,,,,,,,,,,,,,,,,,,,,,,,
,,?,0.001355,0,,,,,,stimuli/images/PICTURE_308.png,ESTATE,5ea16e9df548030009513cb7,13/10/1952,2020-07-09_21h11.26.158,proactive,2020.1.2,Win32,60,5f073de81c76c3308c0e4fb3,5f07795f29b738397c8bbc0c,1,,,,,,dice,,,,,,,,,,,5,0,0,46,46,46,1,,,,,,,,,,,,,,,,,,,,,,,,,,,,,,,,,,,,,,,,,,,,,,,,,,,,,,,,,,,,,,,,,,,,,,
,,?,0.001365,0,,,,,,stimuli/images/PICTURE_380.png,PHOTO,5ea16e9df548030009513cb7,13/10/1952,2020-07-09_21h11.26.158,proactive,2020.1.2,Win32,60,5f073de81c76c3308c0e4fb3,5f07795f29b738397c8bbc0c,1,,,,,,gorilla,,,,,,,,,,,6,0,0,47,47,52,1,,,,,,,,,,,,,,,,,,,,,,,,,,,,,,,,,,,,,,,,,,,,,,,,,,,,,,,,,,,,,,,,,,,,,,
,,?,0.00133,0,,,,,,stimuli/images/PICTURE_692.png,MONTH,5ea16e9df548030009513cb7,13/10/1952,2020-07-09_21h11.26.158,proactive,2020.1.2,Win32,60,5f073de81c76c3308c0e4fb3,5f07795f29b738397c8bbc0c,1,,,,,,cherry,,,,,,,,,,,2,0,0,48,48,16,1,,,,,,,,,,,,,,,,,,,,,,,,,,,,,,,,,,,,,,,,,,,,,,,,,,,,,,,,,,,,,,,,,,,,,,
,,PLENTY,5.71399,1,,,,,,stimuli/images/PICTURE_339.png,PLENTY,5ea16e9df548030009513cb7,13/10/1952,2020-07-09_21h11.26.158,proactive,2020.1.2,Win32,60,5f073de81c76c3308c0e4fb3,5f07795f29b738397c8bbc0c,1,,,,,,backpack,,,,,,,,,,,1,0,0,49,49,0,1,,,,,,,,,,,,,,,,,,,,,,,,,,,,,,,,,,,,,,,,,,,,,,,,,,,,,,,,,,,,,,,,,,,,,,
,,?,0.00156,0,,,,,,stimuli/images/PICTURE_32.png,JUNGLE,5ea16e9df548030009513cb7,13/10/1952,2020-07-09_21h11.26.158,proactive,2020.1.2,Win32,60,5f073de81c76c3308c0e4fb3,5f07795f29b738397c8bbc0c,1,,,,,,crown,,,,,,,,,,,5,0,0,50,50,45,1,,,,,,,,,,,,,,,,,,,,,,,,,,,,,,,,,,,,,,,,,,,,,,,,,,,,,,,,,,,,,,,,,,,,,,
,,LEADER,5.67566,1,,,,,,stimuli/images/PICTURE_160.png,LEADER,5ea16e9df548030009513cb7,13/10/1952,2020-07-09_21h11.26.158,proactive,2020.1.2,Win32,60,5f073de81c76c3308c0e4fb3,5f07795f29b738397c8bbc0c,1,,,,,,wheelbarrow,,,,,,,,,,,1,0,0,51,51,3,1,,,,,,,,,,,,,,,,,,,,,,,,,,,,,,,,,,,,,,,,,,,,,,,,,,,,,,,,,,,,,,,,,,,,,,
,,?,0.00149,0,,,,,,stimuli/images/PICTURE_255.png,AREA,5ea16e9df548030009513cb7,13/10/1952,2020-07-09_21h11.26.158,proactive,2020.1.2,Win32,60,5f073de81c76c3308c0e4fb3,5f07795f29b738397c8bbc0c,1,,,,,,shovel,,,,,,,,,,,3,0,0,52,52,22,1,,,,,,,,,,,,,,,,,,,,,,,,,,,,,,,,,,,,,,,,,,,,,,,,,,,,,,,,,,,,,,,,,,,,,,
,,?,0.00133,0,,,,,,stimuli/images/PICTURE_744.png,SAKE,5ea16e9df548030009513cb7,13/10/1952,2020-07-09_21h11.26.158,proactive,2020.1.2,Win32,60,5f073de81c76c3308c0e4fb3,5f07795f29b738397c8bbc0c,1,,,,,,ring,,,,,,,,,,,2,0,0,53,53,17,1,,,,,,,,,,,,,,,,,,,,,,,,,,,,,,,,,,,,,,,,,,,,,,,,,,,,,,,,,,,,,,,,,,,,,,
,,?,0.001385,0,,,,,,stimuli/images/PICTURE_491.png,WRITER,5ea16e9df548030009513cb7,13/10/1952,2020-07-09_21h11.26.158,proactive,2020.1.2,Win32,60,5f073de81c76c3308c0e4fb3,5f07795f29b738397c8bbc0c,1,,,,,,rug,,,,,,,,,,,6,0,0,54,54,57,1,,,,,,,,,,,,,,,,,,,,,,,,,,,,,,,,,,,,,,,,,,,,,,,,,,,,,,,,,,,,,,,,,,,,,,
,,?,0.00129,0,,,,,,stimuli/images/PICTURE_449.png,THING,5ea16e9df548030009513cb7,13/10/1952,2020-07-09_21h11.26.158,proactive,2020.1.2,Win32,60,5f073de81c76c3308c0e4fb3,5f07795f29b738397c8bbc0c,1,,,,,,bench,,,,,,,,,,,6,0,0,55,55,59,1,,,,,,,,,,,,,,,,,,,,,,,,,,,,,,,,,,,,,,,,,,,,,,,,,,,,,,,,,,,,,,,,,,,,,,
,,?,0.001455,0,,,,,,stimuli/images/PICTURE_68.png,MILE,5ea16e9df548030009513cb7,13/10/1952,2020-07-09_21h11.26.158,proactive,2020.1.2,Win32,60,5f073de81c76c3308c0e4fb3,5f07795f29b738397c8bbc0c,1,,,,,,candle,,,,,,,,,,,5,0,0,56,56,44,1,,,,,,,,,,,,,,,,,,,,,,,,,,,,,,,,,,,,,,,,,,,,,,,,,,,,,,,,,,,,,,,,,,,,,,
,,ARTIST,5.44523,1,,,,,,stimuli/images/PICTURE_469.png,ARTIST,5ea16e9df548030009513cb7,13/10/1952,2020-07-09_21h11.26.158,proactive,2020.1.2,Win32,60,5f073de81c76c3308c0e4fb3,5f07795f29b738397c8bbc0c,1,,,,,,stool,,,,,,,,,,,1,0,0,57,57,6,1,,,,,,,,,,,,,,,,,,,,,,,,,,,,,,,,,,,,,,,,,,,,,,,,,,,,,,,,,,,,,,,,,,,,,,
,,?,0.000525,0,,,,,,stimuli/images/PICTURE_215.png,PLENTY,5ea16e9df548030009513cb7,13/10/1952,2020-07-09_21h11.26.158,proactive,2020.1.2,Win32,60,5f073de81c76c3308c0e4fb3,5f07795f29b738397c8bbc0c,1,,,,,,boot,,,,,,,,,,,4,0,0,58,58,37,1,,,,,,,,,,,,,,,,,,,,,,,,,,,,,,,,,,,,,,,,,,,,,,,,,,,,,,,,,,,,,,,,,,,,,,
,,?,0.00037,0,,,,,,stimuli/images/PICTURE_677.png,MILE,5ea16e9df548030009513cb7,13/10/1952,2020-07-09_21h11.26.158,proactive,2020.1.2,Win32,60,5f073de81c76c3308c0e4fb3,5f07795f29b738397c8bbc0c,1,,,,,,map,,,,,,,,,,,4,0,0,59,59,30,1,,,,,,,,,,,,,,,,,,,,,,,,,,,,,,,,,,,,,,,,,,,,,,,,,,,,,,,,,,,,,,,,,,,,,,
,,,,,,,,,,,,5ea16e9df548030009513cb7,13/10/1952,2020-07-09_21h11.26.158,proactive,2020.1.2,Win32,60,5f073de81c76c3308c0e4fb3,5f07795f29b738397c8bbc0c,1,,,,,,,,,,,,,,,,,,,,,,,,0,1,1,0,1,stimuli/learn-block1.csv,,,,,,,,,,,,,,,,,,,,,,,,,,,,,,,,,,,,,,,,,,,,,,,,,,,,,,,,,,,,,,,,
,,,,,,,,,,stimuli/images/PICTURE_160.png,HOTEL,5ea16e9df548030009513cb7,13/10/1952,2020-07-09_21h11.26.158,proactive,2020.1.2,Win32,60,5f073de81c76c3308c0e4fb3,5f07795f29b738397c8bbc0c,1,,,,,,wheelbarrow,,,,,,0,0,0,16,1,2,2,,,,,,,,,,,,,,,,,,,,,,,,,,,,,,,,,,,,,,,,,,,,,,,,,,,,,,,,,,,,,,,,,,,,,,,,,,,
,,,,,,,,,,stimuli/images/PICTURE_487.png,POLICY,5ea16e9df548030009513cb7,13/10/1952,2020-07-09_21h11.26.158,proactive,2020.1.2,Win32,60,5f073de81c76c3308c0e4fb3,5f07795f29b738397c8bbc0c,1,,,,,,basket,,,,,,0,1,1,34,1,4,2,,,,,,,,,,,,,,,,,,,,,,,,,,,,,,,,,,,,,,,,,,,,,,,,,,,,,,,,,,,,,,,,,,,,,,,,,,,
,,,,,,,,,,stimuli/images/PICTURE_487.png,ROOF,5ea16e9df548030009513cb7,13/10/1952,2020-07-09_21h11.26.158,proactive,2020.1.2,Win32,60,5f073de81c76c3308c0e4fb3,5f07795f29b738397c8bbc0c,1,,,,,,basket,,,,,,0,2,2,50,1,6,2,,,,,,,,,,,,,,,,,,,,,,,,,,,,,,,,,,,,,,,,,,,,,,,,,,,,,,,,,,,,,,,,,,,,,,,,,,,
,,,,,,,,,,stimuli/images/PICTURE_297.png,BODY,5ea16e9df548030009513cb7,13/10/1952,2020-07-09_21h11.26.158,proactive,2020.1.2,Win32,60,5f073de81c76c3308c0e4fb3,5f07795f29b738397c8bbc0c,1,,,,,,aeroplane,,,,,,0,3,3,51,1,6,2,,,,,,,,,,,,,,,,,,,,,,,,,,,,,,,,,,,,,,,,,,,,,,,,,,,,,,,,,,,,,,,,,,,,,,,,,,,
,,,,,,,,,,stimuli/images/PICTURE_57.png,CASINO,5ea16e9df548030009513cb7,13/10/1952,2020-07-09_21h11.26.158,proactive,2020.1.2,Win32,60,5f073de81c76c3308c0e4fb3,5f07795f29b738397c8bbc0c,1,,,,,,stamp,,,,,,0,4,4,12,1,2,2,,,,,,,,,,,,,,,,,,,,,,,,,,,,,,,,,,,,,,,,,,,,,,,,,,,,,,,,,,,,,,,,,,,,,,,,,,,
,,,,,,,,,,stimuli/images/PICTURE_509.png,BATH,5ea16e9df548030009513cb7,13/10/1952,2020-07-09_21h11.26.158,proactive,2020.1.2,Win32,60,5f073de81c76c3308c0e4fb3,5f07795f29b738397c8bbc0c,1,,,,,,telephone,,,,,,0,5,5,15,1,2,2,,,,,,,,,,,,,,,,,,,,,,,,,,,,,,,,,,,,,,,,,,,,,,,,,,,,,,,,,,,,,,,,,,,,,,,,,,,
,,,,,,,,,,stimuli/images/PICTURE_2.png,JUNGLE,5ea16e9df548030009513cb7,13/10/1952,2020-07-09_21h11.26.158,proactive,2020.1.2,Win32,60,5f073de81c76c3308c0e4fb3,5f07795f29b738397c8bbc0c,1,,,,,,tyre,,,,,,0,6,6,1,1,1,2,,,,,,,,,,,,,,,,,,,,,,,,,,,,,,,,,,,,,,,,,,,,,,,,,,,,,,,,,,,,,,,,,,,,,,,,,,,
,,,,,,,,,,stimuli/images/PICTURE_32.png,LETTER,5ea16e9df548030009513cb7,13/10/1952,2020-07-09_21h11.26.158,proactive,2020.1.2,Win32,60,5f073de81c76c3308c0e4fb3,5f07795f29b738397c8bbc0c,1,,,,,,crown,,,,,,0,7,7,56,1,6,2,,,,,,,,,,,,,,,,,,,,,,,,,,,,,,,,,,,,,,,,,,,,,,,,,,,,,,,,,,,,,,,,,,,,,,,,,,,
,,,,,,,,,,stimuli/images/PICTURE_208.png,SPIRIT,5ea16e9df548030009513cb7,13/10/1952,2020-07-09_21h11.26.158,proactive,2020.1.2,Win32,60,5f073de81c76c3308c0e4fb3,5f07795f29b738397c8bbc0c,1,,,,,,microphone,,,,,,0,8,8,28,1,3,2,,,,,,,,,,,,,,,,,,,,,,,,,,,,,,,,,,,,,,,,,,,,,,,,,,,,,,,,,,,,,,,,,,,,,,,,,,,
,,,,,,,,,,stimuli/images/PICTURE_215.png,FOOD,5ea16e9df548030009513cb7,13/10/1952,2020-07-09_21h11.26.158,proactive,2020.1.2,Win32,60,5f073de81c76c3308c0e4fb3,5f07795f29b738397c8bbc0c,1,,,,,,boot,,,,,,0,9,9,5,1,1,2,,,,,,,,,,,,,,,,,,,,,,,,,,,,,,,,,,,,,,,,,,,,,,,,,,,,,,,,,,,,,,,,,,,,,,,,,,,
,,,,,,,,,,stimuli/images/PICTURE_403.png,FAMILY,5ea16e9df548030009513cb7,13/10/1952,2020-07-09_21h11.26.158,proactive,2020.1.2,Win32,60,5f073de81c76c3308c0e4fb3,5f07795f29b738397c8bbc0c,1,,,,,,cathedral,,,,,,0,10,10,9,1,1,2,,,,,,,,,,,,,,,,,,,,,,,,,,,,,,,,,,,,,,,,,,,,,,,,,,,,,,,,,,,,,,,,,,,,,,,,,,,
,,,,,,,,,,stimuli/images/PICTURE_285.png,PRINCE,5ea16e9df548030009513cb7,13/10/1952,2020-07-09_21h11.26.158,proactive,2020.1.2,Win32,60,5f073de81c76c3308c0e4fb3,5f07795f29b738397c8bbc0c,1,,,,,,carrot,,,,,,0,11,11,20,1,3,2,,,,,,,,,,,,,,,,,,,,,,,,,,,,,,,,,,,,,,,,,,,,,,,,,,,,,,,,,,,,,,,,,,,,,,,,,,,
,,,,,,,,,,stimuli/images/PICTURE_93.png,GIRL,5ea16e9df548030009513cb7,13/10/1952,2020-07-09_21h11.26.158,proactive,2020.1.2,Win32,60,5f073de81c76c3308c0e4fb3,5f07795f29b738397c8bbc0c,1,,,,,,skateboard,,,,,,0,12,12,31,1,4,2,,,,,,,,,,,,,,,,,,,,,,,,,,,,,,,,,,,,,,,,,,,,,,,,,,,,,,,,,,,,,,,,,,,,,,,,,,,
,,,,,,,,,,stimuli/images/PICTURE_18.png,RIVER,5ea16e9df548030009513cb7,13/10/1952,2020-07-09_21h11.26.158,proactive,2020.1.2,Win32,60,5f073de81c76c3308c0e4fb3,5f07795f29b738397c8bbc0c,1,,,,,,planet,,,,,,0,13,13,22,1,3,2,,,,,,,,,,,,,,,,,,,,,,,,,,,,,,,,,,,,,,,,,,,,,,,,,,,,,,,,,,,,,,,,,,,,,,,,,,,
,,,,,,,,,,stimuli/images/PICTURE_314.png,SPEECH,5ea16e9df548030009513cb7,13/10/1952,2020-07-09_21h11.26.158,proactive,2020.1.2,Win32,60,5f073de81c76c3308c0e4fb3,5f07795f29b738397c8bbc0c,1,,,,,,perfume,,,,,,0,14,14,35,1,4,2,,,,,,,,,,,,,,,,,,,,,,,,,,,,,,,,,,,,,,,,,,,,,,,,,,,,,,,,,,,,,,,,,,,,,,,,,,,
,,,,,,,,,,stimuli/images/PICTURE_296.png,CLOCK,5ea16e9df548030009513cb7,13/10/1952,2020-07-09_21h11.26.158,proactive,2020.1.2,Win32,60,5f073de81c76c3308c0e4fb3,5f07795f29b738397c8bbc0c,1,,,,,,bolt,,,,,,0,15,15,18,1,2,2,,,,,,,,,,,,,,,,,,,,,,,,,,,,,,,,,,,,,,,,,,,,,,,,,,,,,,,,,,,,,,,,,,,,,,,,,,,
,,,,,,,,,,stimuli/images/PICTURE_215.png,BOYS,5ea16e9df548030009513cb7,13/10/1952,2020-07-09_21h11.26.158,proactive,2020.1.2,Win32,60,5f073de81c76c3308c0e4fb3,5f07795f29b738397c8bbc0c,1,,,,,,boot,,,,,,0,16,16,24,1,3,2,,,,,,,,,,,,,,,,,,,,,,,,,,,,,,,,,,,,,,,,,,,,,,,,,,,,,,,,,,,,,,,,,,,,,,,,,,,
,,,,,,,,,,stimuli/images/PICTURE_348.png,DUDE,5ea16e9df548030009513cb7,13/10/1952,2020-07-09_21h11.26.158,proactive,2020.1.2,Win32,60,5f073de81c76c3308c0e4fb3,5f07795f29b738397c8bbc0c,1,,,,,,pepper,,,,,,0,17,17,59,1,6,2,,,,,,,,,,,,,,,,,,,,,,,,,,,,,,,,,,,,,,,,,,,,,,,,,,,,,,,,,,,,,,,,,,,,,,,,,,,
,,,,,,,,,,stimuli/images/PICTURE_654.png,YEAR,5ea16e9df548030009513cb7,13/10/1952,2020-07-09_21h11.26.158,proactive,2020.1.2,Win32,60,5f073de81c76c3308c0e4fb3,5f07795f29b738397c8bbc0c,1,,,,,,pencil,,,,,,0,18,18,41,1,5,2,,,,,,,,,,,,,,,,,,,,,,,,,,,,,,,,,,,,,,,,,,,,,,,,,,,,,,,,,,,,,,,,,,,,,,,,,,,
,,,,,,,,,,stimuli/images/PICTURE_141.png,CLIENT,5ea16e9df548030009513cb7,13/10/1952,2020-07-09_21h11.26.158,proactive,2020.1.2,Win32,60,5f073de81c76c3308c0e4fb3,5f07795f29b738397c8bbc0c,1,,,,,,sunflower,,,,,,0,19,19,30,1,4,2,,,,,,,,,,,,,,,,,,,,,,,,,,,,,,,,,,,,,,,,,,,,,,,,,,,,,,,,,,,,,,,,,,,,,,,,,,,
,,,,,,,,,,stimuli/images/PICTURE_2.png,YARD,5ea16e9df548030009513cb7,13/10/1952,2020-07-09_21h11.26.158,proactive,2020.1.2,Win32,60,5f073de81c76c3308c0e4fb3,5f07795f29b738397c8bbc0c,1,,,,,,tyre,,,,,,0,20,20,55,1,6,2,,,,,,,,,,,,,,,,,,,,,,,,,,,,,,,,,,,,,,,,,,,,,,,,,,,,,,,,,,,,,,,,,,,,,,,,,,,
,,,,,,,,,,stimuli/images/PICTURE_348.png,TOILET,5ea16e9df548030009513cb7,13/10/1952,2020-07-09_21h11.26.158,proactive,2020.1.2,Win32,60,5f073de81c76c3308c0e4fb3,5f07795f29b738397c8bbc0c,1,,,,,,pepper,,,,,,0,21,21,4,1,1,2,,,,,,,,,,,,,,,,,,,,,,,,,,,,,,,,,,,,,,,,,,,,,,,,,,,,,,,,,,,,,,,,,,,,,,,,,,,
,,,,,,,,,,stimuli/images/PICTURE_95.png,NIGHT,5ea16e9df548030009513cb7,13/10/1952,2020-07-09_21h11.26.158,proactive,2020.1.2,Win32,60,5f073de81c76c3308c0e4fb3,5f07795f29b738397c8bbc0c,1,,,,,,suitcase,,,,,,0,22,22,37,1,4,2,,,,,,,,,,,,,,,,,,,,,,,,,,,,,,,,,,,,,,,,,,,,,,,,,,,,,,,,,,,,,,,,,,,,,,,,,,,
,,,,,,,,,,stimuli/images/PICTURE_68.png,KIND,5ea16e9df548030009513cb7,13/10/1952,2020-07-09_21h11.26.158,proactive,2020.1.2,Win32,60,5f073de81c76c3308c0e4fb3,5f07795f29b738397c8bbc0c,1,,,,,,candle,,,,,,0,23,23,23,1,3,2,,,,,,,,,,,,,,,,,,,,,,,,,,,,,,,,,,,,,,,,,,,,,,,,,,,,,,,,,,,,,,,,,,,,,,,,,,,
,,,,,,,,,,stimuli/images/PICTURE_215.png,LEADER,5ea16e9df548030009513cb7,13/10/1952,2020-07-09_21h11.26.158,proactive,2020.1.2,Win32,60,5f073de81c76c3308c0e4fb3,5f07795f29b738397c8bbc0c,1,,,,,,boot,,,,,,0,24,24,43,1,5,2,,,,,,,,,,,,,,,,,,,,,,,,,,,,,,,,,,,,,,,,,,,,,,,,,,,,,,,,,,,,,,,,,,,,,,,,,,,
,,,,,,,,,,stimuli/images/PICTURE_708.png,VALLEY,5ea16e9df548030009513cb7,13/10/1952,2020-07-09_21h11.26.158,proactive,2020.1.2,Win32,60,5f073de81c76c3308c0e4fb3,5f07795f29b738397c8bbc0c,1,,,,,,monkey,,,,,,0,25,25,45,1,5,2,,,,,,,,,,,,,,,,,,,,,,,,,,,,,,,,,,,,,,,,,,,,,,,,,,,,,,,,,,,,,,,,,,,,,,,,,,,
,,,,,,,,,,stimuli/images/PICTURE_57.png,NATION,5ea16e9df548030009513cb7,13/10/1952,2020-07-09_21h11.26.158,proactive,2020.1.2,Win32,60,5f073de81c76c3308c0e4fb3,5f07795f29b738397c8bbc0c,1,,,,,,stamp,,,,,,0,26,26,21,1,3,2,,,,,,,,,,,,,,,,,,,,,,,,,,,,,,,,,,,,,,,,,,,,,,,,,,,,,,,,,,,,,,,,,,,,,,,,,,,
,,,,,,,,,,stimuli/images/PICTURE_405.png,JUNGLE,5ea16e9df548030009513cb7,13/10/1952,2020-07-09_21h11.26.158,proactive,2020.1.2,Win32,60,5f073de81c76c3308c0e4fb3,5f07795f29b738397c8bbc0c,1,,,,,,anchor,,,,,,0,27,27,13,1,2,2,,,,,,,,,,,,,,,,,,,,,,,,,,,,,,,,,,,,,,,,,,,,,,,,,,,,,,,,,,,,,,,,,,,,,,,,,,,
,,,,,,,,,,stimuli/images/PICTURE_405.png,JUNGLE,5ea16e9df548030009513cb7,13/10/1952,2020-07-09_21h11.26.158,proactive,2020.1.2,Win32,60,5f073de81c76c3308c0e4fb3,5f07795f29b738397c8bbc0c,1,,,,,,anchor,,,,,,0,28,28,58,1,6,2,,,,,,,,,,,,,,,,,,,,,,,,,,,,,,,,,,,,,,,,,,,,,,,,,,,,,,,,,,,,,,,,,,,,,,,,,,,
,,,,,,,,,,stimuli/images/PICTURE_750.png,POLICY,5ea16e9df548030009513cb7,13/10/1952,2020-07-09_21h11.26.158,proactive,2020.1.2,Win32,60,5f073de81c76c3308c0e4fb3,5f07795f29b738397c8bbc0c,1,,,,,,kettle,,,,,,0,29,29,44,1,5,2,,,,,,,,,,,,,,,,,,,,,,,,,,,,,,,,,,,,,,,,,,,,,,,,,,,,,,,,,,,,,,,,,,,,,,,,,,,
,,,,,,,,,,stimuli/images/PICTURE_688.png,CLOCK,5ea16e9df548030009513cb7,13/10/1952,2020-07-09_21h11.26.158,proactive,2020.1.2,Win32,60,5f073de81c76c3308c0e4fb3,5f07795f29b738397c8bbc0c,1,,,,,,runner,,,,,,0,30,30,42,1,5,2,,,,,,,,,,,,,,,,,,,,,,,,,,,,,,,,,,,,,,,,,,,,,,,,,,,,,,,,,,,,,,,,,,,,,,,,,,,
,,,,,,,,,,stimuli/images/PICTURE_311.png,FLESH,5ea16e9df548030009513cb7,13/10/1952,2020-07-09_21h11.26.158,proactive,2020.1.2,Win32,60,5f073de81c76c3308c0e4fb3,5f07795f29b738397c8bbc0c,1,,,,,,razor,,,,,,0,31,31,3,1,1,2,,,,,,,,,,,,,,,,,,,,,,,,,,,,,,,,,,,,,,,,,,,,,,,,,,,,,,,,,,,,,,,,,,,,,,,,,,,
,,,,,,,,,,stimuli/images/PICTURE_667.png,GLASS,5ea16e9df548030009513cb7,13/10/1952,2020-07-09_21h11.26.158,proactive,2020.1.2,Win32,60,5f073de81c76c3308c0e4fb3,5f07795f29b738397c8bbc0c,1,,,,,,daisy,,,,,,0,32,32,27,1,3,2,,,,,,,,,,,,,,,,,,,,,,,,,,,,,,,,,,,,,,,,,,,,,,,,,,,,,,,,,,,,,,,,,,,,,,,,,,,
,,,,,,,,,,stimuli/images/PICTURE_677.png,PHOTO,5ea16e9df548030009513cb7,13/10/1952,2020-07-09_21h11.26.158,proactive,2020.1.2,Win32,60,5f073de81c76c3308c0e4fb3,5f07795f29b738397c8bbc0c,1,,,,,,map,,,,,,0,33,33,14,1,2,2,,,,,,,,,,,,,,,,,,,,,,,,,,,,,,,,,,,,,,,,,,,,,,,,,,,,,,,,,,,,,,,,,,,,,,,,,,,
,,,,,,,,,,stimuli/images/PICTURE_147.png,LEADER,5ea16e9df548030009513cb7,13/10/1952,2020-07-09_21h11.26.158,proactive,2020.1.2,Win32,60,5f073de81c76c3308c0e4fb3,5f07795f29b738397c8bbc0c,1,,,,,,hanger,,,,,,0,34,34,33,1,4,2,,,,,,,,,,,,,,,,,,,,,,,,,,,,,,,,,,,,,,,,,,,,,,,,,,,,,,,,,,,,,,,,,,,,,,,,,,,
,,,,,,,,,,stimuli/images/PICTURE_453.png,FAMILY,5ea16e9df548030009513cb7,13/10/1952,2020-07-09_21h11.26.158,proactive,2020.1.2,Win32,60,5f073de81c76c3308c0e4fb3,5f07795f29b738397c8bbc0c,1,,,,,,scissors,,,,,,0,35,35,48,1,5,2,,,,,,,,,,,,,,,,,,,,,,,,,,,,,,,,,,,,,,,,,,,,,,,,,,,,,,,,,,,,,,,,,,,,,,,,,,,
,,,,,,,,,,stimuli/images/PICTURE_356.png,CANDY,5ea16e9df548030009513cb7,13/10/1952,2020-07-09_21h11.26.158,proactive,2020.1.2,Win32,60,5f073de81c76c3308c0e4fb3,5f07795f29b738397c8bbc0c,1,,,,,,pawn,,,,,,0,36,36,46,1,5,2,,,,,,,,,,,,,,,,,,,,,,,,,,,,,,,,,,,,,,,,,,,,,,,,,,,,,,,,,,,,,,,,,,,,,,,,,,,
,,,,,,,,,,stimuli/images/PICTURE_327.png,LEADER,5ea16e9df548030009513cb7,13/10/1952,2020-07-09_21h11.26.158,proactive,2020.1.2,Win32,60,5f073de81c76c3308c0e4fb3,5f07795f29b738397c8bbc0c,1,,,,,,helmet,,,,,,0,37,37,17,1,2,2,,,,,,,,,,,,,,,,,,,,,,,,,,,,,,,,,,,,,,,,,,,,,,,,,,,,,,,,,,,,,,,,,,,,,,,,,,,
,,,,,,,,,,stimuli/images/PICTURE_57.png,CANDY,5ea16e9df548030009513cb7,13/10/1952,2020-07-09_21h11.26.158,proactive,2020.1.2,Win32,60,5f073de81c76c3308c0e4fb3,5f07795f29b738397c8bbc0c,1,,,,,,stamp,,,,,,0,38,38,52,1,6,2,,,,,,,,,,,,,,,,,,,,,,,,,,,,,,,,,,,,,,,,,,,,,,,,,,,,,,,,,,,,,,,,,,,,,,,,,,,
,,,,,,,,,,stimuli/images/PICTURE_123.png,SALE,5ea16e9df548030009513cb7,13/10/1952,2020-07-09_21h11.26.158,proactive,2020.1.2,Win32,60,5f073de81c76c3308c0e4fb3,5f07795f29b738397c8bbc0c,1,,,,,,dart,,,,,,0,39,39,8,1,1,2,,,,,,,,,,,,,,,,,,,,,,,,,,,,,,,,,,,,,,,,,,,,,,,,,,,,,,,,,,,,,,,,,,,,,,,,,,,
,,,,,,,,,,stimuli/images/PICTURE_452.png,COPS,5ea16e9df548030009513cb7,13/10/1952,2020-07-09_21h11.26.158,proactive,2020.1.2,Win32,60,5f073de81c76c3308c0e4fb3,5f07795f29b738397c8bbc0c,1,,,,,,watch,,,,,,0,40,40,0,1,1,2,,,,,,,,,,,,,,,,,,,,,,,,,,,,,,,,,,,,,,,,,,,,,,,,,,,,,,,,,,,,,,,,,,,,,,,,,,,
,,,,,,,,,,stimuli/images/PICTURE_33.png,COPS,5ea16e9df548030009513cb7,13/10/1952,2020-07-09_21h11.26.158,proactive,2020.1.2,Win32,60,5f073de81c76c3308c0e4fb3,5f07795f29b738397c8bbc0c,1,,,,,,frame,,,,,,0,41,41,29,1,3,2,,,,,,,,,,,,,,,,,,,,,,,,,,,,,,,,,,,,,,,,,,,,,,,,,,,,,,,,,,,,,,,,,,,,,,,,,,,
,,,,,,,,,,stimuli/images/PICTURE_470.png,BEAUTY,5ea16e9df548030009513cb7,13/10/1952,2020-07-09_21h11.26.158,proactive,2020.1.2,Win32,60,5f073de81c76c3308c0e4fb3,5f07795f29b738397c8bbc0c,1,,,,,,motorbike,,,,,,0,42,42,26,1,3,2,,,,,,,,,,,,,,,,,,,,,,,,,,,,,,,,,,,,,,,,,,,,,,,,,,,,,,,,,,,,,,,,,,,,,,,,,,,
,,,,,,,,,,stimuli/images/PICTURE_504.png,HOUSE,5ea16e9df548030009513cb7,13/10/1952,2020-07-09_21h11.26.158,proactive,2020.1.2,Win32,60,5f073de81c76c3308c0e4fb3,5f07795f29b738397c8bbc0c,1,,,,,,wheel,,,,,,0,43,43,36,1,4,2,,,,,,,,,,,,,,,,,,,,,,,,,,,,,,,,,,,,,,,,,,,,,,,,,,,,,,,,,,,,,,,,,,,,,,,,,,,
,,,,,,,,,,stimuli/images/PICTURE_677.png,FAMILY,5ea16e9df548030009513cb7,13/10/1952,2020-07-09_21h11.26.158,proactive,2020.1.2,Win32,60,5f073de81c76c3308c0e4fb3,5f07795f29b738397c8bbc0c,1,,,,,,map,,,,,,0,44,44,53,1,6,2,,,,,,,,,,,,,,,,,,,,,,,,,,,,,,,,,,,,,,,,,,,,,,,,,,,,,,,,,,,,,,,,,,,,,,,,,,,
,,,,,,,,,,stimuli/images/PICTURE_491.png,SERIES,5ea16e9df548030009513cb7,13/10/1952,2020-07-09_21h11.26.158,proactive,2020.1.2,Win32,60,5f073de81c76c3308c0e4fb3,5f07795f29b738397c8bbc0c,1,,,,,,rug,,,,,,0,45,45,39,1,4,2,,,,,,,,,,,,,,,,,,,,,,,,,,,,,,,,,,,,,,,,,,,,,,,,,,,,,,,,,,,,,,,,,,,,,,,,,,,
,,,,,,,,,,stimuli/images/PICTURE_692.png,DUDE,5ea16e9df548030009513cb7,13/10/1952,2020-07-09_21h11.26.158,proactive,2020.1.2,Win32,60,5f073de81c76c3308c0e4fb3,5f07795f29b738397c8bbc0c,1,,,,,,cherry,,,,,,0,46,46,47,1,5,2,,,,,,,,,,,,,,,,,,,,,,,,,,,,,,,,,,,,,,,,,,,,,,,,,,,,,,,,,,,,,,,,,,,,,,,,,,,
,,,,,,,,,,stimuli/images/PICTURE_405.png,HOUSE,5ea16e9df548030009513cb7,13/10/1952,2020-07-09_21h11.26.158,proactive,2020.1.2,Win32,60,5f073de81c76c3308c0e4fb3,5f07795f29b738397c8bbc0c,1,,,,,,anchor,,,,,,0,47,47,2,1,1,2,,,,,,,,,,,,,,,,,,,,,,,,,,,,,,,,,,,,,,,,,,,,,,,,,,,,,,,,,,,,,,,,,,,,,,,,,,,
,,,,,,,,,,stimuli/images/PICTURE_470.png,MOMENT,5ea16e9df548030009513cb7,13/10/1952,2020-07-09_21h11.26.158,proactive,2020.1.2,Win32,60,5f073de81c76c3308c0e4fb3,5f07795f29b738397c8bbc0c,1,,,,,,motorbike,,,,,,0,48,48,40,1,5,2,,,,,,,,,,,,,,,,,,,,,,,,,,,,,,,,,,,,,,,,,,,,,,,,,,,,,,,,,,,,,,,,,,,,,,,,,,,
,,,,,,,,,,stimuli/images/PICTURE_509.png,MILLER,5ea16e9df548030009513cb7,13/10/1952,2020-07-09_21h11.26.158,proactive,2020.1.2,Win32,60,5f073de81c76c3308c0e4fb3,5f07795f29b738397c8bbc0c,1,,,,,,telephone,,,,,,0,49,49,49,1,5,2,,,,,,,,,,,,,,,,,,,,,,,,,,,,,,,,,,,,,,,,,,,,,,,,,,,,,,,,,,,,,,,,,,,,,,,,,,,
,,,,,,,,,,stimuli/images/PICTURE_177.png,HOUSE,5ea16e9df548030009513cb7,13/10/1952,2020-07-09_21h11.26.158,proactive,2020.1.2,Win32,60,5f073de81c76c3308c0e4fb3,5f07795f29b738397c8bbc0c,1,,,,,,mushroom,,,,,,0,50,50,25,1,3,2,,,,,,,,,,,,,,,,,,,,,,,,,,,,,,,,,,,,,,,,,,,,,,,,,,,,,,,,,,,,,,,,,,,,,,,,,,,
,,,,,,,,,,stimuli/images/PICTURE_311.png,TOILET,5ea16e9df548030009513cb7,13/10/1952,2020-07-09_21h11.26.158,proactive,2020.1.2,Win32,60,5f073de81c76c3308c0e4fb3,5f07795f29b738397c8bbc0c,1,,,,,,razor,,,,,,0,51,51,54,1,6,2,,,,,,,,,,,,,,,,,,,,,,,,,,,,,,,,,,,,,,,,,,,,,,,,,,,,,,,,,,,,,,,,,,,,,,,,,,,
,,,,,,,,,,stimuli/images/PICTURE_255.png,PENNY,5ea16e9df548030009513cb7,13/10/1952,2020-07-09_21h11.26.158,proactive,2020.1.2,Win32,60,5f073de81c76c3308c0e4fb3,5f07795f29b738397c8bbc0c,1,,,,,,shovel,,,,,,0,52,52,19,1,2,2,,,,,,,,,,,,,,,,,,,,,,,,,,,,,,,,,,,,,,,,,,,,,,,,,,,,,,,,,,,,,,,,,,,,,,,,,,,
,,,,,,,,,,stimuli/images/PICTURE_509.png,APPLE,5ea16e9df548030009513cb7,13/10/1952,2020-07-09_21h11.26.158,proactive,2020.1.2,Win32,60,5f073de81c76c3308c0e4fb3,5f07795f29b738397c8bbc0c,1,,,,,,telephone,,,,,,0,53,53,38,1,4,2,,,,,,,,,,,,,,,,,,,,,,,,,,,,,,,,,,,,,,,,,,,,,,,,,,,,,,,,,,,,,,,,,,,,,,,,,,,
,,,,,,,,,,stimuli/images/PICTURE_285.png,WRITER,5ea16e9df548030009513cb7,13/10/1952,2020-07-09_21h11.26.158,proactive,2020.1.2,Win32,60,5f073de81c76c3308c0e4fb3,5f07795f29b738397c8bbc0c,1,,,,,,carrot,,,,,,0,54,54,6,1,1,2,,,,,,,,,,,,,,,,,,,,,,,,,,,,,,,,,,,,,,,,,,,,,,,,,,,,,,,,,,,,,,,,,,,,,,,,,,,
,,,,,,,,,,stimuli/images/PICTURE_655.png,SALE,5ea16e9df548030009513cb7,13/10/1952,2020-07-09_21h11.26.158,proactive,2020.1.2,Win32,60,5f073de81c76c3308c0e4fb3,5f07795f29b738397c8bbc0c,1,,,,,,megaphone,,,,,,0,55,55,57,1,6,2,,,,,,,,,,,,,,,,,,,,,,,,,,,,,,,,,,,,,,,,,,,,,,,,,,,,,,,,,,,,,,,,,,,,,,,,,,,
,,,,,,,,,,stimuli/images/PICTURE_509.png,SHOTS,5ea16e9df548030009513cb7,13/10/1952,2020-07-09_21h11.26.158,proactive,2020.1.2,Win32,60,5f073de81c76c3308c0e4fb3,5f07795f29b738397c8bbc0c,1,,,,,,telephone,,,,,,0,56,56,7,1,1,2,,,,,,,,,,,,,,,,,,,,,,,,,,,,,,,,,,,,,,,,,,,,,,,,,,,,,,,,,,,,,,,,,,,,,,,,,,,
,,,,,,,,,,stimuli/images/PICTURE_654.png,COPS,5ea16e9df548030009513cb7,13/10/1952,2020-07-09_21h11.26.158,proactive,2020.1.2,Win32,60,5f073de81c76c3308c0e4fb3,5f07795f29b738397c8bbc0c,1,,,,,,pencil,,,,,,0,57,57,10,1,2,2,,,,,,,,,,,,,,,,,,,,,,,,,,,,,,,,,,,,,,,,,,,,,,,,,,,,,,,,,,,,,,,,,,,,,,,,,,,
,,,,,,,,,,stimuli/images/PICTURE_564.png,PLENTY,5ea16e9df548030009513cb7,13/10/1952,2020-07-09_21h11.26.158,proactive,2020.1.2,Win32,60,5f073de81c76c3308c0e4fb3,5f07795f29b738397c8bbc0c,1,,,,,,spoon,,,,,,0,58,58,11,1,2,2,,,,,,,,,,,,,,,,,,,,,,,,,,,,,,,,,,,,,,,,,,,,,,,,,,,,,,,,,,,,,,,,,,,,,,,,,,,
,,?,0.000575,0,,,,,,stimuli/images/PICTURE_2.png,AREA,5ea16e9df548030009513cb7,13/10/1952,2020-07-09_21h11.26.158,proactive,2020.1.2,Win32,60,5f073de81c76c3308c0e4fb3,5f07795f29b738397c8bbc0c,1,,,,,,tyre,,,,,,,,,,,4,2,0,0,0,32,1,,,,,,,,,,,,,,,,,,,,,,,,,,,,,,,,,,,,,,,,,,,,,,,,,,,,,,,,,,,,,,,,,,,,,,
,,?,0.00034,0,,,,,,stimuli/images/PICTURE_708.png,VALLEY,5ea16e9df548030009513cb7,13/10/1952,2020-07-09_21h11.26.158,proactive,2020.1.2,Win32,60,5f073de81c76c3308c0e4fb3,5f07795f29b738397c8bbc0c,1,,,,,,monkey,,,,,,,,,,,5,2,0,1,1,45,1,,,,,,,,,,,,,,,,,,,,,,,,,,,,,,,,,,,,,,,,,,,,,,,,,,,,,,,,,,,,,,,,,,,,,,
,,FLESH,6.074585,1,,,,,,stimuli/images/PICTURE_311.png,FLESH,5ea16e9df548030009513cb7,13/10/1952,2020-07-09_21h11.26.158,proactive,2020.1.2,Win32,60,5f073de81c76c3308c0e4fb3,5f07795f29b738397c8bbc0c,1,,,,,,razor,,,,,,,,,,,1,2,0,2,2,3,1,,,,,,,,,,,,,,,,,,,,,,,,,,,,,,,,,,,,,,,,,,,,,,,,,,,,,,,,,,,,,,,,,,,,,,
,,?,0.00072,0,,,,,,stimuli/images/PICTURE_504.png,HOUSE,5ea16e9df548030009513cb7,13/10/1952,2020-07-09_21h11.26.158,proactive,2020.1.2,Win32,60,5f073de81c76c3308c0e4fb3,5f07795f29b738397c8bbc0c,1,,,,,,wheel,,,,,,,,,,,4,2,0,3,3,36,1,,,,,,,,,,,,,,,,,,,,,,,,,,,,,,,,,,,,,,,,,,,,,,,,,,,,,,,,,,,,,,,,,,,,,,
,,?,0.000365,0,,,,,,stimuli/images/PICTURE_688.png,CLOCK,5ea16e9df548030009513cb7,13/10/1952,2020-07-09_21h11.26.158,proactive,2020.1.2,Win32,60,5f073de81c76c3308c0e4fb3,5f07795f29b738397c8bbc0c,1,,,,,,runner,,,,,,,,,,,5,2,0,4,4,42,1,,,,,,,,,,,,,,,,,,,,,,,,,,,,,,,,,,,,,,,,,,,,,,,,,,,,,,,,,,,,,,,,,,,,,,
,,?,0.00037,0,,,,,,stimuli/images/PICTURE_405.png,JUNGLE,5ea16e9df548030009513cb7,13/10/1952,2020-07-09_21h11.26.158,proactive,2020.1.2,Win32,60,5f073de81c76c3308c0e4fb3,5f07795f29b738397c8bbc0c,1,,,,,,anchor,,,,,,,,,,,2,2,0,5,5,13,1,,,,,,,,,,,,,,,,,,,,,,,,,,,,,,,,,,,,,,,,,,,,,,,,,,,,,,,,,,,,,,,,,,,,,,
,,COPS,4.51087,1,,,,,,stimuli/images/PICTURE_452.png,COPS,5ea16e9df548030009513cb7,13/10/1952,2020-07-09_21h11.26.158,proactive,2020.1.2,Win32,60,5f073de81c76c3308c0e4fb3,5f07795f29b738397c8bbc0c,1,,,,,,watch,,,,,,,,,,,1,2,0,6,6,0,1,,,,,,,,,,,,,,,,,,,,,,,,,,,,,,,,,,,,,,,,,,,,,,,,,,,,,,,,,,,,,,,,,,,,,,
,,?,0.001635,0,,,,,,stimuli/images/PICTURE_215.png,BOYS,5ea16e9df548030009513cb7,13/10/1952,2020-07-09_21h11.26.158,proactive,2020.1.2,Win32,60,5f073de81c76c3308c0e4fb3,5f07795f29b738397c8bbc0c,1,,,,,,boot,,,,,,,,,,,3,2,0,7,7,24,1,,,,,,,,,,,,,,,,,,,,,,,,,,,,,,,,,,,,,,,,,,,,,,,,,,,,,,,,,,,,,,,,,,,,,,
,,?,0.00134,0,,,,,,stimuli/images/PICTURE_327.png,LEADER,5ea16e9df548030009513cb7,13/10/1952,2020-07-09_21h11.26.158,proactive,2020.1.2,Win32,60,5f073de81c76c3308c0e4fb3,5f07795f29b738397c8bbc0c,1,,,,,,helmet,,,,,,,,,,,2,2,0,8,8,17,1,,,,,,,,,,,,,,,,,,,,,,,,,,,,,,,,,,,,,,,,,,,,,,,,,,,,,,,,,,,,,,,,,,,,,,
,,?,0.00139,0,,,,,,stimuli/images/PICTURE_33.png,COPS,5ea16e9df548030009513cb7,13/10/1952,2020-07-09_21h11.26.158,proactive,2020.1.2,Win32,60,5f073de81c76c3308c0e4fb3,5f07795f29b738397c8bbc0c,1,,,,,,frame,,,,,,,,,,,3,2,0,9,9,29,1,,,,,,,,,,,,,,,,,,,,,,,,,,,,,,,,,,,,,,,,,,,,,,,,,,,,,,,,,,,,,,,,,,,,,,
,,?,0.001405,0,,,,,,stimuli/images/PICTURE_564.png,PLENTY,5ea16e9df548030009513cb7,13/10/1952,2020-07-09_21h11.26.158,proactive,2020.1.2,Win32,60,5f073de81c76c3308c0e4fb3,5f07795f29b738397c8bbc0c,1,,,,,,spoon,,,,,,,,,,,2,2,0,10,10,11,1,,,,,,,,,,,,,,,,,,,,,,,,,,,,,,,,,,,,,,,,,,,,,,,,,,,,,,,,,,,,,,,,,,,,,,
,,?,0.001535,0,,,,,,stimuli/images/PICTURE_2.png,YARD,5ea16e9df548030009513cb7,13/10/1952,2020-07-09_21h11.26.158,proactive,2020.1.2,Win32,60,5f073de81c76c3308c0e4fb3,5f07795f29b738397c8bbc0c,1,,,,,,tyre,,,,,,,,,,,6,2,0,11,11,55,1,,,,,,,,,,,,,,,,,,,,,,,,,,,,,,,,,,,,,,,,,,,,,,,,,,,,,,,,,,,,,,,,,,,,,,
,,SALE,4.428305,1,,,,,,stimuli/images/PICTURE_123.png,SALE,5ea16e9df548030009513cb7,13/10/1952,2020-07-09_21h11.26.158,proactive,2020.1.2,Win32,60,5f073de81c76c3308c0e4fb3,5f07795f29b738397c8bbc0c,1,,,,,,dart,,,,,,,,,,,1,2,0,12,12,8,1,,,,,,,,,,,,,,,,,,,,,,,,,,,,,,,,,,,,,,,,,,,,,,,,,,,,,,,,,,,,,,,,,,,,,,
,,?,0.00151,0,,,,,,stimuli/images/PICTURE_509.png,MILLER,5ea16e9df548030009513cb7,13/10/1952,2020-07-09_21h11.26.158,proactive,2020.1.2,Win32,60,5f073de81c76c3308c0e4fb3,5f07795f29b738397c8bbc0c,1,,,,,,telephone,,,,,,,,,,,5,2,0,13,13,49,1,,,,,,,,,,,,,,,,,,,,,,,,,,,,,,,,,,,,,,,,,,,,,,,,,,,,,,,,,,,,,,,,,,,,,,
,,?,0.00136,0,,,,,,stimuli/images/PICTURE_692.png,DUDE,5ea16e9df548030009513cb7,13/10/1952,2020-07-09_21h11.26.158,proactive,2020.1.2,Win32,60,5f073de81c76c3308c0e4fb3,5f07795f29b738397c8bbc0c,1,,,,,,cherry,,,,,,,,,,,5,2,0,14,14,47,1,,,,,,,,,,,,,,,,,,,,,,,,,,,,,,,,,,,,,,,,,,,,,,,,,,,,,,,,,,,,,,,,,,,,,,
,,?,0.0014,0,,,,,,stimuli/images/PICTURE_255.png,PENNY,5ea16e9df548030009513cb7,13/10/1952,2020-07-09_21h11.26.158,proactive,2020.1.2,Win32,60,5f073de81c76c3308c0e4fb3,5f07795f29b738397c8bbc0c,1,,,,,,shovel,,,,,,,,,,,2,2,0,15,15,19,1,,,,,,,,,,,,,,,,,,,,,,,,,,,,,,,,,,,,,,,,,,,,,,,,,,,,,,,,,,,,,,,,,,,,,,
,,?,0.00127,0,,,,,,stimuli/images/PICTURE_654.png,COPS,5ea16e9df548030009513cb7,13/10/1952,2020-07-09_21h11.26.158,proactive,2020.1.2,Win32,60,5f073de81c76c3308c0e4fb3,5f07795f29b738397c8bbc0c,1,,,,,,pencil,,,,,,,,,,,2,2,0,16,16,10,1,,,,,,,,,,,,,,,,,,,,,,,,,,,,,,,,,,,,,,,,,,,,,,,,,,,,,,,,,,,,,,,,,,,,,,
