consent_key.keys,consent_key.rt,recalled,recalled_rt,recall_acc,example_recall.thisRepN,example_recall.thisTrialN,example_recall.thisN,example_recall.thisIndex,example_recall.ran,file,word,participant,please enter your date of birth (dd/mm/yyyy),date,expName,psychopyVersion,OS,frameRate,STUDY_ID,SESSION_ID,list,prac_learn_study_loop.thisRepN,prac_learn_study_loop.thisTrialN,prac_learn_study_loop.thisN,prac_learn_study_loop.thisIndex,prac_learn_study_loop.ran,image,prac_learn_test_loop.thisRepN,prac_learn_test_loop.thisTrialN,prac_learn_test_loop.thisN,prac_learn_test_loop.thisIndex,prac_learn_test_loop.ran,learn_study_loop.thisRepN,learn_study_loop.thisTrialN,learn_study_loop.thisN,learn_study_loop.thisIndex,learn_study_loop.ran,list_no,block_no,learn_test_loop.thisRepN,learn_test_loop.thisTrialN,learn_test_loop.thisN,learn_test_loop.thisIndex,learn_test_loop.ran,learn_blocks.thisRepN,learn_blocks.thisTrialN,learn_blocks.thisN,learn_blocks.thisIndex,learn_blocks.ran,block_csv,key_resp_13.keys,key_resp_13.rt,learn_blocks_loop.thisRepN,learn_blocks_loop.thisTrialN,learn_blocks_loop.thisN,learn_blocks_loop.thisIndex,learn_blocks_loop.ran,final_learn_test.thisRepN,final_learn_test.thisTrialN,final_learn_test.thisN,final_learn_test.thisIndex,final_learn_test.ran,prac_wm_test_loop.thisRepN,prac_wm_test_loop.thisTrialN,prac_wm_test_loop.thisN,prac_wm_test_loop.thisIndex,prac_wm_test_loop.ran,wm_recalled1,wm_recall_rt1,wm_probed1,wm_recall_acc1,wm_recalled2,wm_recall_rt2,wm_probed2,wm_recall_acc2,wm_recalled3,wm_recall_rt3,wm_probed3,wm_recall_acc3,wm_recalled4,wm_recall_rt4,wm_probed4,wm_recall_acc4,prac_wm_trial_loop.thisRepN,prac_wm_trial_loop.thisTrialN,prac_wm_trial_loop.thisN,prac_wm_trial_loop.thisIndex,prac_wm_trial_loop.ran,word1,image1,file1,item_type1,word2,image2,file2,item_type2,word4,image4,file4,item_type4,word3,image3,file3,item_type3,wm_test_loop.thisRepN,wm_test_loop.thisTrialN,wm_test_loop.thisN,wm_test_loop.thisIndex,wm_test_loop.ran,wm_trial_loop.thisRepN,wm_trial_loop.thisTrialN,wm_trial_loop.thisN,wm_trial_loop.thisIndex,wm_trial_loop.ran
y,34.23981,TOUGH,3.91052,1,0,0,0,0,1,stimuli/images/PICTURE_747.png,TOUGH,5ea9cfe7386479120ae4ac13,30/01/1999,2020-07-08_16h21.52.753,proactive,2020.1.2,Win32,60,5f035e5afe130c270d6ae6dd,5f05e444a3631d0c304430cc,6,,,,,,,,,,,,,,,,,,,,,,,,,,,,,,,,,,,,,,,,,,,,,,,,,,,,,,,,,,,,,,,,,,,,,,,,,,,,,,,,,,,,,,,,,,,,,
,,,,,,,,,,stimuli/images/PICTURE_269.png,GENIUS,5ea9cfe7386479120ae4ac13,30/01/1999,2020-07-08_16h21.52.753,proactive,2020.1.2,Win32,60,5f035e5afe130c270d6ae6dd,5f05e444a3631d0c304430cc,6,0,0,0,0,1,chameleon,,,,,,,,,,,,,,,,,,,,,,,,,,,,,,,,,,,,,,,,,,,,,,,,,,,,,,,,,,,,,,,,,,,,,,,,,,,,,,,,,,,,,,,
,,,,,,,,,,stimuli/images/PICTURE_658.png,DEVIL,5ea9cfe7386479120ae4ac13,30/01/1999,2020-07-08_16h21.52.753,proactive,2020.1.2,Win32,60,5f035e5afe130c270d6ae6dd,5f05e444a3631d0c304430cc,6,0,1,1,3,1,crow,,,,,,,,,,,,,,,,,,,,,,,,,,,,,,,,,,,,,,,,,,,,,,,,,,,,,,,,,,,,,,,,,,,,,,,,,,,,,,,,,,,,,,,
,,,,,,,,,,stimuli/images/PICTURE_727.png,CELL,5ea9cfe7386479120ae4ac13,30/01/1999,2020-07-08_16h21.52.753,proactive,2020.1.2,Win32,60,5f035e5afe130c270d6ae6dd,5f05e444a3631d0c304430cc,6,0,2,2,1,1,hose,,,,,,,,,,,,,,,,,,,,,,,,,,,,,,,,,,,,,,,,,,,,,,,,,,,,,,,,,,,,,,,,,,,,,,,,,,,,,,,,,,,,,,,
,,,,,,,,,,stimuli/images/PICTURE_697.png,KILLER,5ea9cfe7386479120ae4ac13,30/01/1999,2020-07-08_16h21.52.753,proactive,2020.1.2,Win32,60,5f035e5afe130c270d6ae6dd,5f05e444a3631d0c304430cc,6,0,3,3,4,1,peach,,,,,,,,,,,,,,,,,,,,,,,,,,,,,,,,,,,,,,,,,,,,,,,,,,,,,,,,,,,,,,,,,,,,,,,,,,,,,,,,,,,,,,,
,,KILLER,3.571215,1,,,,,,stimuli/images/PICTURE_697.png,KILLER,5ea9cfe7386479120ae4ac13,30/01/1999,2020-07-08_16h21.52.753,proactive,2020.1.2,Win32,60,5f035e5afe130c270d6ae6dd,5f05e444a3631d0c304430cc,6,,,,,,peach,0,0,0,4,1,,,,,,,,,,,,,,,,,,,,,,,,,,,,,,,,,,,,,,,,,,,,,,,,,,,,,,,,,,,,,,,,,,,,,,,,,,,,,,,,,,
,,CELL,2.613405,1,,,,,,stimuli/images/PICTURE_727.png,CELL,5ea9cfe7386479120ae4ac13,30/01/1999,2020-07-08_16h21.52.753,proactive,2020.1.2,Win32,60,5f035e5afe130c270d6ae6dd,5f05e444a3631d0c304430cc,6,,,,,,hose,0,1,1,1,1,,,,,,,,,,,,,,,,,,,,,,,,,,,,,,,,,,,,,,,,,,,,,,,,,,,,,,,,,,,,,,,,,,,,,,,,,,,,,,,,,,
,,GENIUS,3.720145,1,,,,,,stimuli/images/PICTURE_269.png,GENIUS,5ea9cfe7386479120ae4ac13,30/01/1999,2020-07-08_16h21.52.753,proactive,2020.1.2,Win32,60,5f035e5afe130c270d6ae6dd,5f05e444a3631d0c304430cc,6,,,,,,chameleon,0,2,2,0,1,,,,,,,,,,,,,,,,,,,,,,,,,,,,,,,,,,,,,,,,,,,,,,,,,,,,,,,,,,,,,,,,,,,,,,,,,,,,,,,,,,
,,DEVIL,2.706795,1,,,,,,stimuli/images/PICTURE_658.png,DEVIL,5ea9cfe7386479120ae4ac13,30/01/1999,2020-07-08_16h21.52.753,proactive,2020.1.2,Win32,60,5f035e5afe130c270d6ae6dd,5f05e444a3631d0c304430cc,6,,,,,,crow,0,3,3,3,1,,,,,,,,,,,,,,,,,,,,,,,,,,,,,,,,,,,,,,,,,,,,,,,,,,,,,,,,,,,,,,,,,,,,,,,,,,,,,,,,,,
,,LOSS,2.279985,1,,,,,,stimuli/images/PICTURE_378.png,LOSS,5ea9cfe7386479120ae4ac13,30/01/1999,2020-07-08_16h21.52.753,proactive,2020.1.2,Win32,60,5f035e5afe130c270d6ae6dd,5f05e444a3631d0c304430cc,6,,,,,,lobster,0,4,4,2,1,,,,,,,,,,,,,,,,,,,,,,,,,,,,,,,,,,,,,,,,,,,,,,,,,,,,,,,,,,,,,,,,,,,,,,,,,,,,,,,,,,
,,,,,,,,,,stimuli/images/PICTURE_470.png,BEAUTY,5ea9cfe7386479120ae4ac13,30/01/1999,2020-07-08_16h21.52.753,proactive,2020.1.2,Win32,60,5f035e5afe130c270d6ae6dd,5f05e444a3631d0c304430cc,6,,,,,,motorbike,,,,,,0,0,0,26,1,3,2,,,,,,,,,,,,,,,,,,,,,,,,,,,,,,,,,,,,,,,,,,,,,,,,,,,,,,,,,,,,,,,,,,,,,,,,,,,
,,,,,,,,,,stimuli/images/PICTURE_655.png,SALE,5ea9cfe7386479120ae4ac13,30/01/1999,2020-07-08_16h21.52.753,proactive,2020.1.2,Win32,60,5f035e5afe130c270d6ae6dd,5f05e444a3631d0c304430cc,6,,,,,,megaphone,,,,,,0,1,1,57,1,6,2,,,,,,,,,,,,,,,,,,,,,,,,,,,,,,,,,,,,,,,,,,,,,,,,,,,,,,,,,,,,,,,,,,,,,,,,,,,
,,,,,,,,,,stimuli/images/PICTURE_215.png,BOYS,5ea9cfe7386479120ae4ac13,30/01/1999,2020-07-08_16h21.52.753,proactive,2020.1.2,Win32,60,5f035e5afe130c270d6ae6dd,5f05e444a3631d0c304430cc,6,,,,,,boot,,,,,,0,2,2,24,1,3,2,,,,,,,,,,,,,,,,,,,,,,,,,,,,,,,,,,,,,,,,,,,,,,,,,,,,,,,,,,,,,,,,,,,,,,,,,,,
,,,,,,,,,,stimuli/images/PICTURE_314.png,SPEECH,5ea9cfe7386479120ae4ac13,30/01/1999,2020-07-08_16h21.52.753,proactive,2020.1.2,Win32,60,5f035e5afe130c270d6ae6dd,5f05e444a3631d0c304430cc,6,,,,,,perfume,,,,,,0,3,3,35,1,4,2,,,,,,,,,,,,,,,,,,,,,,,,,,,,,,,,,,,,,,,,,,,,,,,,,,,,,,,,,,,,,,,,,,,,,,,,,,,
,,,,,,,,,,stimuli/images/PICTURE_688.png,CLOCK,5ea9cfe7386479120ae4ac13,30/01/1999,2020-07-08_16h21.52.753,proactive,2020.1.2,Win32,60,5f035e5afe130c270d6ae6dd,5f05e444a3631d0c304430cc,6,,,,,,runner,,,,,,0,4,4,42,1,5,2,,,,,,,,,,,,,,,,,,,,,,,,,,,,,,,,,,,,,,,,,,,,,,,,,,,,,,,,,,,,,,,,,,,,,,,,,,,
,,,,,,,,,,stimuli/images/PICTURE_487.png,POLICY,5ea9cfe7386479120ae4ac13,30/01/1999,2020-07-08_16h21.52.753,proactive,2020.1.2,Win32,60,5f035e5afe130c270d6ae6dd,5f05e444a3631d0c304430cc,6,,,,,,basket,,,,,,0,5,5,34,1,4,2,,,,,,,,,,,,,,,,,,,,,,,,,,,,,,,,,,,,,,,,,,,,,,,,,,,,,,,,,,,,,,,,,,,,,,,,,,,
,,,,,,,,,,stimuli/images/PICTURE_215.png,LEADER,5ea9cfe7386479120ae4ac13,30/01/1999,2020-07-08_16h21.52.753,proactive,2020.1.2,Win32,60,5f035e5afe130c270d6ae6dd,5f05e444a3631d0c304430cc,6,,,,,,boot,,,,,,0,6,6,43,1,5,2,,,,,,,,,,,,,,,,,,,,,,,,,,,,,,,,,,,,,,,,,,,,,,,,,,,,,,,,,,,,,,,,,,,,,,,,,,,
,,,,,,,,,,stimuli/images/PICTURE_708.png,VALLEY,5ea9cfe7386479120ae4ac13,30/01/1999,2020-07-08_16h21.52.753,proactive,2020.1.2,Win32,60,5f035e5afe130c270d6ae6dd,5f05e444a3631d0c304430cc,6,,,,,,monkey,,,,,,0,7,7,45,1,5,2,,,,,,,,,,,,,,,,,,,,,,,,,,,,,,,,,,,,,,,,,,,,,,,,,,,,,,,,,,,,,,,,,,,,,,,,,,,
,,,,,,,,,,stimuli/images/PICTURE_33.png,COPS,5ea9cfe7386479120ae4ac13,30/01/1999,2020-07-08_16h21.52.753,proactive,2020.1.2,Win32,60,5f035e5afe130c270d6ae6dd,5f05e444a3631d0c304430cc,6,,,,,,frame,,,,,,0,8,8,29,1,3,2,,,,,,,,,,,,,,,,,,,,,,,,,,,,,,,,,,,,,,,,,,,,,,,,,,,,,,,,,,,,,,,,,,,,,,,,,,,
,,,,,,,,,,stimuli/images/PICTURE_141.png,CLIENT,5ea9cfe7386479120ae4ac13,30/01/1999,2020-07-08_16h21.52.753,proactive,2020.1.2,Win32,60,5f035e5afe130c270d6ae6dd,5f05e444a3631d0c304430cc,6,,,,,,sunflower,,,,,,0,9,9,30,1,4,2,,,,,,,,,,,,,,,,,,,,,,,,,,,,,,,,,,,,,,,,,,,,,,,,,,,,,,,,,,,,,,,,,,,,,,,,,,,
,,,,,,,,,,stimuli/images/PICTURE_491.png,SERIES,5ea9cfe7386479120ae4ac13,30/01/1999,2020-07-08_16h21.52.753,proactive,2020.1.2,Win32,60,5f035e5afe130c270d6ae6dd,5f05e444a3631d0c304430cc,6,,,,,,rug,,,,,,0,10,10,39,1,4,2,,,,,,,,,,,,,,,,,,,,,,,,,,,,,,,,,,,,,,,,,,,,,,,,,,,,,,,,,,,,,,,,,,,,,,,,,,,
,,,,,,,,,,stimuli/images/PICTURE_677.png,FAMILY,5ea9cfe7386479120ae4ac13,30/01/1999,2020-07-08_16h21.52.753,proactive,2020.1.2,Win32,60,5f035e5afe130c270d6ae6dd,5f05e444a3631d0c304430cc,6,,,,,,map,,,,,,0,11,11,53,1,6,2,,,,,,,,,,,,,,,,,,,,,,,,,,,,,,,,,,,,,,,,,,,,,,,,,,,,,,,,,,,,,,,,,,,,,,,,,,,
,,,,,,,,,,stimuli/images/PICTURE_667.png,GLASS,5ea9cfe7386479120ae4ac13,30/01/1999,2020-07-08_16h21.52.753,proactive,2020.1.2,Win32,60,5f035e5afe130c270d6ae6dd,5f05e444a3631d0c304430cc,6,,,,,,daisy,,,,,,0,12,12,27,1,3,2,,,,,,,,,,,,,,,,,,,,,,,,,,,,,,,,,,,,,,,,,,,,,,,,,,,,,,,,,,,,,,,,,,,,,,,,,,,
,,,,,,,,,,stimuli/images/PICTURE_2.png,AREA,5ea9cfe7386479120ae4ac13,30/01/1999,2020-07-08_16h21.52.753,proactive,2020.1.2,Win32,60,5f035e5afe130c270d6ae6dd,5f05e444a3631d0c304430cc,6,,,,,,tyre,,,,,,0,13,13,32,1,4,2,,,,,,,,,,,,,,,,,,,,,,,,,,,,,,,,,,,,,,,,,,,,,,,,,,,,,,,,,,,,,,,,,,,,,,,,,,,
,,,,,,,,,,stimuli/images/PICTURE_677.png,PHOTO,5ea9cfe7386479120ae4ac13,30/01/1999,2020-07-08_16h21.52.753,proactive,2020.1.2,Win32,60,5f035e5afe130c270d6ae6dd,5f05e444a3631d0c304430cc,6,,,,,,map,,,,,,0,14,14,14,1,2,2,,,,,,,,,,,,,,,,,,,,,,,,,,,,,,,,,,,,,,,,,,,,,,,,,,,,,,,,,,,,,,,,,,,,,,,,,,,
,,,,,,,,,,stimuli/images/PICTURE_255.png,PENNY,5ea9cfe7386479120ae4ac13,30/01/1999,2020-07-08_16h21.52.753,proactive,2020.1.2,Win32,60,5f035e5afe130c270d6ae6dd,5f05e444a3631d0c304430cc,6,,,,,,shovel,,,,,,0,15,15,19,1,2,2,,,,,,,,,,,,,,,,,,,,,,,,,,,,,,,,,,,,,,,,,,,,,,,,,,,,,,,,,,,,,,,,,,,,,,,,,,,
,,,,,,,,,,stimuli/images/PICTURE_405.png,HOUSE,5ea9cfe7386479120ae4ac13,30/01/1999,2020-07-08_16h21.52.753,proactive,2020.1.2,Win32,60,5f035e5afe130c270d6ae6dd,5f05e444a3631d0c304430cc,6,,,,,,anchor,,,,,,0,16,16,2,1,1,2,,,,,,,,,,,,,,,,,,,,,,,,,,,,,,,,,,,,,,,,,,,,,,,,,,,,,,,,,,,,,,,,,,,,,,,,,,,
,,,,,,,,,,stimuli/images/PICTURE_57.png,CASINO,5ea9cfe7386479120ae4ac13,30/01/1999,2020-07-08_16h21.52.753,proactive,2020.1.2,Win32,60,5f035e5afe130c270d6ae6dd,5f05e444a3631d0c304430cc,6,,,,,,stamp,,,,,,0,17,17,12,1,2,2,,,,,,,,,,,,,,,,,,,,,,,,,,,,,,,,,,,,,,,,,,,,,,,,,,,,,,,,,,,,,,,,,,,,,,,,,,,
,,,,,,,,,,stimuli/images/PICTURE_692.png,DUDE,5ea9cfe7386479120ae4ac13,30/01/1999,2020-07-08_16h21.52.753,proactive,2020.1.2,Win32,60,5f035e5afe130c270d6ae6dd,5f05e444a3631d0c304430cc,6,,,,,,cherry,,,,,,0,18,18,47,1,5,2,,,,,,,,,,,,,,,,,,,,,,,,,,,,,,,,,,,,,,,,,,,,,,,,,,,,,,,,,,,,,,,,,,,,,,,,,,,
,,,,,,,,,,stimuli/images/PICTURE_509.png,APPLE,5ea9cfe7386479120ae4ac13,30/01/1999,2020-07-08_16h21.52.753,proactive,2020.1.2,Win32,60,5f035e5afe130c270d6ae6dd,5f05e444a3631d0c304430cc,6,,,,,,telephone,,,,,,0,19,19,38,1,4,2,,,,,,,,,,,,,,,,,,,,,,,,,,,,,,,,,,,,,,,,,,,,,,,,,,,,,,,,,,,,,,,,,,,,,,,,,,,
,,,,,,,,,,stimuli/images/PICTURE_452.png,COPS,5ea9cfe7386479120ae4ac13,30/01/1999,2020-07-08_16h21.52.753,proactive,2020.1.2,Win32,60,5f035e5afe130c270d6ae6dd,5f05e444a3631d0c304430cc,6,,,,,,watch,,,,,,0,20,20,0,1,1,2,,,,,,,,,,,,,,,,,,,,,,,,,,,,,,,,,,,,,,,,,,,,,,,,,,,,,,,,,,,,,,,,,,,,,,,,,,,
,,,,,,,,,,stimuli/images/PICTURE_215.png,FOOD,5ea9cfe7386479120ae4ac13,30/01/1999,2020-07-08_16h21.52.753,proactive,2020.1.2,Win32,60,5f035e5afe130c270d6ae6dd,5f05e444a3631d0c304430cc,6,,,,,,boot,,,,,,0,21,21,5,1,1,2,,,,,,,,,,,,,,,,,,,,,,,,,,,,,,,,,,,,,,,,,,,,,,,,,,,,,,,,,,,,,,,,,,,,,,,,,,,
,,,,,,,,,,stimuli/images/PICTURE_487.png,ROOF,5ea9cfe7386479120ae4ac13,30/01/1999,2020-07-08_16h21.52.753,proactive,2020.1.2,Win32,60,5f035e5afe130c270d6ae6dd,5f05e444a3631d0c304430cc,6,,,,,,basket,,,,,,0,22,22,50,1,6,2,,,,,,,,,,,,,,,,,,,,,,,,,,,,,,,,,,,,,,,,,,,,,,,,,,,,,,,,,,,,,,,,,,,,,,,,,,,
,,,,,,,,,,stimuli/images/PICTURE_327.png,LEADER,5ea9cfe7386479120ae4ac13,30/01/1999,2020-07-08_16h21.52.753,proactive,2020.1.2,Win32,60,5f035e5afe130c270d6ae6dd,5f05e444a3631d0c304430cc,6,,,,,,helmet,,,,,,0,23,23,17,1,2,2,,,,,,,,,,,,,,,,,,,,,,,,,,,,,,,,,,,,,,,,,,,,,,,,,,,,,,,,,,,,,,,,,,,,,,,,,,,
,,,,,,,,,,stimuli/images/PICTURE_509.png,MILLER,5ea9cfe7386479120ae4ac13,30/01/1999,2020-07-08_16h21.52.753,proactive,2020.1.2,Win32,60,5f035e5afe130c270d6ae6dd,5f05e444a3631d0c304430cc,6,,,,,,telephone,,,,,,0,24,24,49,1,5,2,,,,,,,,,,,,,,,,,,,,,,,,,,,,,,,,,,,,,,,,,,,,,,,,,,,,,,,,,,,,,,,,,,,,,,,,,,,
,,,,,,,,,,stimuli/images/PICTURE_403.png,FAMILY,5ea9cfe7386479120ae4ac13,30/01/1999,2020-07-08_16h21.52.753,proactive,2020.1.2,Win32,60,5f035e5afe130c270d6ae6dd,5f05e444a3631d0c304430cc,6,,,,,,cathedral,,,,,,0,25,25,9,1,1,2,,,,,,,,,,,,,,,,,,,,,,,,,,,,,,,,,,,,,,,,,,,,,,,,,,,,,,,,,,,,,,,,,,,,,,,,,,,
,,,,,,,,,,stimuli/images/PICTURE_750.png,POLICY,5ea9cfe7386479120ae4ac13,30/01/1999,2020-07-08_16h21.52.753,proactive,2020.1.2,Win32,60,5f035e5afe130c270d6ae6dd,5f05e444a3631d0c304430cc,6,,,,,,kettle,,,,,,0,26,26,44,1,5,2,,,,,,,,,,,,,,,,,,,,,,,,,,,,,,,,,,,,,,,,,,,,,,,,,,,,,,,,,,,,,,,,,,,,,,,,,,,
,,,,,,,,,,stimuli/images/PICTURE_453.png,FAMILY,5ea9cfe7386479120ae4ac13,30/01/1999,2020-07-08_16h21.52.753,proactive,2020.1.2,Win32,60,5f035e5afe130c270d6ae6dd,5f05e444a3631d0c304430cc,6,,,,,,scissors,,,,,,0,27,27,48,1,5,2,,,,,,,,,,,,,,,,,,,,,,,,,,,,,,,,,,,,,,,,,,,,,,,,,,,,,,,,,,,,,,,,,,,,,,,,,,,
,,,,,,,,,,stimuli/images/PICTURE_147.png,LEADER,5ea9cfe7386479120ae4ac13,30/01/1999,2020-07-08_16h21.52.753,proactive,2020.1.2,Win32,60,5f035e5afe130c270d6ae6dd,5f05e444a3631d0c304430cc,6,,,,,,hanger,,,,,,0,28,28,33,1,4,2,,,,,,,,,,,,,,,,,,,,,,,,,,,,,,,,,,,,,,,,,,,,,,,,,,,,,,,,,,,,,,,,,,,,,,,,,,,
,,,,,,,,,,stimuli/images/PICTURE_18.png,RIVER,5ea9cfe7386479120ae4ac13,30/01/1999,2020-07-08_16h21.52.753,proactive,2020.1.2,Win32,60,5f035e5afe130c270d6ae6dd,5f05e444a3631d0c304430cc,6,,,,,,planet,,,,,,0,29,29,22,1,3,2,,,,,,,,,,,,,,,,,,,,,,,,,,,,,,,,,,,,,,,,,,,,,,,,,,,,,,,,,,,,,,,,,,,,,,,,,,,
,,,,,,,,,,stimuli/images/PICTURE_32.png,LETTER,5ea9cfe7386479120ae4ac13,30/01/1999,2020-07-08_16h21.52.753,proactive,2020.1.2,Win32,60,5f035e5afe130c270d6ae6dd,5f05e444a3631d0c304430cc,6,,,,,,crown,,,,,,0,30,30,56,1,6,2,,,,,,,,,,,,,,,,,,,,,,,,,,,,,,,,,,,,,,,,,,,,,,,,,,,,,,,,,,,,,,,,,,,,,,,,,,,
,,,,,,,,,,stimuli/images/PICTURE_311.png,TOILET,5ea9cfe7386479120ae4ac13,30/01/1999,2020-07-08_16h21.52.753,proactive,2020.1.2,Win32,60,5f035e5afe130c270d6ae6dd,5f05e444a3631d0c304430cc,6,,,,,,razor,,,,,,0,31,31,54,1,6,2,,,,,,,,,,,,,,,,,,,,,,,,,,,,,,,,,,,,,,,,,,,,,,,,,,,,,,,,,,,,,,,,,,,,,,,,,,,
,,,,,,,,,,stimuli/images/PICTURE_509.png,BATH,5ea9cfe7386479120ae4ac13,30/01/1999,2020-07-08_16h21.52.753,proactive,2020.1.2,Win32,60,5f035e5afe130c270d6ae6dd,5f05e444a3631d0c304430cc,6,,,,,,telephone,,,,,,0,32,32,15,1,2,2,,,,,,,,,,,,,,,,,,,,,,,,,,,,,,,,,,,,,,,,,,,,,,,,,,,,,,,,,,,,,,,,,,,,,,,,,,,
,,,,,,,,,,stimuli/images/PICTURE_509.png,SHOTS,5ea9cfe7386479120ae4ac13,30/01/1999,2020-07-08_16h21.52.753,proactive,2020.1.2,Win32,60,5f035e5afe130c270d6ae6dd,5f05e444a3631d0c304430cc,6,,,,,,telephone,,,,,,0,33,33,7,1,1,2,,,,,,,,,,,,,,,,,,,,,,,,,,,,,,,,,,,,,,,,,,,,,,,,,,,,,,,,,,,,,,,,,,,,,,,,,,,
,,,,,,,,,,stimuli/images/PICTURE_405.png,JUNGLE,5ea9cfe7386479120ae4ac13,30/01/1999,2020-07-08_16h21.52.753,proactive,2020.1.2,Win32,60,5f035e5afe130c270d6ae6dd,5f05e444a3631d0c304430cc,6,,,,,,anchor,,,,,,0,34,34,58,1,6,2,,,,,,,,,,,,,,,,,,,,,,,,,,,,,,,,,,,,,,,,,,,,,,,,,,,,,,,,,,,,,,,,,,,,,,,,,,,
,,,,,,,,,,stimuli/images/PICTURE_654.png,YEAR,5ea9cfe7386479120ae4ac13,30/01/1999,2020-07-08_16h21.52.753,proactive,2020.1.2,Win32,60,5f035e5afe130c270d6ae6dd,5f05e444a3631d0c304430cc,6,,,,,,pencil,,,,,,0,35,35,41,1,5,2,,,,,,,,,,,,,,,,,,,,,,,,,,,,,,,,,,,,,,,,,,,,,,,,,,,,,,,,,,,,,,,,,,,,,,,,,,,
,,,,,,,,,,stimuli/images/PICTURE_348.png,TOILET,5ea9cfe7386479120ae4ac13,30/01/1999,2020-07-08_16h21.52.753,proactive,2020.1.2,Win32,60,5f035e5afe130c270d6ae6dd,5f05e444a3631d0c304430cc,6,,,,,,pepper,,,,,,0,36,36,4,1,1,2,,,,,,,,,,,,,,,,,,,,,,,,,,,,,,,,,,,,,,,,,,,,,,,,,,,,,,,,,,,,,,,,,,,,,,,,,,,
,,,,,,,,,,stimuli/images/PICTURE_177.png,HOUSE,5ea9cfe7386479120ae4ac13,30/01/1999,2020-07-08_16h21.52.753,proactive,2020.1.2,Win32,60,5f035e5afe130c270d6ae6dd,5f05e444a3631d0c304430cc,6,,,,,,mushroom,,,,,,0,37,37,25,1,3,2,,,,,,,,,,,,,,,,,,,,,,,,,,,,,,,,,,,,,,,,,,,,,,,,,,,,,,,,,,,,,,,,,,,,,,,,,,,
,,,,,,,,,,stimuli/images/PICTURE_57.png,NATION,5ea9cfe7386479120ae4ac13,30/01/1999,2020-07-08_16h21.52.753,proactive,2020.1.2,Win32,60,5f035e5afe130c270d6ae6dd,5f05e444a3631d0c304430cc,6,,,,,,stamp,,,,,,0,38,38,21,1,3,2,,,,,,,,,,,,,,,,,,,,,,,,,,,,,,,,,,,,,,,,,,,,,,,,,,,,,,,,,,,,,,,,,,,,,,,,,,,
,,,,,,,,,,stimuli/images/PICTURE_95.png,NIGHT,5ea9cfe7386479120ae4ac13,30/01/1999,2020-07-08_16h21.52.753,proactive,2020.1.2,Win32,60,5f035e5afe130c270d6ae6dd,5f05e444a3631d0c304430cc,6,,,,,,suitcase,,,,,,0,39,39,37,1,4,2,,,,,,,,,,,,,,,,,,,,,,,,,,,,,,,,,,,,,,,,,,,,,,,,,,,,,,,,,,,,,,,,,,,,,,,,,,,
,,,,,,,,,,stimuli/images/PICTURE_564.png,PLENTY,5ea9cfe7386479120ae4ac13,30/01/1999,2020-07-08_16h21.52.753,proactive,2020.1.2,Win32,60,5f035e5afe130c270d6ae6dd,5f05e444a3631d0c304430cc,6,,,,,,spoon,,,,,,0,40,40,11,1,2,2,,,,,,,,,,,,,,,,,,,,,,,,,,,,,,,,,,,,,,,,,,,,,,,,,,,,,,,,,,,,,,,,,,,,,,,,,,,
,,,,,,,,,,stimuli/images/PICTURE_285.png,WRITER,5ea9cfe7386479120ae4ac13,30/01/1999,2020-07-08_16h21.52.753,proactive,2020.1.2,Win32,60,5f035e5afe130c270d6ae6dd,5f05e444a3631d0c304430cc,6,,,,,,carrot,,,,,,0,41,41,6,1,1,2,,,,,,,,,,,,,,,,,,,,,,,,,,,,,,,,,,,,,,,,,,,,,,,,,,,,,,,,,,,,,,,,,,,,,,,,,,,
,,,,,,,,,,stimuli/images/PICTURE_57.png,CANDY,5ea9cfe7386479120ae4ac13,30/01/1999,2020-07-08_16h21.52.753,proactive,2020.1.2,Win32,60,5f035e5afe130c270d6ae6dd,5f05e444a3631d0c304430cc,6,,,,,,stamp,,,,,,0,42,42,52,1,6,2,,,,,,,,,,,,,,,,,,,,,,,,,,,,,,,,,,,,,,,,,,,,,,,,,,,,,,,,,,,,,,,,,,,,,,,,,,,
,,,,,,,,,,stimuli/images/PICTURE_654.png,COPS,5ea9cfe7386479120ae4ac13,30/01/1999,2020-07-08_16h21.52.753,proactive,2020.1.2,Win32,60,5f035e5afe130c270d6ae6dd,5f05e444a3631d0c304430cc,6,,,,,,pencil,,,,,,0,43,43,10,1,2,2,,,,,,,,,,,,,,,,,,,,,,,,,,,,,,,,,,,,,,,,,,,,,,,,,,,,,,,,,,,,,,,,,,,,,,,,,,,
,,,,,,,,,,stimuli/images/PICTURE_208.png,SPIRIT,5ea9cfe7386479120ae4ac13,30/01/1999,2020-07-08_16h21.52.753,proactive,2020.1.2,Win32,60,5f035e5afe130c270d6ae6dd,5f05e444a3631d0c304430cc,6,,,,,,microphone,,,,,,0,44,44,28,1,3,2,,,,,,,,,,,,,,,,,,,,,,,,,,,,,,,,,,,,,,,,,,,,,,,,,,,,,,,,,,,,,,,,,,,,,,,,,,,
,,,,,,,,,,stimuli/images/PICTURE_356.png,CANDY,5ea9cfe7386479120ae4ac13,30/01/1999,2020-07-08_16h21.52.753,proactive,2020.1.2,Win32,60,5f035e5afe130c270d6ae6dd,5f05e444a3631d0c304430cc,6,,,,,,pawn,,,,,,0,45,45,46,1,5,2,,,,,,,,,,,,,,,,,,,,,,,,,,,,,,,,,,,,,,,,,,,,,,,,,,,,,,,,,,,,,,,,,,,,,,,,,,,
,,,,,,,,,,stimuli/images/PICTURE_405.png,JUNGLE,5ea9cfe7386479120ae4ac13,30/01/1999,2020-07-08_16h21.52.753,proactive,2020.1.2,Win32,60,5f035e5afe130c270d6ae6dd,5f05e444a3631d0c304430cc,6,,,,,,anchor,,,,,,0,46,46,13,1,2,2,,,,,,,,,,,,,,,,,,,,,,,,,,,,,,,,,,,,,,,,,,,,,,,,,,,,,,,,,,,,,,,,,,,,,,,,,,,
,,,,,,,,,,stimuli/images/PICTURE_296.png,CLOCK,5ea9cfe7386479120ae4ac13,30/01/1999,2020-07-08_16h21.52.753,proactive,2020.1.2,Win32,60,5f035e5afe130c270d6ae6dd,5f05e444a3631d0c304430cc,6,,,,,,bolt,,,,,,0,47,47,18,1,2,2,,,,,,,,,,,,,,,,,,,,,,,,,,,,,,,,,,,,,,,,,,,,,,,,,,,,,,,,,,,,,,,,,,,,,,,,,,,
,,,,,,,,,,stimuli/images/PICTURE_297.png,BODY,5ea9cfe7386479120ae4ac13,30/01/1999,2020-07-08_16h21.52.753,proactive,2020.1.2,Win32,60,5f035e5afe130c270d6ae6dd,5f05e444a3631d0c304430cc,6,,,,,,aeroplane,,,,,,0,48,48,51,1,6,2,,,,,,,,,,,,,,,,,,,,,,,,,,,,,,,,,,,,,,,,,,,,,,,,,,,,,,,,,,,,,,,,,,,,,,,,,,,
,,,,,,,,,,stimuli/images/PICTURE_2.png,YARD,5ea9cfe7386479120ae4ac13,30/01/1999,2020-07-08_16h21.52.753,proactive,2020.1.2,Win32,60,5f035e5afe130c270d6ae6dd,5f05e444a3631d0c304430cc,6,,,,,,tyre,,,,,,0,49,49,55,1,6,2,,,,,,,,,,,,,,,,,,,,,,,,,,,,,,,,,,,,,,,,,,,,,,,,,,,,,,,,,,,,,,,,,,,,,,,,,,,
,,,,,,,,,,stimuli/images/PICTURE_2.png,JUNGLE,5ea9cfe7386479120ae4ac13,30/01/1999,2020-07-08_16h21.52.753,proactive,2020.1.2,Win32,60,5f035e5afe130c270d6ae6dd,5f05e444a3631d0c304430cc,6,,,,,,tyre,,,,,,0,50,50,1,1,1,2,,,,,,,,,,,,,,,,,,,,,,,,,,,,,,,,,,,,,,,,,,,,,,,,,,,,,,,,,,,,,,,,,,,,,,,,,,,
,,,,,,,,,,stimuli/images/PICTURE_348.png,DUDE,5ea9cfe7386479120ae4ac13,30/01/1999,2020-07-08_16h21.52.753,proactive,2020.1.2,Win32,60,5f035e5afe130c270d6ae6dd,5f05e444a3631d0c304430cc,6,,,,,,pepper,,,,,,0,51,51,59,1,6,2,,,,,,,,,,,,,,,,,,,,,,,,,,,,,,,,,,,,,,,,,,,,,,,,,,,,,,,,,,,,,,,,,,,,,,,,,,,
,,,,,,,,,,stimuli/images/PICTURE_504.png,HOUSE,5ea9cfe7386479120ae4ac13,30/01/1999,2020-07-08_16h21.52.753,proactive,2020.1.2,Win32,60,5f035e5afe130c270d6ae6dd,5f05e444a3631d0c304430cc,6,,,,,,wheel,,,,,,0,52,52,36,1,4,2,,,,,,,,,,,,,,,,,,,,,,,,,,,,,,,,,,,,,,,,,,,,,,,,,,,,,,,,,,,,,,,,,,,,,,,,,,,
,,,,,,,,,,stimuli/images/PICTURE_93.png,GIRL,5ea9cfe7386479120ae4ac13,30/01/1999,2020-07-08_16h21.52.753,proactive,2020.1.2,Win32,60,5f035e5afe130c270d6ae6dd,5f05e444a3631d0c304430cc,6,,,,,,skateboard,,,,,,0,53,53,31,1,4,2,,,,,,,,,,,,,,,,,,,,,,,,,,,,,,,,,,,,,,,,,,,,,,,,,,,,,,,,,,,,,,,,,,,,,,,,,,,
,,,,,,,,,,stimuli/images/PICTURE_123.png,SALE,5ea9cfe7386479120ae4ac13,30/01/1999,2020-07-08_16h21.52.753,proactive,2020.1.2,Win32,60,5f035e5afe130c270d6ae6dd,5f05e444a3631d0c304430cc,6,,,,,,dart,,,,,,0,54,54,8,1,1,2,,,,,,,,,,,,,,,,,,,,,,,,,,,,,,,,,,,,,,,,,,,,,,,,,,,,,,,,,,,,,,,,,,,,,,,,,,,
,,,,,,,,,,stimuli/images/PICTURE_470.png,MOMENT,5ea9cfe7386479120ae4ac13,30/01/1999,2020-07-08_16h21.52.753,proactive,2020.1.2,Win32,60,5f035e5afe130c270d6ae6dd,5f05e444a3631d0c304430cc,6,,,,,,motorbike,,,,,,0,55,55,40,1,5,2,,,,,,,,,,,,,,,,,,,,,,,,,,,,,,,,,,,,,,,,,,,,,,,,,,,,,,,,,,,,,,,,,,,,,,,,,,,
,,,,,,,,,,stimuli/images/PICTURE_160.png,HOTEL,5ea9cfe7386479120ae4ac13,30/01/1999,2020-07-08_16h21.52.753,proactive,2020.1.2,Win32,60,5f035e5afe130c270d6ae6dd,5f05e444a3631d0c304430cc,6,,,,,,wheelbarrow,,,,,,0,56,56,16,1,2,2,,,,,,,,,,,,,,,,,,,,,,,,,,,,,,,,,,,,,,,,,,,,,,,,,,,,,,,,,,,,,,,,,,,,,,,,,,,
,,,,,,,,,,stimuli/images/PICTURE_311.png,FLESH,5ea9cfe7386479120ae4ac13,30/01/1999,2020-07-08_16h21.52.753,proactive,2020.1.2,Win32,60,5f035e5afe130c270d6ae6dd,5f05e444a3631d0c304430cc,6,,,,,,razor,,,,,,0,57,57,3,1,1,2,,,,,,,,,,,,,,,,,,,,,,,,,,,,,,,,,,,,,,,,,,,,,,,,,,,,,,,,,,,,,,,,,,,,,,,,,,,
,,,,,,,,,,stimuli/images/PICTURE_285.png,PRINCE,5ea9cfe7386479120ae4ac13,30/01/1999,2020-07-08_16h21.52.753,proactive,2020.1.2,Win32,60,5f035e5afe130c270d6ae6dd,5f05e444a3631d0c304430cc,6,,,,,,carrot,,,,,,0,58,58,20,1,3,2,,,,,,,,,,,,,,,,,,,,,,,,,,,,,,,,,,,,,,,,,,,,,,,,,,,,,,,,,,,,,,,,,,,,,,,,,,,
,,?,0.0011,0,,,,,,stimuli/images/PICTURE_564.png,PLENTY,5ea9cfe7386479120ae4ac13,30/01/1999,2020-07-08_16h21.52.753,proactive,2020.1.2,Win32,60,5f035e5afe130c270d6ae6dd,5f05e444a3631d0c304430cc,6,,,,,,spoon,,,,,,,,,,,2,2,0,0,0,11,1,,,,,,,,,,,,,,,,,,,,,,,,,,,,,,,,,,,,,,,,,,,,,,,,,,,,,,,,,,,,,,,,,,,,,,
,,?,0.000675,0,,,,,,stimuli/images/PICTURE_405.png,JUNGLE,5ea9cfe7386479120ae4ac13,30/01/1999,2020-07-08_16h21.52.753,proactive,2020.1.2,Win32,60,5f035e5afe130c270d6ae6dd,5f05e444a3631d0c304430cc,6,,,,,,anchor,,,,,,,,,,,2,2,0,1,1,13,1,,,,,,,,,,,,,,,,,,,,,,,,,,,,,,,,,,,,,,,,,,,,,,,,,,,,,,,,,,,,,,,,,,,,,,
,,?,0.000595,0,,,,,,stimuli/images/PICTURE_356.png,CANDY,5ea9cfe7386479120ae4ac13,30/01/1999,2020-07-08_16h21.52.753,proactive,2020.1.2,Win32,60,5f035e5afe130c270d6ae6dd,5f05e444a3631d0c304430cc,6,,,,,,pawn,,,,,,,,,,,5,2,0,2,2,46,1,,,,,,,,,,,,,,,,,,,,,,,,,,,,,,,,,,,,,,,,,,,,,,,,,,,,,,,,,,,,,,,,,,,,,,
,,?,0.00069,0,,,,,,stimuli/images/PICTURE_452.png,COPS,5ea9cfe7386479120ae4ac13,30/01/1999,2020-07-08_16h21.52.753,proactive,2020.1.2,Win32,60,5f035e5afe130c270d6ae6dd,5f05e444a3631d0c304430cc,6,,,,,,watch,,,,,,,,,,,1,2,0,3,3,0,1,,,,,,,,,,,,,,,,,,,,,,,,,,,,,,,,,,,,,,,,,,,,,,,,,,,,,,,,,,,,,,,,,,,,,,
,,?,0.000505,0,,,,,,stimuli/images/PICTURE_470.png,MOMENT,5ea9cfe7386479120ae4ac13,30/01/1999,2020-07-08_16h21.52.753,proactive,2020.1.2,Win32,60,5f035e5afe130c270d6ae6dd,5f05e444a3631d0c304430cc,6,,,,,,motorbike,,,,,,,,,,,5,2,0,4,4,40,1,,,,,,,,,,,,,,,,,,,,,,,,,,,,,,,,,,,,,,,,,,,,,,,,,,,,,,,,,,,,,,,,,,,,,,
,,?,0.0005,0,,,,,,stimuli/images/PICTURE_147.png,LEADER,5ea9cfe7386479120ae4ac13,30/01/1999,2020-07-08_16h21.52.753,proactive,2020.1.2,Win32,60,5f035e5afe130c270d6ae6dd,5f05e444a3631d0c304430cc,6,,,,,,hanger,,,,,,,,,,,4,2,0,5,5,33,1,,,,,,,,,,,,,,,,,,,,,,,,,,,,,,,,,,,,,,,,,,,,,,,,,,,,,,,,,,,,,,,,,,,,,,
,,?,0.001315,0,,,,,,stimuli/images/PICTURE_285.png,PRINCE,5ea9cfe7386479120ae4ac13,30/01/1999,2020-07-08_16h21.52.753,proactive,2020.1.2,Win32,60,5f035e5afe130c270d6ae6dd,5f05e444a3631d0c304430cc,6,,,,,,carrot,,,,,,,,,,,3,2,0,6,6,20,1,,,,,,,,,,,,,,,,,,,,,,,,,,,,,,,,,,,,,,,,,,,,,,,,,,,,,,,,,,,,,,,,,,,,,,
,,?,0.00055,0,,,,,,stimuli/images/PICTURE_504.png,HOUSE,5ea9cfe7386479120ae4ac13,30/01/1999,2020-07-08_16h21.52.753,proactive,2020.1.2,Win32,60,5f035e5afe130c270d6ae6dd,5f05e444a3631d0c304430cc,6,,,,,,wheel,,,,,,,,,,,4,2,0,7,7,36,1,,,,,,,,,,,,,,,,,,,,,,,,,,,,,,,,,,,,,,,,,,,,,,,,,,,,,,,,,,,,,,,,,,,,,,
,,?,0.0005,0,,,,,,stimuli/images/PICTURE_2.png,AREA,5ea9cfe7386479120ae4ac13,30/01/1999,2020-07-08_16h21.52.753,proactive,2020.1.2,Win32,60,5f035e5afe130c270d6ae6dd,5f05e444a3631d0c304430cc,6,,,,,,tyre,,,,,,,,,,,4,2,0,8,8,32,1,,,,,,,,,,,,,,,,,,,,,,,,,,,,,,,,,,,,,,,,,,,,,,,,,,,,,,,,,,,,,,,,,,,,,,
,,?,0.00064,0,,,,,,stimuli/images/PICTURE_57.png,CASINO,5ea9cfe7386479120ae4ac13,30/01/1999,2020-07-08_16h21.52.753,proactive,2020.1.2,Win32,60,5f035e5afe130c270d6ae6dd,5f05e444a3631d0c304430cc,6,,,,,,stamp,,,,,,,,,,,2,2,0,9,9,12,1,,,,,,,,,,,,,,,,,,,,,,,,,,,,,,,,,,,,,,,,,,,,,,,,,,,,,,,,,,,,,,,,,,,,,,
,,?,0.00067,0,,,,,,stimuli/images/PICTURE_509.png,MILLER,5ea9cfe7386479120ae4ac13,30/01/1999,2020-07-08_16h21.52.753,proactive,2020.1.2,Win32,60,5f035e5afe130c270d6ae6dd,5f05e444a3631d0c304430cc,6,,,,,,telephone,,,,,,,,,,,5,2,0,10,10,49,1,,,,,,,,,,,,,,,,,,,,,,,,,,,,,,,,,,,,,,,,,,,,,,,,,,,,,,,,,,,,,,,,,,,,,,
,,?,0.000745,0,,,,,,stimuli/images/PICTURE_470.png,BEAUTY,5ea9cfe7386479120ae4ac13,30/01/1999,2020-07-08_16h21.52.753,proactive,2020.1.2,Win32,60,5f035e5afe130c270d6ae6dd,5f05e444a3631d0c304430cc,6,,,,,,motorbike,,,,,,,,,,,3,2,0,11,11,26,1,,,,,,,,,,,,,,,,,,,,,,,,,,,,,,,,,,,,,,,,,,,,,,,,,,,,,,,,,,,,,,,,,,,,,,
,,?,0.00062,0,,,,,,stimuli/images/PICTURE_311.png,FLESH,5ea9cfe7386479120ae4ac13,30/01/1999,2020-07-08_16h21.52.753,proactive,2020.1.2,Win32,60,5f035e5afe130c270d6ae6dd,5f05e444a3631d0c304430cc,6,,,,,,razor,,,,,,,,,,,1,2,0,12,12,3,1,,,,,,,,,,,,,,,,,,,,,,,,,,,,,,,,,,,,,,,,,,,,,,,,,,,,,,,,,,,,,,,,,,,,,,
,,?,0.001725,0,,,,,,stimuli/images/PICTURE_654.png,COPS,5ea9cfe7386479120ae4ac13,30/01/1999,2020-07-08_16h21.52.753,proactive,2020.1.2,Win32,60,5f035e5afe130c270d6ae6dd,5f05e444a3631d0c304430cc,6,,,,,,pencil,,,,,,,,,,,2,2,0,13,13,10,1,,,,,,,,,,,,,,,,,,,,,,,,,,,,,,,,,,,,,,,,,,,,,,,,,,,,,,,,,,,,,,,,,,,,,,
,,?,0.00063,0,,,,,,stimuli/images/PICTURE_123.png,SALE,5ea9cfe7386479120ae4ac13,30/01/1999,2020-07-08_16h21.52.753,proactive,2020.1.2,Win32,60,5f035e5afe130c270d6ae6dd,5f05e444a3631d0c304430cc,6,,,,,,dart,,,,,,,,,,,1,2,0,14,14,8,1,,,,,,,,,,,,,,,,,,,,,,,,,,,,,,,,,,,,,,,,,,,,,,,,,,,,,,,,,,,,,,,,,,,,,,
,,?,0.00069,0,,,,,,stimuli/images/PICTURE_255.png,PENNY,5ea9cfe7386479120ae4ac13,30/01/1999,2020-07-08_16h21.52.753,proactive,2020.1.2,Win32,60,5f035e5afe130c270d6ae6dd,5f05e444a3631d0c304430cc,6,,,,,,shovel,,,,,,,,,,,2,2,0,15,15,19,1,,,,,,,,,,,,,,,,,,,,,,,,,,,,,,,,,,,,,,,,,,,,,,,,,,,,,,,,,,,,,,,,,,,,,,
,,?,0.00079,0,,,,,,stimuli/images/PICTURE_677.png,PHOTO,5ea9cfe7386479120ae4ac13,30/01/1999,2020-07-08_16h21.52.753,proactive,2020.1.2,Win32,60,5f035e5afe130c270d6ae6dd,5f05e444a3631d0c304430cc,6,,,,,,map,,,,,,,,,,,2,2,0,16,16,14,1,,,,,,,,,,,,,,,,,,,,,,,,,,,,,,,,,,,,,,,,,,,,,,,,,,,,,,,,,,,,,,,,,,,,,,
,,?,0.000785,0,,,,,,stimuli/images/PICTURE_160.png,HOTEL,5ea9cfe7386479120ae4ac13,30/01/1999,2020-07-08_16h21.52.753,proactive,2020.1.2,Win32,60,5f035e5afe130c270d6ae6dd,5f05e444a3631d0c304430cc,6,,,,,,wheelbarrow,,,,,,,,,,,2,2,0,17,17,16,1,,,,,,,,,,,,,,,,,,,,,,,,,,,,,,,,,,,,,,,,,,,,,,,,,,,,,,,,,,,,,,,,,,,,,,
,,FAMILY,3.400685,1,,,,,,stimuli/images/PICTURE_677.png,FAMILY,5ea9cfe7386479120ae4ac13,30/01/1999,2020-07-08_16h21.52.753,proactive,2020.1.2,Win32,60,5f035e5afe130c270d6ae6dd,5f05e444a3631d0c304430cc,6,,,,,,map,,,,,,,,,,,6,2,0,18,18,53,1,,,,,,,,,,,,,,,,,,,,,,,,,,,,,,,,,,,,,,,,,,,,,,,,,,,,,,,,,,,,,,,,,,,,,,
,,?,0.00069,0,,,,,,stimuli/images/PICTURE_95.png,NIGHT,5ea9cfe7386479120ae4ac13,30/01/1999,2020-07-08_16h21.52.753,proactive,2020.1.2,Win32,60,5f035e5afe130c270d6ae6dd,5f05e444a3631d0c304430cc,6,,,,,,suitcase,,,,,,,,,,,4,2,0,19,19,37,1,,,,,,,,,,,,,,,,,,,,,,,,,,,,,,,,,,,,,,,,,,,,,,,,,,,,,,,,,,,,,,,,,,,,,,
,,?,0.00049,0,,,,,,stimuli/images/PICTURE_509.png,SHOTS,5ea9cfe7386479120ae4ac13,30/01/1999,2020-07-08_16h21.52.753,proactive,2020.1.2,Win32,60,5f035e5afe130c270d6ae6dd,5f05e444a3631d0c304430cc,6,,,,,,telephone,,,,,,,,,,,1,2,0,20,20,7,1,,,,,,,,,,,,,,,,,,,,,,,,,,,,,,,,,,,,,,,,,,,,,,,,,,,,,,,,,,,,,,,,,,,,,,
,,?,0.00051,0,,,,,,stimuli/images/PICTURE_296.png,CLOCK,5ea9cfe7386479120ae4ac13,30/01/1999,2020-07-08_16h21.52.753,proactive,2020.1.2,Win32,60,5f035e5afe130c270d6ae6dd,5f05e444a3631d0c304430cc,6,,,,,,bolt,,,,,,,,,,,2,2,0,21,21,18,1,,,,,,,,,,,,,,,,,,,,,,,,,,,,,,,,,,,,,,,,,,,,,,,,,,,,,,,,,,,,,,,,,,,,,,
,,BODY,3.302545,1,,,,,,stimuli/images/PICTURE_297.png,BODY,5ea9cfe7386479120ae4ac13,30/01/1999,2020-07-08_16h21.52.753,proactive,2020.1.2,Win32,60,5f035e5afe130c270d6ae6dd,5f05e444a3631d0c304430cc,6,,,,,,aeroplane,,,,,,,,,,,6,2,0,22,22,51,1,,,,,,,,,,,,,,,,,,,,,,,,,,,,,,,,,,,,,,,,,,,,,,,,,,,,,,,,,,,,,,,,,,,,,,
,,?,0.00066,0,,,,,,stimuli/images/PICTURE_285.png,WRITER,5ea9cfe7386479120ae4ac13,30/01/1999,2020-07-08_16h21.52.753,proactive,2020.1.2,Win32,60,5f035e5afe130c270d6ae6dd,5f05e444a3631d0c304430cc,6,,,,,,carrot,,,,,,,,,,,1,2,0,23,23,6,1,,,,,,,,,,,,,,,,,,,,,,,,,,,,,,,,,,,,,,,,,,,,,,,,,,,,,,,,,,,,,,,,,,,,,,
,,?,0.00049,0,,,,,,stimuli/images/PICTURE_327.png,LEADER,5ea9cfe7386479120ae4ac13,30/01/1999,2020-07-08_16h21.52.753,proactive,2020.1.2,Win32,60,5f035e5afe130c270d6ae6dd,5f05e444a3631d0c304430cc,6,,,,,,helmet,,,,,,,,,,,2,2,0,24,24,17,1,,,,,,,,,,,,,,,,,,,,,,,,,,,,,,,,,,,,,,,,,,,,,,,,,,,,,,,,,,,,,,,,,,,,,,
,,?,0.00049,0,,,,,,stimuli/images/PICTURE_141.png,CLIENT,5ea9cfe7386479120ae4ac13,30/01/1999,2020-07-08_16h21.52.753,proactive,2020.1.2,Win32,60,5f035e5afe130c270d6ae6dd,5f05e444a3631d0c304430cc,6,,,,,,sunflower,,,,,,,,,,,4,2,0,25,25,30,1,,,,,,,,,,,,,,,,,,,,,,,,,,,,,,,,,,,,,,,,,,,,,,,,,,,,,,,,,,,,,,,,,,,,,,
,,?,0.000515,0,,,,,,stimuli/images/PICTURE_68.png,KIND,5ea9cfe7386479120ae4ac13,30/01/1999,2020-07-08_16h21.52.753,proactive,2020.1.2,Win32,60,5f035e5afe130c270d6ae6dd,5f05e444a3631d0c304430cc,6,,,,,,candle,,,,,,,,,,,3,2,0,26,26,23,1,,,,,,,,,,,,,,,,,,,,,,,,,,,,,,,,,,,,,,,,,,,,,,,,,,,,,,,,,,,,,,,,,,,,,,
,,?,0.000555,0,,,,,,stimuli/images/PICTURE_18.png,RIVER,5ea9cfe7386479120ae4ac13,30/01/1999,2020-07-08_16h21.52.753,proactive,2020.1.2,Win32,60,5f035e5afe130c270d6ae6dd,5f05e444a3631d0c304430cc,6,,,,,,planet,,,,,,,,,,,3,2,0,27,27,22,1,,,,,,,,,,,,,,,,,,,,,,,,,,,,,,,,,,,,,,,,,,,,,,,,,,,,,,,,,,,,,,,,,,,,,,
,,LETTER,2.80705,1,,,,,,stimuli/images/PICTURE_32.png,LETTER,5ea9cfe7386479120ae4ac13,30/01/1999,2020-07-08_16h21.52.753,proactive,2020.1.2,Win32,60,5f035e5afe130c270d6ae6dd,5f05e444a3631d0c304430cc,6,,,,,,crown,,,,,,,,,,,6,2,0,28,28,56,1,,,,,,,,,,,,,,,,,,,,,,,,,,,,,,,,,,,,,,,,,,,,,,,,,,,,,,,,,,,,,,,,,,,,,,
,,TOILET,7.640925,1,,,,,,stimuli/images/PICTURE_311.png,TOILET,5ea9cfe7386479120ae4ac13,30/01/1999,2020-07-08_16h21.52.753,proactive,2020.1.2,Win32,60,5f035e5afe130c270d6ae6dd,5f05e444a3631d0c304430cc,6,,,,,,razor,,,,,,,,,,,6,2,0,29,29,54,1,,,,,,,,,,,,,,,,,,,,,,,,,,,,,,,,,,,,,,,,,,,,,,,,,,,,,,,,,,,,,,,,,,,,,,
,,JUNGLE,3.520285,1,,,,,,stimuli/images/PICTURE_405.png,JUNGLE,5ea9cfe7386479120ae4ac13,30/01/1999,2020-07-08_16h21.52.753,proactive,2020.1.2,Win32,60,5f035e5afe130c270d6ae6dd,5f05e444a3631d0c304430cc,6,,,,,,anchor,,,,,,,,,,,6,2,0,30,30,58,1,,,,,,,,,,,,,,,,,,,,,,,,,,,,,,,,,,,,,,,,,,,,,,,,,,,,,,,,,,,,,,,,,,,,,,
,,?,0.000705,0,,,,,,stimuli/images/PICTURE_177.png,HOUSE,5ea9cfe7386479120ae4ac13,30/01/1999,2020-07-08_16h21.52.753,proactive,2020.1.2,Win32,60,5f035e5afe130c270d6ae6dd,5f05e444a3631d0c304430cc,6,,,,,,mushroom,,,,,,,,,,,3,2,0,31,31,25,1,,,,,,,,,,,,,,,,,,,,,,,,,,,,,,,,,,,,,,,,,,,,,,,,,,,,,,,,,,,,,,,,,,,,,,
,,?,0.00135,0,,,,,,stimuli/images/PICTURE_93.png,GIRL,5ea9cfe7386479120ae4ac13,30/01/1999,2020-07-08_16h21.52.753,proactive,2020.1.2,Win32,60,5f035e5afe130c270d6ae6dd,5f05e444a3631d0c304430cc,6,,,,,,skateboard,,,,,,,,,,,4,2,0,32,32,31,1,,,,,,,,,,,,,,,,,,,,,,,,,,,,,,,,,,,,,,,,,,,,,,,,,,,,,,,,,,,,,,,,,,,,,,
,,?,0.000495,0,,,,,,stimuli/images/PICTURE_453.png,FAMILY,5ea9cfe7386479120ae4ac13,30/01/1999,2020-07-08_16h21.52.753,proactive,2020.1.2,Win32,60,5f035e5afe130c270d6ae6dd,5f05e444a3631d0c304430cc,6,,,,,,scissors,,,,,,,,,,,5,2,0,33,33,48,1,,,,,,,,,,,,,,,,,,,,,,,,,,,,,,,,,,,,,,,,,,,,,,,,,,,,,,,,,,,,,,,,,,,,,,
,,?,0.000445,0,,,,,,stimuli/images/PICTURE_509.png,APPLE,5ea9cfe7386479120ae4ac13,30/01/1999,2020-07-08_16h21.52.753,proactive,2020.1.2,Win32,60,5f035e5afe130c270d6ae6dd,5f05e444a3631d0c304430cc,6,,,,,,telephone,,,,,,,,,,,4,2,0,34,34,38,1,,,,,,,,,,,,,,,,,,,,,,,,,,,,,,,,,,,,,,,,,,,,,,,,,,,,,,,,,,,,,,,,,,,,,,
,,?,0.000465,0,,,,,,stimuli/images/PICTURE_750.png,POLICY,5ea9cfe7386479120ae4ac13,30/01/1999,2020-07-08_16h21.52.753,proactive,2020.1.2,Win32,60,5f035e5afe130c270d6ae6dd,5f05e444a3631d0c304430cc,6,,,,,,kettle,,,,,,,,,,,5,2,0,35,35,44,1,,,,,,,,,,,,,,,,,,,,,,,,,,,,,,,,,,,,,,,,,,,,,,,,,,,,,,,,,,,,,,,,,,,,,,
,,?,0.00046,0,,,,,,stimuli/images/PICTURE_692.png,DUDE,5ea9cfe7386479120ae4ac13,30/01/1999,2020-07-08_16h21.52.753,proactive,2020.1.2,Win32,60,5f035e5afe130c270d6ae6dd,5f05e444a3631d0c304430cc,6,,,,,,cherry,,,,,,,,,,,5,2,0,36,36,47,1,,,,,,,,,,,,,,,,,,,,,,,,,,,,,,,,,,,,,,,,,,,,,,,,,,,,,,,,,,,,,,,,,,,,,,
,,?,0.000455,0,,,,,,stimuli/images/PICTURE_208.png,SPIRIT,5ea9cfe7386479120ae4ac13,30/01/1999,2020-07-08_16h21.52.753,proactive,2020.1.2,Win32,60,5f035e5afe130c270d6ae6dd,5f05e444a3631d0c304430cc,6,,,,,,microphone,,,,,,,,,,,3,2,0,37,37,28,1,,,,,,,,,,,,,,,,,,,,,,,,,,,,,,,,,,,,,,,,,,,,,,,,,,,,,,,,,,,,,,,,,,,,,,
,,?,0.000465,0,,,,,,stimuli/images/PICTURE_33.png,COPS,5ea9cfe7386479120ae4ac13,30/01/1999,2020-07-08_16h21.52.753,proactive,2020.1.2,Win32,60,5f035e5afe130c270d6ae6dd,5f05e444a3631d0c304430cc,6,,,,,,frame,,,,,,,,,,,3,2,0,38,38,29,1,,,,,,,,,,,,,,,,,,,,,,,,,,,,,,,,,,,,,,,,,,,,,,,,,,,,,,,,,,,,,,,,,,,,,,
,,?,0.00045,0,,,,,,stimuli/images/PICTURE_509.png,BATH,5ea9cfe7386479120ae4ac13,30/01/1999,2020-07-08_16h21.52.753,proactive,2020.1.2,Win32,60,5f035e5afe130c270d6ae6dd,5f05e444a3631d0c304430cc,6,,,,,,telephone,,,,,,,,,,,2,2,0,39,39,15,1,,,,,,,,,,,,,,,,,,,,,,,,,,,,,,,,,,,,,,,,,,,,,,,,,,,,,,,,,,,,,,,,,,,,,,
,,CANDY,3.26811,1,,,,,,stimuli/images/PICTURE_57.png,CANDY,5ea9cfe7386479120ae4ac13,30/01/1999,2020-07-08_16h21.52.753,proactive,2020.1.2,Win32,60,5f035e5afe130c270d6ae6dd,5f05e444a3631d0c304430cc,6,,,,,,stamp,,,,,,,,,,,6,2,0,40,40,52,1,,,,,,,,,,,,,,,,,,,,,,,,,,,,,,,,,,,,,,,,,,,,,,,,,,,,,,,,,,,,,,,,,,,,,,
,,?,0.000665,0,,,,,,stimuli/images/PICTURE_215.png,BOYS,5ea9cfe7386479120ae4ac13,30/01/1999,2020-07-08_16h21.52.753,proactive,2020.1.2,Win32,60,5f035e5afe130c270d6ae6dd,5f05e444a3631d0c304430cc,6,,,,,,boot,,,,,,,,,,,3,2,0,41,41,24,1,,,,,,,,,,,,,,,,,,,,,,,,,,,,,,,,,,,,,,,,,,,,,,,,,,,,,,,,,,,,,,,,,,,,,,
,,ROOF,2.478685,1,,,,,,stimuli/images/PICTURE_487.png,ROOF,5ea9cfe7386479120ae4ac13,30/01/1999,2020-07-08_16h21.52.753,proactive,2020.1.2,Win32,60,5f035e5afe130c270d6ae6dd,5f05e444a3631d0c304430cc,6,,,,,,basket,,,,,,,,,,,6,2,0,42,42,50,1,,,,,,,,,,,,,,,,,,,,,,,,,,,,,,,,,,,,,,,,,,,,,,,,,,,,,,,,,,,,,,,,,,,,,,
,,?,0.00071,0,,,,,,stimuli/images/PICTURE_403.png,FAMILY,5ea9cfe7386479120ae4ac13,30/01/1999,2020-07-08_16h21.52.753,proactive,2020.1.2,Win32,60,5f035e5afe130c270d6ae6dd,5f05e444a3631d0c304430cc,6,,,,,,cathedral,,,,,,,,,,,1,2,0,43,43,9,1,,,,,,,,,,,,,,,,,,,,,,,,,,,,,,,,,,,,,,,,,,,,,,,,,,,,,,,,,,,,,,,,,,,,,,
,,?,0.000455,0,,,,,,stimuli/images/PICTURE_491.png,SERIES,5ea9cfe7386479120ae4ac13,30/01/1999,2020-07-08_16h21.52.753,proactive,2020.1.2,Win32,60,5f035e5afe130c270d6ae6dd,5f05e444a3631d0c304430cc,6,,,,,,rug,,,,,,,,,,,4,2,0,44,44,39,1,,,,,,,,,,,,,,,,,,,,,,,,,,,,,,,,,,,,,,,,,,,,,,,,,,,,,,,,,,,,,,,,,,,,,,
,,?,0.00046,0,,,,,,stimuli/images/PICTURE_405.png,HOUSE,5ea9cfe7386479120ae4ac13,30/01/1999,2020-07-08_16h21.52.753,proactive,2020.1.2,Win32,60,5f035e5afe130c270d6ae6dd,5f05e444a3631d0c304430cc,6,,,,,,anchor,,,,,,,,,,,1,2,0,45,45,2,1,,,,,,,,,,,,,,,,,,,,,,,,,,,,,,,,,,,,,,,,,,,,,,,,,,,,,,,,,,,,,,,,,,,,,,
,,?,0.00044,0,,,,,,stimuli/images/PICTURE_487.png,POLICY,5ea9cfe7386479120ae4ac13,30/01/1999,2020-07-08_16h21.52.753,proactive,2020.1.2,Win32,60,5f035e5afe130c270d6ae6dd,5f05e444a3631d0c304430cc,6,,,,,,basket,,,,,,,,,,,4,2,0,46,46,34,1,,,,,,,,,,,,,,,,,,,,,,,,,,,,,,,,,,,,,,,,,,,,,,,,,,,,,,,,,,,,,,,,,,,,,,
,,SALE,2.47514,1,,,,,,stimuli/images/PICTURE_655.png,SALE,5ea9cfe7386479120ae4ac13,30/01/1999,2020-07-08_16h21.52.753,proactive,2020.1.2,Win32,60,5f035e5afe130c270d6ae6dd,5f05e444a3631d0c304430cc,6,,,,,,megaphone,,,,,,,,,,,6,2,0,47,47,57,1,,,,,,,,,,,,,,,,,,,,,,,,,,,,,,,,,,,,,,,,,,,,,,,,,,,,,,,,,,,,,,,,,,,,,,
,,?,0.00066,0,,,,,,stimuli/images/PICTURE_708.png,VALLEY,5ea9cfe7386479120ae4ac13,30/01/1999,2020-07-08_16h21.52.753,proactive,2020.1.2,Win32,60,5f035e5afe130c270d6ae6dd,5f05e444a3631d0c304430cc,6,,,,,,monkey,,,,,,,,,,,5,2,0,48,48,45,1,,,,,,,,,,,,,,,,,,,,,,,,,,,,,,,,,,,,,,,,,,,,,,,,,,,,,,,,,,,,,,,,,,,,,,
,,?,0.000535,0,,,,,,stimuli/images/PICTURE_688.png,CLOCK,5ea9cfe7386479120ae4ac13,30/01/1999,2020-07-08_16h21.52.753,proactive,2020.1.2,Win32,60,5f035e5afe130c270d6ae6dd,5f05e444a3631d0c304430cc,6,,,,,,runner,,,,,,,,,,,5,2,0,49,49,42,1,,,,,,,,,,,,,,,,,,,,,,,,,,,,,,,,,,,,,,,,,,,,,,,,,,,,,,,,,,,,,,,,,,,,,,
,,?,0.000445,0,,,,,,stimuli/images/PICTURE_2.png,JUNGLE,5ea9cfe7386479120ae4ac13,30/01/1999,2020-07-08_16h21.52.753,proactive,2020.1.2,Win32,60,5f035e5afe130c270d6ae6dd,5f05e444a3631d0c304430cc,6,,,,,,tyre,,,,,,,,,,,1,2,0,50,50,1,1,,,,,,,,,,,,,,,,,,,,,,,,,,,,,,,,,,,,,,,,,,,,,,,,,,,,,,,,,,,,,,,,,,,,,,
,,?,0.00042,0,,,,,,stimuli/images/PICTURE_667.png,GLASS,5ea9cfe7386479120ae4ac13,30/01/1999,2020-07-08_16h21.52.753,proactive,2020.1.2,Win32,60,5f035e5afe130c270d6ae6dd,5f05e444a3631d0c304430cc,6,,,,,,daisy,,,,,,,,,,,3,2,0,51,51,27,1,,,,,,,,,,,,,,,,,,,,,,,,,,,,,,,,,,,,,,,,,,,,,,,,,,,,,,,,,,,,,,,,,,,,,,
,,DUDE,2.75489,1,,,,,,stimuli/images/PICTURE_348.png,DUDE,5ea9cfe7386479120ae4ac13,30/01/1999,2020-07-08_16h21.52.753,proactive,2020.1.2,Win32,60,5f035e5afe130c270d6ae6dd,5f05e444a3631d0c304430cc,6,,,,,,pepper,,,,,,,,,,,6,2,0,52,52,59,1,,,,,,,,,,,,,,,,,,,,,,,,,,,,,,,,,,,,,,,,,,,,,,,,,,,,,,,,,,,,,,,,,,,,,,
,,?,0.00067,0,,,,,,stimuli/images/PICTURE_314.png,SPEECH,5ea9cfe7386479120ae4ac13,30/01/1999,2020-07-08_16h21.52.753,proactive,2020.1.2,Win32,60,5f035e5afe130c270d6ae6dd,5f05e444a3631d0c304430cc,6,,,,,,perfume,,,,,,,,,,,4,2,0,53,53,35,1,,,,,,,,,,,,,,,,,,,,,,,,,,,,,,,,,,,,,,,,,,,,,,,,,,,,,,,,,,,,,,,,,,,,,,
,,?,0.00045,0,,,,,,stimuli/images/PICTURE_215.png,FOOD,5ea9cfe7386479120ae4ac13,30/01/1999,2020-07-08_16h21.52.753,proactive,2020.1.2,Win32,60,5f035e5afe130c270d6ae6dd,5f05e444a3631d0c304430cc,6,,,,,,boot,,,,,,,,,,,1,2,0,54,54,5,1,,,,,,,,,,,,,,,,,,,,,,,,,,,,,,,,,,,,,,,,,,,,,,,,,,,,,,,,,,,,,,,,,,,,,,
,,?,0.00046,0,,,,,,stimuli/images/PICTURE_57.png,NATION,5ea9cfe7386479120ae4ac13,30/01/1999,2020-07-08_16h21.52.753,proactive,2020.1.2,Win32,60,5f035e5afe130c270d6ae6dd,5f05e444a3631d0c304430cc,6,,,,,,stamp,,,,,,,,,,,3,2,0,55,55,21,1,,,,,,,,,,,,,,,,,,,,,,,,,,,,,,,,,,,,,,,,,,,,,,,,,,,,,,,,,,,,,,,,,,,,,,
,,?,0.000415,0,,,,,,stimuli/images/PICTURE_654.png,YEAR,5ea9cfe7386479120ae4ac13,30/01/1999,2020-07-08_16h21.52.753,proactive,2020.1.2,Win32,60,5f035e5afe130c270d6ae6dd,5f05e444a3631d0c304430cc,6,,,,,,pencil,,,,,,,,,,,5,2,0,56,56,41,1,,,,,,,,,,,,,,,,,,,,,,,,,,,,,,,,,,,,,,,,,,,,,,,,,,,,,,,,,,,,,,,,,,,,,,
,,YARD,2.5152,1,,,,,,stimuli/images/PICTURE_2.png,YARD,5ea9cfe7386479120ae4ac13,30/01/1999,2020-07-08_16h21.52.753,proactive,2020.1.2,Win32,60,5f035e5afe130c270d6ae6dd,5f05e444a3631d0c304430cc,6,,,,,,tyre,,,,,,,,,,,6,2,0,57,57,55,1,,,,,,,,,,,,,,,,,,,,,,,,,,,,,,,,,,,,,,,,,,,,,,,,,,,,,,,,,,,,,,,,,,,,,,
,,?,0.000645,0,,,,,,stimuli/images/PICTURE_215.png,LEADER,5ea9cfe7386479120ae4ac13,30/01/1999,2020-07-08_16h21.52.753,proactive,2020.1.2,Win32,60,5f035e5afe130c270d6ae6dd,5f05e444a3631d0c304430cc,6,,,,,,boot,,,,,,,,,,,5,2,0,58,58,43,1,,,,,,,,,,,,,,,,,,,,,,,,,,,,,,,,,,,,,,,,,,,,,,,,,,,,,,,,,,,,,,,,,,,,,,
,,?,0.00047,0,,,,,,stimuli/images/PICTURE_348.png,TOILET,5ea9cfe7386479120ae4ac13,30/01/1999,2020-07-08_16h21.52.753,proactive,2020.1.2,Win32,60,5f035e5afe130c270d6ae6dd,5f05e444a3631d0c304430cc,6,,,,,,pepper,,,,,,,,,,,1,2,0,59,59,4,1,,,,,,,,,,,,,,,,,,,,,,,,,,,,,,,,,,,,,,,,,,,,,,,,,,,,,,,,,,,,,,,,,,,,,,
,,,,,,,,,,,,5ea9cfe7386479120ae4ac13,30/01/1999,2020-07-08_16h21.52.753,proactive,2020.1.2,Win32,60,5f035e5afe130c270d6ae6dd,5f05e444a3631d0c304430cc,6,,,,,,,,,,,,,,,,,,,,,,,,0,0,0,2,1,stimuli/learn-block3.csv,,,,,,,,,,,,,,,,,,,,,,,,,,,,,,,,,,,,,,,,,,,,,,,,,,,,,,,,,,,,,,,,
,,,,,,,,,,stimuli/images/PICTURE_403.png,RIVER,5ea9cfe7386479120ae4ac13,30/01/1999,2020-07-08_16h21.52.753,proactive,2020.1.2,Win32,60,5f035e5afe130c270d6ae6dd,5f05e444a3631d0c304430cc,6,,,,,,cathedral,,,,,,0,0,0,40,1,5,1,,,,,,,,,,,,,,,,,,,,,,,,,,,,,,,,,,,,,,,,,,,,,,,,,,,,,,,,,,,,,,,,,,,,,,,,,,,
,,,,,,,,,,stimuli/images/PICTURE_675.png,SALE,5ea9cfe7386479120ae4ac13,30/01/1999,2020-07-08_16h21.52.753,proactive,2020.1.2,Win32,60,5f035e5afe130c270d6ae6dd,5f05e444a3631d0c304430cc,6,,,,,,windmill,,,,,,0,1,1,47,1,5,1,,,,,,,,,,,,,,,,,,,,,,,,,,,,,,,,,,,,,,,,,,,,,,,,,,,,,,,,,,,,,,,,,,,,,,,,,,,
,,,,,,,,,,stimuli/images/PICTURE_380.png,HONEY,5ea9cfe7386479120ae4ac13,30/01/1999,2020-07-08_16h21.52.753,proactive,2020.1.2,Win32,60,5f035e5afe130c270d6ae6dd,5f05e444a3631d0c304430cc,6,,,,,,gorilla,,,,,,0,2,2,19,1,2,1,,,,,,,,,,,,,,,,,,,,,,,,,,,,,,,,,,,,,,,,,,,,,,,,,,,,,,,,,,,,,,,,,,,,,,,,,,,
,,,,,,,,,,stimuli/images/PICTURE_491.png,GLASS,5ea9cfe7386479120ae4ac13,30/01/1999,2020-07-08_16h21.52.753,proactive,2020.1.2,Win32,60,5f035e5afe130c270d6ae6dd,5f05e444a3631d0c304430cc,6,,,,,,rug,,,,,,0,3,3,14,1,2,1,,,,,,,,,,,,,,,,,,,,,,,,,,,,,,,,,,,,,,,,,,,,,,,,,,,,,,,,,,,,,,,,,,,,,,,,,,,
,,,,,,,,,,stimuli/images/PICTURE_297.png,RIVER,5ea9cfe7386479120ae4ac13,30/01/1999,2020-07-08_16h21.52.753,proactive,2020.1.2,Win32,60,5f035e5afe130c270d6ae6dd,5f05e444a3631d0c304430cc,6,,,,,,aeroplane,,,,,,0,4,4,39,1,4,1,,,,,,,,,,,,,,,,,,,,,,,,,,,,,,,,,,,,,,,,,,,,,,,,,,,,,,,,,,,,,,,,,,,,,,,,,,,
,,,,,,,,,,stimuli/images/PICTURE_467.png,POLICY,5ea9cfe7386479120ae4ac13,30/01/1999,2020-07-08_16h21.52.753,proactive,2020.1.2,Win32,60,5f035e5afe130c270d6ae6dd,5f05e444a3631d0c304430cc,6,,,,,,peg,,,,,,0,5,5,53,1,6,1,,,,,,,,,,,,,,,,,,,,,,,,,,,,,,,,,,,,,,,,,,,,,,,,,,,,,,,,,,,,,,,,,,,,,,,,,,,
,,,,,,,,,,stimuli/images/PICTURE_296.png,LIFE,5ea9cfe7386479120ae4ac13,30/01/1999,2020-07-08_16h21.52.753,proactive,2020.1.2,Win32,60,5f035e5afe130c270d6ae6dd,5f05e444a3631d0c304430cc,6,,,,,,bolt,,,,,,0,6,6,57,1,6,1,,,,,,,,,,,,,,,,,,,,,,,,,,,,,,,,,,,,,,,,,,,,,,,,,,,,,,,,,,,,,,,,,,,,,,,,,,,
,,,,,,,,,,stimuli/images/PICTURE_95.png,HONEY,5ea9cfe7386479120ae4ac13,30/01/1999,2020-07-08_16h21.52.753,proactive,2020.1.2,Win32,60,5f035e5afe130c270d6ae6dd,5f05e444a3631d0c304430cc,6,,,,,,suitcase,,,,,,0,7,7,44,1,5,1,,,,,,,,,,,,,,,,,,,,,,,,,,,,,,,,,,,,,,,,,,,,,,,,,,,,,,,,,,,,,,,,,,,,,,,,,,,
,,,,,,,,,,stimuli/images/PICTURE_654.png,MONTH,5ea9cfe7386479120ae4ac13,30/01/1999,2020-07-08_16h21.52.753,proactive,2020.1.2,Win32,60,5f035e5afe130c270d6ae6dd,5f05e444a3631d0c304430cc,6,,,,,,pencil,,,,,,0,8,8,29,1,3,1,,,,,,,,,,,,,,,,,,,,,,,,,,,,,,,,,,,,,,,,,,,,,,,,,,,,,,,,,,,,,,,,,,,,,,,,,,,
,,,,,,,,,,stimuli/images/PICTURE_203.png,NIGHT,5ea9cfe7386479120ae4ac13,30/01/1999,2020-07-08_16h21.52.753,proactive,2020.1.2,Win32,60,5f035e5afe130c270d6ae6dd,5f05e444a3631d0c304430cc,6,,,,,,cap,,,,,,0,9,9,2,1,1,1,,,,,,,,,,,,,,,,,,,,,,,,,,,,,,,,,,,,,,,,,,,,,,,,,,,,,,,,,,,,,,,,,,,,,,,,,,,
,,,,,,,,,,stimuli/images/PICTURE_147.png,YEAR,5ea9cfe7386479120ae4ac13,30/01/1999,2020-07-08_16h21.52.753,proactive,2020.1.2,Win32,60,5f035e5afe130c270d6ae6dd,5f05e444a3631d0c304430cc,6,,,,,,hanger,,,,,,0,10,10,21,1,3,1,,,,,,,,,,,,,,,,,,,,,,,,,,,,,,,,,,,,,,,,,,,,,,,,,,,,,,,,,,,,,,,,,,,,,,,,,,,
,,,,,,,,,,stimuli/images/PICTURE_383.png,SERIES,5ea9cfe7386479120ae4ac13,30/01/1999,2020-07-08_16h21.52.753,proactive,2020.1.2,Win32,60,5f035e5afe130c270d6ae6dd,5f05e444a3631d0c304430cc,6,,,,,,coin,,,,,,0,11,11,46,1,5,1,,,,,,,,,,,,,,,,,,,,,,,,,,,,,,,,,,,,,,,,,,,,,,,,,,,,,,,,,,,,,,,,,,,,,,,,,,,
,,,,,,,,,,stimuli/images/PICTURE_339.png,CLIENT,5ea9cfe7386479120ae4ac13,30/01/1999,2020-07-08_16h21.52.753,proactive,2020.1.2,Win32,60,5f035e5afe130c270d6ae6dd,5f05e444a3631d0c304430cc,6,,,,,,backpack,,,,,,0,12,12,11,1,2,1,,,,,,,,,,,,,,,,,,,,,,,,,,,,,,,,,,,,,,,,,,,,,,,,,,,,,,,,,,,,,,,,,,,,,,,,,,,
,,,,,,,,,,stimuli/images/PICTURE_504.png,ARTIST,5ea9cfe7386479120ae4ac13,30/01/1999,2020-07-08_16h21.52.753,proactive,2020.1.2,Win32,60,5f035e5afe130c270d6ae6dd,5f05e444a3631d0c304430cc,6,,,,,,wheel,,,,,,0,13,13,49,1,5,1,,,,,,,,,,,,,,,,,,,,,,,,,,,,,,,,,,,,,,,,,,,,,,,,,,,,,,,,,,,,,,,,,,,,,,,,,,,
,,,,,,,,,,stimuli/images/PICTURE_233.png,LOTS,5ea9cfe7386479120ae4ac13,30/01/1999,2020-07-08_16h21.52.753,proactive,2020.1.2,Win32,60,5f035e5afe130c270d6ae6dd,5f05e444a3631d0c304430cc,6,,,,,,salt,,,,,,0,14,14,42,1,5,1,,,,,,,,,,,,,,,,,,,,,,,,,,,,,,,,,,,,,,,,,,,,,,,,,,,,,,,,,,,,,,,,,,,,,,,,,,,
,,,,,,,,,,stimuli/images/PICTURE_504.png,YEAR,5ea9cfe7386479120ae4ac13,30/01/1999,2020-07-08_16h21.52.753,proactive,2020.1.2,Win32,60,5f035e5afe130c270d6ae6dd,5f05e444a3631d0c304430cc,6,,,,,,wheel,,,,,,0,15,15,13,1,2,1,,,,,,,,,,,,,,,,,,,,,,,,,,,,,,,,,,,,,,,,,,,,,,,,,,,,,,,,,,,,,,,,,,,,,,,,,,,
,,,,,,,,,,stimuli/images/PICTURE_469.png,AGENT,5ea9cfe7386479120ae4ac13,30/01/1999,2020-07-08_16h21.52.753,proactive,2020.1.2,Win32,60,5f035e5afe130c270d6ae6dd,5f05e444a3631d0c304430cc,6,,,,,,stool,,,,,,0,16,16,16,1,2,1,,,,,,,,,,,,,,,,,,,,,,,,,,,,,,,,,,,,,,,,,,,,,,,,,,,,,,,,,,,,,,,,,,,,,,,,,,,
,,,,,,,,,,stimuli/images/PICTURE_327.png,SERIES,5ea9cfe7386479120ae4ac13,30/01/1999,2020-07-08_16h21.52.753,proactive,2020.1.2,Win32,60,5f035e5afe130c270d6ae6dd,5f05e444a3631d0c304430cc,6,,,,,,helmet,,,,,,0,17,17,3,1,1,1,,,,,,,,,,,,,,,,,,,,,,,,,,,,,,,,,,,,,,,,,,,,,,,,,,,,,,,,,,,,,,,,,,,,,,,,,,,
,,,,,,,,,,stimuli/images/PICTURE_655.png,TOILET,5ea9cfe7386479120ae4ac13,30/01/1999,2020-07-08_16h21.52.753,proactive,2020.1.2,Win32,60,5f035e5afe130c270d6ae6dd,5f05e444a3631d0c304430cc,6,,,,,,megaphone,,,,,,0,18,18,12,1,2,1,,,,,,,,,,,,,,,,,,,,,,,,,,,,,,,,,,,,,,,,,,,,,,,,,,,,,,,,,,,,,,,,,,,,,,,,,,,
,,,,,,,,,,stimuli/images/PICTURE_403.png,WRITER,5ea9cfe7386479120ae4ac13,30/01/1999,2020-07-08_16h21.52.753,proactive,2020.1.2,Win32,60,5f035e5afe130c270d6ae6dd,5f05e444a3631d0c304430cc,6,,,,,,cathedral,,,,,,0,19,19,31,1,4,1,,,,,,,,,,,,,,,,,,,,,,,,,,,,,,,,,,,,,,,,,,,,,,,,,,,,,,,,,,,,,,,,,,,,,,,,,,,
,,,,,,,,,,stimuli/images/PICTURE_383.png,WRITER,5ea9cfe7386479120ae4ac13,30/01/1999,2020-07-08_16h21.52.753,proactive,2020.1.2,Win32,60,5f035e5afe130c270d6ae6dd,5f05e444a3631d0c304430cc,6,,,,,,coin,,,,,,0,20,20,28,1,3,1,,,,,,,,,,,,,,,,,,,,,,,,,,,,,,,,,,,,,,,,,,,,,,,,,,,,,,,,,,,,,,,,,,,,,,,,,,,
,,,,,,,,,,stimuli/images/PICTURE_504.png,COPS,5ea9cfe7386479120ae4ac13,30/01/1999,2020-07-08_16h21.52.753,proactive,2020.1.2,Win32,60,5f035e5afe130c270d6ae6dd,5f05e444a3631d0c304430cc,6,,,,,,wheel,,,,,,0,21,21,52,1,6,1,,,,,,,,,,,,,,,,,,,,,,,,,,,,,,,,,,,,,,,,,,,,,,,,,,,,,,,,,,,,,,,,,,,,,,,,,,,
,,,,,,,,,,stimuli/images/PICTURE_33.png,FRIEND,5ea9cfe7386479120ae4ac13,30/01/1999,2020-07-08_16h21.52.753,proactive,2020.1.2,Win32,60,5f035e5afe130c270d6ae6dd,5f05e444a3631d0c304430cc,6,,,,,,frame,,,,,,0,22,22,8,1,1,1,,,,,,,,,,,,,,,,,,,,,,,,,,,,,,,,,,,,,,,,,,,,,,,,,,,,,,,,,,,,,,,,,,,,,,,,,,,
,,,,,,,,,,stimuli/images/PICTURE_95.png,BOYS,5ea9cfe7386479120ae4ac13,30/01/1999,2020-07-08_16h21.52.753,proactive,2020.1.2,Win32,60,5f035e5afe130c270d6ae6dd,5f05e444a3631d0c304430cc,6,,,,,,suitcase,,,,,,0,23,23,1,1,1,1,,,,,,,,,,,,,,,,,,,,,,,,,,,,,,,,,,,,,,,,,,,,,,,,,,,,,,,,,,,,,,,,,,,,,,,,,,,
,,,,,,,,,,stimuli/images/PICTURE_57.png,MOMENT,5ea9cfe7386479120ae4ac13,30/01/1999,2020-07-08_16h21.52.753,proactive,2020.1.2,Win32,60,5f035e5afe130c270d6ae6dd,5f05e444a3631d0c304430cc,6,,,,,,stamp,,,,,,0,24,24,37,1,4,1,,,,,,,,,,,,,,,,,,,,,,,,,,,,,,,,,,,,,,,,,,,,,,,,,,,,,,,,,,,,,,,,,,,,,,,,,,,
,,,,,,,,,,stimuli/images/PICTURE_208.png,SYSTEM,5ea9cfe7386479120ae4ac13,30/01/1999,2020-07-08_16h21.52.753,proactive,2020.1.2,Win32,60,5f035e5afe130c270d6ae6dd,5f05e444a3631d0c304430cc,6,,,,,,microphone,,,,,,0,25,25,32,1,4,1,,,,,,,,,,,,,,,,,,,,,,,,,,,,,,,,,,,,,,,,,,,,,,,,,,,,,,,,,,,,,,,,,,,,,,,,,,,
,,,,,,,,,,stimuli/images/PICTURE_340.png,VALLEY,5ea9cfe7386479120ae4ac13,30/01/1999,2020-07-08_16h21.52.753,proactive,2020.1.2,Win32,60,5f035e5afe130c270d6ae6dd,5f05e444a3631d0c304430cc,6,,,,,,mirror,,,,,,0,26,26,54,1,6,1,,,,,,,,,,,,,,,,,,,,,,,,,,,,,,,,,,,,,,,,,,,,,,,,,,,,,,,,,,,,,,,,,,,,,,,,,,,
,,,,,,,,,,stimuli/images/PICTURE_68.png,ROOF,5ea9cfe7386479120ae4ac13,30/01/1999,2020-07-08_16h21.52.753,proactive,2020.1.2,Win32,60,5f035e5afe130c270d6ae6dd,5f05e444a3631d0c304430cc,6,,,,,,candle,,,,,,0,27,27,38,1,4,1,,,,,,,,,,,,,,,,,,,,,,,,,,,,,,,,,,,,,,,,,,,,,,,,,,,,,,,,,,,,,,,,,,,,,,,,,,,
,,,,,,,,,,stimuli/images/PICTURE_108.png,POLICY,5ea9cfe7386479120ae4ac13,30/01/1999,2020-07-08_16h21.52.753,proactive,2020.1.2,Win32,60,5f035e5afe130c270d6ae6dd,5f05e444a3631d0c304430cc,6,,,,,,calendar,,,,,,0,28,28,22,1,3,1,,,,,,,,,,,,,,,,,,,,,,,,,,,,,,,,,,,,,,,,,,,,,,,,,,,,,,,,,,,,,,,,,,,,,,,,,,,
,,,,,,,,,,stimuli/images/PICTURE_491.png,RIVER,5ea9cfe7386479120ae4ac13,30/01/1999,2020-07-08_16h21.52.753,proactive,2020.1.2,Win32,60,5f035e5afe130c270d6ae6dd,5f05e444a3631d0c304430cc,6,,,,,,rug,,,,,,0,29,29,6,1,1,1,,,,,,,,,,,,,,,,,,,,,,,,,,,,,,,,,,,,,,,,,,,,,,,,,,,,,,,,,,,,,,,,,,,,,,,,,,,
,,,,,,,,,,stimuli/images/PICTURE_2.png,FLIGHT,5ea9cfe7386479120ae4ac13,30/01/1999,2020-07-08_16h21.52.753,proactive,2020.1.2,Win32,60,5f035e5afe130c270d6ae6dd,5f05e444a3631d0c304430cc,6,,,,,,tyre,,,,,,0,30,30,15,1,2,1,,,,,,,,,,,,,,,,,,,,,,,,,,,,,,,,,,,,,,,,,,,,,,,,,,,,,,,,,,,,,,,,,,,,,,,,,,,
,,,,,,,,,,stimuli/images/PICTURE_487.png,GIRL,5ea9cfe7386479120ae4ac13,30/01/1999,2020-07-08_16h21.52.753,proactive,2020.1.2,Win32,60,5f035e5afe130c270d6ae6dd,5f05e444a3631d0c304430cc,6,,,,,,basket,,,,,,0,31,31,45,1,5,1,,,,,,,,,,,,,,,,,,,,,,,,,,,,,,,,,,,,,,,,,,,,,,,,,,,,,,,,,,,,,,,,,,,,,,,,,,,
,,,,,,,,,,stimuli/images/PICTURE_32.png,PILLS,5ea9cfe7386479120ae4ac13,30/01/1999,2020-07-08_16h21.52.753,proactive,2020.1.2,Win32,60,5f035e5afe130c270d6ae6dd,5f05e444a3631d0c304430cc,6,,,,,,crown,,,,,,0,32,32,18,1,2,1,,,,,,,,,,,,,,,,,,,,,,,,,,,,,,,,,,,,,,,,,,,,,,,,,,,,,,,,,,,,,,,,,,,,,,,,,,,
,,,,,,,,,,stimuli/images/PICTURE_177.png,WRITER,5ea9cfe7386479120ae4ac13,30/01/1999,2020-07-08_16h21.52.753,proactive,2020.1.2,Win32,60,5f035e5afe130c270d6ae6dd,5f05e444a3631d0c304430cc,6,,,,,,mushroom,,,,,,0,33,33,41,1,5,1,,,,,,,,,,,,,,,,,,,,,,,,,,,,,,,,,,,,,,,,,,,,,,,,,,,,,,,,,,,,,,,,,,,,,,,,,,,
,,,,,,,,,,stimuli/images/PICTURE_403.png,TOILET,5ea9cfe7386479120ae4ac13,30/01/1999,2020-07-08_16h21.52.753,proactive,2020.1.2,Win32,60,5f035e5afe130c270d6ae6dd,5f05e444a3631d0c304430cc,6,,,,,,cathedral,,,,,,0,34,34,25,1,3,1,,,,,,,,,,,,,,,,,,,,,,,,,,,,,,,,,,,,,,,,,,,,,,,,,,,,,,,,,,,,,,,,,,,,,,,,,,,
,,,,,,,,,,stimuli/images/PICTURE_327.png,CASINO,5ea9cfe7386479120ae4ac13,30/01/1999,2020-07-08_16h21.52.753,proactive,2020.1.2,Win32,60,5f035e5afe130c270d6ae6dd,5f05e444a3631d0c304430cc,6,,,,,,helmet,,,,,,0,35,35,20,1,3,1,,,,,,,,,,,,,,,,,,,,,,,,,,,,,,,,,,,,,,,,,,,,,,,,,,,,,,,,,,,,,,,,,,,,,,,,,,,
,,,,,,,,,,stimuli/images/PICTURE_449.png,DUDE,5ea9cfe7386479120ae4ac13,30/01/1999,2020-07-08_16h21.52.753,proactive,2020.1.2,Win32,60,5f035e5afe130c270d6ae6dd,5f05e444a3631d0c304430cc,6,,,,,,bench,,,,,,0,36,36,17,1,2,1,,,,,,,,,,,,,,,,,,,,,,,,,,,,,,,,,,,,,,,,,,,,,,,,,,,,,,,,,,,,,,,,,,,,,,,,,,,
,,,,,,,,,,stimuli/images/PICTURE_108.png,FLIGHT,5ea9cfe7386479120ae4ac13,30/01/1999,2020-07-08_16h21.52.753,proactive,2020.1.2,Win32,60,5f035e5afe130c270d6ae6dd,5f05e444a3631d0c304430cc,6,,,,,,calendar,,,,,,0,37,37,59,1,6,1,,,,,,,,,,,,,,,,,,,,,,,,,,,,,,,,,,,,,,,,,,,,,,,,,,,,,,,,,,,,,,,,,,,,,,,,,,,
,,,,,,,,,,stimuli/images/PICTURE_32.png,KIND,5ea9cfe7386479120ae4ac13,30/01/1999,2020-07-08_16h21.52.753,proactive,2020.1.2,Win32,60,5f035e5afe130c270d6ae6dd,5f05e444a3631d0c304430cc,6,,,,,,crown,,,,,,0,38,38,35,1,4,1,,,,,,,,,,,,,,,,,,,,,,,,,,,,,,,,,,,,,,,,,,,,,,,,,,,,,,,,,,,,,,,,,,,,,,,,,,,
,,,,,,,,,,stimuli/images/PICTURE_750.png,HOTEL,5ea9cfe7386479120ae4ac13,30/01/1999,2020-07-08_16h21.52.753,proactive,2020.1.2,Win32,60,5f035e5afe130c270d6ae6dd,5f05e444a3631d0c304430cc,6,,,,,,kettle,,,,,,0,39,39,27,1,3,1,,,,,,,,,,,,,,,,,,,,,,,,,,,,,,,,,,,,,,,,,,,,,,,,,,,,,,,,,,,,,,,,,,,,,,,,,,,
,,,,,,,,,,stimuli/images/PICTURE_147.png,WOMEN,5ea9cfe7386479120ae4ac13,30/01/1999,2020-07-08_16h21.52.753,proactive,2020.1.2,Win32,60,5f035e5afe130c270d6ae6dd,5f05e444a3631d0c304430cc,6,,,,,,hanger,,,,,,0,40,40,7,1,1,1,,,,,,,,,,,,,,,,,,,,,,,,,,,,,,,,,,,,,,,,,,,,,,,,,,,,,,,,,,,,,,,,,,,,,,,,,,,
,,,,,,,,,,stimuli/images/PICTURE_42.png,BOYS,5ea9cfe7386479120ae4ac13,30/01/1999,2020-07-08_16h21.52.753,proactive,2020.1.2,Win32,60,5f035e5afe130c270d6ae6dd,5f05e444a3631d0c304430cc,6,,,,,,pear,,,,,,0,41,41,55,1,6,1,,,,,,,,,,,,,,,,,,,,,,,,,,,,,,,,,,,,,,,,,,,,,,,,,,,,,,,,,,,,,,,,,,,,,,,,,,,
,,,,,,,,,,stimuli/images/PICTURE_744.png,WEAPON,5ea9cfe7386479120ae4ac13,30/01/1999,2020-07-08_16h21.52.753,proactive,2020.1.2,Win32,60,5f035e5afe130c270d6ae6dd,5f05e444a3631d0c304430cc,6,,,,,,ring,,,,,,0,42,42,50,1,6,1,,,,,,,,,,,,,,,,,,,,,,,,,,,,,,,,,,,,,,,,,,,,,,,,,,,,,,,,,,,,,,,,,,,,,,,,,,,
,,,,,,,,,,stimuli/images/PICTURE_667.png,RIVER,5ea9cfe7386479120ae4ac13,30/01/1999,2020-07-08_16h21.52.753,proactive,2020.1.2,Win32,60,5f035e5afe130c270d6ae6dd,5f05e444a3631d0c304430cc,6,,,,,,daisy,,,,,,0,43,43,10,1,2,1,,,,,,,,,,,,,,,,,,,,,,,,,,,,,,,,,,,,,,,,,,,,,,,,,,,,,,,,,,,,,,,,,,,,,,,,,,,
,,,,,,,,,,stimuli/images/PICTURE_380.png,CANDY,5ea9cfe7386479120ae4ac13,30/01/1999,2020-07-08_16h21.52.753,proactive,2020.1.2,Win32,60,5f035e5afe130c270d6ae6dd,5f05e444a3631d0c304430cc,6,,,,,,gorilla,,,,,,0,44,44,0,1,1,1,,,,,,,,,,,,,,,,,,,,,,,,,,,,,,,,,,,,,,,,,,,,,,,,,,,,,,,,,,,,,,,,,,,,,,,,,,,
,,,,,,,,,,stimuli/images/PICTURE_95.png,MILLER,5ea9cfe7386479120ae4ac13,30/01/1999,2020-07-08_16h21.52.753,proactive,2020.1.2,Win32,60,5f035e5afe130c270d6ae6dd,5f05e444a3631d0c304430cc,6,,,,,,suitcase,,,,,,0,45,45,56,1,6,1,,,,,,,,,,,,,,,,,,,,,,,,,,,,,,,,,,,,,,,,,,,,,,,,,,,,,,,,,,,,,,,,,,,,,,,,,,,
,,,,,,,,,,stimuli/images/PICTURE_85.png,TOILET,5ea9cfe7386479120ae4ac13,30/01/1999,2020-07-08_16h21.52.753,proactive,2020.1.2,Win32,60,5f035e5afe130c270d6ae6dd,5f05e444a3631d0c304430cc,6,,,,,,diamond,,,,,,0,46,46,48,1,5,1,,,,,,,,,,,,,,,,,,,,,,,,,,,,,,,,,,,,,,,,,,,,,,,,,,,,,,,,,,,,,,,,,,,,,,,,,,,
,,,,,,,,,,stimuli/images/PICTURE_340.png,LETTER,5ea9cfe7386479120ae4ac13,30/01/1999,2020-07-08_16h21.52.753,proactive,2020.1.2,Win32,60,5f035e5afe130c270d6ae6dd,5f05e444a3631d0c304430cc,6,,,,,,mirror,,,,,,0,47,47,24,1,3,1,,,,,,,,,,,,,,,,,,,,,,,,,,,,,,,,,,,,,,,,,,,,,,,,,,,,,,,,,,,,,,,,,,,,,,,,,,,
,,,,,,,,,,stimuli/images/PICTURE_296.png,LOTS,5ea9cfe7386479120ae4ac13,30/01/1999,2020-07-08_16h21.52.753,proactive,2020.1.2,Win32,60,5f035e5afe130c270d6ae6dd,5f05e444a3631d0c304430cc,6,,,,,,bolt,,,,,,0,48,48,9,1,1,1,,,,,,,,,,,,,,,,,,,,,,,,,,,,,,,,,,,,,,,,,,,,,,,,,,,,,,,,,,,,,,,,,,,,,,,,,,,
,,,,,,,,,,stimuli/images/PICTURE_708.png,RECORD,5ea9cfe7386479120ae4ac13,30/01/1999,2020-07-08_16h21.52.753,proactive,2020.1.2,Win32,60,5f035e5afe130c270d6ae6dd,5f05e444a3631d0c304430cc,6,,,,,,monkey,,,,,,0,49,49,58,1,6,1,,,,,,,,,,,,,,,,,,,,,,,,,,,,,,,,,,,,,,,,,,,,,,,,,,,,,,,,,,,,,,,,,,,,,,,,,,,
,,,,,,,,,,stimuli/images/PICTURE_564.png,BATH,5ea9cfe7386479120ae4ac13,30/01/1999,2020-07-08_16h21.52.753,proactive,2020.1.2,Win32,60,5f035e5afe130c270d6ae6dd,5f05e444a3631d0c304430cc,6,,,,,,spoon,,,,,,0,50,50,26,1,3,1,,,,,,,,,,,,,,,,,,,,,,,,,,,,,,,,,,,,,,,,,,,,,,,,,,,,,,,,,,,,,,,,,,,,,,,,,,,
,,,,,,,,,,stimuli/images/PICTURE_68.png,MILE,5ea9cfe7386479120ae4ac13,30/01/1999,2020-07-08_16h21.52.753,proactive,2020.1.2,Win32,60,5f035e5afe130c270d6ae6dd,5f05e444a3631d0c304430cc,6,,,,,,candle,,,,,,0,51,51,51,1,6,1,,,,,,,,,,,,,,,,,,,,,,,,,,,,,,,,,,,,,,,,,,,,,,,,,,,,,,,,,,,,,,,,,,,,,,,,,,,
,,,,,,,,,,stimuli/images/PICTURE_677.png,APPLE,5ea9cfe7386479120ae4ac13,30/01/1999,2020-07-08_16h21.52.753,proactive,2020.1.2,Win32,60,5f035e5afe130c270d6ae6dd,5f05e444a3631d0c304430cc,6,,,,,,map,,,,,,0,52,52,43,1,5,1,,,,,,,,,,,,,,,,,,,,,,,,,,,,,,,,,,,,,,,,,,,,,,,,,,,,,,,,,,,,,,,,,,,,,,,,,,,
,,,,,,,,,,stimuli/images/PICTURE_308.png,FAMILY,5ea9cfe7386479120ae4ac13,30/01/1999,2020-07-08_16h21.52.753,proactive,2020.1.2,Win32,60,5f035e5afe130c270d6ae6dd,5f05e444a3631d0c304430cc,6,,,,,,dice,,,,,,0,53,53,36,1,4,1,,,,,,,,,,,,,,,,,,,,,,,,,,,,,,,,,,,,,,,,,,,,,,,,,,,,,,,,,,,,,,,,,,,,,,,,,,,
,,,,,,,,,,stimuli/images/PICTURE_203.png,GODS,5ea9cfe7386479120ae4ac13,30/01/1999,2020-07-08_16h21.52.753,proactive,2020.1.2,Win32,60,5f035e5afe130c270d6ae6dd,5f05e444a3631d0c304430cc,6,,,,,,cap,,,,,,0,54,54,30,1,4,1,,,,,,,,,,,,,,,,,,,,,,,,,,,,,,,,,,,,,,,,,,,,,,,,,,,,,,,,,,,,,,,,,,,,,,,,,,,
,,,,,,,,,,stimuli/images/PICTURE_405.png,YEAR,5ea9cfe7386479120ae4ac13,30/01/1999,2020-07-08_16h21.52.753,proactive,2020.1.2,Win32,60,5f035e5afe130c270d6ae6dd,5f05e444a3631d0c304430cc,6,,,,,,anchor,,,,,,0,55,55,34,1,4,1,,,,,,,,,,,,,,,,,,,,,,,,,,,,,,,,,,,,,,,,,,,,,,,,,,,,,,,,,,,,,,,,,,,,,,,,,,,
,,,,,,,,,,stimuli/images/PICTURE_405.png,PLENTY,5ea9cfe7386479120ae4ac13,30/01/1999,2020-07-08_16h21.52.753,proactive,2020.1.2,Win32,60,5f035e5afe130c270d6ae6dd,5f05e444a3631d0c304430cc,6,,,,,,anchor,,,,,,0,56,56,23,1,3,1,,,,,,,,,,,,,,,,,,,,,,,,,,,,,,,,,,,,,,,,,,,,,,,,,,,,,,,,,,,,,,,,,,,,,,,,,,,
,,,,,,,,,,stimuli/images/PICTURE_685.png,PENNY,5ea9cfe7386479120ae4ac13,30/01/1999,2020-07-08_16h21.52.753,proactive,2020.1.2,Win32,60,5f035e5afe130c270d6ae6dd,5f05e444a3631d0c304430cc,6,,,,,,goose,,,,,,0,57,57,4,1,1,1,,,,,,,,,,,,,,,,,,,,,,,,,,,,,,,,,,,,,,,,,,,,,,,,,,,,,,,,,,,,,,,,,,,,,,,,,,,
,,,,,,,,,,stimuli/images/PICTURE_85.png,NATION,5ea9cfe7386479120ae4ac13,30/01/1999,2020-07-08_16h21.52.753,proactive,2020.1.2,Win32,60,5f035e5afe130c270d6ae6dd,5f05e444a3631d0c304430cc,6,,,,,,diamond,,,,,,0,58,58,5,1,1,1,,,,,,,,,,,,,,,,,,,,,,,,,,,,,,,,,,,,,,,,,,,,,,,,,,,,,,,,,,,,,,,,,,,,,,,,,,,
,,?,0.00065,0,,,,,,stimuli/images/PICTURE_504.png,ARTIST,5ea9cfe7386479120ae4ac13,30/01/1999,2020-07-08_16h21.52.753,proactive,2020.1.2,Win32,60,5f035e5afe130c270d6ae6dd,5f05e444a3631d0c304430cc,6,,,,,,wheel,,,,,,,,,,,5,1,0,0,0,49,1,,,,,,,,,,,,,,,,,,,,,,,,,,,,,,,,,,,,,,,,,,,,,,,,,,,,,,,,,,,,,,,,,,,,,,
,,?,0.00044,0,,,,,,stimuli/images/PICTURE_32.png,PILLS,5ea9cfe7386479120ae4ac13,30/01/1999,2020-07-08_16h21.52.753,proactive,2020.1.2,Win32,60,5f035e5afe130c270d6ae6dd,5f05e444a3631d0c304430cc,6,,,,,,crown,,,,,,,,,,,2,1,0,1,1,18,1,,,,,,,,,,,,,,,,,,,,,,,,,,,,,,,,,,,,,,,,,,,,,,,,,,,,,,,,,,,,,,,,,,,,,,
,,?,0.00047,0,,,,,,stimuli/images/PICTURE_296.png,LOTS,5ea9cfe7386479120ae4ac13,30/01/1999,2020-07-08_16h21.52.753,proactive,2020.1.2,Win32,60,5f035e5afe130c270d6ae6dd,5f05e444a3631d0c304430cc,6,,,,,,bolt,,,,,,,,,,,1,1,0,2,2,9,1,,,,,,,,,,,,,,,,,,,,,,,,,,,,,,,,,,,,,,,,,,,,,,,,,,,,,,,,,,,,,,,,,,,,,,
,,WEAPON,4.69934,1,,,,,,stimuli/images/PICTURE_744.png,WEAPON,5ea9cfe7386479120ae4ac13,30/01/1999,2020-07-08_16h21.52.753,proactive,2020.1.2,Win32,60,5f035e5afe130c270d6ae6dd,5f05e444a3631d0c304430cc,6,,,,,,ring,,,,,,,,,,,6,1,0,3,3,50,1,,,,,,,,,,,,,,,,,,,,,,,,,,,,,,,,,,,,,,,,,,,,,,,,,,,,,,,,,,,,,,,,,,,,,,
,,?,0.000865,0,,,,,,stimuli/images/PICTURE_340.png,LETTER,5ea9cfe7386479120ae4ac13,30/01/1999,2020-07-08_16h21.52.753,proactive,2020.1.2,Win32,60,5f035e5afe130c270d6ae6dd,5f05e444a3631d0c304430cc,6,,,,,,mirror,,,,,,,,,,,3,1,0,4,4,24,1,,,,,,,,,,,,,,,,,,,,,,,,,,,,,,,,,,,,,,,,,,,,,,,,,,,,,,,,,,,,,,,,,,,,,,
,,?,0.00101,0,,,,,,stimuli/images/PICTURE_57.png,MOMENT,5ea9cfe7386479120ae4ac13,30/01/1999,2020-07-08_16h21.52.753,proactive,2020.1.2,Win32,60,5f035e5afe130c270d6ae6dd,5f05e444a3631d0c304430cc,6,,,,,,stamp,,,,,,,,,,,4,1,0,5,5,37,1,,,,,,,,,,,,,,,,,,,,,,,,,,,,,,,,,,,,,,,,,,,,,,,,,,,,,,,,,,,,,,,,,,,,,,
,,?,0.00089,0,,,,,,stimuli/images/PICTURE_403.png,RIVER,5ea9cfe7386479120ae4ac13,30/01/1999,2020-07-08_16h21.52.753,proactive,2020.1.2,Win32,60,5f035e5afe130c270d6ae6dd,5f05e444a3631d0c304430cc,6,,,,,,cathedral,,,,,,,,,,,5,1,0,6,6,40,1,,,,,,,,,,,,,,,,,,,,,,,,,,,,,,,,,,,,,,,,,,,,,,,,,,,,,,,,,,,,,,,,,,,,,,
,,?,0.00071,0,,,,,,stimuli/images/PICTURE_677.png,APPLE,5ea9cfe7386479120ae4ac13,30/01/1999,2020-07-08_16h21.52.753,proactive,2020.1.2,Win32,60,5f035e5afe130c270d6ae6dd,5f05e444a3631d0c304430cc,6,,,,,,map,,,,,,,,,,,5,1,0,7,7,43,1,,,,,,,,,,,,,,,,,,,,,,,,,,,,,,,,,,,,,,,,,,,,,,,,,,,,,,,,,,,,,,,,,,,,,,
,,?,0.000505,0,,,,,,stimuli/images/PICTURE_675.png,SALE,5ea9cfe7386479120ae4ac13,30/01/1999,2020-07-08_16h21.52.753,proactive,2020.1.2,Win32,60,5f035e5afe130c270d6ae6dd,5f05e444a3631d0c304430cc,6,,,,,,windmill,,,,,,,,,,,5,1,0,8,8,47,1,,,,,,,,,,,,,,,,,,,,,,,,,,,,,,,,,,,,,,,,,,,,,,,,,,,,,,,,,,,,,,,,,,,,,,
,,?,0.00074,0,,,,,,stimuli/images/PICTURE_85.png,NATION,5ea9cfe7386479120ae4ac13,30/01/1999,2020-07-08_16h21.52.753,proactive,2020.1.2,Win32,60,5f035e5afe130c270d6ae6dd,5f05e444a3631d0c304430cc,6,,,,,,diamond,,,,,,,,,,,1,1,0,9,9,5,1,,,,,,,,,,,,,,,,,,,,,,,,,,,,,,,,,,,,,,,,,,,,,,,,,,,,,,,,,,,,,,,,,,,,,,
,,FLIGHT,3.62774,1,,,,,,stimuli/images/PICTURE_108.png,FLIGHT,5ea9cfe7386479120ae4ac13,30/01/1999,2020-07-08_16h21.52.753,proactive,2020.1.2,Win32,60,5f035e5afe130c270d6ae6dd,5f05e444a3631d0c304430cc,6,,,,,,calendar,,,,,,,,,,,6,1,0,10,10,59,1,,,,,,,,,,,,,,,,,,,,,,,,,,,,,,,,,,,,,,,,,,,,,,,,,,,,,,,,,,,,,,,,,,,,,,
,,?,0.00071,0,,,,,,stimuli/images/PICTURE_491.png,GLASS,5ea9cfe7386479120ae4ac13,30/01/1999,2020-07-08_16h21.52.753,proactive,2020.1.2,Win32,60,5f035e5afe130c270d6ae6dd,5f05e444a3631d0c304430cc,6,,,,,,rug,,,,,,,,,,,2,1,0,11,11,14,1,,,,,,,,,,,,,,,,,,,,,,,,,,,,,,,,,,,,,,,,,,,,,,,,,,,,,,,,,,,,,,,,,,,,,,
,,?,0.000425,0,,,,,,stimuli/images/PICTURE_383.png,SERIES,5ea9cfe7386479120ae4ac13,30/01/1999,2020-07-08_16h21.52.753,proactive,2020.1.2,Win32,60,5f035e5afe130c270d6ae6dd,5f05e444a3631d0c304430cc,6,,,,,,coin,,,,,,,,,,,5,1,0,12,12,46,1,,,,,,,,,,,,,,,,,,,,,,,,,,,,,,,,,,,,,,,,,,,,,,,,,,,,,,,,,,,,,,,,,,,,,,
,,?,0.000545,0,,,,,,stimuli/images/PICTURE_285.png,LIFE,5ea9cfe7386479120ae4ac13,30/01/1999,2020-07-08_16h21.52.753,proactive,2020.1.2,Win32,60,5f035e5afe130c270d6ae6dd,5f05e444a3631d0c304430cc,6,,,,,,carrot,,,,,,,,,,,4,1,0,13,13,33,1,,,,,,,,,,,,,,,,,,,,,,,,,,,,,,,,,,,,,,,,,,,,,,,,,,,,,,,,,,,,,,,,,,,,,,
,,?,0.00044,0,,,,,,stimuli/images/PICTURE_308.png,FAMILY,5ea9cfe7386479120ae4ac13,30/01/1999,2020-07-08_16h21.52.753,proactive,2020.1.2,Win32,60,5f035e5afe130c270d6ae6dd,5f05e444a3631d0c304430cc,6,,,,,,dice,,,,,,,,,,,4,1,0,14,14,36,1,,,,,,,,,,,,,,,,,,,,,,,,,,,,,,,,,,,,,,,,,,,,,,,,,,,,,,,,,,,,,,,,,,,,,,
,,?,0.000535,0,,,,,,stimuli/images/PICTURE_487.png,GIRL,5ea9cfe7386479120ae4ac13,30/01/1999,2020-07-08_16h21.52.753,proactive,2020.1.2,Win32,60,5f035e5afe130c270d6ae6dd,5f05e444a3631d0c304430cc,6,,,,,,basket,,,,,,,,,,,5,1,0,15,15,45,1,,,,,,,,,,,,,,,,,,,,,,,,,,,,,,,,,,,,,,,,,,,,,,,,,,,,,,,,,,,,,,,,,,,,,,
,,?,0.000425,0,,,,,,stimuli/images/PICTURE_108.png,POLICY,5ea9cfe7386479120ae4ac13,30/01/1999,2020-07-08_16h21.52.753,proactive,2020.1.2,Win32,60,5f035e5afe130c270d6ae6dd,5f05e444a3631d0c304430cc,6,,,,,,calendar,,,,,,,,,,,3,1,0,16,16,22,1,,,,,,,,,,,,,,,,,,,,,,,,,,,,,,,,,,,,,,,,,,,,,,,,,,,,,,,,,,,,,,,,,,,,,,
,,?,0.00044,0,,,,,,stimuli/images/PICTURE_469.png,AGENT,5ea9cfe7386479120ae4ac13,30/01/1999,2020-07-08_16h21.52.753,proactive,2020.1.2,Win32,60,5f035e5afe130c270d6ae6dd,5f05e444a3631d0c304430cc,6,,,,,,stool,,,,,,,,,,,2,1,0,17,17,16,1,,,,,,,,,,,,,,,,,,,,,,,,,,,,,,,,,,,,,,,,,,,,,,,,,,,,,,,,,,,,,,,,,,,,,,
,,LIFE,2.39088,1,,,,,,stimuli/images/PICTURE_296.png,LIFE,5ea9cfe7386479120ae4ac13,30/01/1999,2020-07-08_16h21.52.753,proactive,2020.1.2,Win32,60,5f035e5afe130c270d6ae6dd,5f05e444a3631d0c304430cc,6,,,,,,bolt,,,,,,,,,,,6,1,0,18,18,57,1,,,,,,,,,,,,,,,,,,,,,,,,,,,,,,,,,,,,,,,,,,,,,,,,,,,,,,,,,,,,,,,,,,,,,,
,,?,0.000625,0,,,,,,stimuli/images/PICTURE_564.png,BATH,5ea9cfe7386479120ae4ac13,30/01/1999,2020-07-08_16h21.52.753,proactive,2020.1.2,Win32,60,5f035e5afe130c270d6ae6dd,5f05e444a3631d0c304430cc,6,,,,,,spoon,,,,,,,,,,,3,1,0,19,19,26,1,,,,,,,,,,,,,,,,,,,,,,,,,,,,,,,,,,,,,,,,,,,,,,,,,,,,,,,,,,,,,,,,,,,,,,
,,?,0.000455,0,,,,,,stimuli/images/PICTURE_685.png,PENNY,5ea9cfe7386479120ae4ac13,30/01/1999,2020-07-08_16h21.52.753,proactive,2020.1.2,Win32,60,5f035e5afe130c270d6ae6dd,5f05e444a3631d0c304430cc,6,,,,,,goose,,,,,,,,,,,1,1,0,20,20,4,1,,,,,,,,,,,,,,,,,,,,,,,,,,,,,,,,,,,,,,,,,,,,,,,,,,,,,,,,,,,,,,,,,,,,,,
,,?,0.00047,0,,,,,,stimuli/images/PICTURE_405.png,PLENTY,5ea9cfe7386479120ae4ac13,30/01/1999,2020-07-08_16h21.52.753,proactive,2020.1.2,Win32,60,5f035e5afe130c270d6ae6dd,5f05e444a3631d0c304430cc,6,,,,,,anchor,,,,,,,,,,,3,1,0,21,21,23,1,,,,,,,,,,,,,,,,,,,,,,,,,,,,,,,,,,,,,,,,,,,,,,,,,,,,,,,,,,,,,,,,,,,,,,
,,?,0.000435,0,,,,,,stimuli/images/PICTURE_380.png,CANDY,5ea9cfe7386479120ae4ac13,30/01/1999,2020-07-08_16h21.52.753,proactive,2020.1.2,Win32,60,5f035e5afe130c270d6ae6dd,5f05e444a3631d0c304430cc,6,,,,,,gorilla,,,,,,,,,,,1,1,0,22,22,0,1,,,,,,,,,,,,,,,,,,,,,,,,,,,,,,,,,,,,,,,,,,,,,,,,,,,,,,,,,,,,,,,,,,,,,,
,,MILE,2.40869,1,,,,,,stimuli/images/PICTURE_68.png,MILE,5ea9cfe7386479120ae4ac13,30/01/1999,2020-07-08_16h21.52.753,proactive,2020.1.2,Win32,60,5f035e5afe130c270d6ae6dd,5f05e444a3631d0c304430cc,6,,,,,,candle,,,,,,,,,,,6,1,0,23,23,51,1,,,,,,,,,,,,,,,,,,,,,,,,,,,,,,,,,,,,,,,,,,,,,,,,,,,,,,,,,,,,,,,,,,,,,,
,,?,0.000595,0,,,,,,stimuli/images/PICTURE_654.png,MONTH,5ea9cfe7386479120ae4ac13,30/01/1999,2020-07-08_16h21.52.753,proactive,2020.1.2,Win32,60,5f035e5afe130c270d6ae6dd,5f05e444a3631d0c304430cc,6,,,,,,pencil,,,,,,,,,,,3,1,0,24,24,29,1,,,,,,,,,,,,,,,,,,,,,,,,,,,,,,,,,,,,,,,,,,,,,,,,,,,,,,,,,,,,,,,,,,,,,,
,,?,0.000435,0,,,,,,stimuli/images/PICTURE_233.png,LOTS,5ea9cfe7386479120ae4ac13,30/01/1999,2020-07-08_16h21.52.753,proactive,2020.1.2,Win32,60,5f035e5afe130c270d6ae6dd,5f05e444a3631d0c304430cc,6,,,,,,salt,,,,,,,,,,,5,1,0,25,25,42,1,,,,,,,,,,,,,,,,,,,,,,,,,,,,,,,,,,,,,,,,,,,,,,,,,,,,,,,,,,,,,,,,,,,,,,
,,?,0.0005,0,,,,,,stimuli/images/PICTURE_203.png,NIGHT,5ea9cfe7386479120ae4ac13,30/01/1999,2020-07-08_16h21.52.753,proactive,2020.1.2,Win32,60,5f035e5afe130c270d6ae6dd,5f05e444a3631d0c304430cc,6,,,,,,cap,,,,,,,,,,,1,1,0,26,26,2,1,,,,,,,,,,,,,,,,,,,,,,,,,,,,,,,,,,,,,,,,,,,,,,,,,,,,,,,,,,,,,,,,,,,,,,
,,?,0.00041,0,,,,,,stimuli/images/PICTURE_33.png,FRIEND,5ea9cfe7386479120ae4ac13,30/01/1999,2020-07-08_16h21.52.753,proactive,2020.1.2,Win32,60,5f035e5afe130c270d6ae6dd,5f05e444a3631d0c304430cc,6,,,,,,frame,,,,,,,,,,,1,1,0,27,27,8,1,,,,,,,,,,,,,,,,,,,,,,,,,,,,,,,,,,,,,,,,,,,,,,,,,,,,,,,,,,,,,,,,,,,,,,
,,?,0.00173,0,,,,,,stimuli/images/PICTURE_327.png,SERIES,5ea9cfe7386479120ae4ac13,30/01/1999,2020-07-08_16h21.52.753,proactive,2020.1.2,Win32,60,5f035e5afe130c270d6ae6dd,5f05e444a3631d0c304430cc,6,,,,,,helmet,,,,,,,,,,,1,1,0,28,28,3,1,,,,,,,,,,,,,,,,,,,,,,,,,,,,,,,,,,,,,,,,,,,,,,,,,,,,,,,,,,,,,,,,,,,,,,
,,VALLEY,3.433165,1,,,,,,stimuli/images/PICTURE_340.png,VALLEY,5ea9cfe7386479120ae4ac13,30/01/1999,2020-07-08_16h21.52.753,proactive,2020.1.2,Win32,60,5f035e5afe130c270d6ae6dd,5f05e444a3631d0c304430cc,6,,,,,,mirror,,,,,,,,,,,6,1,0,29,29,54,1,,,,,,,,,,,,,,,,,,,,,,,,,,,,,,,,,,,,,,,,,,,,,,,,,,,,,,,,,,,,,,,,,,,,,,
,,?,0.0006,0,,,,,,stimuli/images/PICTURE_667.png,RIVER,5ea9cfe7386479120ae4ac13,30/01/1999,2020-07-08_16h21.52.753,proactive,2020.1.2,Win32,60,5f035e5afe130c270d6ae6dd,5f05e444a3631d0c304430cc,6,,,,,,daisy,,,,,,,,,,,2,1,0,30,30,10,1,,,,,,,,,,,,,,,,,,,,,,,,,,,,,,,,,,,,,,,,,,,,,,,,,,,,,,,,,,,,,,,,,,,,,,
,,?,0.000455,0,,,,,,stimuli/images/PICTURE_383.png,WRITER,5ea9cfe7386479120ae4ac13,30/01/1999,2020-07-08_16h21.52.753,proactive,2020.1.2,Win32,60,5f035e5afe130c270d6ae6dd,5f05e444a3631d0c304430cc,6,,,,,,coin,,,,,,,,,,,3,1,0,31,31,28,1,,,,,,,,,,,,,,,,,,,,,,,,,,,,,,,,,,,,,,,,,,,,,,,,,,,,,,,,,,,,,,,,,,,,,,
,,?,0.001475,0,,,,,,stimuli/images/PICTURE_339.png,CLIENT,5ea9cfe7386479120ae4ac13,30/01/1999,2020-07-08_16h21.52.753,proactive,2020.1.2,Win32,60,5f035e5afe130c270d6ae6dd,5f05e444a3631d0c304430cc,6,,,,,,backpack,,,,,,,,,,,2,1,0,32,32,11,1,,,,,,,,,,,,,,,,,,,,,,,,,,,,,,,,,,,,,,,,,,,,,,,,,,,,,,,,,,,,,,,,,,,,,,
,,POLICY,2.902055,1,,,,,,stimuli/images/PICTURE_467.png,POLICY,5ea9cfe7386479120ae4ac13,30/01/1999,2020-07-08_16h21.52.753,proactive,2020.1.2,Win32,60,5f035e5afe130c270d6ae6dd,5f05e444a3631d0c304430cc,6,,,,,,peg,,,,,,,,,,,6,1,0,33,33,53,1,,,,,,,,,,,,,,,,,,,,,,,,,,,,,,,,,,,,,,,,,,,,,,,,,,,,,,,,,,,,,,,,,,,,,,
,,?,0.0006,0,,,,,,stimuli/images/PICTURE_95.png,BOYS,5ea9cfe7386479120ae4ac13,30/01/1999,2020-07-08_16h21.52.753,proactive,2020.1.2,Win32,60,5f035e5afe130c270d6ae6dd,5f05e444a3631d0c304430cc,6,,,,,,suitcase,,,,,,,,,,,1,1,0,34,34,1,1,,,,,,,,,,,,,,,,,,,,,,,,,,,,,,,,,,,,,,,,,,,,,,,,,,,,,,,,,,,,,,,,,,,,,,
,,?,0.00043,0,,,,,,stimuli/images/PICTURE_655.png,TOILET,5ea9cfe7386479120ae4ac13,30/01/1999,2020-07-08_16h21.52.753,proactive,2020.1.2,Win32,60,5f035e5afe130c270d6ae6dd,5f05e444a3631d0c304430cc,6,,,,,,megaphone,,,,,,,,,,,2,1,0,35,35,12,1,,,,,,,,,,,,,,,,,,,,,,,,,,,,,,,,,,,,,,,,,,,,,,,,,,,,,,,,,,,,,,,,,,,,,,
,,?,0.00054,0,,,,,,stimuli/images/PICTURE_403.png,TOILET,5ea9cfe7386479120ae4ac13,30/01/1999,2020-07-08_16h21.52.753,proactive,2020.1.2,Win32,60,5f035e5afe130c270d6ae6dd,5f05e444a3631d0c304430cc,6,,,,,,cathedral,,,,,,,,,,,3,1,0,36,36,25,1,,,,,,,,,,,,,,,,,,,,,,,,,,,,,,,,,,,,,,,,,,,,,,,,,,,,,,,,,,,,,,,,,,,,,,
,,?,0.00044,0,,,,,,stimuli/images/PICTURE_327.png,CASINO,5ea9cfe7386479120ae4ac13,30/01/1999,2020-07-08_16h21.52.753,proactive,2020.1.2,Win32,60,5f035e5afe130c270d6ae6dd,5f05e444a3631d0c304430cc,6,,,,,,helmet,,,,,,,,,,,3,1,0,37,37,20,1,,,,,,,,,,,,,,,,,,,,,,,,,,,,,,,,,,,,,,,,,,,,,,,,,,,,,,,,,,,,,,,,,,,,,,
,,?,0.00053,0,,,,,,stimuli/images/PICTURE_403.png,WRITER,5ea9cfe7386479120ae4ac13,30/01/1999,2020-07-08_16h21.52.753,proactive,2020.1.2,Win32,60,5f035e5afe130c270d6ae6dd,5f05e444a3631d0c304430cc,6,,,,,,cathedral,,,,,,,,,,,4,1,0,38,38,31,1,,,,,,,,,,,,,,,,,,,,,,,,,,,,,,,,,,,,,,,,,,,,,,,,,,,,,,,,,,,,,,,,,,,,,,
,,?,0.00047,0,,,,,,stimuli/images/PICTURE_147.png,YEAR,5ea9cfe7386479120ae4ac13,30/01/1999,2020-07-08_16h21.52.753,proactive,2020.1.2,Win32,60,5f035e5afe130c270d6ae6dd,5f05e444a3631d0c304430cc,6,,,,,,hanger,,,,,,,,,,,3,1,0,39,39,21,1,,,,,,,,,,,,,,,,,,,,,,,,,,,,,,,,,,,,,,,,,,,,,,,,,,,,,,,,,,,,,,,,,,,,,,
,,?,0.000505,0,,,,,,stimuli/images/PICTURE_491.png,RIVER,5ea9cfe7386479120ae4ac13,30/01/1999,2020-07-08_16h21.52.753,proactive,2020.1.2,Win32,60,5f035e5afe130c270d6ae6dd,5f05e444a3631d0c304430cc,6,,,,,,rug,,,,,,,,,,,1,1,0,40,40,6,1,,,,,,,,,,,,,,,,,,,,,,,,,,,,,,,,,,,,,,,,,,,,,,,,,,,,,,,,,,,,,,,,,,,,,,
,,?,0.000445,0,,,,,,stimuli/images/PICTURE_68.png,ROOF,5ea9cfe7386479120ae4ac13,30/01/1999,2020-07-08_16h21.52.753,proactive,2020.1.2,Win32,60,5f035e5afe130c270d6ae6dd,5f05e444a3631d0c304430cc,6,,,,,,candle,,,,,,,,,,,4,1,0,41,41,38,1,,,,,,,,,,,,,,,,,,,,,,,,,,,,,,,,,,,,,,,,,,,,,,,,,,,,,,,,,,,,,,,,,,,,,,
,,MILLER,2.496515,1,,,,,,stimuli/images/PICTURE_95.png,MILLER,5ea9cfe7386479120ae4ac13,30/01/1999,2020-07-08_16h21.52.753,proactive,2020.1.2,Win32,60,5f035e5afe130c270d6ae6dd,5f05e444a3631d0c304430cc,6,,,,,,suitcase,,,,,,,,,,,6,1,0,42,42,56,1,,,,,,,,,,,,,,,,,,,,,,,,,,,,,,,,,,,,,,,,,,,,,,,,,,,,,,,,,,,,,,,,,,,,,,
,,?,0.0006,0,,,,,,stimuli/images/PICTURE_297.png,RIVER,5ea9cfe7386479120ae4ac13,30/01/1999,2020-07-08_16h21.52.753,proactive,2020.1.2,Win32,60,5f035e5afe130c270d6ae6dd,5f05e444a3631d0c304430cc,6,,,,,,aeroplane,,,,,,,,,,,4,1,0,43,43,39,1,,,,,,,,,,,,,,,,,,,,,,,,,,,,,,,,,,,,,,,,,,,,,,,,,,,,,,,,,,,,,,,,,,,,,,
,,COPS,2.53215,1,,,,,,stimuli/images/PICTURE_504.png,COPS,5ea9cfe7386479120ae4ac13,30/01/1999,2020-07-08_16h21.52.753,proactive,2020.1.2,Win32,60,5f035e5afe130c270d6ae6dd,5f05e444a3631d0c304430cc,6,,,,,,wheel,,,,,,,,,,,6,1,0,44,44,52,1,,,,,,,,,,,,,,,,,,,,,,,,,,,,,,,,,,,,,,,,,,,,,,,,,,,,,,,,,,,,,,,,,,,,,,
,,BOYS,3.253625,1,,,,,,stimuli/images/PICTURE_42.png,BOYS,5ea9cfe7386479120ae4ac13,30/01/1999,2020-07-08_16h21.52.753,proactive,2020.1.2,Win32,60,5f035e5afe130c270d6ae6dd,5f05e444a3631d0c304430cc,6,,,,,,pear,,,,,,,,,,,6,1,0,45,45,55,1,,,,,,,,,,,,,,,,,,,,,,,,,,,,,,,,,,,,,,,,,,,,,,,,,,,,,,,,,,,,,,,,,,,,,,
,,?,0.00065,0,,,,,,stimuli/images/PICTURE_750.png,HOTEL,5ea9cfe7386479120ae4ac13,30/01/1999,2020-07-08_16h21.52.753,proactive,2020.1.2,Win32,60,5f035e5afe130c270d6ae6dd,5f05e444a3631d0c304430cc,6,,,,,,kettle,,,,,,,,,,,3,1,0,46,46,27,1,,,,,,,,,,,,,,,,,,,,,,,,,,,,,,,,,,,,,,,,,,,,,,,,,,,,,,,,,,,,,,,,,,,,,,
,,?,0.000575,0,,,,,,stimuli/images/PICTURE_380.png,HONEY,5ea9cfe7386479120ae4ac13,30/01/1999,2020-07-08_16h21.52.753,proactive,2020.1.2,Win32,60,5f035e5afe130c270d6ae6dd,5f05e444a3631d0c304430cc,6,,,,,,gorilla,,,,,,,,,,,2,1,0,47,47,19,1,,,,,,,,,,,,,,,,,,,,,,,,,,,,,,,,,,,,,,,,,,,,,,,,,,,,,,,,,,,,,,,,,,,,,,
,,?,0.000565,0,,,,,,stimuli/images/PICTURE_203.png,GODS,5ea9cfe7386479120ae4ac13,30/01/1999,2020-07-08_16h21.52.753,proactive,2020.1.2,Win32,60,5f035e5afe130c270d6ae6dd,5f05e444a3631d0c304430cc,6,,,,,,cap,,,,,,,,,,,4,1,0,48,48,30,1,,,,,,,,,,,,,,,,,,,,,,,,,,,,,,,,,,,,,,,,,,,,,,,,,,,,,,,,,,,,,,,,,,,,,,
,,?,0.000705,0,,,,,,stimuli/images/PICTURE_32.png,KIND,5ea9cfe7386479120ae4ac13,30/01/1999,2020-07-08_16h21.52.753,proactive,2020.1.2,Win32,60,5f035e5afe130c270d6ae6dd,5f05e444a3631d0c304430cc,6,,,,,,crown,,,,,,,,,,,4,1,0,49,49,35,1,,,,,,,,,,,,,,,,,,,,,,,,,,,,,,,,,,,,,,,,,,,,,,,,,,,,,,,,,,,,,,,,,,,,,,
,,?,0.00057,0,,,,,,stimuli/images/PICTURE_405.png,YEAR,5ea9cfe7386479120ae4ac13,30/01/1999,2020-07-08_16h21.52.753,proactive,2020.1.2,Win32,60,5f035e5afe130c270d6ae6dd,5f05e444a3631d0c304430cc,6,,,,,,anchor,,,,,,,,,,,4,1,0,50,50,34,1,,,,,,,,,,,,,,,,,,,,,,,,,,,,,,,,,,,,,,,,,,,,,,,,,,,,,,,,,,,,,,,,,,,,,,
,,?,0.00068,0,,,,,,stimuli/images/PICTURE_2.png,FLIGHT,5ea9cfe7386479120ae4ac13,30/01/1999,2020-07-08_16h21.52.753,proactive,2020.1.2,Win32,60,5f035e5afe130c270d6ae6dd,5f05e444a3631d0c304430cc,6,,,,,,tyre,,,,,,,,,,,2,1,0,51,51,15,1,,,,,,,,,,,,,,,,,,,,,,,,,,,,,,,,,,,,,,,,,,,,,,,,,,,,,,,,,,,,,,,,,,,,,,
,,?,0.00063,0,,,,,,stimuli/images/PICTURE_177.png,WRITER,5ea9cfe7386479120ae4ac13,30/01/1999,2020-07-08_16h21.52.753,proactive,2020.1.2,Win32,60,5f035e5afe130c270d6ae6dd,5f05e444a3631d0c304430cc,6,,,,,,mushroom,,,,,,,,,,,5,1,0,52,52,41,1,,,,,,,,,,,,,,,,,,,,,,,,,,,,,,,,,,,,,,,,,,,,,,,,,,,,,,,,,,,,,,,,,,,,,,
,,RECORD,3.881855,1,,,,,,stimuli/images/PICTURE_708.png,RECORD,5ea9cfe7386479120ae4ac13,30/01/1999,2020-07-08_16h21.52.753,proactive,2020.1.2,Win32,60,5f035e5afe130c270d6ae6dd,5f05e444a3631d0c304430cc,6,,,,,,monkey,,,,,,,,,,,6,1,0,53,53,58,1,,,,,,,,,,,,,,,,,,,,,,,,,,,,,,,,,,,,,,,,,,,,,,,,,,,,,,,,,,,,,,,,,,,,,,
,,?,0.00057,0,,,,,,stimuli/images/PICTURE_95.png,HONEY,5ea9cfe7386479120ae4ac13,30/01/1999,2020-07-08_16h21.52.753,proactive,2020.1.2,Win32,60,5f035e5afe130c270d6ae6dd,5f05e444a3631d0c304430cc,6,,,,,,suitcase,,,,,,,,,,,5,1,0,54,54,44,1,,,,,,,,,,,,,,,,,,,,,,,,,,,,,,,,,,,,,,,,,,,,,,,,,,,,,,,,,,,,,,,,,,,,,,
,,?,0.00043,0,,,,,,stimuli/images/PICTURE_449.png,DUDE,5ea9cfe7386479120ae4ac13,30/01/1999,2020-07-08_16h21.52.753,proactive,2020.1.2,Win32,60,5f035e5afe130c270d6ae6dd,5f05e444a3631d0c304430cc,6,,,,,,bench,,,,,,,,,,,2,1,0,55,55,17,1,,,,,,,,,,,,,,,,,,,,,,,,,,,,,,,,,,,,,,,,,,,,,,,,,,,,,,,,,,,,,,,,,,,,,,
,,?,0.00065,0,,,,,,stimuli/images/PICTURE_504.png,YEAR,5ea9cfe7386479120ae4ac13,30/01/1999,2020-07-08_16h21.52.753,proactive,2020.1.2,Win32,60,5f035e5afe130c270d6ae6dd,5f05e444a3631d0c304430cc,6,,,,,,wheel,,,,,,,,,,,2,1,0,56,56,13,1,,,,,,,,,,,,,,,,,,,,,,,,,,,,,,,,,,,,,,,,,,,,,,,,,,,,,,,,,,,,,,,,,,,,,,
,,?,0.000415,0,,,,,,stimuli/images/PICTURE_85.png,TOILET,5ea9cfe7386479120ae4ac13,30/01/1999,2020-07-08_16h21.52.753,proactive,2020.1.2,Win32,60,5f035e5afe130c270d6ae6dd,5f05e444a3631d0c304430cc,6,,,,,,diamond,,,,,,,,,,,5,1,0,57,57,48,1,,,,,,,,,,,,,,,,,,,,,,,,,,,,,,,,,,,,,,,,,,,,,,,,,,,,,,,,,,,,,,,,,,,,,,
,,?,0.000415,0,,,,,,stimuli/images/PICTURE_147.png,WOMEN,5ea9cfe7386479120ae4ac13,30/01/1999,2020-07-08_16h21.52.753,proactive,2020.1.2,Win32,60,5f035e5afe130c270d6ae6dd,5f05e444a3631d0c304430cc,6,,,,,,hanger,,,,,,,,,,,1,1,0,58,58,7,1,,,,,,,,,,,,,,,,,,,,,,,,,,,,,,,,,,,,,,,,,,,,,,,,,,,,,,,,,,,,,,,,,,,,,,
,,?,0.0004,0,,,,,,stimuli/images/PICTURE_208.png,SYSTEM,5ea9cfe7386479120ae4ac13,30/01/1999,2020-07-08_16h21.52.753,proactive,2020.1.2,Win32,60,5f035e5afe130c270d6ae6dd,5f05e444a3631d0c304430cc,6,,,,,,microphone,,,,,,,,,,,4,1,0,59,59,32,1,,,,,,,,,,,,,,,,,,,,,,,,,,,,,,,,,,,,,,,,,,,,,,,,,,,,,,,,,,,,,,,,,,,,,,
,,,,,,,,,,,,5ea9cfe7386479120ae4ac13,30/01/1999,2020-07-08_16h21.52.753,proactive,2020.1.2,Win32,60,5f035e5afe130c270d6ae6dd,5f05e444a3631d0c304430cc,6,,,,,,,,,,,,,,,,,,,,,,,,0,1,1,1,1,stimuli/learn-block2.csv,,,,,,,,,,,,,,,,,,,,,,,,,,,,,,,,,,,,,,,,,,,,,,,,,,,,,,,,,,,,,,,,
,,,,,,,,,,stimuli/images/PICTURE_233.png,IDEAS,5ea9cfe7386479120ae4ac13,30/01/1999,2020-07-08_16h21.52.753,proactive,2020.1.2,Win32,60,5f035e5afe130c270d6ae6dd,5f05e444a3631d0c304430cc,6,,,,,,salt,,,,,,0,0,0,28,1,3,0,,,,,,,,,,,,,,,,,,,,,,,,,,,,,,,,,,,,,,,,,,,,,,,,,,,,,,,,,,,,,,,,,,,,,,,,,,,
,,,,,,,,,,stimuli/images/PICTURE_302.png,FAMILY,5ea9cfe7386479120ae4ac13,30/01/1999,2020-07-08_16h21.52.753,proactive,2020.1.2,Win32,60,5f035e5afe130c270d6ae6dd,5f05e444a3631d0c304430cc,6,,,,,,taxi,,,,,,0,1,1,18,1,2,0,,,,,,,,,,,,,,,,,,,,,,,,,,,,,,,,,,,,,,,,,,,,,,,,,,,,,,,,,,,,,,,,,,,,,,,,,,,
,,,,,,,,,,stimuli/images/PICTURE_314.png,SAKE,5ea9cfe7386479120ae4ac13,30/01/1999,2020-07-08_16h21.52.753,proactive,2020.1.2,Win32,60,5f035e5afe130c270d6ae6dd,5f05e444a3631d0c304430cc,6,,,,,,perfume,,,,,,0,2,2,7,1,1,0,,,,,,,,,,,,,,,,,,,,,,,,,,,,,,,,,,,,,,,,,,,,,,,,,,,,,,,,,,,,,,,,,,,,,,,,,,,
,,,,,,,,,,stimuli/images/PICTURE_248.png,DOZEN,5ea9cfe7386479120ae4ac13,30/01/1999,2020-07-08_16h21.52.753,proactive,2020.1.2,Win32,60,5f035e5afe130c270d6ae6dd,5f05e444a3631d0c304430cc,6,,,,,,cart,,,,,,0,3,3,39,1,4,0,,,,,,,,,,,,,,,,,,,,,,,,,,,,,,,,,,,,,,,,,,,,,,,,,,,,,,,,,,,,,,,,,,,,,,,,,,,
,,,,,,,,,,stimuli/images/PICTURE_339.png,PLENTY,5ea9cfe7386479120ae4ac13,30/01/1999,2020-07-08_16h21.52.753,proactive,2020.1.2,Win32,60,5f035e5afe130c270d6ae6dd,5f05e444a3631d0c304430cc,6,,,,,,backpack,,,,,,0,4,4,0,1,1,0,,,,,,,,,,,,,,,,,,,,,,,,,,,,,,,,,,,,,,,,,,,,,,,,,,,,,,,,,,,,,,,,,,,,,,,,,,,
,,,,,,,,,,stimuli/images/PICTURE_449.png,THING,5ea9cfe7386479120ae4ac13,30/01/1999,2020-07-08_16h21.52.753,proactive,2020.1.2,Win32,60,5f035e5afe130c270d6ae6dd,5f05e444a3631d0c304430cc,6,,,,,,bench,,,,,,0,5,5,59,1,6,0,,,,,,,,,,,,,,,,,,,,,,,,,,,,,,,,,,,,,,,,,,,,,,,,,,,,,,,,,,,,,,,,,,,,,,,,,,,
,,,,,,,,,,stimuli/images/PICTURE_708.png,PENNY,5ea9cfe7386479120ae4ac13,30/01/1999,2020-07-08_16h21.52.753,proactive,2020.1.2,Win32,60,5f035e5afe130c270d6ae6dd,5f05e444a3631d0c304430cc,6,,,,,,monkey,,,,,,0,6,6,31,1,4,0,,,,,,,,,,,,,,,,,,,,,,,,,,,,,,,,,,,,,,,,,,,,,,,,,,,,,,,,,,,,,,,,,,,,,,,,,,,
,,,,,,,,,,stimuli/images/PICTURE_285.png,ADVICE,5ea9cfe7386479120ae4ac13,30/01/1999,2020-07-08_16h21.52.753,proactive,2020.1.2,Win32,60,5f035e5afe130c270d6ae6dd,5f05e444a3631d0c304430cc,6,,,,,,carrot,,,,,,0,7,7,12,1,2,0,,,,,,,,,,,,,,,,,,,,,,,,,,,,,,,,,,,,,,,,,,,,,,,,,,,,,,,,,,,,,,,,,,,,,,,,,,,
,,,,,,,,,,stimuli/images/PICTURE_744.png,SAKE,5ea9cfe7386479120ae4ac13,30/01/1999,2020-07-08_16h21.52.753,proactive,2020.1.2,Win32,60,5f035e5afe130c270d6ae6dd,5f05e444a3631d0c304430cc,6,,,,,,ring,,,,,,0,8,8,17,1,2,0,,,,,,,,,,,,,,,,,,,,,,,,,,,,,,,,,,,,,,,,,,,,,,,,,,,,,,,,,,,,,,,,,,,,,,,,,,,
,,,,,,,,,,stimuli/images/PICTURE_208.png,THING,5ea9cfe7386479120ae4ac13,30/01/1999,2020-07-08_16h21.52.753,proactive,2020.1.2,Win32,60,5f035e5afe130c270d6ae6dd,5f05e444a3631d0c304430cc,6,,,,,,microphone,,,,,,0,9,9,47,1,5,0,,,,,,,,,,,,,,,,,,,,,,,,,,,,,,,,,,,,,,,,,,,,,,,,,,,,,,,,,,,,,,,,,,,,,,,,,,,
,,,,,,,,,,stimuli/images/PICTURE_68.png,MILE,5ea9cfe7386479120ae4ac13,30/01/1999,2020-07-08_16h21.52.753,proactive,2020.1.2,Win32,60,5f035e5afe130c270d6ae6dd,5f05e444a3631d0c304430cc,6,,,,,,candle,,,,,,0,10,10,44,1,5,0,,,,,,,,,,,,,,,,,,,,,,,,,,,,,,,,,,,,,,,,,,,,,,,,,,,,,,,,,,,,,,,,,,,,,,,,,,,
,,,,,,,,,,stimuli/images/PICTURE_708.png,YARD,5ea9cfe7386479120ae4ac13,30/01/1999,2020-07-08_16h21.52.753,proactive,2020.1.2,Win32,60,5f035e5afe130c270d6ae6dd,5f05e444a3631d0c304430cc,6,,,,,,monkey,,,,,,0,11,11,29,1,3,0,,,,,,,,,,,,,,,,,,,,,,,,,,,,,,,,,,,,,,,,,,,,,,,,,,,,,,,,,,,,,,,,,,,,,,,,,,,
,,,,,,,,,,stimuli/images/PICTURE_487.png,FLIGHT,5ea9cfe7386479120ae4ac13,30/01/1999,2020-07-08_16h21.52.753,proactive,2020.1.2,Win32,60,5f035e5afe130c270d6ae6dd,5f05e444a3631d0c304430cc,6,,,,,,basket,,,,,,0,12,12,9,1,1,0,,,,,,,,,,,,,,,,,,,,,,,,,,,,,,,,,,,,,,,,,,,,,,,,,,,,,,,,,,,,,,,,,,,,,,,,,,,
,,,,,,,,,,stimuli/images/PICTURE_509.png,PHOTO,5ea9cfe7386479120ae4ac13,30/01/1999,2020-07-08_16h21.52.753,proactive,2020.1.2,Win32,60,5f035e5afe130c270d6ae6dd,5f05e444a3631d0c304430cc,6,,,,,,telephone,,,,,,0,13,13,21,1,3,0,,,,,,,,,,,,,,,,,,,,,,,,,,,,,,,,,,,,,,,,,,,,,,,,,,,,,,,,,,,,,,,,,,,,,,,,,,,
,,,,,,,,,,stimuli/images/PICTURE_314.png,GODS,5ea9cfe7386479120ae4ac13,30/01/1999,2020-07-08_16h21.52.753,proactive,2020.1.2,Win32,60,5f035e5afe130c270d6ae6dd,5f05e444a3631d0c304430cc,6,,,,,,perfume,,,,,,0,14,14,11,1,2,0,,,,,,,,,,,,,,,,,,,,,,,,,,,,,,,,,,,,,,,,,,,,,,,,,,,,,,,,,,,,,,,,,,,,,,,,,,,
,,,,,,,,,,stimuli/images/PICTURE_453.png,PLENTY,5ea9cfe7386479120ae4ac13,30/01/1999,2020-07-08_16h21.52.753,proactive,2020.1.2,Win32,60,5f035e5afe130c270d6ae6dd,5f05e444a3631d0c304430cc,6,,,,,,scissors,,,,,,0,15,15,56,1,6,0,,,,,,,,,,,,,,,,,,,,,,,,,,,,,,,,,,,,,,,,,,,,,,,,,,,,,,,,,,,,,,,,,,,,,,,,,,,
,,,,,,,,,,stimuli/images/PICTURE_177.png,CARS,5ea9cfe7386479120ae4ac13,30/01/1999,2020-07-08_16h21.52.753,proactive,2020.1.2,Win32,60,5f035e5afe130c270d6ae6dd,5f05e444a3631d0c304430cc,6,,,,,,mushroom,,,,,,0,16,16,35,1,4,0,,,,,,,,,,,,,,,,,,,,,,,,,,,,,,,,,,,,,,,,,,,,,,,,,,,,,,,,,,,,,,,,,,,,,,,,,,,
,,,,,,,,,,stimuli/images/PICTURE_744.png,SYSTEM,5ea9cfe7386479120ae4ac13,30/01/1999,2020-07-08_16h21.52.753,proactive,2020.1.2,Win32,60,5f035e5afe130c270d6ae6dd,5f05e444a3631d0c304430cc,6,,,,,,ring,,,,,,0,17,17,43,1,5,0,,,,,,,,,,,,,,,,,,,,,,,,,,,,,,,,,,,,,,,,,,,,,,,,,,,,,,,,,,,,,,,,,,,,,,,,,,,
,,,,,,,,,,stimuli/images/PICTURE_85.png,THING,5ea9cfe7386479120ae4ac13,30/01/1999,2020-07-08_16h21.52.753,proactive,2020.1.2,Win32,60,5f035e5afe130c270d6ae6dd,5f05e444a3631d0c304430cc,6,,,,,,diamond,,,,,,0,18,18,15,1,2,0,,,,,,,,,,,,,,,,,,,,,,,,,,,,,,,,,,,,,,,,,,,,,,,,,,,,,,,,,,,,,,,,,,,,,,,,,,,
,,,,,,,,,,stimuli/images/PICTURE_677.png,MILE,5ea9cfe7386479120ae4ac13,30/01/1999,2020-07-08_16h21.52.753,proactive,2020.1.2,Win32,60,5f035e5afe130c270d6ae6dd,5f05e444a3631d0c304430cc,6,,,,,,map,,,,,,0,19,19,30,1,4,0,,,,,,,,,,,,,,,,,,,,,,,,,,,,,,,,,,,,,,,,,,,,,,,,,,,,,,,,,,,,,,,,,,,,,,,,,,,
,,,,,,,,,,stimuli/images/PICTURE_311.png,BEAUTY,5ea9cfe7386479120ae4ac13,30/01/1999,2020-07-08_16h21.52.753,proactive,2020.1.2,Win32,60,5f035e5afe130c270d6ae6dd,5f05e444a3631d0c304430cc,6,,,,,,razor,,,,,,0,20,20,13,1,2,0,,,,,,,,,,,,,,,,,,,,,,,,,,,,,,,,,,,,,,,,,,,,,,,,,,,,,,,,,,,,,,,,,,,,,,,,,,,
,,,,,,,,,,stimuli/images/PICTURE_215.png,PLENTY,5ea9cfe7386479120ae4ac13,30/01/1999,2020-07-08_16h21.52.753,proactive,2020.1.2,Win32,60,5f035e5afe130c270d6ae6dd,5f05e444a3631d0c304430cc,6,,,,,,boot,,,,,,0,21,21,37,1,4,0,,,,,,,,,,,,,,,,,,,,,,,,,,,,,,,,,,,,,,,,,,,,,,,,,,,,,,,,,,,,,,,,,,,,,,,,,,,
,,,,,,,,,,stimuli/images/PICTURE_667.png,PLENTY,5ea9cfe7386479120ae4ac13,30/01/1999,2020-07-08_16h21.52.753,proactive,2020.1.2,Win32,60,5f035e5afe130c270d6ae6dd,5f05e444a3631d0c304430cc,6,,,,,,daisy,,,,,,0,22,22,41,1,5,0,,,,,,,,,,,,,,,,,,,,,,,,,,,,,,,,,,,,,,,,,,,,,,,,,,,,,,,,,,,,,,,,,,,,,,,,,,,
,,,,,,,,,,stimuli/images/PICTURE_688.png,CASINO,5ea9cfe7386479120ae4ac13,30/01/1999,2020-07-08_16h21.52.753,proactive,2020.1.2,Win32,60,5f035e5afe130c270d6ae6dd,5f05e444a3631d0c304430cc,6,,,,,,runner,,,,,,0,23,23,2,1,1,0,,,,,,,,,,,,,,,,,,,,,,,,,,,,,,,,,,,,,,,,,,,,,,,,,,,,,,,,,,,,,,,,,,,,,,,,,,,
,,,,,,,,,,stimuli/images/PICTURE_380.png,DEATH,5ea9cfe7386479120ae4ac13,30/01/1999,2020-07-08_16h21.52.753,proactive,2020.1.2,Win32,60,5f035e5afe130c270d6ae6dd,5f05e444a3631d0c304430cc,6,,,,,,gorilla,,,,,,0,24,24,49,1,5,0,,,,,,,,,,,,,,,,,,,,,,,,,,,,,,,,,,,,,,,,,,,,,,,,,,,,,,,,,,,,,,,,,,,,,,,,,,,
,,,,,,,,,,stimuli/images/PICTURE_688.png,WOMEN,5ea9cfe7386479120ae4ac13,30/01/1999,2020-07-08_16h21.52.753,proactive,2020.1.2,Win32,60,5f035e5afe130c270d6ae6dd,5f05e444a3631d0c304430cc,6,,,,,,runner,,,,,,0,25,25,14,1,2,0,,,,,,,,,,,,,,,,,,,,,,,,,,,,,,,,,,,,,,,,,,,,,,,,,,,,,,,,,,,,,,,,,,,,,,,,,,,
,,,,,,,,,,stimuli/images/PICTURE_469.png,LETTER,5ea9cfe7386479120ae4ac13,30/01/1999,2020-07-08_16h21.52.753,proactive,2020.1.2,Win32,60,5f035e5afe130c270d6ae6dd,5f05e444a3631d0c304430cc,6,,,,,,stool,,,,,,0,26,26,42,1,5,0,,,,,,,,,,,,,,,,,,,,,,,,,,,,,,,,,,,,,,,,,,,,,,,,,,,,,,,,,,,,,,,,,,,,,,,,,,,
,,,,,,,,,,stimuli/images/PICTURE_123.png,ADVICE,5ea9cfe7386479120ae4ac13,30/01/1999,2020-07-08_16h21.52.753,proactive,2020.1.2,Win32,60,5f035e5afe130c270d6ae6dd,5f05e444a3631d0c304430cc,6,,,,,,dart,,,,,,0,27,27,50,1,6,0,,,,,,,,,,,,,,,,,,,,,,,,,,,,,,,,,,,,,,,,,,,,,,,,,,,,,,,,,,,,,,,,,,,,,,,,,,,
,,,,,,,,,,stimuli/images/PICTURE_327.png,BEAUTY,5ea9cfe7386479120ae4ac13,30/01/1999,2020-07-08_16h21.52.753,proactive,2020.1.2,Win32,60,5f035e5afe130c270d6ae6dd,5f05e444a3631d0c304430cc,6,,,,,,helmet,,,,,,0,28,28,48,1,5,0,,,,,,,,,,,,,,,,,,,,,,,,,,,,,,,,,,,,,,,,,,,,,,,,,,,,,,,,,,,,,,,,,,,,,,,,,,,
,,,,,,,,,,stimuli/images/PICTURE_160.png,LEADER,5ea9cfe7386479120ae4ac13,30/01/1999,2020-07-08_16h21.52.753,proactive,2020.1.2,Win32,60,5f035e5afe130c270d6ae6dd,5f05e444a3631d0c304430cc,6,,,,,,wheelbarrow,,,,,,0,29,29,3,1,1,0,,,,,,,,,,,,,,,,,,,,,,,,,,,,,,,,,,,,,,,,,,,,,,,,,,,,,,,,,,,,,,,,,,,,,,,,,,,
,,,,,,,,,,stimuli/images/PICTURE_123.png,ADVICE,5ea9cfe7386479120ae4ac13,30/01/1999,2020-07-08_16h21.52.753,proactive,2020.1.2,Win32,60,5f035e5afe130c270d6ae6dd,5f05e444a3631d0c304430cc,6,,,,,,dart,,,,,,0,30,30,40,1,5,0,,,,,,,,,,,,,,,,,,,,,,,,,,,,,,,,,,,,,,,,,,,,,,,,,,,,,,,,,,,,,,,,,,,,,,,,,,,
,,,,,,,,,,stimuli/images/PICTURE_203.png,ARTIST,5ea9cfe7386479120ae4ac13,30/01/1999,2020-07-08_16h21.52.753,proactive,2020.1.2,Win32,60,5f035e5afe130c270d6ae6dd,5f05e444a3631d0c304430cc,6,,,,,,cap,,,,,,0,31,31,26,1,3,0,,,,,,,,,,,,,,,,,,,,,,,,,,,,,,,,,,,,,,,,,,,,,,,,,,,,,,,,,,,,,,,,,,,,,,,,,,,
,,,,,,,,,,stimuli/images/PICTURE_491.png,WRITER,5ea9cfe7386479120ae4ac13,30/01/1999,2020-07-08_16h21.52.753,proactive,2020.1.2,Win32,60,5f035e5afe130c270d6ae6dd,5f05e444a3631d0c304430cc,6,,,,,,rug,,,,,,0,32,32,57,1,6,0,,,,,,,,,,,,,,,,,,,,,,,,,,,,,,,,,,,,,,,,,,,,,,,,,,,,,,,,,,,,,,,,,,,,,,,,,,,
,,,,,,,,,,stimuli/images/PICTURE_667.png,BATH,5ea9cfe7386479120ae4ac13,30/01/1999,2020-07-08_16h21.52.753,proactive,2020.1.2,Win32,60,5f035e5afe130c270d6ae6dd,5f05e444a3631d0c304430cc,6,,,,,,daisy,,,,,,0,33,33,4,1,1,0,,,,,,,,,,,,,,,,,,,,,,,,,,,,,,,,,,,,,,,,,,,,,,,,,,,,,,,,,,,,,,,,,,,,,,,,,,,
,,,,,,,,,,stimuli/images/PICTURE_356.png,DANGER,5ea9cfe7386479120ae4ac13,30/01/1999,2020-07-08_16h21.52.753,proactive,2020.1.2,Win32,60,5f035e5afe130c270d6ae6dd,5f05e444a3631d0c304430cc,6,,,,,,pawn,,,,,,0,34,34,55,1,6,0,,,,,,,,,,,,,,,,,,,,,,,,,,,,,,,,,,,,,,,,,,,,,,,,,,,,,,,,,,,,,,,,,,,,,,,,,,,
,,,,,,,,,,stimuli/images/PICTURE_491.png,ROOF,5ea9cfe7386479120ae4ac13,30/01/1999,2020-07-08_16h21.52.753,proactive,2020.1.2,Win32,60,5f035e5afe130c270d6ae6dd,5f05e444a3631d0c304430cc,6,,,,,,rug,,,,,,0,35,35,24,1,3,0,,,,,,,,,,,,,,,,,,,,,,,,,,,,,,,,,,,,,,,,,,,,,,,,,,,,,,,,,,,,,,,,,,,,,,,,,,,
,,,,,,,,,,stimuli/images/PICTURE_470.png,CASINO,5ea9cfe7386479120ae4ac13,30/01/1999,2020-07-08_16h21.52.753,proactive,2020.1.2,Win32,60,5f035e5afe130c270d6ae6dd,5f05e444a3631d0c304430cc,6,,,,,,motorbike,,,,,,0,36,36,36,1,4,0,,,,,,,,,,,,,,,,,,,,,,,,,,,,,,,,,,,,,,,,,,,,,,,,,,,,,,,,,,,,,,,,,,,,,,,,,,,
,,,,,,,,,,stimuli/images/PICTURE_467.png,DEMON,5ea9cfe7386479120ae4ac13,30/01/1999,2020-07-08_16h21.52.753,proactive,2020.1.2,Win32,60,5f035e5afe130c270d6ae6dd,5f05e444a3631d0c304430cc,6,,,,,,peg,,,,,,0,37,37,23,1,3,0,,,,,,,,,,,,,,,,,,,,,,,,,,,,,,,,,,,,,,,,,,,,,,,,,,,,,,,,,,,,,,,,,,,,,,,,,,,
,,,,,,,,,,stimuli/images/PICTURE_380.png,PHOTO,5ea9cfe7386479120ae4ac13,30/01/1999,2020-07-08_16h21.52.753,proactive,2020.1.2,Win32,60,5f035e5afe130c270d6ae6dd,5f05e444a3631d0c304430cc,6,,,,,,gorilla,,,,,,0,38,38,52,1,6,0,,,,,,,,,,,,,,,,,,,,,,,,,,,,,,,,,,,,,,,,,,,,,,,,,,,,,,,,,,,,,,,,,,,,,,,,,,,
,,,,,,,,,,stimuli/images/PICTURE_308.png,ESTATE,5ea9cfe7386479120ae4ac13,30/01/1999,2020-07-08_16h21.52.753,proactive,2020.1.2,Win32,60,5f035e5afe130c270d6ae6dd,5f05e444a3631d0c304430cc,6,,,,,,dice,,,,,,0,39,39,46,1,5,0,,,,,,,,,,,,,,,,,,,,,,,,,,,,,,,,,,,,,,,,,,,,,,,,,,,,,,,,,,,,,,,,,,,,,,,,,,,
,,,,,,,,,,stimuli/images/PICTURE_208.png,LOTS,5ea9cfe7386479120ae4ac13,30/01/1999,2020-07-08_16h21.52.753,proactive,2020.1.2,Win32,60,5f035e5afe130c270d6ae6dd,5f05e444a3631d0c304430cc,6,,,,,,microphone,,,,,,0,40,40,10,1,2,0,,,,,,,,,,,,,,,,,,,,,,,,,,,,,,,,,,,,,,,,,,,,,,,,,,,,,,,,,,,,,,,,,,,,,,,,,,,
,,,,,,,,,,stimuli/images/PICTURE_160.png,FEET,5ea9cfe7386479120ae4ac13,30/01/1999,2020-07-08_16h21.52.753,proactive,2020.1.2,Win32,60,5f035e5afe130c270d6ae6dd,5f05e444a3631d0c304430cc,6,,,,,,wheelbarrow,,,,,,0,41,41,58,1,6,0,,,,,,,,,,,,,,,,,,,,,,,,,,,,,,,,,,,,,,,,,,,,,,,,,,,,,,,,,,,,,,,,,,,,,,,,,,,
,,,,,,,,,,stimuli/images/PICTURE_488.png,STYLE,5ea9cfe7386479120ae4ac13,30/01/1999,2020-07-08_16h21.52.753,proactive,2020.1.2,Win32,60,5f035e5afe130c270d6ae6dd,5f05e444a3631d0c304430cc,6,,,,,,sun,,,,,,0,42,42,33,1,4,0,,,,,,,,,,,,,,,,,,,,,,,,,,,,,,,,,,,,,,,,,,,,,,,,,,,,,,,,,,,,,,,,,,,,,,,,,,,
,,,,,,,,,,stimuli/images/PICTURE_255.png,AREA,5ea9cfe7386479120ae4ac13,30/01/1999,2020-07-08_16h21.52.753,proactive,2020.1.2,Win32,60,5f035e5afe130c270d6ae6dd,5f05e444a3631d0c304430cc,6,,,,,,shovel,,,,,,0,43,43,22,1,3,0,,,,,,,,,,,,,,,,,,,,,,,,,,,,,,,,,,,,,,,,,,,,,,,,,,,,,,,,,,,,,,,,,,,,,,,,,,,
,,,,,,,,,,stimuli/images/PICTURE_654.png,VALLEY,5ea9cfe7386479120ae4ac13,30/01/1999,2020-07-08_16h21.52.753,proactive,2020.1.2,Win32,60,5f035e5afe130c270d6ae6dd,5f05e444a3631d0c304430cc,6,,,,,,pencil,,,,,,0,44,44,1,1,1,0,,,,,,,,,,,,,,,,,,,,,,,,,,,,,,,,,,,,,,,,,,,,,,,,,,,,,,,,,,,,,,,,,,,,,,,,,,,
,,,,,,,,,,stimuli/images/PICTURE_208.png,MONTH,5ea9cfe7386479120ae4ac13,30/01/1999,2020-07-08_16h21.52.753,proactive,2020.1.2,Win32,60,5f035e5afe130c270d6ae6dd,5f05e444a3631d0c304430cc,6,,,,,,microphone,,,,,,0,45,45,53,1,6,0,,,,,,,,,,,,,,,,,,,,,,,,,,,,,,,,,,,,,,,,,,,,,,,,,,,,,,,,,,,,,,,,,,,,,,,,,,,
,,,,,,,,,,stimuli/images/PICTURE_32.png,JUNGLE,5ea9cfe7386479120ae4ac13,30/01/1999,2020-07-08_16h21.52.753,proactive,2020.1.2,Win32,60,5f035e5afe130c270d6ae6dd,5f05e444a3631d0c304430cc,6,,,,,,crown,,,,,,0,46,46,45,1,5,0,,,,,,,,,,,,,,,,,,,,,,,,,,,,,,,,,,,,,,,,,,,,,,,,,,,,,,,,,,,,,,,,,,,,,,,,,,,
,,,,,,,,,,stimuli/images/PICTURE_233.png,WOMEN,5ea9cfe7386479120ae4ac13,30/01/1999,2020-07-08_16h21.52.753,proactive,2020.1.2,Win32,60,5f035e5afe130c270d6ae6dd,5f05e444a3631d0c304430cc,6,,,,,,salt,,,,,,0,47,47,38,1,4,0,,,,,,,,,,,,,,,,,,,,,,,,,,,,,,,,,,,,,,,,,,,,,,,,,,,,,,,,,,,,,,,,,,,,,,,,,,,
,,,,,,,,,,stimuli/images/PICTURE_348.png,SPEECH,5ea9cfe7386479120ae4ac13,30/01/1999,2020-07-08_16h21.52.753,proactive,2020.1.2,Win32,60,5f035e5afe130c270d6ae6dd,5f05e444a3631d0c304430cc,6,,,,,,pepper,,,,,,0,48,48,20,1,3,0,,,,,,,,,,,,,,,,,,,,,,,,,,,,,,,,,,,,,,,,,,,,,,,,,,,,,,,,,,,,,,,,,,,,,,,,,,,
,,,,,,,,,,stimuli/images/PICTURE_692.png,MONTH,5ea9cfe7386479120ae4ac13,30/01/1999,2020-07-08_16h21.52.753,proactive,2020.1.2,Win32,60,5f035e5afe130c270d6ae6dd,5f05e444a3631d0c304430cc,6,,,,,,cherry,,,,,,0,49,49,16,1,2,0,,,,,,,,,,,,,,,,,,,,,,,,,,,,,,,,,,,,,,,,,,,,,,,,,,,,,,,,,,,,,,,,,,,,,,,,,,,
,,,,,,,,,,stimuli/images/PICTURE_469.png,ARTIST,5ea9cfe7386479120ae4ac13,30/01/1999,2020-07-08_16h21.52.753,proactive,2020.1.2,Win32,60,5f035e5afe130c270d6ae6dd,5f05e444a3631d0c304430cc,6,,,,,,stool,,,,,,0,50,50,6,1,1,0,,,,,,,,,,,,,,,,,,,,,,,,,,,,,,,,,,,,,,,,,,,,,,,,,,,,,,,,,,,,,,,,,,,,,,,,,,,
,,,,,,,,,,stimuli/images/PICTURE_453.png,DUDE,5ea9cfe7386479120ae4ac13,30/01/1999,2020-07-08_16h21.52.753,proactive,2020.1.2,Win32,60,5f035e5afe130c270d6ae6dd,5f05e444a3631d0c304430cc,6,,,,,,scissors,,,,,,0,51,51,27,1,3,0,,,,,,,,,,,,,,,,,,,,,,,,,,,,,,,,,,,,,,,,,,,,,,,,,,,,,,,,,,,,,,,,,,,,,,,,,,,
,,,,,,,,,,stimuli/images/PICTURE_675.png,WEAPON,5ea9cfe7386479120ae4ac13,30/01/1999,2020-07-08_16h21.52.753,proactive,2020.1.2,Win32,60,5f035e5afe130c270d6ae6dd,5f05e444a3631d0c304430cc,6,,,,,,windmill,,,,,,0,52,52,32,1,4,0,,,,,,,,,,,,,,,,,,,,,,,,,,,,,,,,,,,,,,,,,,,,,,,,,,,,,,,,,,,,,,,,,,,,,,,,,,,
,,,,,,,,,,stimuli/images/PICTURE_708.png,CLIENT,5ea9cfe7386479120ae4ac13,30/01/1999,2020-07-08_16h21.52.753,proactive,2020.1.2,Win32,60,5f035e5afe130c270d6ae6dd,5f05e444a3631d0c304430cc,6,,,,,,monkey,,,,,,0,53,53,5,1,1,0,,,,,,,,,,,,,,,,,,,,,,,,,,,,,,,,,,,,,,,,,,,,,,,,,,,,,,,,,,,,,,,,,,,,,,,,,,,
,,,,,,,,,,stimuli/images/PICTURE_95.png,STYLE,5ea9cfe7386479120ae4ac13,30/01/1999,2020-07-08_16h21.52.753,proactive,2020.1.2,Win32,60,5f035e5afe130c270d6ae6dd,5f05e444a3631d0c304430cc,6,,,,,,suitcase,,,,,,0,54,54,25,1,3,0,,,,,,,,,,,,,,,,,,,,,,,,,,,,,,,,,,,,,,,,,,,,,,,,,,,,,,,,,,,,,,,,,,,,,,,,,,,
,,,,,,,,,,stimuli/images/PICTURE_151.png,GIRL,5ea9cfe7386479120ae4ac13,30/01/1999,2020-07-08_16h21.52.753,proactive,2020.1.2,Win32,60,5f035e5afe130c270d6ae6dd,5f05e444a3631d0c304430cc,6,,,,,,tray,,,,,,0,55,55,19,1,2,0,,,,,,,,,,,,,,,,,,,,,,,,,,,,,,,,,,,,,,,,,,,,,,,,,,,,,,,,,,,,,,,,,,,,,,,,,,,
,,,,,,,,,,stimuli/images/PICTURE_504.png,BODY,5ea9cfe7386479120ae4ac13,30/01/1999,2020-07-08_16h21.52.753,proactive,2020.1.2,Win32,60,5f035e5afe130c270d6ae6dd,5f05e444a3631d0c304430cc,6,,,,,,wheel,,,,,,0,56,56,8,1,1,0,,,,,,,,,,,,,,,,,,,,,,,,,,,,,,,,,,,,,,,,,,,,,,,,,,,,,,,,,,,,,,,,,,,,,,,,,,,
,,,,,,,,,,stimuli/images/PICTURE_308.png,KIND,5ea9cfe7386479120ae4ac13,30/01/1999,2020-07-08_16h21.52.753,proactive,2020.1.2,Win32,60,5f035e5afe130c270d6ae6dd,5f05e444a3631d0c304430cc,6,,,,,,dice,,,,,,0,57,57,54,1,6,0,,,,,,,,,,,,,,,,,,,,,,,,,,,,,,,,,,,,,,,,,,,,,,,,,,,,,,,,,,,,,,,,,,,,,,,,,,,
,,,,,,,,,,stimuli/images/PICTURE_311.png,FRIEND,5ea9cfe7386479120ae4ac13,30/01/1999,2020-07-08_16h21.52.753,proactive,2020.1.2,Win32,60,5f035e5afe130c270d6ae6dd,5f05e444a3631d0c304430cc,6,,,,,,razor,,,,,,0,58,58,34,1,4,0,,,,,,,,,,,,,,,,,,,,,,,,,,,,,,,,,,,,,,,,,,,,,,,,,,,,,,,,,,,,,,,,,,,,,,,,,,,
,,?,0.00061,0,,,,,,stimuli/images/PICTURE_467.png,DEMON,5ea9cfe7386479120ae4ac13,30/01/1999,2020-07-08_16h21.52.753,proactive,2020.1.2,Win32,60,5f035e5afe130c270d6ae6dd,5f05e444a3631d0c304430cc,6,,,,,,peg,,,,,,,,,,,3,0,0,0,0,23,1,,,,,,,,,,,,,,,,,,,,,,,,,,,,,,,,,,,,,,,,,,,,,,,,,,,,,,,,,,,,,,,,,,,,,,
,,MONTH,2.661185,1,,,,,,stimuli/images/PICTURE_208.png,MONTH,5ea9cfe7386479120ae4ac13,30/01/1999,2020-07-08_16h21.52.753,proactive,2020.1.2,Win32,60,5f035e5afe130c270d6ae6dd,5f05e444a3631d0c304430cc,6,,,,,,microphone,,,,,,,,,,,6,0,0,1,1,53,1,,,,,,,,,,,,,,,,,,,,,,,,,,,,,,,,,,,,,,,,,,,,,,,,,,,,,,,,,,,,,,,,,,,,,,
,,?,0.000625,0,,,,,,stimuli/images/PICTURE_203.png,ARTIST,5ea9cfe7386479120ae4ac13,30/01/1999,2020-07-08_16h21.52.753,proactive,2020.1.2,Win32,60,5f035e5afe130c270d6ae6dd,5f05e444a3631d0c304430cc,6,,,,,,cap,,,,,,,,,,,3,0,0,2,2,26,1,,,,,,,,,,,,,,,,,,,,,,,,,,,,,,,,,,,,,,,,,,,,,,,,,,,,,,,,,,,,,,,,,,,,,,
,,?,0.000435,0,,,,,,stimuli/images/PICTURE_667.png,BATH,5ea9cfe7386479120ae4ac13,30/01/1999,2020-07-08_16h21.52.753,proactive,2020.1.2,Win32,60,5f035e5afe130c270d6ae6dd,5f05e444a3631d0c304430cc,6,,,,,,daisy,,,,,,,,,,,1,0,0,3,3,4,1,,,,,,,,,,,,,,,,,,,,,,,,,,,,,,,,,,,,,,,,,,,,,,,,,,,,,,,,,,,,,,,,,,,,,,
,,?,0.000405,0,,,,,,stimuli/images/PICTURE_667.png,PLENTY,5ea9cfe7386479120ae4ac13,30/01/1999,2020-07-08_16h21.52.753,proactive,2020.1.2,Win32,60,5f035e5afe130c270d6ae6dd,5f05e444a3631d0c304430cc,6,,,,,,daisy,,,,,,,,,,,5,0,0,4,4,41,1,,,,,,,,,,,,,,,,,,,,,,,,,,,,,,,,,,,,,,,,,,,,,,,,,,,,,,,,,,,,,,,,,,,,,,
,,?,0.000455,0,,,,,,stimuli/images/PICTURE_215.png,PLENTY,5ea9cfe7386479120ae4ac13,30/01/1999,2020-07-08_16h21.52.753,proactive,2020.1.2,Win32,60,5f035e5afe130c270d6ae6dd,5f05e444a3631d0c304430cc,6,,,,,,boot,,,,,,,,,,,4,0,0,5,5,37,1,,,,,,,,,,,,,,,,,,,,,,,,,,,,,,,,,,,,,,,,,,,,,,,,,,,,,,,,,,,,,,,,,,,,,,
,,FEET,2.46202,1,,,,,,stimuli/images/PICTURE_160.png,FEET,5ea9cfe7386479120ae4ac13,30/01/1999,2020-07-08_16h21.52.753,proactive,2020.1.2,Win32,60,5f035e5afe130c270d6ae6dd,5f05e444a3631d0c304430cc,6,,,,,,wheelbarrow,,,,,,,,,,,6,0,0,6,6,58,1,,,,,,,,,,,,,,,,,,,,,,,,,,,,,,,,,,,,,,,,,,,,,,,,,,,,,,,,,,,,,,,,,,,,,,
,,?,0.00069,0,,,,,,stimuli/images/PICTURE_285.png,ADVICE,5ea9cfe7386479120ae4ac13,30/01/1999,2020-07-08_16h21.52.753,proactive,2020.1.2,Win32,60,5f035e5afe130c270d6ae6dd,5f05e444a3631d0c304430cc,6,,,,,,carrot,,,,,,,,,,,2,0,0,7,7,12,1,,,,,,,,,,,,,,,,,,,,,,,,,,,,,,,,,,,,,,,,,,,,,,,,,,,,,,,,,,,,,,,,,,,,,,
,,?,0.000405,0,,,,,,stimuli/images/PICTURE_32.png,JUNGLE,5ea9cfe7386479120ae4ac13,30/01/1999,2020-07-08_16h21.52.753,proactive,2020.1.2,Win32,60,5f035e5afe130c270d6ae6dd,5f05e444a3631d0c304430cc,6,,,,,,crown,,,,,,,,,,,5,0,0,8,8,45,1,,,,,,,,,,,,,,,,,,,,,,,,,,,,,,,,,,,,,,,,,,,,,,,,,,,,,,,,,,,,,,,,,,,,,,
,,?,0.000515,0,,,,,,stimuli/images/PICTURE_469.png,LETTER,5ea9cfe7386479120ae4ac13,30/01/1999,2020-07-08_16h21.52.753,proactive,2020.1.2,Win32,60,5f035e5afe130c270d6ae6dd,5f05e444a3631d0c304430cc,6,,,,,,stool,,,,,,,,,,,5,0,0,9,9,42,1,,,,,,,,,,,,,,,,,,,,,,,,,,,,,,,,,,,,,,,,,,,,,,,,,,,,,,,,,,,,,,,,,,,,,,
,,?,0.0004,0,,,,,,stimuli/images/PICTURE_151.png,GIRL,5ea9cfe7386479120ae4ac13,30/01/1999,2020-07-08_16h21.52.753,proactive,2020.1.2,Win32,60,5f035e5afe130c270d6ae6dd,5f05e444a3631d0c304430cc,6,,,,,,tray,,,,,,,,,,,2,0,0,10,10,19,1,,,,,,,,,,,,,,,,,,,,,,,,,,,,,,,,,,,,,,,,,,,,,,,,,,,,,,,,,,,,,,,,,,,,,,
,,THING,2.648635,1,,,,,,stimuli/images/PICTURE_449.png,THING,5ea9cfe7386479120ae4ac13,30/01/1999,2020-07-08_16h21.52.753,proactive,2020.1.2,Win32,60,5f035e5afe130c270d6ae6dd,5f05e444a3631d0c304430cc,6,,,,,,bench,,,,,,,,,,,6,0,0,11,11,59,1,,,,,,,,,,,,,,,,,,,,,,,,,,,,,,,,,,,,,,,,,,,,,,,,,,,,,,,,,,,,,,,,,,,,,,
,,PHOTO,5.96062,1,,,,,,stimuli/images/PICTURE_380.png,PHOTO,5ea9cfe7386479120ae4ac13,30/01/1999,2020-07-08_16h21.52.753,proactive,2020.1.2,Win32,60,5f035e5afe130c270d6ae6dd,5f05e444a3631d0c304430cc,6,,,,,,gorilla,,,,,,,,,,,6,0,0,12,12,52,1,,,,,,,,,,,,,,,,,,,,,,,,,,,,,,,,,,,,,,,,,,,,,,,,,,,,,,,,,,,,,,,,,,,,,,
,,?,0.000585,0,,,,,,stimuli/images/PICTURE_68.png,MILE,5ea9cfe7386479120ae4ac13,30/01/1999,2020-07-08_16h21.52.753,proactive,2020.1.2,Win32,60,5f035e5afe130c270d6ae6dd,5f05e444a3631d0c304430cc,6,,,,,,candle,,,,,,,,,,,5,0,0,13,13,44,1,,,,,,,,,,,,,,,,,,,,,,,,,,,,,,,,,,,,,,,,,,,,,,,,,,,,,,,,,,,,,,,,,,,,,,
,,?,0.002325,0,,,,,,stimuli/images/PICTURE_469.png,ARTIST,5ea9cfe7386479120ae4ac13,30/01/1999,2020-07-08_16h21.52.753,proactive,2020.1.2,Win32,60,5f035e5afe130c270d6ae6dd,5f05e444a3631d0c304430cc,6,,,,,,stool,,,,,,,,,,,1,0,0,14,14,6,1,,,,,,,,,,,,,,,,,,,,,,,,,,,,,,,,,,,,,,,,,,,,,,,,,,,,,,,,,,,,,,,,,,,,,,
,,?,0.000505,0,,,,,,stimuli/images/PICTURE_308.png,ESTATE,5ea9cfe7386479120ae4ac13,30/01/1999,2020-07-08_16h21.52.753,proactive,2020.1.2,Win32,60,5f035e5afe130c270d6ae6dd,5f05e444a3631d0c304430cc,6,,,,,,dice,,,,,,,,,,,5,0,0,15,15,46,1,,,,,,,,,,,,,,,,,,,,,,,,,,,,,,,,,,,,,,,,,,,,,,,,,,,,,,,,,,,,,,,,,,,,,,
,,?,0.00051,0,,,,,,stimuli/images/PICTURE_123.png,ADVICE,5ea9cfe7386479120ae4ac13,30/01/1999,2020-07-08_16h21.52.753,proactive,2020.1.2,Win32,60,5f035e5afe130c270d6ae6dd,5f05e444a3631d0c304430cc,6,,,,,,dart,,,,,,,,,,,5,0,0,16,16,40,1,,,,,,,,,,,,,,,,,,,,,,,,,,,,,,,,,,,,,,,,,,,,,,,,,,,,,,,,,,,,,,,,,,,,,,
