consent_key.keys,consent_key.rt,recalled,recalled_rt,recall_acc,example_recall.thisRepN,example_recall.thisTrialN,example_recall.thisN,example_recall.thisIndex,example_recall.ran,file,word,participant,please enter your date of birth (dd/mm/yyyy),date,expName,psychopyVersion,OS,frameRate,STUDY_ID,SESSION_ID,list,prac_learn_study_loop.thisRepN,prac_learn_study_loop.thisTrialN,prac_learn_study_loop.thisN,prac_learn_study_loop.thisIndex,prac_learn_study_loop.ran,image,prac_learn_test_loop.thisRepN,prac_learn_test_loop.thisTrialN,prac_learn_test_loop.thisN,prac_learn_test_loop.thisIndex,prac_learn_test_loop.ran,learn_study_loop.thisRepN,learn_study_loop.thisTrialN,learn_study_loop.thisN,learn_study_loop.thisIndex,learn_study_loop.ran,list_no,block_no,learn_test_loop.thisRepN,learn_test_loop.thisTrialN,learn_test_loop.thisN,learn_test_loop.thisIndex,learn_test_loop.ran,learn_blocks.thisRepN,learn_blocks.thisTrialN,learn_blocks.thisN,learn_blocks.thisIndex,learn_blocks.ran,block_csv,key_resp_13.keys,key_resp_13.rt,learn_blocks_loop.thisRepN,learn_blocks_loop.thisTrialN,learn_blocks_loop.thisN,learn_blocks_loop.thisIndex,learn_blocks_loop.ran,final_learn_test.thisRepN,final_learn_test.thisTrialN,final_learn_test.thisN,final_learn_test.thisIndex,final_learn_test.ran,prac_wm_test_loop.thisRepN,prac_wm_test_loop.thisTrialN,prac_wm_test_loop.thisN,prac_wm_test_loop.thisIndex,prac_wm_test_loop.ran,wm_recalled1,wm_recall_rt1,wm_probed1,wm_recall_acc1,wm_recalled2,wm_recall_rt2,wm_probed2,wm_recall_acc2,wm_recalled3,wm_recall_rt3,wm_probed3,wm_recall_acc3,wm_recalled4,wm_recall_rt4,wm_probed4,wm_recall_acc4,prac_wm_trial_loop.thisRepN,prac_wm_trial_loop.thisTrialN,prac_wm_trial_loop.thisN,prac_wm_trial_loop.thisIndex,prac_wm_trial_loop.ran,word1,image1,file1,item_type1,word2,image2,file2,item_type2,word4,image4,file4,item_type4,word3,image3,file3,item_type3,wm_test_loop.thisRepN,wm_test_loop.thisTrialN,wm_test_loop.thisN,wm_test_loop.thisIndex,wm_test_loop.ran,wm_trial_loop.thisRepN,wm_trial_loop.thisTrialN,wm_trial_loop.thisN,wm_trial_loop.thisIndex,wm_trial_loop.ran
y,15.266125,TOUGH,6.09005,1,0,0,0,0,1,stimuli/images/PICTURE_747.png,TOUGH,5eaaf5a813401e06eb256e9c,17/11/1944,2020-07-09_21h15.02.707,proactive,2020.1.2,Win32,60,5f073de81c76c3308c0e4fb3,5f077aa493f5f90119cb51d3,6,,,,,,,,,,,,,,,,,,,,,,,,,,,,,,,,,,,,,,,,,,,,,,,,,,,,,,,,,,,,,,,,,,,,,,,,,,,,,,,,,,,,,,,,,,,,,
,,,,,,,,,,stimuli/images/PICTURE_658.png,DEVIL,5eaaf5a813401e06eb256e9c,17/11/1944,2020-07-09_21h15.02.707,proactive,2020.1.2,Win32,60,5f073de81c76c3308c0e4fb3,5f077aa493f5f90119cb51d3,6,0,0,0,3,1,crow,,,,,,,,,,,,,,,,,,,,,,,,,,,,,,,,,,,,,,,,,,,,,,,,,,,,,,,,,,,,,,,,,,,,,,,,,,,,,,,,,,,,,,,
,,,,,,,,,,stimuli/images/PICTURE_697.png,KILLER,5eaaf5a813401e06eb256e9c,17/11/1944,2020-07-09_21h15.02.707,proactive,2020.1.2,Win32,60,5f073de81c76c3308c0e4fb3,5f077aa493f5f90119cb51d3,6,0,1,1,4,1,peach,,,,,,,,,,,,,,,,,,,,,,,,,,,,,,,,,,,,,,,,,,,,,,,,,,,,,,,,,,,,,,,,,,,,,,,,,,,,,,,,,,,,,,,
,,,,,,,,,,stimuli/images/PICTURE_727.png,CELL,5eaaf5a813401e06eb256e9c,17/11/1944,2020-07-09_21h15.02.707,proactive,2020.1.2,Win32,60,5f073de81c76c3308c0e4fb3,5f077aa493f5f90119cb51d3,6,0,2,2,1,1,hose,,,,,,,,,,,,,,,,,,,,,,,,,,,,,,,,,,,,,,,,,,,,,,,,,,,,,,,,,,,,,,,,,,,,,,,,,,,,,,,,,,,,,,,
,,,,,,,,,,stimuli/images/PICTURE_378.png,LOSS,5eaaf5a813401e06eb256e9c,17/11/1944,2020-07-09_21h15.02.707,proactive,2020.1.2,Win32,60,5f073de81c76c3308c0e4fb3,5f077aa493f5f90119cb51d3,6,0,3,3,2,1,lobster,,,,,,,,,,,,,,,,,,,,,,,,,,,,,,,,,,,,,,,,,,,,,,,,,,,,,,,,,,,,,,,,,,,,,,,,,,,,,,,,,,,,,,,
,,LOSS,14.04267,0,,,,,,stimuli/images/PICTURE_727.png,CELL,5eaaf5a813401e06eb256e9c,17/11/1944,2020-07-09_21h15.02.707,proactive,2020.1.2,Win32,60,5f073de81c76c3308c0e4fb3,5f077aa493f5f90119cb51d3,6,,,,,,hose,0,0,0,1,1,,,,,,,,,,,,,,,,,,,,,,,,,,,,,,,,,,,,,,,,,,,,,,,,,,,,,,,,,,,,,,,,,,,,,,,,,,,,,,,,,,
,,LOSS,5.593865,1,,,,,,stimuli/images/PICTURE_378.png,LOSS,5eaaf5a813401e06eb256e9c,17/11/1944,2020-07-09_21h15.02.707,proactive,2020.1.2,Win32,60,5f073de81c76c3308c0e4fb3,5f077aa493f5f90119cb51d3,6,,,,,,lobster,0,1,1,2,1,,,,,,,,,,,,,,,,,,,,,,,,,,,,,,,,,,,,,,,,,,,,,,,,,,,,,,,,,,,,,,,,,,,,,,,,,,,,,,,,,,
,,DEVIL,4.291545,1,,,,,,stimuli/images/PICTURE_658.png,DEVIL,5eaaf5a813401e06eb256e9c,17/11/1944,2020-07-09_21h15.02.707,proactive,2020.1.2,Win32,60,5f073de81c76c3308c0e4fb3,5f077aa493f5f90119cb51d3,6,,,,,,crow,0,2,2,3,1,,,,,,,,,,,,,,,,,,,,,,,,,,,,,,,,,,,,,,,,,,,,,,,,,,,,,,,,,,,,,,,,,,,,,,,,,,,,,,,,,,
,,DEATH,6.196385,0,,,,,,stimuli/images/PICTURE_697.png,KILLER,5eaaf5a813401e06eb256e9c,17/11/1944,2020-07-09_21h15.02.707,proactive,2020.1.2,Win32,60,5f073de81c76c3308c0e4fb3,5f077aa493f5f90119cb51d3,6,,,,,,peach,0,3,3,4,1,,,,,,,,,,,,,,,,,,,,,,,,,,,,,,,,,,,,,,,,,,,,,,,,,,,,,,,,,,,,,,,,,,,,,,,,,,,,,,,,,,
,,GENIOUS,8.750845,0,,,,,,stimuli/images/PICTURE_269.png,GENIUS,5eaaf5a813401e06eb256e9c,17/11/1944,2020-07-09_21h15.02.707,proactive,2020.1.2,Win32,60,5f073de81c76c3308c0e4fb3,5f077aa493f5f90119cb51d3,6,,,,,,chameleon,0,4,4,0,1,,,,,,,,,,,,,,,,,,,,,,,,,,,,,,,,,,,,,,,,,,,,,,,,,,,,,,,,,,,,,,,,,,,,,,,,,,,,,,,,,,
,,,,,,,,,,stimuli/images/PICTURE_93.png,GIRL,5eaaf5a813401e06eb256e9c,17/11/1944,2020-07-09_21h15.02.707,proactive,2020.1.2,Win32,60,5f073de81c76c3308c0e4fb3,5f077aa493f5f90119cb51d3,6,,,,,,skateboard,,,,,,0,0,0,31,1,4,2,,,,,,,,,,,,,,,,,,,,,,,,,,,,,,,,,,,,,,,,,,,,,,,,,,,,,,,,,,,,,,,,,,,,,,,,,,,
,,,,,,,,,,stimuli/images/PICTURE_348.png,TOILET,5eaaf5a813401e06eb256e9c,17/11/1944,2020-07-09_21h15.02.707,proactive,2020.1.2,Win32,60,5f073de81c76c3308c0e4fb3,5f077aa493f5f90119cb51d3,6,,,,,,pepper,,,,,,0,1,1,4,1,1,2,,,,,,,,,,,,,,,,,,,,,,,,,,,,,,,,,,,,,,,,,,,,,,,,,,,,,,,,,,,,,,,,,,,,,,,,,,,
,,,,,,,,,,stimuli/images/PICTURE_177.png,HOUSE,5eaaf5a813401e06eb256e9c,17/11/1944,2020-07-09_21h15.02.707,proactive,2020.1.2,Win32,60,5f073de81c76c3308c0e4fb3,5f077aa493f5f90119cb51d3,6,,,,,,mushroom,,,,,,0,2,2,25,1,3,2,,,,,,,,,,,,,,,,,,,,,,,,,,,,,,,,,,,,,,,,,,,,,,,,,,,,,,,,,,,,,,,,,,,,,,,,,,,
,,,,,,,,,,stimuli/images/PICTURE_285.png,WRITER,5eaaf5a813401e06eb256e9c,17/11/1944,2020-07-09_21h15.02.707,proactive,2020.1.2,Win32,60,5f073de81c76c3308c0e4fb3,5f077aa493f5f90119cb51d3,6,,,,,,carrot,,,,,,0,3,3,6,1,1,2,,,,,,,,,,,,,,,,,,,,,,,,,,,,,,,,,,,,,,,,,,,,,,,,,,,,,,,,,,,,,,,,,,,,,,,,,,,
,,,,,,,,,,stimuli/images/PICTURE_750.png,POLICY,5eaaf5a813401e06eb256e9c,17/11/1944,2020-07-09_21h15.02.707,proactive,2020.1.2,Win32,60,5f073de81c76c3308c0e4fb3,5f077aa493f5f90119cb51d3,6,,,,,,kettle,,,,,,0,4,4,44,1,5,2,,,,,,,,,,,,,,,,,,,,,,,,,,,,,,,,,,,,,,,,,,,,,,,,,,,,,,,,,,,,,,,,,,,,,,,,,,,
,,,,,,,,,,stimuli/images/PICTURE_403.png,FAMILY,5eaaf5a813401e06eb256e9c,17/11/1944,2020-07-09_21h15.02.707,proactive,2020.1.2,Win32,60,5f073de81c76c3308c0e4fb3,5f077aa493f5f90119cb51d3,6,,,,,,cathedral,,,,,,0,5,5,9,1,1,2,,,,,,,,,,,,,,,,,,,,,,,,,,,,,,,,,,,,,,,,,,,,,,,,,,,,,,,,,,,,,,,,,,,,,,,,,,,
,,,,,,,,,,stimuli/images/PICTURE_141.png,CLIENT,5eaaf5a813401e06eb256e9c,17/11/1944,2020-07-09_21h15.02.707,proactive,2020.1.2,Win32,60,5f073de81c76c3308c0e4fb3,5f077aa493f5f90119cb51d3,6,,,,,,sunflower,,,,,,0,6,6,30,1,4,2,,,,,,,,,,,,,,,,,,,,,,,,,,,,,,,,,,,,,,,,,,,,,,,,,,,,,,,,,,,,,,,,,,,,,,,,,,,
,,,,,,,,,,stimuli/images/PICTURE_57.png,CANDY,5eaaf5a813401e06eb256e9c,17/11/1944,2020-07-09_21h15.02.707,proactive,2020.1.2,Win32,60,5f073de81c76c3308c0e4fb3,5f077aa493f5f90119cb51d3,6,,,,,,stamp,,,,,,0,7,7,52,1,6,2,,,,,,,,,,,,,,,,,,,,,,,,,,,,,,,,,,,,,,,,,,,,,,,,,,,,,,,,,,,,,,,,,,,,,,,,,,,
,,,,,,,,,,stimuli/images/PICTURE_297.png,BODY,5eaaf5a813401e06eb256e9c,17/11/1944,2020-07-09_21h15.02.707,proactive,2020.1.2,Win32,60,5f073de81c76c3308c0e4fb3,5f077aa493f5f90119cb51d3,6,,,,,,aeroplane,,,,,,0,8,8,51,1,6,2,,,,,,,,,,,,,,,,,,,,,,,,,,,,,,,,,,,,,,,,,,,,,,,,,,,,,,,,,,,,,,,,,,,,,,,,,,,
,,,,,,,,,,stimuli/images/PICTURE_692.png,DUDE,5eaaf5a813401e06eb256e9c,17/11/1944,2020-07-09_21h15.02.707,proactive,2020.1.2,Win32,60,5f073de81c76c3308c0e4fb3,5f077aa493f5f90119cb51d3,6,,,,,,cherry,,,,,,0,9,9,47,1,5,2,,,,,,,,,,,,,,,,,,,,,,,,,,,,,,,,,,,,,,,,,,,,,,,,,,,,,,,,,,,,,,,,,,,,,,,,,,,
,,,,,,,,,,stimuli/images/PICTURE_405.png,JUNGLE,5eaaf5a813401e06eb256e9c,17/11/1944,2020-07-09_21h15.02.707,proactive,2020.1.2,Win32,60,5f073de81c76c3308c0e4fb3,5f077aa493f5f90119cb51d3,6,,,,,,anchor,,,,,,0,10,10,13,1,2,2,,,,,,,,,,,,,,,,,,,,,,,,,,,,,,,,,,,,,,,,,,,,,,,,,,,,,,,,,,,,,,,,,,,,,,,,,,,
,,,,,,,,,,stimuli/images/PICTURE_677.png,PHOTO,5eaaf5a813401e06eb256e9c,17/11/1944,2020-07-09_21h15.02.707,proactive,2020.1.2,Win32,60,5f073de81c76c3308c0e4fb3,5f077aa493f5f90119cb51d3,6,,,,,,map,,,,,,0,11,11,14,1,2,2,,,,,,,,,,,,,,,,,,,,,,,,,,,,,,,,,,,,,,,,,,,,,,,,,,,,,,,,,,,,,,,,,,,,,,,,,,,
,,,,,,,,,,stimuli/images/PICTURE_509.png,SHOTS,5eaaf5a813401e06eb256e9c,17/11/1944,2020-07-09_21h15.02.707,proactive,2020.1.2,Win32,60,5f073de81c76c3308c0e4fb3,5f077aa493f5f90119cb51d3,6,,,,,,telephone,,,,,,0,12,12,7,1,1,2,,,,,,,,,,,,,,,,,,,,,,,,,,,,,,,,,,,,,,,,,,,,,,,,,,,,,,,,,,,,,,,,,,,,,,,,,,,
,,,,,,,,,,stimuli/images/PICTURE_311.png,TOILET,5eaaf5a813401e06eb256e9c,17/11/1944,2020-07-09_21h15.02.707,proactive,2020.1.2,Win32,60,5f073de81c76c3308c0e4fb3,5f077aa493f5f90119cb51d3,6,,,,,,razor,,,,,,0,13,13,54,1,6,2,,,,,,,,,,,,,,,,,,,,,,,,,,,,,,,,,,,,,,,,,,,,,,,,,,,,,,,,,,,,,,,,,,,,,,,,,,,
,,,,,,,,,,stimuli/images/PICTURE_452.png,COPS,5eaaf5a813401e06eb256e9c,17/11/1944,2020-07-09_21h15.02.707,proactive,2020.1.2,Win32,60,5f073de81c76c3308c0e4fb3,5f077aa493f5f90119cb51d3,6,,,,,,watch,,,,,,0,14,14,0,1,1,2,,,,,,,,,,,,,,,,,,,,,,,,,,,,,,,,,,,,,,,,,,,,,,,,,,,,,,,,,,,,,,,,,,,,,,,,,,,
,,,,,,,,,,stimuli/images/PICTURE_667.png,GLASS,5eaaf5a813401e06eb256e9c,17/11/1944,2020-07-09_21h15.02.707,proactive,2020.1.2,Win32,60,5f073de81c76c3308c0e4fb3,5f077aa493f5f90119cb51d3,6,,,,,,daisy,,,,,,0,15,15,27,1,3,2,,,,,,,,,,,,,,,,,,,,,,,,,,,,,,,,,,,,,,,,,,,,,,,,,,,,,,,,,,,,,,,,,,,,,,,,,,,
,,,,,,,,,,stimuli/images/PICTURE_453.png,FAMILY,5eaaf5a813401e06eb256e9c,17/11/1944,2020-07-09_21h15.02.707,proactive,2020.1.2,Win32,60,5f073de81c76c3308c0e4fb3,5f077aa493f5f90119cb51d3,6,,,,,,scissors,,,,,,0,16,16,48,1,5,2,,,,,,,,,,,,,,,,,,,,,,,,,,,,,,,,,,,,,,,,,,,,,,,,,,,,,,,,,,,,,,,,,,,,,,,,,,,
,,,,,,,,,,stimuli/images/PICTURE_2.png,AREA,5eaaf5a813401e06eb256e9c,17/11/1944,2020-07-09_21h15.02.707,proactive,2020.1.2,Win32,60,5f073de81c76c3308c0e4fb3,5f077aa493f5f90119cb51d3,6,,,,,,tyre,,,,,,0,17,17,32,1,4,2,,,,,,,,,,,,,,,,,,,,,,,,,,,,,,,,,,,,,,,,,,,,,,,,,,,,,,,,,,,,,,,,,,,,,,,,,,,
,,,,,,,,,,stimuli/images/PICTURE_215.png,LEADER,5eaaf5a813401e06eb256e9c,17/11/1944,2020-07-09_21h15.02.707,proactive,2020.1.2,Win32,60,5f073de81c76c3308c0e4fb3,5f077aa493f5f90119cb51d3,6,,,,,,boot,,,,,,0,18,18,43,1,5,2,,,,,,,,,,,,,,,,,,,,,,,,,,,,,,,,,,,,,,,,,,,,,,,,,,,,,,,,,,,,,,,,,,,,,,,,,,,
,,,,,,,,,,stimuli/images/PICTURE_654.png,COPS,5eaaf5a813401e06eb256e9c,17/11/1944,2020-07-09_21h15.02.707,proactive,2020.1.2,Win32,60,5f073de81c76c3308c0e4fb3,5f077aa493f5f90119cb51d3,6,,,,,,pencil,,,,,,0,19,19,10,1,2,2,,,,,,,,,,,,,,,,,,,,,,,,,,,,,,,,,,,,,,,,,,,,,,,,,,,,,,,,,,,,,,,,,,,,,,,,,,,
,,,,,,,,,,stimuli/images/PICTURE_208.png,SPIRIT,5eaaf5a813401e06eb256e9c,17/11/1944,2020-07-09_21h15.02.707,proactive,2020.1.2,Win32,60,5f073de81c76c3308c0e4fb3,5f077aa493f5f90119cb51d3,6,,,,,,microphone,,,,,,0,20,20,28,1,3,2,,,,,,,,,,,,,,,,,,,,,,,,,,,,,,,,,,,,,,,,,,,,,,,,,,,,,,,,,,,,,,,,,,,,,,,,,,,
,,,,,,,,,,stimuli/images/PICTURE_356.png,CANDY,5eaaf5a813401e06eb256e9c,17/11/1944,2020-07-09_21h15.02.707,proactive,2020.1.2,Win32,60,5f073de81c76c3308c0e4fb3,5f077aa493f5f90119cb51d3,6,,,,,,pawn,,,,,,0,21,21,46,1,5,2,,,,,,,,,,,,,,,,,,,,,,,,,,,,,,,,,,,,,,,,,,,,,,,,,,,,,,,,,,,,,,,,,,,,,,,,,,,
,,,,,,,,,,stimuli/images/PICTURE_215.png,FOOD,5eaaf5a813401e06eb256e9c,17/11/1944,2020-07-09_21h15.02.707,proactive,2020.1.2,Win32,60,5f073de81c76c3308c0e4fb3,5f077aa493f5f90119cb51d3,6,,,,,,boot,,,,,,0,22,22,5,1,1,2,,,,,,,,,,,,,,,,,,,,,,,,,,,,,,,,,,,,,,,,,,,,,,,,,,,,,,,,,,,,,,,,,,,,,,,,,,,
,,,,,,,,,,stimuli/images/PICTURE_654.png,YEAR,5eaaf5a813401e06eb256e9c,17/11/1944,2020-07-09_21h15.02.707,proactive,2020.1.2,Win32,60,5f073de81c76c3308c0e4fb3,5f077aa493f5f90119cb51d3,6,,,,,,pencil,,,,,,0,23,23,41,1,5,2,,,,,,,,,,,,,,,,,,,,,,,,,,,,,,,,,,,,,,,,,,,,,,,,,,,,,,,,,,,,,,,,,,,,,,,,,,,
,,,,,,,,,,stimuli/images/PICTURE_487.png,ROOF,5eaaf5a813401e06eb256e9c,17/11/1944,2020-07-09_21h15.02.707,proactive,2020.1.2,Win32,60,5f073de81c76c3308c0e4fb3,5f077aa493f5f90119cb51d3,6,,,,,,basket,,,,,,0,24,24,50,1,6,2,,,,,,,,,,,,,,,,,,,,,,,,,,,,,,,,,,,,,,,,,,,,,,,,,,,,,,,,,,,,,,,,,,,,,,,,,,,
,,,,,,,,,,stimuli/images/PICTURE_677.png,FAMILY,5eaaf5a813401e06eb256e9c,17/11/1944,2020-07-09_21h15.02.707,proactive,2020.1.2,Win32,60,5f073de81c76c3308c0e4fb3,5f077aa493f5f90119cb51d3,6,,,,,,map,,,,,,0,25,25,53,1,6,2,,,,,,,,,,,,,,,,,,,,,,,,,,,,,,,,,,,,,,,,,,,,,,,,,,,,,,,,,,,,,,,,,,,,,,,,,,,
,,,,,,,,,,stimuli/images/PICTURE_509.png,MILLER,5eaaf5a813401e06eb256e9c,17/11/1944,2020-07-09_21h15.02.707,proactive,2020.1.2,Win32,60,5f073de81c76c3308c0e4fb3,5f077aa493f5f90119cb51d3,6,,,,,,telephone,,,,,,0,26,26,49,1,5,2,,,,,,,,,,,,,,,,,,,,,,,,,,,,,,,,,,,,,,,,,,,,,,,,,,,,,,,,,,,,,,,,,,,,,,,,,,,
,,,,,,,,,,stimuli/images/PICTURE_327.png,LEADER,5eaaf5a813401e06eb256e9c,17/11/1944,2020-07-09_21h15.02.707,proactive,2020.1.2,Win32,60,5f073de81c76c3308c0e4fb3,5f077aa493f5f90119cb51d3,6,,,,,,helmet,,,,,,0,27,27,17,1,2,2,,,,,,,,,,,,,,,,,,,,,,,,,,,,,,,,,,,,,,,,,,,,,,,,,,,,,,,,,,,,,,,,,,,,,,,,,,,
,,,,,,,,,,stimuli/images/PICTURE_314.png,SPEECH,5eaaf5a813401e06eb256e9c,17/11/1944,2020-07-09_21h15.02.707,proactive,2020.1.2,Win32,60,5f073de81c76c3308c0e4fb3,5f077aa493f5f90119cb51d3,6,,,,,,perfume,,,,,,0,28,28,35,1,4,2,,,,,,,,,,,,,,,,,,,,,,,,,,,,,,,,,,,,,,,,,,,,,,,,,,,,,,,,,,,,,,,,,,,,,,,,,,,
,,,,,,,,,,stimuli/images/PICTURE_57.png,NATION,5eaaf5a813401e06eb256e9c,17/11/1944,2020-07-09_21h15.02.707,proactive,2020.1.2,Win32,60,5f073de81c76c3308c0e4fb3,5f077aa493f5f90119cb51d3,6,,,,,,stamp,,,,,,0,29,29,21,1,3,2,,,,,,,,,,,,,,,,,,,,,,,,,,,,,,,,,,,,,,,,,,,,,,,,,,,,,,,,,,,,,,,,,,,,,,,,,,,
,,,,,,,,,,stimuli/images/PICTURE_504.png,HOUSE,5eaaf5a813401e06eb256e9c,17/11/1944,2020-07-09_21h15.02.707,proactive,2020.1.2,Win32,60,5f073de81c76c3308c0e4fb3,5f077aa493f5f90119cb51d3,6,,,,,,wheel,,,,,,0,30,30,36,1,4,2,,,,,,,,,,,,,,,,,,,,,,,,,,,,,,,,,,,,,,,,,,,,,,,,,,,,,,,,,,,,,,,,,,,,,,,,,,,
,,,,,,,,,,stimuli/images/PICTURE_405.png,JUNGLE,5eaaf5a813401e06eb256e9c,17/11/1944,2020-07-09_21h15.02.707,proactive,2020.1.2,Win32,60,5f073de81c76c3308c0e4fb3,5f077aa493f5f90119cb51d3,6,,,,,,anchor,,,,,,0,31,31,58,1,6,2,,,,,,,,,,,,,,,,,,,,,,,,,,,,,,,,,,,,,,,,,,,,,,,,,,,,,,,,,,,,,,,,,,,,,,,,,,,
,,,,,,,,,,stimuli/images/PICTURE_18.png,RIVER,5eaaf5a813401e06eb256e9c,17/11/1944,2020-07-09_21h15.02.707,proactive,2020.1.2,Win32,60,5f073de81c76c3308c0e4fb3,5f077aa493f5f90119cb51d3,6,,,,,,planet,,,,,,0,32,32,22,1,3,2,,,,,,,,,,,,,,,,,,,,,,,,,,,,,,,,,,,,,,,,,,,,,,,,,,,,,,,,,,,,,,,,,,,,,,,,,,,
,,,,,,,,,,stimuli/images/PICTURE_2.png,YARD,5eaaf5a813401e06eb256e9c,17/11/1944,2020-07-09_21h15.02.707,proactive,2020.1.2,Win32,60,5f073de81c76c3308c0e4fb3,5f077aa493f5f90119cb51d3,6,,,,,,tyre,,,,,,0,33,33,55,1,6,2,,,,,,,,,,,,,,,,,,,,,,,,,,,,,,,,,,,,,,,,,,,,,,,,,,,,,,,,,,,,,,,,,,,,,,,,,,,
,,,,,,,,,,stimuli/images/PICTURE_57.png,CASINO,5eaaf5a813401e06eb256e9c,17/11/1944,2020-07-09_21h15.02.707,proactive,2020.1.2,Win32,60,5f073de81c76c3308c0e4fb3,5f077aa493f5f90119cb51d3,6,,,,,,stamp,,,,,,0,34,34,12,1,2,2,,,,,,,,,,,,,,,,,,,,,,,,,,,,,,,,,,,,,,,,,,,,,,,,,,,,,,,,,,,,,,,,,,,,,,,,,,,
,,,,,,,,,,stimuli/images/PICTURE_296.png,CLOCK,5eaaf5a813401e06eb256e9c,17/11/1944,2020-07-09_21h15.02.707,proactive,2020.1.2,Win32,60,5f073de81c76c3308c0e4fb3,5f077aa493f5f90119cb51d3,6,,,,,,bolt,,,,,,0,35,35,18,1,2,2,,,,,,,,,,,,,,,,,,,,,,,,,,,,,,,,,,,,,,,,,,,,,,,,,,,,,,,,,,,,,,,,,,,,,,,,,,,
,,,,,,,,,,stimuli/images/PICTURE_708.png,VALLEY,5eaaf5a813401e06eb256e9c,17/11/1944,2020-07-09_21h15.02.707,proactive,2020.1.2,Win32,60,5f073de81c76c3308c0e4fb3,5f077aa493f5f90119cb51d3,6,,,,,,monkey,,,,,,0,36,36,45,1,5,2,,,,,,,,,,,,,,,,,,,,,,,,,,,,,,,,,,,,,,,,,,,,,,,,,,,,,,,,,,,,,,,,,,,,,,,,,,,
,,,,,,,,,,stimuli/images/PICTURE_2.png,JUNGLE,5eaaf5a813401e06eb256e9c,17/11/1944,2020-07-09_21h15.02.707,proactive,2020.1.2,Win32,60,5f073de81c76c3308c0e4fb3,5f077aa493f5f90119cb51d3,6,,,,,,tyre,,,,,,0,37,37,1,1,1,2,,,,,,,,,,,,,,,,,,,,,,,,,,,,,,,,,,,,,,,,,,,,,,,,,,,,,,,,,,,,,,,,,,,,,,,,,,,
,,,,,,,,,,stimuli/images/PICTURE_95.png,NIGHT,5eaaf5a813401e06eb256e9c,17/11/1944,2020-07-09_21h15.02.707,proactive,2020.1.2,Win32,60,5f073de81c76c3308c0e4fb3,5f077aa493f5f90119cb51d3,6,,,,,,suitcase,,,,,,0,38,38,37,1,4,2,,,,,,,,,,,,,,,,,,,,,,,,,,,,,,,,,,,,,,,,,,,,,,,,,,,,,,,,,,,,,,,,,,,,,,,,,,,
,,,,,,,,,,stimuli/images/PICTURE_564.png,PLENTY,5eaaf5a813401e06eb256e9c,17/11/1944,2020-07-09_21h15.02.707,proactive,2020.1.2,Win32,60,5f073de81c76c3308c0e4fb3,5f077aa493f5f90119cb51d3,6,,,,,,spoon,,,,,,0,39,39,11,1,2,2,,,,,,,,,,,,,,,,,,,,,,,,,,,,,,,,,,,,,,,,,,,,,,,,,,,,,,,,,,,,,,,,,,,,,,,,,,,
,,,,,,,,,,stimuli/images/PICTURE_215.png,BOYS,5eaaf5a813401e06eb256e9c,17/11/1944,2020-07-09_21h15.02.707,proactive,2020.1.2,Win32,60,5f073de81c76c3308c0e4fb3,5f077aa493f5f90119cb51d3,6,,,,,,boot,,,,,,0,40,40,24,1,3,2,,,,,,,,,,,,,,,,,,,,,,,,,,,,,,,,,,,,,,,,,,,,,,,,,,,,,,,,,,,,,,,,,,,,,,,,,,,
,,,,,,,,,,stimuli/images/PICTURE_491.png,SERIES,5eaaf5a813401e06eb256e9c,17/11/1944,2020-07-09_21h15.02.707,proactive,2020.1.2,Win32,60,5f073de81c76c3308c0e4fb3,5f077aa493f5f90119cb51d3,6,,,,,,rug,,,,,,0,41,41,39,1,4,2,,,,,,,,,,,,,,,,,,,,,,,,,,,,,,,,,,,,,,,,,,,,,,,,,,,,,,,,,,,,,,,,,,,,,,,,,,,
,,,,,,,,,,stimuli/images/PICTURE_123.png,SALE,5eaaf5a813401e06eb256e9c,17/11/1944,2020-07-09_21h15.02.707,proactive,2020.1.2,Win32,60,5f073de81c76c3308c0e4fb3,5f077aa493f5f90119cb51d3,6,,,,,,dart,,,,,,0,42,42,8,1,1,2,,,,,,,,,,,,,,,,,,,,,,,,,,,,,,,,,,,,,,,,,,,,,,,,,,,,,,,,,,,,,,,,,,,,,,,,,,,
,,,,,,,,,,stimuli/images/PICTURE_487.png,POLICY,5eaaf5a813401e06eb256e9c,17/11/1944,2020-07-09_21h15.02.707,proactive,2020.1.2,Win32,60,5f073de81c76c3308c0e4fb3,5f077aa493f5f90119cb51d3,6,,,,,,basket,,,,,,0,43,43,34,1,4,2,,,,,,,,,,,,,,,,,,,,,,,,,,,,,,,,,,,,,,,,,,,,,,,,,,,,,,,,,,,,,,,,,,,,,,,,,,,
,,,,,,,,,,stimuli/images/PICTURE_255.png,PENNY,5eaaf5a813401e06eb256e9c,17/11/1944,2020-07-09_21h15.02.707,proactive,2020.1.2,Win32,60,5f073de81c76c3308c0e4fb3,5f077aa493f5f90119cb51d3,6,,,,,,shovel,,,,,,0,44,44,19,1,2,2,,,,,,,,,,,,,,,,,,,,,,,,,,,,,,,,,,,,,,,,,,,,,,,,,,,,,,,,,,,,,,,,,,,,,,,,,,,
,,,,,,,,,,stimuli/images/PICTURE_160.png,HOTEL,5eaaf5a813401e06eb256e9c,17/11/1944,2020-07-09_21h15.02.707,proactive,2020.1.2,Win32,60,5f073de81c76c3308c0e4fb3,5f077aa493f5f90119cb51d3,6,,,,,,wheelbarrow,,,,,,0,45,45,16,1,2,2,,,,,,,,,,,,,,,,,,,,,,,,,,,,,,,,,,,,,,,,,,,,,,,,,,,,,,,,,,,,,,,,,,,,,,,,,,,
,,,,,,,,,,stimuli/images/PICTURE_32.png,LETTER,5eaaf5a813401e06eb256e9c,17/11/1944,2020-07-09_21h15.02.707,proactive,2020.1.2,Win32,60,5f073de81c76c3308c0e4fb3,5f077aa493f5f90119cb51d3,6,,,,,,crown,,,,,,0,46,46,56,1,6,2,,,,,,,,,,,,,,,,,,,,,,,,,,,,,,,,,,,,,,,,,,,,,,,,,,,,,,,,,,,,,,,,,,,,,,,,,,,
,,,,,,,,,,stimuli/images/PICTURE_68.png,KIND,5eaaf5a813401e06eb256e9c,17/11/1944,2020-07-09_21h15.02.707,proactive,2020.1.2,Win32,60,5f073de81c76c3308c0e4fb3,5f077aa493f5f90119cb51d3,6,,,,,,candle,,,,,,0,47,47,23,1,3,2,,,,,,,,,,,,,,,,,,,,,,,,,,,,,,,,,,,,,,,,,,,,,,,,,,,,,,,,,,,,,,,,,,,,,,,,,,,
,,,,,,,,,,stimuli/images/PICTURE_470.png,MOMENT,5eaaf5a813401e06eb256e9c,17/11/1944,2020-07-09_21h15.02.707,proactive,2020.1.2,Win32,60,5f073de81c76c3308c0e4fb3,5f077aa493f5f90119cb51d3,6,,,,,,motorbike,,,,,,0,48,48,40,1,5,2,,,,,,,,,,,,,,,,,,,,,,,,,,,,,,,,,,,,,,,,,,,,,,,,,,,,,,,,,,,,,,,,,,,,,,,,,,,
,,,,,,,,,,stimuli/images/PICTURE_509.png,BATH,5eaaf5a813401e06eb256e9c,17/11/1944,2020-07-09_21h15.02.707,proactive,2020.1.2,Win32,60,5f073de81c76c3308c0e4fb3,5f077aa493f5f90119cb51d3,6,,,,,,telephone,,,,,,0,49,49,15,1,2,2,,,,,,,,,,,,,,,,,,,,,,,,,,,,,,,,,,,,,,,,,,,,,,,,,,,,,,,,,,,,,,,,,,,,,,,,,,,
,,,,,,,,,,stimuli/images/PICTURE_470.png,BEAUTY,5eaaf5a813401e06eb256e9c,17/11/1944,2020-07-09_21h15.02.707,proactive,2020.1.2,Win32,60,5f073de81c76c3308c0e4fb3,5f077aa493f5f90119cb51d3,6,,,,,,motorbike,,,,,,0,50,50,26,1,3,2,,,,,,,,,,,,,,,,,,,,,,,,,,,,,,,,,,,,,,,,,,,,,,,,,,,,,,,,,,,,,,,,,,,,,,,,,,,
,,,,,,,,,,stimuli/images/PICTURE_655.png,SALE,5eaaf5a813401e06eb256e9c,17/11/1944,2020-07-09_21h15.02.707,proactive,2020.1.2,Win32,60,5f073de81c76c3308c0e4fb3,5f077aa493f5f90119cb51d3,6,,,,,,megaphone,,,,,,0,51,51,57,1,6,2,,,,,,,,,,,,,,,,,,,,,,,,,,,,,,,,,,,,,,,,,,,,,,,,,,,,,,,,,,,,,,,,,,,,,,,,,,,
,,,,,,,,,,stimuli/images/PICTURE_311.png,FLESH,5eaaf5a813401e06eb256e9c,17/11/1944,2020-07-09_21h15.02.707,proactive,2020.1.2,Win32,60,5f073de81c76c3308c0e4fb3,5f077aa493f5f90119cb51d3,6,,,,,,razor,,,,,,0,52,52,3,1,1,2,,,,,,,,,,,,,,,,,,,,,,,,,,,,,,,,,,,,,,,,,,,,,,,,,,,,,,,,,,,,,,,,,,,,,,,,,,,
,,,,,,,,,,stimuli/images/PICTURE_33.png,COPS,5eaaf5a813401e06eb256e9c,17/11/1944,2020-07-09_21h15.02.707,proactive,2020.1.2,Win32,60,5f073de81c76c3308c0e4fb3,5f077aa493f5f90119cb51d3,6,,,,,,frame,,,,,,0,53,53,29,1,3,2,,,,,,,,,,,,,,,,,,,,,,,,,,,,,,,,,,,,,,,,,,,,,,,,,,,,,,,,,,,,,,,,,,,,,,,,,,,
,,,,,,,,,,stimuli/images/PICTURE_688.png,CLOCK,5eaaf5a813401e06eb256e9c,17/11/1944,2020-07-09_21h15.02.707,proactive,2020.1.2,Win32,60,5f073de81c76c3308c0e4fb3,5f077aa493f5f90119cb51d3,6,,,,,,runner,,,,,,0,54,54,42,1,5,2,,,,,,,,,,,,,,,,,,,,,,,,,,,,,,,,,,,,,,,,,,,,,,,,,,,,,,,,,,,,,,,,,,,,,,,,,,,
,,,,,,,,,,stimuli/images/PICTURE_509.png,APPLE,5eaaf5a813401e06eb256e9c,17/11/1944,2020-07-09_21h15.02.707,proactive,2020.1.2,Win32,60,5f073de81c76c3308c0e4fb3,5f077aa493f5f90119cb51d3,6,,,,,,telephone,,,,,,0,55,55,38,1,4,2,,,,,,,,,,,,,,,,,,,,,,,,,,,,,,,,,,,,,,,,,,,,,,,,,,,,,,,,,,,,,,,,,,,,,,,,,,,
,,,,,,,,,,stimuli/images/PICTURE_405.png,HOUSE,5eaaf5a813401e06eb256e9c,17/11/1944,2020-07-09_21h15.02.707,proactive,2020.1.2,Win32,60,5f073de81c76c3308c0e4fb3,5f077aa493f5f90119cb51d3,6,,,,,,anchor,,,,,,0,56,56,2,1,1,2,,,,,,,,,,,,,,,,,,,,,,,,,,,,,,,,,,,,,,,,,,,,,,,,,,,,,,,,,,,,,,,,,,,,,,,,,,,
,,,,,,,,,,stimuli/images/PICTURE_348.png,DUDE,5eaaf5a813401e06eb256e9c,17/11/1944,2020-07-09_21h15.02.707,proactive,2020.1.2,Win32,60,5f073de81c76c3308c0e4fb3,5f077aa493f5f90119cb51d3,6,,,,,,pepper,,,,,,0,57,57,59,1,6,2,,,,,,,,,,,,,,,,,,,,,,,,,,,,,,,,,,,,,,,,,,,,,,,,,,,,,,,,,,,,,,,,,,,,,,,,,,,
,,,,,,,,,,stimuli/images/PICTURE_285.png,PRINCE,5eaaf5a813401e06eb256e9c,17/11/1944,2020-07-09_21h15.02.707,proactive,2020.1.2,Win32,60,5f073de81c76c3308c0e4fb3,5f077aa493f5f90119cb51d3,6,,,,,,carrot,,,,,,0,58,58,20,1,3,2,,,,,,,,,,,,,,,,,,,,,,,,,,,,,,,,,,,,,,,,,,,,,,,,,,,,,,,,,,,,,,,,,,,,,,,,,,,
,,?,0.00234,0,,,,,,stimuli/images/PICTURE_68.png,KIND,5eaaf5a813401e06eb256e9c,17/11/1944,2020-07-09_21h15.02.707,proactive,2020.1.2,Win32,60,5f073de81c76c3308c0e4fb3,5f077aa493f5f90119cb51d3,6,,,,,,candle,,,,,,,,,,,3,2,0,0,0,23,1,,,,,,,,,,,,,,,,,,,,,,,,,,,,,,,,,,,,,,,,,,,,,,,,,,,,,,,,,,,,,,,,,,,,,,
,,?,0.00205,0,,,,,,stimuli/images/PICTURE_327.png,LEADER,5eaaf5a813401e06eb256e9c,17/11/1944,2020-07-09_21h15.02.707,proactive,2020.1.2,Win32,60,5f073de81c76c3308c0e4fb3,5f077aa493f5f90119cb51d3,6,,,,,,helmet,,,,,,,,,,,2,2,0,1,1,17,1,,,,,,,,,,,,,,,,,,,,,,,,,,,,,,,,,,,,,,,,,,,,,,,,,,,,,,,,,,,,,,,,,,,,,,
,,?,0.001985,0,,,,,,stimuli/images/PICTURE_285.png,WRITER,5eaaf5a813401e06eb256e9c,17/11/1944,2020-07-09_21h15.02.707,proactive,2020.1.2,Win32,60,5f073de81c76c3308c0e4fb3,5f077aa493f5f90119cb51d3,6,,,,,,carrot,,,,,,,,,,,1,2,0,2,2,6,1,,,,,,,,,,,,,,,,,,,,,,,,,,,,,,,,,,,,,,,,,,,,,,,,,,,,,,,,,,,,,,,,,,,,,,
,,CANDY,4.549335,0,,,,,,stimuli/images/PICTURE_487.png,ROOF,5eaaf5a813401e06eb256e9c,17/11/1944,2020-07-09_21h15.02.707,proactive,2020.1.2,Win32,60,5f073de81c76c3308c0e4fb3,5f077aa493f5f90119cb51d3,6,,,,,,basket,,,,,,,,,,,6,2,0,3,3,50,1,,,,,,,,,,,,,,,,,,,,,,,,,,,,,,,,,,,,,,,,,,,,,,,,,,,,,,,,,,,,,,,,,,,,,,
,,?,0.00248,0,,,,,,stimuli/images/PICTURE_708.png,VALLEY,5eaaf5a813401e06eb256e9c,17/11/1944,2020-07-09_21h15.02.707,proactive,2020.1.2,Win32,60,5f073de81c76c3308c0e4fb3,5f077aa493f5f90119cb51d3,6,,,,,,monkey,,,,,,,,,,,5,2,0,4,4,45,1,,,,,,,,,,,,,,,,,,,,,,,,,,,,,,,,,,,,,,,,,,,,,,,,,,,,,,,,,,,,,,,,,,,,,,
,,?,0.001935,0,,,,,,stimuli/images/PICTURE_314.png,SPEECH,5eaaf5a813401e06eb256e9c,17/11/1944,2020-07-09_21h15.02.707,proactive,2020.1.2,Win32,60,5f073de81c76c3308c0e4fb3,5f077aa493f5f90119cb51d3,6,,,,,,perfume,,,,,,,,,,,4,2,0,5,5,35,1,,,,,,,,,,,,,,,,,,,,,,,,,,,,,,,,,,,,,,,,,,,,,,,,,,,,,,,,,,,,,,,,,,,,,,
,,?,0.002255,0,,,,,,stimuli/images/PICTURE_141.png,CLIENT,5eaaf5a813401e06eb256e9c,17/11/1944,2020-07-09_21h15.02.707,proactive,2020.1.2,Win32,60,5f073de81c76c3308c0e4fb3,5f077aa493f5f90119cb51d3,6,,,,,,sunflower,,,,,,,,,,,4,2,0,6,6,30,1,,,,,,,,,,,,,,,,,,,,,,,,,,,,,,,,,,,,,,,,,,,,,,,,,,,,,,,,,,,,,,,,,,,,,,
,,?,0.001265,0,,,,,,stimuli/images/PICTURE_509.png,APPLE,5eaaf5a813401e06eb256e9c,17/11/1944,2020-07-09_21h15.02.707,proactive,2020.1.2,Win32,60,5f073de81c76c3308c0e4fb3,5f077aa493f5f90119cb51d3,6,,,,,,telephone,,,,,,,,,,,4,2,0,7,7,38,1,,,,,,,,,,,,,,,,,,,,,,,,,,,,,,,,,,,,,,,,,,,,,,,,,,,,,,,,,,,,,,,,,,,,,,
,,CART,9.11785,0,,,,,,stimuli/images/PICTURE_2.png,YARD,5eaaf5a813401e06eb256e9c,17/11/1944,2020-07-09_21h15.02.707,proactive,2020.1.2,Win32,60,5f073de81c76c3308c0e4fb3,5f077aa493f5f90119cb51d3,6,,,,,,tyre,,,,,,,,,,,6,2,0,8,8,55,1,,,,,,,,,,,,,,,,,,,,,,,,,,,,,,,,,,,,,,,,,,,,,,,,,,,,,,,,,,,,,,,,,,,,,,
,,CITY,6.0246,0,,,,,,stimuli/images/PICTURE_677.png,FAMILY,5eaaf5a813401e06eb256e9c,17/11/1944,2020-07-09_21h15.02.707,proactive,2020.1.2,Win32,60,5f073de81c76c3308c0e4fb3,5f077aa493f5f90119cb51d3,6,,,,,,map,,,,,,,,,,,6,2,0,9,9,53,1,,,,,,,,,,,,,,,,,,,,,,,,,,,,,,,,,,,,,,,,,,,,,,,,,,,,,,,,,,,,,,,,,,,,,,
,,?,0.00206,0,,,,,,stimuli/images/PICTURE_2.png,AREA,5eaaf5a813401e06eb256e9c,17/11/1944,2020-07-09_21h15.02.707,proactive,2020.1.2,Win32,60,5f073de81c76c3308c0e4fb3,5f077aa493f5f90119cb51d3,6,,,,,,tyre,,,,,,,,,,,4,2,0,10,10,32,1,,,,,,,,,,,,,,,,,,,,,,,,,,,,,,,,,,,,,,,,,,,,,,,,,,,,,,,,,,,,,,,,,,,,,,
,,HORN,5.756035,0,,,,,,stimuli/images/PICTURE_655.png,SALE,5eaaf5a813401e06eb256e9c,17/11/1944,2020-07-09_21h15.02.707,proactive,2020.1.2,Win32,60,5f073de81c76c3308c0e4fb3,5f077aa493f5f90119cb51d3,6,,,,,,megaphone,,,,,,,,,,,6,2,0,11,11,57,1,,,,,,,,,,,,,,,,,,,,,,,,,,,,,,,,,,,,,,,,,,,,,,,,,,,,,,,,,,,,,,,,,,,,,,
,,?,0.002025,0,,,,,,stimuli/images/PICTURE_95.png,NIGHT,5eaaf5a813401e06eb256e9c,17/11/1944,2020-07-09_21h15.02.707,proactive,2020.1.2,Win32,60,5f073de81c76c3308c0e4fb3,5f077aa493f5f90119cb51d3,6,,,,,,suitcase,,,,,,,,,,,4,2,0,12,12,37,1,,,,,,,,,,,,,,,,,,,,,,,,,,,,,,,,,,,,,,,,,,,,,,,,,,,,,,,,,,,,,,,,,,,,,,
,,?,0.00185,0,,,,,,stimuli/images/PICTURE_57.png,NATION,5eaaf5a813401e06eb256e9c,17/11/1944,2020-07-09_21h15.02.707,proactive,2020.1.2,Win32,60,5f073de81c76c3308c0e4fb3,5f077aa493f5f90119cb51d3,6,,,,,,stamp,,,,,,,,,,,3,2,0,13,13,21,1,,,,,,,,,,,,,,,,,,,,,,,,,,,,,,,,,,,,,,,,,,,,,,,,,,,,,,,,,,,,,,,,,,,,,,
,,?,0.001795,0,,,,,,stimuli/images/PICTURE_509.png,BATH,5eaaf5a813401e06eb256e9c,17/11/1944,2020-07-09_21h15.02.707,proactive,2020.1.2,Win32,60,5f073de81c76c3308c0e4fb3,5f077aa493f5f90119cb51d3,6,,,,,,telephone,,,,,,,,,,,2,2,0,14,14,15,1,,,,,,,,,,,,,,,,,,,,,,,,,,,,,,,,,,,,,,,,,,,,,,,,,,,,,,,,,,,,,,,,,,,,,,
,,?,0.002895,0,,,,,,stimuli/images/PICTURE_509.png,MILLER,5eaaf5a813401e06eb256e9c,17/11/1944,2020-07-09_21h15.02.707,proactive,2020.1.2,Win32,60,5f073de81c76c3308c0e4fb3,5f077aa493f5f90119cb51d3,6,,,,,,telephone,,,,,,,,,,,5,2,0,15,15,49,1,,,,,,,,,,,,,,,,,,,,,,,,,,,,,,,,,,,,,,,,,,,,,,,,,,,,,,,,,,,,,,,,,,,,,,
,,?,0.0018,0,,,,,,stimuli/images/PICTURE_285.png,PRINCE,5eaaf5a813401e06eb256e9c,17/11/1944,2020-07-09_21h15.02.707,proactive,2020.1.2,Win32,60,5f073de81c76c3308c0e4fb3,5f077aa493f5f90119cb51d3,6,,,,,,carrot,,,,,,,,,,,3,2,0,16,16,20,1,,,,,,,,,,,,,,,,,,,,,,,,,,,,,,,,,,,,,,,,,,,,,,,,,,,,,,,,,,,,,,,,,,,,,,
,,HOUSE,13.372515,0,,,,,,stimuli/images/PICTURE_348.png,DUDE,5eaaf5a813401e06eb256e9c,17/11/1944,2020-07-09_21h15.02.707,proactive,2020.1.2,Win32,60,5f073de81c76c3308c0e4fb3,5f077aa493f5f90119cb51d3,6,,,,,,pepper,,,,,,,,,,,6,2,0,17,17,59,1,,,,,,,,,,,,,,,,,,,,,,,,,,,,,,,,,,,,,,,,,,,,,,,,,,,,,,,,,,,,,,,,,,,,,,
,,?,0.001855,0,,,,,,stimuli/images/PICTURE_692.png,DUDE,5eaaf5a813401e06eb256e9c,17/11/1944,2020-07-09_21h15.02.707,proactive,2020.1.2,Win32,60,5f073de81c76c3308c0e4fb3,5f077aa493f5f90119cb51d3,6,,,,,,cherry,,,,,,,,,,,5,2,0,18,18,47,1,,,,,,,,,,,,,,,,,,,,,,,,,,,,,,,,,,,,,,,,,,,,,,,,,,,,,,,,,,,,,,,,,,,,,,
,,?,0.00176,0,,,,,,stimuli/images/PICTURE_654.png,COPS,5eaaf5a813401e06eb256e9c,17/11/1944,2020-07-09_21h15.02.707,proactive,2020.1.2,Win32,60,5f073de81c76c3308c0e4fb3,5f077aa493f5f90119cb51d3,6,,,,,,pencil,,,,,,,,,,,2,2,0,19,19,10,1,,,,,,,,,,,,,,,,,,,,,,,,,,,,,,,,,,,,,,,,,,,,,,,,,,,,,,,,,,,,,,,,,,,,,,
,,?,0.00138,0,,,,,,stimuli/images/PICTURE_564.png,PLENTY,5eaaf5a813401e06eb256e9c,17/11/1944,2020-07-09_21h15.02.707,proactive,2020.1.2,Win32,60,5f073de81c76c3308c0e4fb3,5f077aa493f5f90119cb51d3,6,,,,,,spoon,,,,,,,,,,,2,2,0,20,20,11,1,,,,,,,,,,,,,,,,,,,,,,,,,,,,,,,,,,,,,,,,,,,,,,,,,,,,,,,,,,,,,,,,,,,,,,
,,?,0.00181,0,,,,,,stimuli/images/PICTURE_405.png,HOUSE,5eaaf5a813401e06eb256e9c,17/11/1944,2020-07-09_21h15.02.707,proactive,2020.1.2,Win32,60,5f073de81c76c3308c0e4fb3,5f077aa493f5f90119cb51d3,6,,,,,,anchor,,,,,,,,,,,1,2,0,21,21,2,1,,,,,,,,,,,,,,,,,,,,,,,,,,,,,,,,,,,,,,,,,,,,,,,,,,,,,,,,,,,,,,,,,,,,,,
,,?,0.00121,0,,,,,,stimuli/images/PICTURE_356.png,CANDY,5eaaf5a813401e06eb256e9c,17/11/1944,2020-07-09_21h15.02.707,proactive,2020.1.2,Win32,60,5f073de81c76c3308c0e4fb3,5f077aa493f5f90119cb51d3,6,,,,,,pawn,,,,,,,,,,,5,2,0,22,22,46,1,,,,,,,,,,,,,,,,,,,,,,,,,,,,,,,,,,,,,,,,,,,,,,,,,,,,,,,,,,,,,,,,,,,,,,
,,?,0.0012,0,,,,,,stimuli/images/PICTURE_688.png,CLOCK,5eaaf5a813401e06eb256e9c,17/11/1944,2020-07-09_21h15.02.707,proactive,2020.1.2,Win32,60,5f073de81c76c3308c0e4fb3,5f077aa493f5f90119cb51d3,6,,,,,,runner,,,,,,,,,,,5,2,0,23,23,42,1,,,,,,,,,,,,,,,,,,,,,,,,,,,,,,,,,,,,,,,,,,,,,,,,,,,,,,,,,,,,,,,,,,,,,,
,,?,0.00118,0,,,,,,stimuli/images/PICTURE_405.png,JUNGLE,5eaaf5a813401e06eb256e9c,17/11/1944,2020-07-09_21h15.02.707,proactive,2020.1.2,Win32,60,5f073de81c76c3308c0e4fb3,5f077aa493f5f90119cb51d3,6,,,,,,anchor,,,,,,,,,,,2,2,0,24,24,13,1,,,,,,,,,,,,,,,,,,,,,,,,,,,,,,,,,,,,,,,,,,,,,,,,,,,,,,,,,,,,,,,,,,,,,,
,,?,0.00121,0,,,,,,stimuli/images/PICTURE_160.png,HOTEL,5eaaf5a813401e06eb256e9c,17/11/1944,2020-07-09_21h15.02.707,proactive,2020.1.2,Win32,60,5f073de81c76c3308c0e4fb3,5f077aa493f5f90119cb51d3,6,,,,,,wheelbarrow,,,,,,,,,,,2,2,0,25,25,16,1,,,,,,,,,,,,,,,,,,,,,,,,,,,,,,,,,,,,,,,,,,,,,,,,,,,,,,,,,,,,,,,,,,,,,,
,,?,0.00118,0,,,,,,stimuli/images/PICTURE_452.png,COPS,5eaaf5a813401e06eb256e9c,17/11/1944,2020-07-09_21h15.02.707,proactive,2020.1.2,Win32,60,5f073de81c76c3308c0e4fb3,5f077aa493f5f90119cb51d3,6,,,,,,watch,,,,,,,,,,,1,2,0,26,26,0,1,,,,,,,,,,,,,,,,,,,,,,,,,,,,,,,,,,,,,,,,,,,,,,,,,,,,,,,,,,,,,,,,,,,,,,
,,?,0.001225,0,,,,,,stimuli/images/PICTURE_667.png,GLASS,5eaaf5a813401e06eb256e9c,17/11/1944,2020-07-09_21h15.02.707,proactive,2020.1.2,Win32,60,5f073de81c76c3308c0e4fb3,5f077aa493f5f90119cb51d3,6,,,,,,daisy,,,,,,,,,,,3,2,0,27,27,27,1,,,,,,,,,,,,,,,,,,,,,,,,,,,,,,,,,,,,,,,,,,,,,,,,,,,,,,,,,,,,,,,,,,,,,,
,,BODY,4.40698,1,,,,,,stimuli/images/PICTURE_297.png,BODY,5eaaf5a813401e06eb256e9c,17/11/1944,2020-07-09_21h15.02.707,proactive,2020.1.2,Win32,60,5f073de81c76c3308c0e4fb3,5f077aa493f5f90119cb51d3,6,,,,,,aeroplane,,,,,,,,,,,6,2,0,28,28,51,1,,,,,,,,,,,,,,,,,,,,,,,,,,,,,,,,,,,,,,,,,,,,,,,,,,,,,,,,,,,,,,,,,,,,,,
,,?,0.001795,0,,,,,,stimuli/images/PICTURE_208.png,SPIRIT,5eaaf5a813401e06eb256e9c,17/11/1944,2020-07-09_21h15.02.707,proactive,2020.1.2,Win32,60,5f073de81c76c3308c0e4fb3,5f077aa493f5f90119cb51d3,6,,,,,,microphone,,,,,,,,,,,3,2,0,29,29,28,1,,,,,,,,,,,,,,,,,,,,,,,,,,,,,,,,,,,,,,,,,,,,,,,,,,,,,,,,,,,,,,,,,,,,,,
,,?,0.004325,0,,,,,,stimuli/images/PICTURE_255.png,PENNY,5eaaf5a813401e06eb256e9c,17/11/1944,2020-07-09_21h15.02.707,proactive,2020.1.2,Win32,60,5f073de81c76c3308c0e4fb3,5f077aa493f5f90119cb51d3,6,,,,,,shovel,,,,,,,,,,,2,2,0,30,30,19,1,,,,,,,,,,,,,,,,,,,,,,,,,,,,,,,,,,,,,,,,,,,,,,,,,,,,,,,,,,,,,,,,,,,,,,
,,?,0.003245,0,,,,,,stimuli/images/PICTURE_491.png,SERIES,5eaaf5a813401e06eb256e9c,17/11/1944,2020-07-09_21h15.02.707,proactive,2020.1.2,Win32,60,5f073de81c76c3308c0e4fb3,5f077aa493f5f90119cb51d3,6,,,,,,rug,,,,,,,,,,,4,2,0,31,31,39,1,,,,,,,,,,,,,,,,,,,,,,,,,,,,,,,,,,,,,,,,,,,,,,,,,,,,,,,,,,,,,,,,,,,,,,
,,?,0.001655,0,,,,,,stimuli/images/PICTURE_18.png,RIVER,5eaaf5a813401e06eb256e9c,17/11/1944,2020-07-09_21h15.02.707,proactive,2020.1.2,Win32,60,5f073de81c76c3308c0e4fb3,5f077aa493f5f90119cb51d3,6,,,,,,planet,,,,,,,,,,,3,2,0,32,32,22,1,,,,,,,,,,,,,,,,,,,,,,,,,,,,,,,,,,,,,,,,,,,,,,,,,,,,,,,,,,,,,,,,,,,,,,
,,?,0.001585,0,,,,,,stimuli/images/PICTURE_57.png,CASINO,5eaaf5a813401e06eb256e9c,17/11/1944,2020-07-09_21h15.02.707,proactive,2020.1.2,Win32,60,5f073de81c76c3308c0e4fb3,5f077aa493f5f90119cb51d3,6,,,,,,stamp,,,,,,,,,,,2,2,0,33,33,12,1,,,,,,,,,,,,,,,,,,,,,,,,,,,,,,,,,,,,,,,,,,,,,,,,,,,,,,,,,,,,,,,,,,,,,,
,,LETTER,7.554535,0,,,,,,stimuli/images/PICTURE_57.png,CANDY,5eaaf5a813401e06eb256e9c,17/11/1944,2020-07-09_21h15.02.707,proactive,2020.1.2,Win32,60,5f073de81c76c3308c0e4fb3,5f077aa493f5f90119cb51d3,6,,,,,,stamp,,,,,,,,,,,6,2,0,34,34,52,1,,,,,,,,,,,,,,,,,,,,,,,,,,,,,,,,,,,,,,,,,,,,,,,,,,,,,,,,,,,,,,,,,,,,,,
,,?,0.002005,0,,,,,,stimuli/images/PICTURE_677.png,PHOTO,5eaaf5a813401e06eb256e9c,17/11/1944,2020-07-09_21h15.02.707,proactive,2020.1.2,Win32,60,5f073de81c76c3308c0e4fb3,5f077aa493f5f90119cb51d3,6,,,,,,map,,,,,,,,,,,2,2,0,35,35,14,1,,,,,,,,,,,,,,,,,,,,,,,,,,,,,,,,,,,,,,,,,,,,,,,,,,,,,,,,,,,,,,,,,,,,,,
,,?,0.001995,0,,,,,,stimuli/images/PICTURE_453.png,FAMILY,5eaaf5a813401e06eb256e9c,17/11/1944,2020-07-09_21h15.02.707,proactive,2020.1.2,Win32,60,5f073de81c76c3308c0e4fb3,5f077aa493f5f90119cb51d3,6,,,,,,scissors,,,,,,,,,,,5,2,0,36,36,48,1,,,,,,,,,,,,,,,,,,,,,,,,,,,,,,,,,,,,,,,,,,,,,,,,,,,,,,,,,,,,,,,,,,,,,,
,,?,0.001935,0,,,,,,stimuli/images/PICTURE_2.png,JUNGLE,5eaaf5a813401e06eb256e9c,17/11/1944,2020-07-09_21h15.02.707,proactive,2020.1.2,Win32,60,5f073de81c76c3308c0e4fb3,5f077aa493f5f90119cb51d3,6,,,,,,tyre,,,,,,,,,,,1,2,0,37,37,1,1,,,,,,,,,,,,,,,,,,,,,,,,,,,,,,,,,,,,,,,,,,,,,,,,,,,,,,,,,,,,,,,,,,,,,,
,,HOUSE,10.00629,0,,,,,,stimuli/images/PICTURE_405.png,JUNGLE,5eaaf5a813401e06eb256e9c,17/11/1944,2020-07-09_21h15.02.707,proactive,2020.1.2,Win32,60,5f073de81c76c3308c0e4fb3,5f077aa493f5f90119cb51d3,6,,,,,,anchor,,,,,,,,,,,6,2,0,38,38,58,1,,,,,,,,,,,,,,,,,,,,,,,,,,,,,,,,,,,,,,,,,,,,,,,,,,,,,,,,,,,,,,,,,,,,,,
,,?,0.001795,0,,,,,,stimuli/images/PICTURE_215.png,LEADER,5eaaf5a813401e06eb256e9c,17/11/1944,2020-07-09_21h15.02.707,proactive,2020.1.2,Win32,60,5f073de81c76c3308c0e4fb3,5f077aa493f5f90119cb51d3,6,,,,,,boot,,,,,,,,,,,5,2,0,39,39,43,1,,,,,,,,,,,,,,,,,,,,,,,,,,,,,,,,,,,,,,,,,,,,,,,,,,,,,,,,,,,,,,,,,,,,,,
,,BRUSH,7.962225,0,,,,,,stimuli/images/PICTURE_311.png,TOILET,5eaaf5a813401e06eb256e9c,17/11/1944,2020-07-09_21h15.02.707,proactive,2020.1.2,Win32,60,5f073de81c76c3308c0e4fb3,5f077aa493f5f90119cb51d3,6,,,,,,razor,,,,,,,,,,,6,2,0,40,40,54,1,,,,,,,,,,,,,,,,,,,,,,,,,,,,,,,,,,,,,,,,,,,,,,,,,,,,,,,,,,,,,,,,,,,,,,
,,?,0.00174,0,,,,,,stimuli/images/PICTURE_750.png,POLICY,5eaaf5a813401e06eb256e9c,17/11/1944,2020-07-09_21h15.02.707,proactive,2020.1.2,Win32,60,5f073de81c76c3308c0e4fb3,5f077aa493f5f90119cb51d3,6,,,,,,kettle,,,,,,,,,,,5,2,0,41,41,44,1,,,,,,,,,,,,,,,,,,,,,,,,,,,,,,,,,,,,,,,,,,,,,,,,,,,,,,,,,,,,,,,,,,,,,,
,,?,0.00153,0,,,,,,stimuli/images/PICTURE_123.png,SALE,5eaaf5a813401e06eb256e9c,17/11/1944,2020-07-09_21h15.02.707,proactive,2020.1.2,Win32,60,5f073de81c76c3308c0e4fb3,5f077aa493f5f90119cb51d3,6,,,,,,dart,,,,,,,,,,,1,2,0,42,42,8,1,,,,,,,,,,,,,,,,,,,,,,,,,,,,,,,,,,,,,,,,,,,,,,,,,,,,,,,,,,,,,,,,,,,,,,
,,?,0.00149,0,,,,,,stimuli/images/PICTURE_470.png,BEAUTY,5eaaf5a813401e06eb256e9c,17/11/1944,2020-07-09_21h15.02.707,proactive,2020.1.2,Win32,60,5f073de81c76c3308c0e4fb3,5f077aa493f5f90119cb51d3,6,,,,,,motorbike,,,,,,,,,,,3,2,0,43,43,26,1,,,,,,,,,,,,,,,,,,,,,,,,,,,,,,,,,,,,,,,,,,,,,,,,,,,,,,,,,,,,,,,,,,,,,,
,,?,0.0015,0,,,,,,stimuli/images/PICTURE_509.png,SHOTS,5eaaf5a813401e06eb256e9c,17/11/1944,2020-07-09_21h15.02.707,proactive,2020.1.2,Win32,60,5f073de81c76c3308c0e4fb3,5f077aa493f5f90119cb51d3,6,,,,,,telephone,,,,,,,,,,,1,2,0,44,44,7,1,,,,,,,,,,,,,,,,,,,,,,,,,,,,,,,,,,,,,,,,,,,,,,,,,,,,,,,,,,,,,,,,,,,,,,
,,?,0.00153,0,,,,,,stimuli/images/PICTURE_177.png,HOUSE,5eaaf5a813401e06eb256e9c,17/11/1944,2020-07-09_21h15.02.707,proactive,2020.1.2,Win32,60,5f073de81c76c3308c0e4fb3,5f077aa493f5f90119cb51d3,6,,,,,,mushroom,,,,,,,,,,,3,2,0,45,45,25,1,,,,,,,,,,,,,,,,,,,,,,,,,,,,,,,,,,,,,,,,,,,,,,,,,,,,,,,,,,,,,,,,,,,,,,
,,?,0.00152,0,,,,,,stimuli/images/PICTURE_296.png,CLOCK,5eaaf5a813401e06eb256e9c,17/11/1944,2020-07-09_21h15.02.707,proactive,2020.1.2,Win32,60,5f073de81c76c3308c0e4fb3,5f077aa493f5f90119cb51d3,6,,,,,,bolt,,,,,,,,,,,2,2,0,46,46,18,1,,,,,,,,,,,,,,,,,,,,,,,,,,,,,,,,,,,,,,,,,,,,,,,,,,,,,,,,,,,,,,,,,,,,,,
,,?,0.00149,0,,,,,,stimuli/images/PICTURE_93.png,GIRL,5eaaf5a813401e06eb256e9c,17/11/1944,2020-07-09_21h15.02.707,proactive,2020.1.2,Win32,60,5f073de81c76c3308c0e4fb3,5f077aa493f5f90119cb51d3,6,,,,,,skateboard,,,,,,,,,,,4,2,0,47,47,31,1,,,,,,,,,,,,,,,,,,,,,,,,,,,,,,,,,,,,,,,,,,,,,,,,,,,,,,,,,,,,,,,,,,,,,,
,,?,0.001465,0,,,,,,stimuli/images/PICTURE_33.png,COPS,5eaaf5a813401e06eb256e9c,17/11/1944,2020-07-09_21h15.02.707,proactive,2020.1.2,Win32,60,5f073de81c76c3308c0e4fb3,5f077aa493f5f90119cb51d3,6,,,,,,frame,,,,,,,,,,,3,2,0,48,48,29,1,,,,,,,,,,,,,,,,,,,,,,,,,,,,,,,,,,,,,,,,,,,,,,,,,,,,,,,,,,,,,,,,,,,,,,
,,?,0.0009,0,,,,,,stimuli/images/PICTURE_504.png,HOUSE,5eaaf5a813401e06eb256e9c,17/11/1944,2020-07-09_21h15.02.707,proactive,2020.1.2,Win32,60,5f073de81c76c3308c0e4fb3,5f077aa493f5f90119cb51d3,6,,,,,,wheel,,,,,,,,,,,4,2,0,49,49,36,1,,,,,,,,,,,,,,,,,,,,,,,,,,,,,,,,,,,,,,,,,,,,,,,,,,,,,,,,,,,,,,,,,,,,,,
,,?,0.000635,0,,,,,,stimuli/images/PICTURE_215.png,FOOD,5eaaf5a813401e06eb256e9c,17/11/1944,2020-07-09_21h15.02.707,proactive,2020.1.2,Win32,60,5f073de81c76c3308c0e4fb3,5f077aa493f5f90119cb51d3,6,,,,,,boot,,,,,,,,,,,1,2,0,50,50,5,1,,,,,,,,,,,,,,,,,,,,,,,,,,,,,,,,,,,,,,,,,,,,,,,,,,,,,,,,,,,,,,,,,,,,,,
,,?,0.000795,0,,,,,,stimuli/images/PICTURE_654.png,YEAR,5eaaf5a813401e06eb256e9c,17/11/1944,2020-07-09_21h15.02.707,proactive,2020.1.2,Win32,60,5f073de81c76c3308c0e4fb3,5f077aa493f5f90119cb51d3,6,,,,,,pencil,,,,,,,,,,,5,2,0,51,51,41,1,,,,,,,,,,,,,,,,,,,,,,,,,,,,,,,,,,,,,,,,,,,,,,,,,,,,,,,,,,,,,,,,,,,,,,
,,?,0.00064,0,,,,,,stimuli/images/PICTURE_147.png,LEADER,5eaaf5a813401e06eb256e9c,17/11/1944,2020-07-09_21h15.02.707,proactive,2020.1.2,Win32,60,5f073de81c76c3308c0e4fb3,5f077aa493f5f90119cb51d3,6,,,,,,hanger,,,,,,,,,,,4,2,0,52,52,33,1,,,,,,,,,,,,,,,,,,,,,,,,,,,,,,,,,,,,,,,,,,,,,,,,,,,,,,,,,,,,,,,,,,,,,,
,,?,0.00063,0,,,,,,stimuli/images/PICTURE_348.png,TOILET,5eaaf5a813401e06eb256e9c,17/11/1944,2020-07-09_21h15.02.707,proactive,2020.1.2,Win32,60,5f073de81c76c3308c0e4fb3,5f077aa493f5f90119cb51d3,6,,,,,,pepper,,,,,,,,,,,1,2,0,53,53,4,1,,,,,,,,,,,,,,,,,,,,,,,,,,,,,,,,,,,,,,,,,,,,,,,,,,,,,,,,,,,,,,,,,,,,,,
,,?,0.000605,0,,,,,,stimuli/images/PICTURE_487.png,POLICY,5eaaf5a813401e06eb256e9c,17/11/1944,2020-07-09_21h15.02.707,proactive,2020.1.2,Win32,60,5f073de81c76c3308c0e4fb3,5f077aa493f5f90119cb51d3,6,,,,,,basket,,,,,,,,,,,4,2,0,54,54,34,1,,,,,,,,,,,,,,,,,,,,,,,,,,,,,,,,,,,,,,,,,,,,,,,,,,,,,,,,,,,,,,,,,,,,,,
,,HOUSE,7.390585,0,,,,,,stimuli/images/PICTURE_32.png,LETTER,5eaaf5a813401e06eb256e9c,17/11/1944,2020-07-09_21h15.02.707,proactive,2020.1.2,Win32,60,5f073de81c76c3308c0e4fb3,5f077aa493f5f90119cb51d3,6,,,,,,crown,,,,,,,,,,,6,2,0,55,55,56,1,,,,,,,,,,,,,,,,,,,,,,,,,,,,,,,,,,,,,,,,,,,,,,,,,,,,,,,,,,,,,,,,,,,,,,
,,?,0.002195,0,,,,,,stimuli/images/PICTURE_403.png,FAMILY,5eaaf5a813401e06eb256e9c,17/11/1944,2020-07-09_21h15.02.707,proactive,2020.1.2,Win32,60,5f073de81c76c3308c0e4fb3,5f077aa493f5f90119cb51d3,6,,,,,,cathedral,,,,,,,,,,,1,2,0,56,56,9,1,,,,,,,,,,,,,,,,,,,,,,,,,,,,,,,,,,,,,,,,,,,,,,,,,,,,,,,,,,,,,,,,,,,,,,
,,?,0.000985,0,,,,,,stimuli/images/PICTURE_311.png,FLESH,5eaaf5a813401e06eb256e9c,17/11/1944,2020-07-09_21h15.02.707,proactive,2020.1.2,Win32,60,5f073de81c76c3308c0e4fb3,5f077aa493f5f90119cb51d3,6,,,,,,razor,,,,,,,,,,,1,2,0,57,57,3,1,,,,,,,,,,,,,,,,,,,,,,,,,,,,,,,,,,,,,,,,,,,,,,,,,,,,,,,,,,,,,,,,,,,,,,
,,?,0.000925,0,,,,,,stimuli/images/PICTURE_215.png,BOYS,5eaaf5a813401e06eb256e9c,17/11/1944,2020-07-09_21h15.02.707,proactive,2020.1.2,Win32,60,5f073de81c76c3308c0e4fb3,5f077aa493f5f90119cb51d3,6,,,,,,boot,,,,,,,,,,,3,2,0,58,58,24,1,,,,,,,,,,,,,,,,,,,,,,,,,,,,,,,,,,,,,,,,,,,,,,,,,,,,,,,,,,,,,,,,,,,,,,
,,?,0.00081,0,,,,,,stimuli/images/PICTURE_470.png,MOMENT,5eaaf5a813401e06eb256e9c,17/11/1944,2020-07-09_21h15.02.707,proactive,2020.1.2,Win32,60,5f073de81c76c3308c0e4fb3,5f077aa493f5f90119cb51d3,6,,,,,,motorbike,,,,,,,,,,,5,2,0,59,59,40,1,,,,,,,,,,,,,,,,,,,,,,,,,,,,,,,,,,,,,,,,,,,,,,,,,,,,,,,,,,,,,,,,,,,,,,
,,,,,,,,,,,,5eaaf5a813401e06eb256e9c,17/11/1944,2020-07-09_21h15.02.707,proactive,2020.1.2,Win32,60,5f073de81c76c3308c0e4fb3,5f077aa493f5f90119cb51d3,6,,,,,,,,,,,,,,,,,,,,,,,,0,0,0,2,1,stimuli/learn-block3.csv,,,,,,,,,,,,,,,,,,,,,,,,,,,,,,,,,,,,,,,,,,,,,,,,,,,,,,,,,,,,,,,,
,,,,,,,,,,stimuli/images/PICTURE_708.png,YARD,5eaaf5a813401e06eb256e9c,17/11/1944,2020-07-09_21h15.02.707,proactive,2020.1.2,Win32,60,5f073de81c76c3308c0e4fb3,5f077aa493f5f90119cb51d3,6,,,,,,monkey,,,,,,0,0,0,29,1,3,0,,,,,,,,,,,,,,,,,,,,,,,,,,,,,,,,,,,,,,,,,,,,,,,,,,,,,,,,,,,,,,,,,,,,,,,,,,,
,,,,,,,,,,stimuli/images/PICTURE_177.png,CARS,5eaaf5a813401e06eb256e9c,17/11/1944,2020-07-09_21h15.02.707,proactive,2020.1.2,Win32,60,5f073de81c76c3308c0e4fb3,5f077aa493f5f90119cb51d3,6,,,,,,mushroom,,,,,,0,1,1,35,1,4,0,,,,,,,,,,,,,,,,,,,,,,,,,,,,,,,,,,,,,,,,,,,,,,,,,,,,,,,,,,,,,,,,,,,,,,,,,,,
,,,,,,,,,,stimuli/images/PICTURE_744.png,SAKE,5eaaf5a813401e06eb256e9c,17/11/1944,2020-07-09_21h15.02.707,proactive,2020.1.2,Win32,60,5f073de81c76c3308c0e4fb3,5f077aa493f5f90119cb51d3,6,,,,,,ring,,,,,,0,2,2,17,1,2,0,,,,,,,,,,,,,,,,,,,,,,,,,,,,,,,,,,,,,,,,,,,,,,,,,,,,,,,,,,,,,,,,,,,,,,,,,,,
,,,,,,,,,,stimuli/images/PICTURE_667.png,BATH,5eaaf5a813401e06eb256e9c,17/11/1944,2020-07-09_21h15.02.707,proactive,2020.1.2,Win32,60,5f073de81c76c3308c0e4fb3,5f077aa493f5f90119cb51d3,6,,,,,,daisy,,,,,,0,3,3,4,1,1,0,,,,,,,,,,,,,,,,,,,,,,,,,,,,,,,,,,,,,,,,,,,,,,,,,,,,,,,,,,,,,,,,,,,,,,,,,,,
,,,,,,,,,,stimuli/images/PICTURE_215.png,PLENTY,5eaaf5a813401e06eb256e9c,17/11/1944,2020-07-09_21h15.02.707,proactive,2020.1.2,Win32,60,5f073de81c76c3308c0e4fb3,5f077aa493f5f90119cb51d3,6,,,,,,boot,,,,,,0,4,4,37,1,4,0,,,,,,,,,,,,,,,,,,,,,,,,,,,,,,,,,,,,,,,,,,,,,,,,,,,,,,,,,,,,,,,,,,,,,,,,,,,
,,,,,,,,,,stimuli/images/PICTURE_667.png,PLENTY,5eaaf5a813401e06eb256e9c,17/11/1944,2020-07-09_21h15.02.707,proactive,2020.1.2,Win32,60,5f073de81c76c3308c0e4fb3,5f077aa493f5f90119cb51d3,6,,,,,,daisy,,,,,,0,5,5,41,1,5,0,,,,,,,,,,,,,,,,,,,,,,,,,,,,,,,,,,,,,,,,,,,,,,,,,,,,,,,,,,,,,,,,,,,,,,,,,,,
,,,,,,,,,,stimuli/images/PICTURE_453.png,DUDE,5eaaf5a813401e06eb256e9c,17/11/1944,2020-07-09_21h15.02.707,proactive,2020.1.2,Win32,60,5f073de81c76c3308c0e4fb3,5f077aa493f5f90119cb51d3,6,,,,,,scissors,,,,,,0,6,6,27,1,3,0,,,,,,,,,,,,,,,,,,,,,,,,,,,,,,,,,,,,,,,,,,,,,,,,,,,,,,,,,,,,,,,,,,,,,,,,,,,
,,,,,,,,,,stimuli/images/PICTURE_453.png,PLENTY,5eaaf5a813401e06eb256e9c,17/11/1944,2020-07-09_21h15.02.707,proactive,2020.1.2,Win32,60,5f073de81c76c3308c0e4fb3,5f077aa493f5f90119cb51d3,6,,,,,,scissors,,,,,,0,7,7,56,1,6,0,,,,,,,,,,,,,,,,,,,,,,,,,,,,,,,,,,,,,,,,,,,,,,,,,,,,,,,,,,,,,,,,,,,,,,,,,,,
,,,,,,,,,,stimuli/images/PICTURE_688.png,CASINO,5eaaf5a813401e06eb256e9c,17/11/1944,2020-07-09_21h15.02.707,proactive,2020.1.2,Win32,60,5f073de81c76c3308c0e4fb3,5f077aa493f5f90119cb51d3,6,,,,,,runner,,,,,,0,8,8,2,1,1,0,,,,,,,,,,,,,,,,,,,,,,,,,,,,,,,,,,,,,,,,,,,,,,,,,,,,,,,,,,,,,,,,,,,,,,,,,,,
,,,,,,,,,,stimuli/images/PICTURE_708.png,PENNY,5eaaf5a813401e06eb256e9c,17/11/1944,2020-07-09_21h15.02.707,proactive,2020.1.2,Win32,60,5f073de81c76c3308c0e4fb3,5f077aa493f5f90119cb51d3,6,,,,,,monkey,,,,,,0,9,9,31,1,4,0,,,,,,,,,,,,,,,,,,,,,,,,,,,,,,,,,,,,,,,,,,,,,,,,,,,,,,,,,,,,,,,,,,,,,,,,,,,
,,,,,,,,,,stimuli/images/PICTURE_208.png,THING,5eaaf5a813401e06eb256e9c,17/11/1944,2020-07-09_21h15.02.707,proactive,2020.1.2,Win32,60,5f073de81c76c3308c0e4fb3,5f077aa493f5f90119cb51d3,6,,,,,,microphone,,,,,,0,10,10,47,1,5,0,,,,,,,,,,,,,,,,,,,,,,,,,,,,,,,,,,,,,,,,,,,,,,,,,,,,,,,,,,,,,,,,,,,,,,,,,,,
,,,,,,,,,,stimuli/images/PICTURE_151.png,GIRL,5eaaf5a813401e06eb256e9c,17/11/1944,2020-07-09_21h15.02.707,proactive,2020.1.2,Win32,60,5f073de81c76c3308c0e4fb3,5f077aa493f5f90119cb51d3,6,,,,,,tray,,,,,,0,11,11,19,1,2,0,,,,,,,,,,,,,,,,,,,,,,,,,,,,,,,,,,,,,,,,,,,,,,,,,,,,,,,,,,,,,,,,,,,,,,,,,,,
,,,,,,,,,,stimuli/images/PICTURE_203.png,ARTIST,5eaaf5a813401e06eb256e9c,17/11/1944,2020-07-09_21h15.02.707,proactive,2020.1.2,Win32,60,5f073de81c76c3308c0e4fb3,5f077aa493f5f90119cb51d3,6,,,,,,cap,,,,,,0,12,12,26,1,3,0,,,,,,,,,,,,,,,,,,,,,,,,,,,,,,,,,,,,,,,,,,,,,,,,,,,,,,,,,,,,,,,,,,,,,,,,,,,
,,,,,,,,,,stimuli/images/PICTURE_654.png,VALLEY,5eaaf5a813401e06eb256e9c,17/11/1944,2020-07-09_21h15.02.707,proactive,2020.1.2,Win32,60,5f073de81c76c3308c0e4fb3,5f077aa493f5f90119cb51d3,6,,,,,,pencil,,,,,,0,13,13,1,1,1,0,,,,,,,,,,,,,,,,,,,,,,,,,,,,,,,,,,,,,,,,,,,,,,,,,,,,,,,,,,,,,,,,,,,,,,,,,,,
,,,,,,,,,,stimuli/images/PICTURE_248.png,DOZEN,5eaaf5a813401e06eb256e9c,17/11/1944,2020-07-09_21h15.02.707,proactive,2020.1.2,Win32,60,5f073de81c76c3308c0e4fb3,5f077aa493f5f90119cb51d3,6,,,,,,cart,,,,,,0,14,14,39,1,4,0,,,,,,,,,,,,,,,,,,,,,,,,,,,,,,,,,,,,,,,,,,,,,,,,,,,,,,,,,,,,,,,,,,,,,,,,,,,
,,,,,,,,,,stimuli/images/PICTURE_160.png,LEADER,5eaaf5a813401e06eb256e9c,17/11/1944,2020-07-09_21h15.02.707,proactive,2020.1.2,Win32,60,5f073de81c76c3308c0e4fb3,5f077aa493f5f90119cb51d3,6,,,,,,wheelbarrow,,,,,,0,15,15,3,1,1,0,,,,,,,,,,,,,,,,,,,,,,,,,,,,,,,,,,,,,,,,,,,,,,,,,,,,,,,,,,,,,,,,,,,,,,,,,,,
,,,,,,,,,,stimuli/images/PICTURE_308.png,KIND,5eaaf5a813401e06eb256e9c,17/11/1944,2020-07-09_21h15.02.707,proactive,2020.1.2,Win32,60,5f073de81c76c3308c0e4fb3,5f077aa493f5f90119cb51d3,6,,,,,,dice,,,,,,0,16,16,54,1,6,0,,,,,,,,,,,,,,,,,,,,,,,,,,,,,,,,,,,,,,,,,,,,,,,,,,,,,,,,,,,,,,,,,,,,,,,,,,,
,,,,,,,,,,stimuli/images/PICTURE_233.png,WOMEN,5eaaf5a813401e06eb256e9c,17/11/1944,2020-07-09_21h15.02.707,proactive,2020.1.2,Win32,60,5f073de81c76c3308c0e4fb3,5f077aa493f5f90119cb51d3,6,,,,,,salt,,,,,,0,17,17,38,1,4,0,,,,,,,,,,,,,,,,,,,,,,,,,,,,,,,,,,,,,,,,,,,,,,,,,,,,,,,,,,,,,,,,,,,,,,,,,,,
,,,,,,,,,,stimuli/images/PICTURE_688.png,WOMEN,5eaaf5a813401e06eb256e9c,17/11/1944,2020-07-09_21h15.02.707,proactive,2020.1.2,Win32,60,5f073de81c76c3308c0e4fb3,5f077aa493f5f90119cb51d3,6,,,,,,runner,,,,,,0,18,18,14,1,2,0,,,,,,,,,,,,,,,,,,,,,,,,,,,,,,,,,,,,,,,,,,,,,,,,,,,,,,,,,,,,,,,,,,,,,,,,,,,
,,,,,,,,,,stimuli/images/PICTURE_327.png,BEAUTY,5eaaf5a813401e06eb256e9c,17/11/1944,2020-07-09_21h15.02.707,proactive,2020.1.2,Win32,60,5f073de81c76c3308c0e4fb3,5f077aa493f5f90119cb51d3,6,,,,,,helmet,,,,,,0,19,19,48,1,5,0,,,,,,,,,,,,,,,,,,,,,,,,,,,,,,,,,,,,,,,,,,,,,,,,,,,,,,,,,,,,,,,,,,,,,,,,,,,
,,,,,,,,,,stimuli/images/PICTURE_744.png,SYSTEM,5eaaf5a813401e06eb256e9c,17/11/1944,2020-07-09_21h15.02.707,proactive,2020.1.2,Win32,60,5f073de81c76c3308c0e4fb3,5f077aa493f5f90119cb51d3,6,,,,,,ring,,,,,,0,20,20,43,1,5,0,,,,,,,,,,,,,,,,,,,,,,,,,,,,,,,,,,,,,,,,,,,,,,,,,,,,,,,,,,,,,,,,,,,,,,,,,,,
,,,,,,,,,,stimuli/images/PICTURE_467.png,DEMON,5eaaf5a813401e06eb256e9c,17/11/1944,2020-07-09_21h15.02.707,proactive,2020.1.2,Win32,60,5f073de81c76c3308c0e4fb3,5f077aa493f5f90119cb51d3,6,,,,,,peg,,,,,,0,21,21,23,1,3,0,,,,,,,,,,,,,,,,,,,,,,,,,,,,,,,,,,,,,,,,,,,,,,,,,,,,,,,,,,,,,,,,,,,,,,,,,,,
,,,,,,,,,,stimuli/images/PICTURE_160.png,FEET,5eaaf5a813401e06eb256e9c,17/11/1944,2020-07-09_21h15.02.707,proactive,2020.1.2,Win32,60,5f073de81c76c3308c0e4fb3,5f077aa493f5f90119cb51d3,6,,,,,,wheelbarrow,,,,,,0,22,22,58,1,6,0,,,,,,,,,,,,,,,,,,,,,,,,,,,,,,,,,,,,,,,,,,,,,,,,,,,,,,,,,,,,,,,,,,,,,,,,,,,
,,,,,,,,,,stimuli/images/PICTURE_504.png,BODY,5eaaf5a813401e06eb256e9c,17/11/1944,2020-07-09_21h15.02.707,proactive,2020.1.2,Win32,60,5f073de81c76c3308c0e4fb3,5f077aa493f5f90119cb51d3,6,,,,,,wheel,,,,,,0,23,23,8,1,1,0,,,,,,,,,,,,,,,,,,,,,,,,,,,,,,,,,,,,,,,,,,,,,,,,,,,,,,,,,,,,,,,,,,,,,,,,,,,
,,,,,,,,,,stimuli/images/PICTURE_708.png,CLIENT,5eaaf5a813401e06eb256e9c,17/11/1944,2020-07-09_21h15.02.707,proactive,2020.1.2,Win32,60,5f073de81c76c3308c0e4fb3,5f077aa493f5f90119cb51d3,6,,,,,,monkey,,,,,,0,24,24,5,1,1,0,,,,,,,,,,,,,,,,,,,,,,,,,,,,,,,,,,,,,,,,,,,,,,,,,,,,,,,,,,,,,,,,,,,,,,,,,,,
,,,,,,,,,,stimuli/images/PICTURE_469.png,LETTER,5eaaf5a813401e06eb256e9c,17/11/1944,2020-07-09_21h15.02.707,proactive,2020.1.2,Win32,60,5f073de81c76c3308c0e4fb3,5f077aa493f5f90119cb51d3,6,,,,,,stool,,,,,,0,25,25,42,1,5,0,,,,,,,,,,,,,,,,,,,,,,,,,,,,,,,,,,,,,,,,,,,,,,,,,,,,,,,,,,,,,,,,,,,,,,,,,,,
,,,,,,,,,,stimuli/images/PICTURE_491.png,ROOF,5eaaf5a813401e06eb256e9c,17/11/1944,2020-07-09_21h15.02.707,proactive,2020.1.2,Win32,60,5f073de81c76c3308c0e4fb3,5f077aa493f5f90119cb51d3,6,,,,,,rug,,,,,,0,26,26,24,1,3,0,,,,,,,,,,,,,,,,,,,,,,,,,,,,,,,,,,,,,,,,,,,,,,,,,,,,,,,,,,,,,,,,,,,,,,,,,,,
,,,,,,,,,,stimuli/images/PICTURE_488.png,STYLE,5eaaf5a813401e06eb256e9c,17/11/1944,2020-07-09_21h15.02.707,proactive,2020.1.2,Win32,60,5f073de81c76c3308c0e4fb3,5f077aa493f5f90119cb51d3,6,,,,,,sun,,,,,,0,27,27,33,1,4,0,,,,,,,,,,,,,,,,,,,,,,,,,,,,,,,,,,,,,,,,,,,,,,,,,,,,,,,,,,,,,,,,,,,,,,,,,,,
,,,,,,,,,,stimuli/images/PICTURE_85.png,THING,5eaaf5a813401e06eb256e9c,17/11/1944,2020-07-09_21h15.02.707,proactive,2020.1.2,Win32,60,5f073de81c76c3308c0e4fb3,5f077aa493f5f90119cb51d3,6,,,,,,diamond,,,,,,0,28,28,15,1,2,0,,,,,,,,,,,,,,,,,,,,,,,,,,,,,,,,,,,,,,,,,,,,,,,,,,,,,,,,,,,,,,,,,,,,,,,,,,,
,,,,,,,,,,stimuli/images/PICTURE_314.png,GODS,5eaaf5a813401e06eb256e9c,17/11/1944,2020-07-09_21h15.02.707,proactive,2020.1.2,Win32,60,5f073de81c76c3308c0e4fb3,5f077aa493f5f90119cb51d3,6,,,,,,perfume,,,,,,0,29,29,11,1,2,0,,,,,,,,,,,,,,,,,,,,,,,,,,,,,,,,,,,,,,,,,,,,,,,,,,,,,,,,,,,,,,,,,,,,,,,,,,,
,,,,,,,,,,stimuli/images/PICTURE_147.png,MOMENT,5eaaf5a813401e06eb256e9c,17/11/1944,2020-07-09_21h15.02.707,proactive,2020.1.2,Win32,60,5f073de81c76c3308c0e4fb3,5f077aa493f5f90119cb51d3,6,,,,,,hanger,,,,,,0,30,30,51,1,6,0,,,,,,,,,,,,,,,,,,,,,,,,,,,,,,,,,,,,,,,,,,,,,,,,,,,,,,,,,,,,,,,,,,,,,,,,,,,
,,,,,,,,,,stimuli/images/PICTURE_348.png,SPEECH,5eaaf5a813401e06eb256e9c,17/11/1944,2020-07-09_21h15.02.707,proactive,2020.1.2,Win32,60,5f073de81c76c3308c0e4fb3,5f077aa493f5f90119cb51d3,6,,,,,,pepper,,,,,,0,31,31,20,1,3,0,,,,,,,,,,,,,,,,,,,,,,,,,,,,,,,,,,,,,,,,,,,,,,,,,,,,,,,,,,,,,,,,,,,,,,,,,,,
,,,,,,,,,,stimuli/images/PICTURE_255.png,AREA,5eaaf5a813401e06eb256e9c,17/11/1944,2020-07-09_21h15.02.707,proactive,2020.1.2,Win32,60,5f073de81c76c3308c0e4fb3,5f077aa493f5f90119cb51d3,6,,,,,,shovel,,,,,,0,32,32,22,1,3,0,,,,,,,,,,,,,,,,,,,,,,,,,,,,,,,,,,,,,,,,,,,,,,,,,,,,,,,,,,,,,,,,,,,,,,,,,,,
,,,,,,,,,,stimuli/images/PICTURE_123.png,ADVICE,5eaaf5a813401e06eb256e9c,17/11/1944,2020-07-09_21h15.02.707,proactive,2020.1.2,Win32,60,5f073de81c76c3308c0e4fb3,5f077aa493f5f90119cb51d3,6,,,,,,dart,,,,,,0,33,33,50,1,6,0,,,,,,,,,,,,,,,,,,,,,,,,,,,,,,,,,,,,,,,,,,,,,,,,,,,,,,,,,,,,,,,,,,,,,,,,,,,
,,,,,,,,,,stimuli/images/PICTURE_311.png,FRIEND,5eaaf5a813401e06eb256e9c,17/11/1944,2020-07-09_21h15.02.707,proactive,2020.1.2,Win32,60,5f073de81c76c3308c0e4fb3,5f077aa493f5f90119cb51d3,6,,,,,,razor,,,,,,0,34,34,34,1,4,0,,,,,,,,,,,,,,,,,,,,,,,,,,,,,,,,,,,,,,,,,,,,,,,,,,,,,,,,,,,,,,,,,,,,,,,,,,,
,,,,,,,,,,stimuli/images/PICTURE_491.png,WRITER,5eaaf5a813401e06eb256e9c,17/11/1944,2020-07-09_21h15.02.707,proactive,2020.1.2,Win32,60,5f073de81c76c3308c0e4fb3,5f077aa493f5f90119cb51d3,6,,,,,,rug,,,,,,0,35,35,57,1,6,0,,,,,,,,,,,,,,,,,,,,,,,,,,,,,,,,,,,,,,,,,,,,,,,,,,,,,,,,,,,,,,,,,,,,,,,,,,,
,,,,,,,,,,stimuli/images/PICTURE_692.png,MONTH,5eaaf5a813401e06eb256e9c,17/11/1944,2020-07-09_21h15.02.707,proactive,2020.1.2,Win32,60,5f073de81c76c3308c0e4fb3,5f077aa493f5f90119cb51d3,6,,,,,,cherry,,,,,,0,36,36,16,1,2,0,,,,,,,,,,,,,,,,,,,,,,,,,,,,,,,,,,,,,,,,,,,,,,,,,,,,,,,,,,,,,,,,,,,,,,,,,,,
,,,,,,,,,,stimuli/images/PICTURE_314.png,SAKE,5eaaf5a813401e06eb256e9c,17/11/1944,2020-07-09_21h15.02.707,proactive,2020.1.2,Win32,60,5f073de81c76c3308c0e4fb3,5f077aa493f5f90119cb51d3,6,,,,,,perfume,,,,,,0,37,37,7,1,1,0,,,,,,,,,,,,,,,,,,,,,,,,,,,,,,,,,,,,,,,,,,,,,,,,,,,,,,,,,,,,,,,,,,,,,,,,,,,
,,,,,,,,,,stimuli/images/PICTURE_380.png,DEATH,5eaaf5a813401e06eb256e9c,17/11/1944,2020-07-09_21h15.02.707,proactive,2020.1.2,Win32,60,5f073de81c76c3308c0e4fb3,5f077aa493f5f90119cb51d3,6,,,,,,gorilla,,,,,,0,38,38,49,1,5,0,,,,,,,,,,,,,,,,,,,,,,,,,,,,,,,,,,,,,,,,,,,,,,,,,,,,,,,,,,,,,,,,,,,,,,,,,,,
,,,,,,,,,,stimuli/images/PICTURE_487.png,FLIGHT,5eaaf5a813401e06eb256e9c,17/11/1944,2020-07-09_21h15.02.707,proactive,2020.1.2,Win32,60,5f073de81c76c3308c0e4fb3,5f077aa493f5f90119cb51d3,6,,,,,,basket,,,,,,0,39,39,9,1,1,0,,,,,,,,,,,,,,,,,,,,,,,,,,,,,,,,,,,,,,,,,,,,,,,,,,,,,,,,,,,,,,,,,,,,,,,,,,,
,,,,,,,,,,stimuli/images/PICTURE_95.png,STYLE,5eaaf5a813401e06eb256e9c,17/11/1944,2020-07-09_21h15.02.707,proactive,2020.1.2,Win32,60,5f073de81c76c3308c0e4fb3,5f077aa493f5f90119cb51d3,6,,,,,,suitcase,,,,,,0,40,40,25,1,3,0,,,,,,,,,,,,,,,,,,,,,,,,,,,,,,,,,,,,,,,,,,,,,,,,,,,,,,,,,,,,,,,,,,,,,,,,,,,
,,,,,,,,,,stimuli/images/PICTURE_509.png,PHOTO,5eaaf5a813401e06eb256e9c,17/11/1944,2020-07-09_21h15.02.707,proactive,2020.1.2,Win32,60,5f073de81c76c3308c0e4fb3,5f077aa493f5f90119cb51d3,6,,,,,,telephone,,,,,,0,41,41,21,1,3,0,,,,,,,,,,,,,,,,,,,,,,,,,,,,,,,,,,,,,,,,,,,,,,,,,,,,,,,,,,,,,,,,,,,,,,,,,,,
,,,,,,,,,,stimuli/images/PICTURE_302.png,FAMILY,5eaaf5a813401e06eb256e9c,17/11/1944,2020-07-09_21h15.02.707,proactive,2020.1.2,Win32,60,5f073de81c76c3308c0e4fb3,5f077aa493f5f90119cb51d3,6,,,,,,taxi,,,,,,0,42,42,18,1,2,0,,,,,,,,,,,,,,,,,,,,,,,,,,,,,,,,,,,,,,,,,,,,,,,,,,,,,,,,,,,,,,,,,,,,,,,,,,,
,,,,,,,,,,stimuli/images/PICTURE_469.png,ARTIST,5eaaf5a813401e06eb256e9c,17/11/1944,2020-07-09_21h15.02.707,proactive,2020.1.2,Win32,60,5f073de81c76c3308c0e4fb3,5f077aa493f5f90119cb51d3,6,,,,,,stool,,,,,,0,43,43,6,1,1,0,,,,,,,,,,,,,,,,,,,,,,,,,,,,,,,,,,,,,,,,,,,,,,,,,,,,,,,,,,,,,,,,,,,,,,,,,,,
,,,,,,,,,,stimuli/images/PICTURE_308.png,ESTATE,5eaaf5a813401e06eb256e9c,17/11/1944,2020-07-09_21h15.02.707,proactive,2020.1.2,Win32,60,5f073de81c76c3308c0e4fb3,5f077aa493f5f90119cb51d3,6,,,,,,dice,,,,,,0,44,44,46,1,5,0,,,,,,,,,,,,,,,,,,,,,,,,,,,,,,,,,,,,,,,,,,,,,,,,,,,,,,,,,,,,,,,,,,,,,,,,,,,
,,,,,,,,,,stimuli/images/PICTURE_470.png,CASINO,5eaaf5a813401e06eb256e9c,17/11/1944,2020-07-09_21h15.02.707,proactive,2020.1.2,Win32,60,5f073de81c76c3308c0e4fb3,5f077aa493f5f90119cb51d3,6,,,,,,motorbike,,,,,,0,45,45,36,1,4,0,,,,,,,,,,,,,,,,,,,,,,,,,,,,,,,,,,,,,,,,,,,,,,,,,,,,,,,,,,,,,,,,,,,,,,,,,,,
,,,,,,,,,,stimuli/images/PICTURE_339.png,PLENTY,5eaaf5a813401e06eb256e9c,17/11/1944,2020-07-09_21h15.02.707,proactive,2020.1.2,Win32,60,5f073de81c76c3308c0e4fb3,5f077aa493f5f90119cb51d3,6,,,,,,backpack,,,,,,0,46,46,0,1,1,0,,,,,,,,,,,,,,,,,,,,,,,,,,,,,,,,,,,,,,,,,,,,,,,,,,,,,,,,,,,,,,,,,,,,,,,,,,,
,,,,,,,,,,stimuli/images/PICTURE_380.png,PHOTO,5eaaf5a813401e06eb256e9c,17/11/1944,2020-07-09_21h15.02.707,proactive,2020.1.2,Win32,60,5f073de81c76c3308c0e4fb3,5f077aa493f5f90119cb51d3,6,,,,,,gorilla,,,,,,0,47,47,52,1,6,0,,,,,,,,,,,,,,,,,,,,,,,,,,,,,,,,,,,,,,,,,,,,,,,,,,,,,,,,,,,,,,,,,,,,,,,,,,,
,,,,,,,,,,stimuli/images/PICTURE_449.png,THING,5eaaf5a813401e06eb256e9c,17/11/1944,2020-07-09_21h15.02.707,proactive,2020.1.2,Win32,60,5f073de81c76c3308c0e4fb3,5f077aa493f5f90119cb51d3,6,,,,,,bench,,,,,,0,48,48,59,1,6,0,,,,,,,,,,,,,,,,,,,,,,,,,,,,,,,,,,,,,,,,,,,,,,,,,,,,,,,,,,,,,,,,,,,,,,,,,,,
,,,,,,,,,,stimuli/images/PICTURE_68.png,MILE,5eaaf5a813401e06eb256e9c,17/11/1944,2020-07-09_21h15.02.707,proactive,2020.1.2,Win32,60,5f073de81c76c3308c0e4fb3,5f077aa493f5f90119cb51d3,6,,,,,,candle,,,,,,0,49,49,44,1,5,0,,,,,,,,,,,,,,,,,,,,,,,,,,,,,,,,,,,,,,,,,,,,,,,,,,,,,,,,,,,,,,,,,,,,,,,,,,,
,,,,,,,,,,stimuli/images/PICTURE_123.png,ADVICE,5eaaf5a813401e06eb256e9c,17/11/1944,2020-07-09_21h15.02.707,proactive,2020.1.2,Win32,60,5f073de81c76c3308c0e4fb3,5f077aa493f5f90119cb51d3,6,,,,,,dart,,,,,,0,50,50,40,1,5,0,,,,,,,,,,,,,,,,,,,,,,,,,,,,,,,,,,,,,,,,,,,,,,,,,,,,,,,,,,,,,,,,,,,,,,,,,,,
,,,,,,,,,,stimuli/images/PICTURE_356.png,DANGER,5eaaf5a813401e06eb256e9c,17/11/1944,2020-07-09_21h15.02.707,proactive,2020.1.2,Win32,60,5f073de81c76c3308c0e4fb3,5f077aa493f5f90119cb51d3,6,,,,,,pawn,,,,,,0,51,51,55,1,6,0,,,,,,,,,,,,,,,,,,,,,,,,,,,,,,,,,,,,,,,,,,,,,,,,,,,,,,,,,,,,,,,,,,,,,,,,,,,
,,,,,,,,,,stimuli/images/PICTURE_285.png,ADVICE,5eaaf5a813401e06eb256e9c,17/11/1944,2020-07-09_21h15.02.707,proactive,2020.1.2,Win32,60,5f073de81c76c3308c0e4fb3,5f077aa493f5f90119cb51d3,6,,,,,,carrot,,,,,,0,52,52,12,1,2,0,,,,,,,,,,,,,,,,,,,,,,,,,,,,,,,,,,,,,,,,,,,,,,,,,,,,,,,,,,,,,,,,,,,,,,,,,,,
,,,,,,,,,,stimuli/images/PICTURE_311.png,BEAUTY,5eaaf5a813401e06eb256e9c,17/11/1944,2020-07-09_21h15.02.707,proactive,2020.1.2,Win32,60,5f073de81c76c3308c0e4fb3,5f077aa493f5f90119cb51d3,6,,,,,,razor,,,,,,0,53,53,13,1,2,0,,,,,,,,,,,,,,,,,,,,,,,,,,,,,,,,,,,,,,,,,,,,,,,,,,,,,,,,,,,,,,,,,,,,,,,,,,,
,,,,,,,,,,stimuli/images/PICTURE_677.png,MILE,5eaaf5a813401e06eb256e9c,17/11/1944,2020-07-09_21h15.02.707,proactive,2020.1.2,Win32,60,5f073de81c76c3308c0e4fb3,5f077aa493f5f90119cb51d3,6,,,,,,map,,,,,,0,54,54,30,1,4,0,,,,,,,,,,,,,,,,,,,,,,,,,,,,,,,,,,,,,,,,,,,,,,,,,,,,,,,,,,,,,,,,,,,,,,,,,,,
,,,,,,,,,,stimuli/images/PICTURE_208.png,MONTH,5eaaf5a813401e06eb256e9c,17/11/1944,2020-07-09_21h15.02.707,proactive,2020.1.2,Win32,60,5f073de81c76c3308c0e4fb3,5f077aa493f5f90119cb51d3,6,,,,,,microphone,,,,,,0,55,55,53,1,6,0,,,,,,,,,,,,,,,,,,,,,,,,,,,,,,,,,,,,,,,,,,,,,,,,,,,,,,,,,,,,,,,,,,,,,,,,,,,
,,,,,,,,,,stimuli/images/PICTURE_675.png,WEAPON,5eaaf5a813401e06eb256e9c,17/11/1944,2020-07-09_21h15.02.707,proactive,2020.1.2,Win32,60,5f073de81c76c3308c0e4fb3,5f077aa493f5f90119cb51d3,6,,,,,,windmill,,,,,,0,56,56,32,1,4,0,,,,,,,,,,,,,,,,,,,,,,,,,,,,,,,,,,,,,,,,,,,,,,,,,,,,,,,,,,,,,,,,,,,,,,,,,,,
,,,,,,,,,,stimuli/images/PICTURE_32.png,JUNGLE,5eaaf5a813401e06eb256e9c,17/11/1944,2020-07-09_21h15.02.707,proactive,2020.1.2,Win32,60,5f073de81c76c3308c0e4fb3,5f077aa493f5f90119cb51d3,6,,,,,,crown,,,,,,0,57,57,45,1,5,0,,,,,,,,,,,,,,,,,,,,,,,,,,,,,,,,,,,,,,,,,,,,,,,,,,,,,,,,,,,,,,,,,,,,,,,,,,,
,,,,,,,,,,stimuli/images/PICTURE_233.png,IDEAS,5eaaf5a813401e06eb256e9c,17/11/1944,2020-07-09_21h15.02.707,proactive,2020.1.2,Win32,60,5f073de81c76c3308c0e4fb3,5f077aa493f5f90119cb51d3,6,,,,,,salt,,,,,,0,58,58,28,1,3,0,,,,,,,,,,,,,,,,,,,,,,,,,,,,,,,,,,,,,,,,,,,,,,,,,,,,,,,,,,,,,,,,,,,,,,,,,,,
,,?,0.001855,0,,,,,,stimuli/images/PICTURE_233.png,IDEAS,5eaaf5a813401e06eb256e9c,17/11/1944,2020-07-09_21h15.02.707,proactive,2020.1.2,Win32,60,5f073de81c76c3308c0e4fb3,5f077aa493f5f90119cb51d3,6,,,,,,salt,,,,,,,,,,,3,0,0,0,0,28,1,,,,,,,,,,,,,,,,,,,,,,,,,,,,,,,,,,,,,,,,,,,,,,,,,,,,,,,,,,,,,,,,,,,,,,
,,?,0.001775,0,,,,,,stimuli/images/PICTURE_708.png,PENNY,5eaaf5a813401e06eb256e9c,17/11/1944,2020-07-09_21h15.02.707,proactive,2020.1.2,Win32,60,5f073de81c76c3308c0e4fb3,5f077aa493f5f90119cb51d3,6,,,,,,monkey,,,,,,,,,,,4,0,0,1,1,31,1,,,,,,,,,,,,,,,,,,,,,,,,,,,,,,,,,,,,,,,,,,,,,,,,,,,,,,,,,,,,,,,,,,,,,,
,,THING,4.269315,0,,,,,,stimuli/images/PICTURE_160.png,FEET,5eaaf5a813401e06eb256e9c,17/11/1944,2020-07-09_21h15.02.707,proactive,2020.1.2,Win32,60,5f073de81c76c3308c0e4fb3,5f077aa493f5f90119cb51d3,6,,,,,,wheelbarrow,,,,,,,,,,,6,0,0,2,2,58,1,,,,,,,,,,,,,,,,,,,,,,,,,,,,,,,,,,,,,,,,,,,,,,,,,,,,,,,,,,,,,,,,,,,,,,
,,?,0.00195,0,,,,,,stimuli/images/PICTURE_208.png,THING,5eaaf5a813401e06eb256e9c,17/11/1944,2020-07-09_21h15.02.707,proactive,2020.1.2,Win32,60,5f073de81c76c3308c0e4fb3,5f077aa493f5f90119cb51d3,6,,,,,,microphone,,,,,,,,,,,5,0,0,3,3,47,1,,,,,,,,,,,,,,,,,,,,,,,,,,,,,,,,,,,,,,,,,,,,,,,,,,,,,,,,,,,,,,,,,,,,,,
,,?,0.001725,0,,,,,,stimuli/images/PICTURE_248.png,DOZEN,5eaaf5a813401e06eb256e9c,17/11/1944,2020-07-09_21h15.02.707,proactive,2020.1.2,Win32,60,5f073de81c76c3308c0e4fb3,5f077aa493f5f90119cb51d3,6,,,,,,cart,,,,,,,,,,,4,0,0,4,4,39,1,,,,,,,,,,,,,,,,,,,,,,,,,,,,,,,,,,,,,,,,,,,,,,,,,,,,,,,,,,,,,,,,,,,,,,
,,?,0.0017,0,,,,,,stimuli/images/PICTURE_491.png,ROOF,5eaaf5a813401e06eb256e9c,17/11/1944,2020-07-09_21h15.02.707,proactive,2020.1.2,Win32,60,5f073de81c76c3308c0e4fb3,5f077aa493f5f90119cb51d3,6,,,,,,rug,,,,,,,,,,,3,0,0,5,5,24,1,,,,,,,,,,,,,,,,,,,,,,,,,,,,,,,,,,,,,,,,,,,,,,,,,,,,,,,,,,,,,,,,,,,,,,
,,?,0.002495,0,,,,,,stimuli/images/PICTURE_308.png,ESTATE,5eaaf5a813401e06eb256e9c,17/11/1944,2020-07-09_21h15.02.707,proactive,2020.1.2,Win32,60,5f073de81c76c3308c0e4fb3,5f077aa493f5f90119cb51d3,6,,,,,,dice,,,,,,,,,,,5,0,0,6,6,46,1,,,,,,,,,,,,,,,,,,,,,,,,,,,,,,,,,,,,,,,,,,,,,,,,,,,,,,,,,,,,,,,,,,,,,,
,,?,0.001705,0,,,,,,stimuli/images/PICTURE_675.png,WEAPON,5eaaf5a813401e06eb256e9c,17/11/1944,2020-07-09_21h15.02.707,proactive,2020.1.2,Win32,60,5f073de81c76c3308c0e4fb3,5f077aa493f5f90119cb51d3,6,,,,,,windmill,,,,,,,,,,,4,0,0,7,7,32,1,,,,,,,,,,,,,,,,,,,,,,,,,,,,,,,,,,,,,,,,,,,,,,,,,,,,,,,,,,,,,,,,,,,,,,
,,?,0.00135,0,,,,,,stimuli/images/PICTURE_504.png,BODY,5eaaf5a813401e06eb256e9c,17/11/1944,2020-07-09_21h15.02.707,proactive,2020.1.2,Win32,60,5f073de81c76c3308c0e4fb3,5f077aa493f5f90119cb51d3,6,,,,,,wheel,,,,,,,,,,,1,0,0,8,8,8,1,,,,,,,,,,,,,,,,,,,,,,,,,,,,,,,,,,,,,,,,,,,,,,,,,,,,,,,,,,,,,,,,,,,,,,
,,?,0.000815,0,,,,,,stimuli/images/PICTURE_487.png,FLIGHT,5eaaf5a813401e06eb256e9c,17/11/1944,2020-07-09_21h15.02.707,proactive,2020.1.2,Win32,60,5f073de81c76c3308c0e4fb3,5f077aa493f5f90119cb51d3,6,,,,,,basket,,,,,,,,,,,1,0,0,9,9,9,1,,,,,,,,,,,,,,,,,,,,,,,,,,,,,,,,,,,,,,,,,,,,,,,,,,,,,,,,,,,,,,,,,,,,,,
,,?,0.000825,0,,,,,,stimuli/images/PICTURE_233.png,WOMEN,5eaaf5a813401e06eb256e9c,17/11/1944,2020-07-09_21h15.02.707,proactive,2020.1.2,Win32,60,5f073de81c76c3308c0e4fb3,5f077aa493f5f90119cb51d3,6,,,,,,salt,,,,,,,,,,,4,0,0,10,10,38,1,,,,,,,,,,,,,,,,,,,,,,,,,,,,,,,,,,,,,,,,,,,,,,,,,,,,,,,,,,,,,,,,,,,,,,
,,?,0.0008,0,,,,,,stimuli/images/PICTURE_380.png,DEATH,5eaaf5a813401e06eb256e9c,17/11/1944,2020-07-09_21h15.02.707,proactive,2020.1.2,Win32,60,5f073de81c76c3308c0e4fb3,5f077aa493f5f90119cb51d3,6,,,,,,gorilla,,,,,,,,,,,5,0,0,11,11,49,1,,,,,,,,,,,,,,,,,,,,,,,,,,,,,,,,,,,,,,,,,,,,,,,,,,,,,,,,,,,,,,,,,,,,,,
,,?,0.00082,0,,,,,,stimuli/images/PICTURE_509.png,PHOTO,5eaaf5a813401e06eb256e9c,17/11/1944,2020-07-09_21h15.02.707,proactive,2020.1.2,Win32,60,5f073de81c76c3308c0e4fb3,5f077aa493f5f90119cb51d3,6,,,,,,telephone,,,,,,,,,,,3,0,0,12,12,21,1,,,,,,,,,,,,,,,,,,,,,,,,,,,,,,,,,,,,,,,,,,,,,,,,,,,,,,,,,,,,,,,,,,,,,,
,,?,0.00079,0,,,,,,stimuli/images/PICTURE_688.png,CASINO,5eaaf5a813401e06eb256e9c,17/11/1944,2020-07-09_21h15.02.707,proactive,2020.1.2,Win32,60,5f073de81c76c3308c0e4fb3,5f077aa493f5f90119cb51d3,6,,,,,,runner,,,,,,,,,,,1,0,0,13,13,2,1,,,,,,,,,,,,,,,,,,,,,,,,,,,,,,,,,,,,,,,,,,,,,,,,,,,,,,,,,,,,,,,,,,,,,,
,,?,0.0008,0,,,,,,stimuli/images/PICTURE_654.png,VALLEY,5eaaf5a813401e06eb256e9c,17/11/1944,2020-07-09_21h15.02.707,proactive,2020.1.2,Win32,60,5f073de81c76c3308c0e4fb3,5f077aa493f5f90119cb51d3,6,,,,,,pencil,,,,,,,,,,,1,0,0,14,14,1,1,,,,,,,,,,,,,,,,,,,,,,,,,,,,,,,,,,,,,,,,,,,,,,,,,,,,,,,,,,,,,,,,,,,,,,
,,TIDY,4.786875,0,,,,,,stimuli/images/PICTURE_491.png,WRITER,5eaaf5a813401e06eb256e9c,17/11/1944,2020-07-09_21h15.02.707,proactive,2020.1.2,Win32,60,5f073de81c76c3308c0e4fb3,5f077aa493f5f90119cb51d3,6,,,,,,rug,,,,,,,,,,,6,0,0,15,15,57,1,,,,,,,,,,,,,,,,,,,,,,,,,,,,,,,,,,,,,,,,,,,,,,,,,,,,,,,,,,,,,,,,,,,,,,
,,?,0.001905,0,,,,,,stimuli/images/PICTURE_311.png,BEAUTY,5eaaf5a813401e06eb256e9c,17/11/1944,2020-07-09_21h15.02.707,proactive,2020.1.2,Win32,60,5f073de81c76c3308c0e4fb3,5f077aa493f5f90119cb51d3,6,,,,,,razor,,,,,,,,,,,2,0,0,16,16,13,1,,,,,,,,,,,,,,,,,,,,,,,,,,,,,,,,,,,,,,,,,,,,,,,,,,,,,,,,,,,,,,,,,,,,,,
,,?,0.00176,0,,,,,,stimuli/images/PICTURE_469.png,LETTER,5eaaf5a813401e06eb256e9c,17/11/1944,2020-07-09_21h15.02.707,proactive,2020.1.2,Win32,60,5f073de81c76c3308c0e4fb3,5f077aa493f5f90119cb51d3,6,,,,,,stool,,,,,,,,,,,5,0,0,17,17,42,1,,,,,,,,,,,,,,,,,,,,,,,,,,,,,,,,,,,,,,,,,,,,,,,,,,,,,,,,,,,,,,,,,,,,,,
,,?,0.001675,0,,,,,,stimuli/images/PICTURE_327.png,BEAUTY,5eaaf5a813401e06eb256e9c,17/11/1944,2020-07-09_21h15.02.707,proactive,2020.1.2,Win32,60,5f073de81c76c3308c0e4fb3,5f077aa493f5f90119cb51d3,6,,,,,,helmet,,,,,,,,,,,5,0,0,18,18,48,1,,,,,,,,,,,,,,,,,,,,,,,,,,,,,,,,,,,,,,,,,,,,,,,,,,,,,,,,,,,,,,,,,,,,,,
,,?,0.00251,0,,,,,,stimuli/images/PICTURE_208.png,LOTS,5eaaf5a813401e06eb256e9c,17/11/1944,2020-07-09_21h15.02.707,proactive,2020.1.2,Win32,60,5f073de81c76c3308c0e4fb3,5f077aa493f5f90119cb51d3,6,,,,,,microphone,,,,,,,,,,,2,0,0,19,19,10,1,,,,,,,,,,,,,,,,,,,,,,,,,,,,,,,,,,,,,,,,,,,,,,,,,,,,,,,,,,,,,,,,,,,,,,
,,?,0.001725,0,,,,,,stimuli/images/PICTURE_744.png,SAKE,5eaaf5a813401e06eb256e9c,17/11/1944,2020-07-09_21h15.02.707,proactive,2020.1.2,Win32,60,5f073de81c76c3308c0e4fb3,5f077aa493f5f90119cb51d3,6,,,,,,ring,,,,,,,,,,,2,0,0,20,20,17,1,,,,,,,,,,,,,,,,,,,,,,,,,,,,,,,,,,,,,,,,,,,,,,,,,,,,,,,,,,,,,,,,,,,,,,
,,?,0.000815,0,,,,,,stimuli/images/PICTURE_85.png,THING,5eaaf5a813401e06eb256e9c,17/11/1944,2020-07-09_21h15.02.707,proactive,2020.1.2,Win32,60,5f073de81c76c3308c0e4fb3,5f077aa493f5f90119cb51d3,6,,,,,,diamond,,,,,,,,,,,2,0,0,21,21,15,1,,,,,,,,,,,,,,,,,,,,,,,,,,,,,,,,,,,,,,,,,,,,,,,,,,,,,,,,,,,,,,,,,,,,,,
,,FLEET,4.685865,0,,,,,,stimuli/images/PICTURE_356.png,DANGER,5eaaf5a813401e06eb256e9c,17/11/1944,2020-07-09_21h15.02.707,proactive,2020.1.2,Win32,60,5f073de81c76c3308c0e4fb3,5f077aa493f5f90119cb51d3,6,,,,,,pawn,,,,,,,,,,,6,0,0,22,22,55,1,,,,,,,,,,,,,,,,,,,,,,,,,,,,,,,,,,,,,,,,,,,,,,,,,,,,,,,,,,,,,,,,,,,,,,
,,?,0.001865,0,,,,,,stimuli/images/PICTURE_151.png,GIRL,5eaaf5a813401e06eb256e9c,17/11/1944,2020-07-09_21h15.02.707,proactive,2020.1.2,Win32,60,5f073de81c76c3308c0e4fb3,5f077aa493f5f90119cb51d3,6,,,,,,tray,,,,,,,,,,,2,0,0,23,23,19,1,,,,,,,,,,,,,,,,,,,,,,,,,,,,,,,,,,,,,,,,,,,,,,,,,,,,,,,,,,,,,,,,,,,,,,
,,?,0.00171,0,,,,,,stimuli/images/PICTURE_215.png,PLENTY,5eaaf5a813401e06eb256e9c,17/11/1944,2020-07-09_21h15.02.707,proactive,2020.1.2,Win32,60,5f073de81c76c3308c0e4fb3,5f077aa493f5f90119cb51d3,6,,,,,,boot,,,,,,,,,,,4,0,0,24,24,37,1,,,,,,,,,,,,,,,,,,,,,,,,,,,,,,,,,,,,,,,,,,,,,,,,,,,,,,,,,,,,,,,,,,,,,,
,,?,0.001995,0,,,,,,stimuli/images/PICTURE_339.png,PLENTY,5eaaf5a813401e06eb256e9c,17/11/1944,2020-07-09_21h15.02.707,proactive,2020.1.2,Win32,60,5f073de81c76c3308c0e4fb3,5f077aa493f5f90119cb51d3,6,,,,,,backpack,,,,,,,,,,,1,0,0,25,25,0,1,,,,,,,,,,,,,,,,,,,,,,,,,,,,,,,,,,,,,,,,,,,,,,,,,,,,,,,,,,,,,,,,,,,,,,
,,?,0.00255,0,,,,,,stimuli/images/PICTURE_488.png,STYLE,5eaaf5a813401e06eb256e9c,17/11/1944,2020-07-09_21h15.02.707,proactive,2020.1.2,Win32,60,5f073de81c76c3308c0e4fb3,5f077aa493f5f90119cb51d3,6,,,,,,sun,,,,,,,,,,,4,0,0,26,26,33,1,,,,,,,,,,,,,,,,,,,,,,,,,,,,,,,,,,,,,,,,,,,,,,,,,,,,,,,,,,,,,,,,,,,,,,
,,?,0.001695,0,,,,,,stimuli/images/PICTURE_677.png,MILE,5eaaf5a813401e06eb256e9c,17/11/1944,2020-07-09_21h15.02.707,proactive,2020.1.2,Win32,60,5f073de81c76c3308c0e4fb3,5f077aa493f5f90119cb51d3,6,,,,,,map,,,,,,,,,,,4,0,0,27,27,30,1,,,,,,,,,,,,,,,,,,,,,,,,,,,,,,,,,,,,,,,,,,,,,,,,,,,,,,,,,,,,,,,,,,,,,,
,,SPACE,5.63875,0,,,,,,stimuli/images/PICTURE_308.png,KIND,5eaaf5a813401e06eb256e9c,17/11/1944,2020-07-09_21h15.02.707,proactive,2020.1.2,Win32,60,5f073de81c76c3308c0e4fb3,5f077aa493f5f90119cb51d3,6,,,,,,dice,,,,,,,,,,,6,0,0,28,28,54,1,,,,,,,,,,,,,,,,,,,,,,,,,,,,,,,,,,,,,,,,,,,,,,,,,,,,,,,,,,,,,,,,,,,,,,
,,?,0.001885,0,,,,,,stimuli/images/PICTURE_123.png,ADVICE,5eaaf5a813401e06eb256e9c,17/11/1944,2020-07-09_21h15.02.707,proactive,2020.1.2,Win32,60,5f073de81c76c3308c0e4fb3,5f077aa493f5f90119cb51d3,6,,,,,,dart,,,,,,,,,,,5,0,0,29,29,40,1,,,,,,,,,,,,,,,,,,,,,,,,,,,,,,,,,,,,,,,,,,,,,,,,,,,,,,,,,,,,,,,,,,,,,,
,,?,0.00169,0,,,,,,stimuli/images/PICTURE_470.png,CASINO,5eaaf5a813401e06eb256e9c,17/11/1944,2020-07-09_21h15.02.707,proactive,2020.1.2,Win32,60,5f073de81c76c3308c0e4fb3,5f077aa493f5f90119cb51d3,6,,,,,,motorbike,,,,,,,,,,,4,0,0,30,30,36,1,,,,,,,,,,,,,,,,,,,,,,,,,,,,,,,,,,,,,,,,,,,,,,,,,,,,,,,,,,,,,,,,,,,,,,
,,?,0.00166,0,,,,,,stimuli/images/PICTURE_348.png,SPEECH,5eaaf5a813401e06eb256e9c,17/11/1944,2020-07-09_21h15.02.707,proactive,2020.1.2,Win32,60,5f073de81c76c3308c0e4fb3,5f077aa493f5f90119cb51d3,6,,,,,,pepper,,,,,,,,,,,3,0,0,31,31,20,1,,,,,,,,,,,,,,,,,,,,,,,,,,,,,,,,,,,,,,,,,,,,,,,,,,,,,,,,,,,,,,,,,,,,,,
,,?,0.002185,0,,,,,,stimuli/images/PICTURE_285.png,ADVICE,5eaaf5a813401e06eb256e9c,17/11/1944,2020-07-09_21h15.02.707,proactive,2020.1.2,Win32,60,5f073de81c76c3308c0e4fb3,5f077aa493f5f90119cb51d3,6,,,,,,carrot,,,,,,,,,,,2,0,0,32,32,12,1,,,,,,,,,,,,,,,,,,,,,,,,,,,,,,,,,,,,,,,,,,,,,,,,,,,,,,,,,,,,,,,,,,,,,,
,,?,0.001015,0,,,,,,stimuli/images/PICTURE_667.png,BATH,5eaaf5a813401e06eb256e9c,17/11/1944,2020-07-09_21h15.02.707,proactive,2020.1.2,Win32,60,5f073de81c76c3308c0e4fb3,5f077aa493f5f90119cb51d3,6,,,,,,daisy,,,,,,,,,,,1,0,0,33,33,4,1,,,,,,,,,,,,,,,,,,,,,,,,,,,,,,,,,,,,,,,,,,,,,,,,,,,,,,,,,,,,,,,,,,,,,,
,,?,0.00099,0,,,,,,stimuli/images/PICTURE_692.png,MONTH,5eaaf5a813401e06eb256e9c,17/11/1944,2020-07-09_21h15.02.707,proactive,2020.1.2,Win32,60,5f073de81c76c3308c0e4fb3,5f077aa493f5f90119cb51d3,6,,,,,,cherry,,,,,,,,,,,2,0,0,34,34,16,1,,,,,,,,,,,,,,,,,,,,,,,,,,,,,,,,,,,,,,,,,,,,,,,,,,,,,,,,,,,,,,,,,,,,,,
,,?,0.001005,0,,,,,,stimuli/images/PICTURE_95.png,STYLE,5eaaf5a813401e06eb256e9c,17/11/1944,2020-07-09_21h15.02.707,proactive,2020.1.2,Win32,60,5f073de81c76c3308c0e4fb3,5f077aa493f5f90119cb51d3,6,,,,,,suitcase,,,,,,,,,,,3,0,0,35,35,25,1,,,,,,,,,,,,,,,,,,,,,,,,,,,,,,,,,,,,,,,,,,,,,,,,,,,,,,,,,,,,,,,,,,,,,,
,,?,0.001005,0,,,,,,stimuli/images/PICTURE_255.png,AREA,5eaaf5a813401e06eb256e9c,17/11/1944,2020-07-09_21h15.02.707,proactive,2020.1.2,Win32,60,5f073de81c76c3308c0e4fb3,5f077aa493f5f90119cb51d3,6,,,,,,shovel,,,,,,,,,,,3,0,0,36,36,22,1,,,,,,,,,,,,,,,,,,,,,,,,,,,,,,,,,,,,,,,,,,,,,,,,,,,,,,,,,,,,,,,,,,,,,,
,,?,0.00101,0,,,,,,stimuli/images/PICTURE_160.png,LEADER,5eaaf5a813401e06eb256e9c,17/11/1944,2020-07-09_21h15.02.707,proactive,2020.1.2,Win32,60,5f073de81c76c3308c0e4fb3,5f077aa493f5f90119cb51d3,6,,,,,,wheelbarrow,,,,,,,,,,,1,0,0,37,37,3,1,,,,,,,,,,,,,,,,,,,,,,,,,,,,,,,,,,,,,,,,,,,,,,,,,,,,,,,,,,,,,,,,,,,,,,
,,DANGER,9.424645,0,,,,,,stimuli/images/PICTURE_123.png,ADVICE,5eaaf5a813401e06eb256e9c,17/11/1944,2020-07-09_21h15.02.707,proactive,2020.1.2,Win32,60,5f073de81c76c3308c0e4fb3,5f077aa493f5f90119cb51d3,6,,,,,,dart,,,,,,,,,,,6,0,0,38,38,50,1,,,,,,,,,,,,,,,,,,,,,,,,,,,,,,,,,,,,,,,,,,,,,,,,,,,,,,,,,,,,,,,,,,,,,,
,,FLEET,5.377255,0,,,,,,stimuli/images/PICTURE_453.png,PLENTY,5eaaf5a813401e06eb256e9c,17/11/1944,2020-07-09_21h15.02.707,proactive,2020.1.2,Win32,60,5f073de81c76c3308c0e4fb3,5f077aa493f5f90119cb51d3,6,,,,,,scissors,,,,,,,,,,,6,0,0,39,39,56,1,,,,,,,,,,,,,,,,,,,,,,,,,,,,,,,,,,,,,,,,,,,,,,,,,,,,,,,,,,,,,,,,,,,,,,
,,EASY,12.977875,0,,,,,,stimuli/images/PICTURE_449.png,THING,5eaaf5a813401e06eb256e9c,17/11/1944,2020-07-09_21h15.02.707,proactive,2020.1.2,Win32,60,5f073de81c76c3308c0e4fb3,5f077aa493f5f90119cb51d3,6,,,,,,bench,,,,,,,,,,,6,0,0,40,40,59,1,,,,,,,,,,,,,,,,,,,,,,,,,,,,,,,,,,,,,,,,,,,,,,,,,,,,,,,,,,,,,,,,,,,,,,
,,?,0.00818,0,,,,,,stimuli/images/PICTURE_68.png,MILE,5eaaf5a813401e06eb256e9c,17/11/1944,2020-07-09_21h15.02.707,proactive,2020.1.2,Win32,60,5f073de81c76c3308c0e4fb3,5f077aa493f5f90119cb51d3,6,,,,,,candle,,,,,,,,,,,5,0,0,41,41,44,1,,,,,,,,,,,,,,,,,,,,,,,,,,,,,,,,,,,,,,,,,,,,,,,,,,,,,,,,,,,,,,,,,,,,,,
,,?,0.001605,0,,,,,,stimuli/images/PICTURE_314.png,GODS,5eaaf5a813401e06eb256e9c,17/11/1944,2020-07-09_21h15.02.707,proactive,2020.1.2,Win32,60,5f073de81c76c3308c0e4fb3,5f077aa493f5f90119cb51d3,6,,,,,,perfume,,,,,,,,,,,2,0,0,42,42,11,1,,,,,,,,,,,,,,,,,,,,,,,,,,,,,,,,,,,,,,,,,,,,,,,,,,,,,,,,,,,,,,,,,,,,,,
,,?,0.00176,0,,,,,,stimuli/images/PICTURE_453.png,DUDE,5eaaf5a813401e06eb256e9c,17/11/1944,2020-07-09_21h15.02.707,proactive,2020.1.2,Win32,60,5f073de81c76c3308c0e4fb3,5f077aa493f5f90119cb51d3,6,,,,,,scissors,,,,,,,,,,,3,0,0,43,43,27,1,,,,,,,,,,,,,,,,,,,,,,,,,,,,,,,,,,,,,,,,,,,,,,,,,,,,,,,,,,,,,,,,,,,,,,
,,?,0.00159,0,,,,,,stimuli/images/PICTURE_177.png,CARS,5eaaf5a813401e06eb256e9c,17/11/1944,2020-07-09_21h15.02.707,proactive,2020.1.2,Win32,60,5f073de81c76c3308c0e4fb3,5f077aa493f5f90119cb51d3,6,,,,,,mushroom,,,,,,,,,,,4,0,0,44,44,35,1,,,,,,,,,,,,,,,,,,,,,,,,,,,,,,,,,,,,,,,,,,,,,,,,,,,,,,,,,,,,,,,,,,,,,,
,,MUSIC,14.024565,0,,,,,,stimuli/images/PICTURE_208.png,MONTH,5eaaf5a813401e06eb256e9c,17/11/1944,2020-07-09_21h15.02.707,proactive,2020.1.2,Win32,60,5f073de81c76c3308c0e4fb3,5f077aa493f5f90119cb51d3,6,,,,,,microphone,,,,,,,,,,,6,0,0,45,45,53,1,,,,,,,,,,,,,,,,,,,,,,,,,,,,,,,,,,,,,,,,,,,,,,,,,,,,,,,,,,,,,,,,,,,,,,
,,?,0.002005,0,,,,,,stimuli/images/PICTURE_32.png,JUNGLE,5eaaf5a813401e06eb256e9c,17/11/1944,2020-07-09_21h15.02.707,proactive,2020.1.2,Win32,60,5f073de81c76c3308c0e4fb3,5f077aa493f5f90119cb51d3,6,,,,,,crown,,,,,,,,,,,5,0,0,46,46,45,1,,,,,,,,,,,,,,,,,,,,,,,,,,,,,,,,,,,,,,,,,,,,,,,,,,,,,,,,,,,,,,,,,,,,,,
,,?,0.00175,0,,,,,,stimuli/images/PICTURE_311.png,FRIEND,5eaaf5a813401e06eb256e9c,17/11/1944,2020-07-09_21h15.02.707,proactive,2020.1.2,Win32,60,5f073de81c76c3308c0e4fb3,5f077aa493f5f90119cb51d3,6,,,,,,razor,,,,,,,,,,,4,0,0,47,47,34,1,,,,,,,,,,,,,,,,,,,,,,,,,,,,,,,,,,,,,,,,,,,,,,,,,,,,,,,,,,,,,,,,,,,,,,
,,?,0.001665,0,,,,,,stimuli/images/PICTURE_667.png,PLENTY,5eaaf5a813401e06eb256e9c,17/11/1944,2020-07-09_21h15.02.707,proactive,2020.1.2,Win32,60,5f073de81c76c3308c0e4fb3,5f077aa493f5f90119cb51d3,6,,,,,,daisy,,,,,,,,,,,5,0,0,48,48,41,1,,,,,,,,,,,,,,,,,,,,,,,,,,,,,,,,,,,,,,,,,,,,,,,,,,,,,,,,,,,,,,,,,,,,,,
,,PICTURE,7.184455,0,,,,,,stimuli/images/PICTURE_380.png,PHOTO,5eaaf5a813401e06eb256e9c,17/11/1944,2020-07-09_21h15.02.707,proactive,2020.1.2,Win32,60,5f073de81c76c3308c0e4fb3,5f077aa493f5f90119cb51d3,6,,,,,,gorilla,,,,,,,,,,,6,0,0,49,49,52,1,,,,,,,,,,,,,,,,,,,,,,,,,,,,,,,,,,,,,,,,,,,,,,,,,,,,,,,,,,,,,,,,,,,,,,
,,?,0.001785,0,,,,,,stimuli/images/PICTURE_708.png,YARD,5eaaf5a813401e06eb256e9c,17/11/1944,2020-07-09_21h15.02.707,proactive,2020.1.2,Win32,60,5f073de81c76c3308c0e4fb3,5f077aa493f5f90119cb51d3,6,,,,,,monkey,,,,,,,,,,,3,0,0,50,50,29,1,,,,,,,,,,,,,,,,,,,,,,,,,,,,,,,,,,,,,,,,,,,,,,,,,,,,,,,,,,,,,,,,,,,,,,
,,HOUSE,7.54453,0,,,,,,stimuli/images/PICTURE_147.png,MOMENT,5eaaf5a813401e06eb256e9c,17/11/1944,2020-07-09_21h15.02.707,proactive,2020.1.2,Win32,60,5f073de81c76c3308c0e4fb3,5f077aa493f5f90119cb51d3,6,,,,,,hanger,,,,,,,,,,,6,0,0,51,51,51,1,,,,,,,,,,,,,,,,,,,,,,,,,,,,,,,,,,,,,,,,,,,,,,,,,,,,,,,,,,,,,,,,,,,,,,
,,?,0.00174,0,,,,,,stimuli/images/PICTURE_203.png,ARTIST,5eaaf5a813401e06eb256e9c,17/11/1944,2020-07-09_21h15.02.707,proactive,2020.1.2,Win32,60,5f073de81c76c3308c0e4fb3,5f077aa493f5f90119cb51d3,6,,,,,,cap,,,,,,,,,,,3,0,0,52,52,26,1,,,,,,,,,,,,,,,,,,,,,,,,,,,,,,,,,,,,,,,,,,,,,,,,,,,,,,,,,,,,,,,,,,,,,,
,,?,0.001615,0,,,,,,stimuli/images/PICTURE_469.png,ARTIST,5eaaf5a813401e06eb256e9c,17/11/1944,2020-07-09_21h15.02.707,proactive,2020.1.2,Win32,60,5f073de81c76c3308c0e4fb3,5f077aa493f5f90119cb51d3,6,,,,,,stool,,,,,,,,,,,1,0,0,53,53,6,1,,,,,,,,,,,,,,,,,,,,,,,,,,,,,,,,,,,,,,,,,,,,,,,,,,,,,,,,,,,,,,,,,,,,,,
,,?,0.00151,0,,,,,,stimuli/images/PICTURE_467.png,DEMON,5eaaf5a813401e06eb256e9c,17/11/1944,2020-07-09_21h15.02.707,proactive,2020.1.2,Win32,60,5f073de81c76c3308c0e4fb3,5f077aa493f5f90119cb51d3,6,,,,,,peg,,,,,,,,,,,3,0,0,54,54,23,1,,,,,,,,,,,,,,,,,,,,,,,,,,,,,,,,,,,,,,,,,,,,,,,,,,,,,,,,,,,,,,,,,,,,,,
,,?,0.00153,0,,,,,,stimuli/images/PICTURE_314.png,SAKE,5eaaf5a813401e06eb256e9c,17/11/1944,2020-07-09_21h15.02.707,proactive,2020.1.2,Win32,60,5f073de81c76c3308c0e4fb3,5f077aa493f5f90119cb51d3,6,,,,,,perfume,,,,,,,,,,,1,0,0,55,55,7,1,,,,,,,,,,,,,,,,,,,,,,,,,,,,,,,,,,,,,,,,,,,,,,,,,,,,,,,,,,,,,,,,,,,,,,
,,?,0.001615,0,,,,,,stimuli/images/PICTURE_302.png,FAMILY,5eaaf5a813401e06eb256e9c,17/11/1944,2020-07-09_21h15.02.707,proactive,2020.1.2,Win32,60,5f073de81c76c3308c0e4fb3,5f077aa493f5f90119cb51d3,6,,,,,,taxi,,,,,,,,,,,2,0,0,56,56,18,1,,,,,,,,,,,,,,,,,,,,,,,,,,,,,,,,,,,,,,,,,,,,,,,,,,,,,,,,,,,,,,,,,,,,,,
,,?,0.001525,0,,,,,,stimuli/images/PICTURE_708.png,CLIENT,5eaaf5a813401e06eb256e9c,17/11/1944,2020-07-09_21h15.02.707,proactive,2020.1.2,Win32,60,5f073de81c76c3308c0e4fb3,5f077aa493f5f90119cb51d3,6,,,,,,monkey,,,,,,,,,,,1,0,0,57,57,5,1,,,,,,,,,,,,,,,,,,,,,,,,,,,,,,,,,,,,,,,,,,,,,,,,,,,,,,,,,,,,,,,,,,,,,,
,,?,0.00158,0,,,,,,stimuli/images/PICTURE_744.png,SYSTEM,5eaaf5a813401e06eb256e9c,17/11/1944,2020-07-09_21h15.02.707,proactive,2020.1.2,Win32,60,5f073de81c76c3308c0e4fb3,5f077aa493f5f90119cb51d3,6,,,,,,ring,,,,,,,,,,,5,0,0,58,58,43,1,,,,,,,,,,,,,,,,,,,,,,,,,,,,,,,,,,,,,,,,,,,,,,,,,,,,,,,,,,,,,,,,,,,,,,
,,?,0.001435,0,,,,,,stimuli/images/PICTURE_688.png,WOMEN,5eaaf5a813401e06eb256e9c,17/11/1944,2020-07-09_21h15.02.707,proactive,2020.1.2,Win32,60,5f073de81c76c3308c0e4fb3,5f077aa493f5f90119cb51d3,6,,,,,,runner,,,,,,,,,,,2,0,0,59,59,14,1,,,,,,,,,,,,,,,,,,,,,,,,,,,,,,,,,,,,,,,,,,,,,,,,,,,,,,,,,,,,,,,,,,,,,,
,,,,,,,,,,,,5eaaf5a813401e06eb256e9c,17/11/1944,2020-07-09_21h15.02.707,proactive,2020.1.2,Win32,60,5f073de81c76c3308c0e4fb3,5f077aa493f5f90119cb51d3,6,,,,,,,,,,,,,,,,,,,,,,,,0,1,1,0,1,stimuli/learn-block1.csv,,,,,,,,,,,,,,,,,,,,,,,,,,,,,,,,,,,,,,,,,,,,,,,,,,,,,,,,,,,,,,,,
,,,,,,,,,,stimuli/images/PICTURE_677.png,APPLE,5eaaf5a813401e06eb256e9c,17/11/1944,2020-07-09_21h15.02.707,proactive,2020.1.2,Win32,60,5f073de81c76c3308c0e4fb3,5f077aa493f5f90119cb51d3,6,,,,,,map,,,,,,0,0,0,43,1,5,1,,,,,,,,,,,,,,,,,,,,,,,,,,,,,,,,,,,,,,,,,,,,,,,,,,,,,,,,,,,,,,,,,,,,,,,,,,,
,,,,,,,,,,stimuli/images/PICTURE_327.png,CASINO,5eaaf5a813401e06eb256e9c,17/11/1944,2020-07-09_21h15.02.707,proactive,2020.1.2,Win32,60,5f073de81c76c3308c0e4fb3,5f077aa493f5f90119cb51d3,6,,,,,,helmet,,,,,,0,1,1,20,1,3,1,,,,,,,,,,,,,,,,,,,,,,,,,,,,,,,,,,,,,,,,,,,,,,,,,,,,,,,,,,,,,,,,,,,,,,,,,,,
,,,,,,,,,,stimuli/images/PICTURE_564.png,BATH,5eaaf5a813401e06eb256e9c,17/11/1944,2020-07-09_21h15.02.707,proactive,2020.1.2,Win32,60,5f073de81c76c3308c0e4fb3,5f077aa493f5f90119cb51d3,6,,,,,,spoon,,,,,,0,2,2,26,1,3,1,,,,,,,,,,,,,,,,,,,,,,,,,,,,,,,,,,,,,,,,,,,,,,,,,,,,,,,,,,,,,,,,,,,,,,,,,,,
,,,,,,,,,,stimuli/images/PICTURE_708.png,RECORD,5eaaf5a813401e06eb256e9c,17/11/1944,2020-07-09_21h15.02.707,proactive,2020.1.2,Win32,60,5f073de81c76c3308c0e4fb3,5f077aa493f5f90119cb51d3,6,,,,,,monkey,,,,,,0,3,3,58,1,6,1,,,,,,,,,,,,,,,,,,,,,,,,,,,,,,,,,,,,,,,,,,,,,,,,,,,,,,,,,,,,,,,,,,,,,,,,,,,
,,,,,,,,,,stimuli/images/PICTURE_504.png,YEAR,5eaaf5a813401e06eb256e9c,17/11/1944,2020-07-09_21h15.02.707,proactive,2020.1.2,Win32,60,5f073de81c76c3308c0e4fb3,5f077aa493f5f90119cb51d3,6,,,,,,wheel,,,,,,0,4,4,13,1,2,1,,,,,,,,,,,,,,,,,,,,,,,,,,,,,,,,,,,,,,,,,,,,,,,,,,,,,,,,,,,,,,,,,,,,,,,,,,,
,,,,,,,,,,stimuli/images/PICTURE_308.png,FAMILY,5eaaf5a813401e06eb256e9c,17/11/1944,2020-07-09_21h15.02.707,proactive,2020.1.2,Win32,60,5f073de81c76c3308c0e4fb3,5f077aa493f5f90119cb51d3,6,,,,,,dice,,,,,,0,5,5,36,1,4,1,,,,,,,,,,,,,,,,,,,,,,,,,,,,,,,,,,,,,,,,,,,,,,,,,,,,,,,,,,,,,,,,,,,,,,,,,,,
,,,,,,,,,,stimuli/images/PICTURE_32.png,KIND,5eaaf5a813401e06eb256e9c,17/11/1944,2020-07-09_21h15.02.707,proactive,2020.1.2,Win32,60,5f073de81c76c3308c0e4fb3,5f077aa493f5f90119cb51d3,6,,,,,,crown,,,,,,0,6,6,35,1,4,1,,,,,,,,,,,,,,,,,,,,,,,,,,,,,,,,,,,,,,,,,,,,,,,,,,,,,,,,,,,,,,,,,,,,,,,,,,,
,,,,,,,,,,stimuli/images/PICTURE_2.png,FLIGHT,5eaaf5a813401e06eb256e9c,17/11/1944,2020-07-09_21h15.02.707,proactive,2020.1.2,Win32,60,5f073de81c76c3308c0e4fb3,5f077aa493f5f90119cb51d3,6,,,,,,tyre,,,,,,0,7,7,15,1,2,1,,,,,,,,,,,,,,,,,,,,,,,,,,,,,,,,,,,,,,,,,,,,,,,,,,,,,,,,,,,,,,,,,,,,,,,,,,,
,,,,,,,,,,stimuli/images/PICTURE_744.png,WEAPON,5eaaf5a813401e06eb256e9c,17/11/1944,2020-07-09_21h15.02.707,proactive,2020.1.2,Win32,60,5f073de81c76c3308c0e4fb3,5f077aa493f5f90119cb51d3,6,,,,,,ring,,,,,,0,8,8,50,1,6,1,,,,,,,,,,,,,,,,,,,,,,,,,,,,,,,,,,,,,,,,,,,,,,,,,,,,,,,,,,,,,,,,,,,,,,,,,,,
,,,,,,,,,,stimuli/images/PICTURE_469.png,AGENT,5eaaf5a813401e06eb256e9c,17/11/1944,2020-07-09_21h15.02.707,proactive,2020.1.2,Win32,60,5f073de81c76c3308c0e4fb3,5f077aa493f5f90119cb51d3,6,,,,,,stool,,,,,,0,9,9,16,1,2,1,,,,,,,,,,,,,,,,,,,,,,,,,,,,,,,,,,,,,,,,,,,,,,,,,,,,,,,,,,,,,,,,,,,,,,,,,,,
,,,,,,,,,,stimuli/images/PICTURE_203.png,GODS,5eaaf5a813401e06eb256e9c,17/11/1944,2020-07-09_21h15.02.707,proactive,2020.1.2,Win32,60,5f073de81c76c3308c0e4fb3,5f077aa493f5f90119cb51d3,6,,,,,,cap,,,,,,0,10,10,30,1,4,1,,,,,,,,,,,,,,,,,,,,,,,,,,,,,,,,,,,,,,,,,,,,,,,,,,,,,,,,,,,,,,,,,,,,,,,,,,,
,,,,,,,,,,stimuli/images/PICTURE_667.png,RIVER,5eaaf5a813401e06eb256e9c,17/11/1944,2020-07-09_21h15.02.707,proactive,2020.1.2,Win32,60,5f073de81c76c3308c0e4fb3,5f077aa493f5f90119cb51d3,6,,,,,,daisy,,,,,,0,11,11,10,1,2,1,,,,,,,,,,,,,,,,,,,,,,,,,,,,,,,,,,,,,,,,,,,,,,,,,,,,,,,,,,,,,,,,,,,,,,,,,,,
,,,,,,,,,,stimuli/images/PICTURE_296.png,LIFE,5eaaf5a813401e06eb256e9c,17/11/1944,2020-07-09_21h15.02.707,proactive,2020.1.2,Win32,60,5f073de81c76c3308c0e4fb3,5f077aa493f5f90119cb51d3,6,,,,,,bolt,,,,,,0,12,12,57,1,6,1,,,,,,,,,,,,,,,,,,,,,,,,,,,,,,,,,,,,,,,,,,,,,,,,,,,,,,,,,,,,,,,,,,,,,,,,,,,
,,,,,,,,,,stimuli/images/PICTURE_487.png,GIRL,5eaaf5a813401e06eb256e9c,17/11/1944,2020-07-09_21h15.02.707,proactive,2020.1.2,Win32,60,5f073de81c76c3308c0e4fb3,5f077aa493f5f90119cb51d3,6,,,,,,basket,,,,,,0,13,13,45,1,5,1,,,,,,,,,,,,,,,,,,,,,,,,,,,,,,,,,,,,,,,,,,,,,,,,,,,,,,,,,,,,,,,,,,,,,,,,,,,
,,,,,,,,,,stimuli/images/PICTURE_147.png,YEAR,5eaaf5a813401e06eb256e9c,17/11/1944,2020-07-09_21h15.02.707,proactive,2020.1.2,Win32,60,5f073de81c76c3308c0e4fb3,5f077aa493f5f90119cb51d3,6,,,,,,hanger,,,,,,0,14,14,21,1,3,1,,,,,,,,,,,,,,,,,,,,,,,,,,,,,,,,,,,,,,,,,,,,,,,,,,,,,,,,,,,,,,,,,,,,,,,,,,,
,,,,,,,,,,stimuli/images/PICTURE_68.png,ROOF,5eaaf5a813401e06eb256e9c,17/11/1944,2020-07-09_21h15.02.707,proactive,2020.1.2,Win32,60,5f073de81c76c3308c0e4fb3,5f077aa493f5f90119cb51d3,6,,,,,,candle,,,,,,0,15,15,38,1,4,1,,,,,,,,,,,,,,,,,,,,,,,,,,,,,,,,,,,,,,,,,,,,,,,,,,,,,,,,,,,,,,,,,,,,,,,,,,,
,,,,,,,,,,stimuli/images/PICTURE_383.png,SERIES,5eaaf5a813401e06eb256e9c,17/11/1944,2020-07-09_21h15.02.707,proactive,2020.1.2,Win32,60,5f073de81c76c3308c0e4fb3,5f077aa493f5f90119cb51d3,6,,,,,,coin,,,,,,0,16,16,46,1,5,1,,,,,,,,,,,,,,,,,,,,,,,,,,,,,,,,,,,,,,,,,,,,,,,,,,,,,,,,,,,,,,,,,,,,,,,,,,,
,,,,,,,,,,stimuli/images/PICTURE_57.png,MOMENT,5eaaf5a813401e06eb256e9c,17/11/1944,2020-07-09_21h15.02.707,proactive,2020.1.2,Win32,60,5f073de81c76c3308c0e4fb3,5f077aa493f5f90119cb51d3,6,,,,,,stamp,,,,,,0,17,17,37,1,4,1,,,,,,,,,,,,,,,,,,,,,,,,,,,,,,,,,,,,,,,,,,,,,,,,,,,,,,,,,,,,,,,,,,,,,,,,,,,
,,,,,,,,,,stimuli/images/PICTURE_95.png,BOYS,5eaaf5a813401e06eb256e9c,17/11/1944,2020-07-09_21h15.02.707,proactive,2020.1.2,Win32,60,5f073de81c76c3308c0e4fb3,5f077aa493f5f90119cb51d3,6,,,,,,suitcase,,,,,,0,18,18,1,1,1,1,,,,,,,,,,,,,,,,,,,,,,,,,,,,,,,,,,,,,,,,,,,,,,,,,,,,,,,,,,,,,,,,,,,,,,,,,,,
,,,,,,,,,,stimuli/images/PICTURE_297.png,RIVER,5eaaf5a813401e06eb256e9c,17/11/1944,2020-07-09_21h15.02.707,proactive,2020.1.2,Win32,60,5f073de81c76c3308c0e4fb3,5f077aa493f5f90119cb51d3,6,,,,,,aeroplane,,,,,,0,19,19,39,1,4,1,,,,,,,,,,,,,,,,,,,,,,,,,,,,,,,,,,,,,,,,,,,,,,,,,,,,,,,,,,,,,,,,,,,,,,,,,,,
,,,,,,,,,,stimuli/images/PICTURE_108.png,POLICY,5eaaf5a813401e06eb256e9c,17/11/1944,2020-07-09_21h15.02.707,proactive,2020.1.2,Win32,60,5f073de81c76c3308c0e4fb3,5f077aa493f5f90119cb51d3,6,,,,,,calendar,,,,,,0,20,20,22,1,3,1,,,,,,,,,,,,,,,,,,,,,,,,,,,,,,,,,,,,,,,,,,,,,,,,,,,,,,,,,,,,,,,,,,,,,,,,,,,
,,,,,,,,,,stimuli/images/PICTURE_85.png,TOILET,5eaaf5a813401e06eb256e9c,17/11/1944,2020-07-09_21h15.02.707,proactive,2020.1.2,Win32,60,5f073de81c76c3308c0e4fb3,5f077aa493f5f90119cb51d3,6,,,,,,diamond,,,,,,0,21,21,48,1,5,1,,,,,,,,,,,,,,,,,,,,,,,,,,,,,,,,,,,,,,,,,,,,,,,,,,,,,,,,,,,,,,,,,,,,,,,,,,,
,,,,,,,,,,stimuli/images/PICTURE_285.png,LIFE,5eaaf5a813401e06eb256e9c,17/11/1944,2020-07-09_21h15.02.707,proactive,2020.1.2,Win32,60,5f073de81c76c3308c0e4fb3,5f077aa493f5f90119cb51d3,6,,,,,,carrot,,,,,,0,22,22,33,1,4,1,,,,,,,,,,,,,,,,,,,,,,,,,,,,,,,,,,,,,,,,,,,,,,,,,,,,,,,,,,,,,,,,,,,,,,,,,,,
,,,,,,,,,,stimuli/images/PICTURE_405.png,PLENTY,5eaaf5a813401e06eb256e9c,17/11/1944,2020-07-09_21h15.02.707,proactive,2020.1.2,Win32,60,5f073de81c76c3308c0e4fb3,5f077aa493f5f90119cb51d3,6,,,,,,anchor,,,,,,0,23,23,23,1,3,1,,,,,,,,,,,,,,,,,,,,,,,,,,,,,,,,,,,,,,,,,,,,,,,,,,,,,,,,,,,,,,,,,,,,,,,,,,,
,,,,,,,,,,stimuli/images/PICTURE_504.png,COPS,5eaaf5a813401e06eb256e9c,17/11/1944,2020-07-09_21h15.02.707,proactive,2020.1.2,Win32,60,5f073de81c76c3308c0e4fb3,5f077aa493f5f90119cb51d3,6,,,,,,wheel,,,,,,0,24,24,52,1,6,1,,,,,,,,,,,,,,,,,,,,,,,,,,,,,,,,,,,,,,,,,,,,,,,,,,,,,,,,,,,,,,,,,,,,,,,,,,,
,,,,,,,,,,stimuli/images/PICTURE_655.png,TOILET,5eaaf5a813401e06eb256e9c,17/11/1944,2020-07-09_21h15.02.707,proactive,2020.1.2,Win32,60,5f073de81c76c3308c0e4fb3,5f077aa493f5f90119cb51d3,6,,,,,,megaphone,,,,,,0,25,25,12,1,2,1,,,,,,,,,,,,,,,,,,,,,,,,,,,,,,,,,,,,,,,,,,,,,,,,,,,,,,,,,,,,,,,,,,,,,,,,,,,
,,,,,,,,,,stimuli/images/PICTURE_467.png,POLICY,5eaaf5a813401e06eb256e9c,17/11/1944,2020-07-09_21h15.02.707,proactive,2020.1.2,Win32,60,5f073de81c76c3308c0e4fb3,5f077aa493f5f90119cb51d3,6,,,,,,peg,,,,,,0,26,26,53,1,6,1,,,,,,,,,,,,,,,,,,,,,,,,,,,,,,,,,,,,,,,,,,,,,,,,,,,,,,,,,,,,,,,,,,,,,,,,,,,
,,,,,,,,,,stimuli/images/PICTURE_85.png,NATION,5eaaf5a813401e06eb256e9c,17/11/1944,2020-07-09_21h15.02.707,proactive,2020.1.2,Win32,60,5f073de81c76c3308c0e4fb3,5f077aa493f5f90119cb51d3,6,,,,,,diamond,,,,,,0,27,27,5,1,1,1,,,,,,,,,,,,,,,,,,,,,,,,,,,,,,,,,,,,,,,,,,,,,,,,,,,,,,,,,,,,,,,,,,,,,,,,,,,
,,,,,,,,,,stimuli/images/PICTURE_147.png,WOMEN,5eaaf5a813401e06eb256e9c,17/11/1944,2020-07-09_21h15.02.707,proactive,2020.1.2,Win32,60,5f073de81c76c3308c0e4fb3,5f077aa493f5f90119cb51d3,6,,,,,,hanger,,,,,,0,28,28,7,1,1,1,,,,,,,,,,,,,,,,,,,,,,,,,,,,,,,,,,,,,,,,,,,,,,,,,,,,,,,,,,,,,,,,,,,,,,,,,,,
,,,,,,,,,,stimuli/images/PICTURE_380.png,HONEY,5eaaf5a813401e06eb256e9c,17/11/1944,2020-07-09_21h15.02.707,proactive,2020.1.2,Win32,60,5f073de81c76c3308c0e4fb3,5f077aa493f5f90119cb51d3,6,,,,,,gorilla,,,,,,0,29,29,19,1,2,1,,,,,,,,,,,,,,,,,,,,,,,,,,,,,,,,,,,,,,,,,,,,,,,,,,,,,,,,,,,,,,,,,,,,,,,,,,,
,,,,,,,,,,stimuli/images/PICTURE_340.png,VALLEY,5eaaf5a813401e06eb256e9c,17/11/1944,2020-07-09_21h15.02.707,proactive,2020.1.2,Win32,60,5f073de81c76c3308c0e4fb3,5f077aa493f5f90119cb51d3,6,,,,,,mirror,,,,,,0,30,30,54,1,6,1,,,,,,,,,,,,,,,,,,,,,,,,,,,,,,,,,,,,,,,,,,,,,,,,,,,,,,,,,,,,,,,,,,,,,,,,,,,
,,,,,,,,,,stimuli/images/PICTURE_32.png,PILLS,5eaaf5a813401e06eb256e9c,17/11/1944,2020-07-09_21h15.02.707,proactive,2020.1.2,Win32,60,5f073de81c76c3308c0e4fb3,5f077aa493f5f90119cb51d3,6,,,,,,crown,,,,,,0,31,31,18,1,2,1,,,,,,,,,,,,,,,,,,,,,,,,,,,,,,,,,,,,,,,,,,,,,,,,,,,,,,,,,,,,,,,,,,,,,,,,,,,
,,,,,,,,,,stimuli/images/PICTURE_327.png,SERIES,5eaaf5a813401e06eb256e9c,17/11/1944,2020-07-09_21h15.02.707,proactive,2020.1.2,Win32,60,5f073de81c76c3308c0e4fb3,5f077aa493f5f90119cb51d3,6,,,,,,helmet,,,,,,0,32,32,3,1,1,1,,,,,,,,,,,,,,,,,,,,,,,,,,,,,,,,,,,,,,,,,,,,,,,,,,,,,,,,,,,,,,,,,,,,,,,,,,,
,,,,,,,,,,stimuli/images/PICTURE_68.png,MILE,5eaaf5a813401e06eb256e9c,17/11/1944,2020-07-09_21h15.02.707,proactive,2020.1.2,Win32,60,5f073de81c76c3308c0e4fb3,5f077aa493f5f90119cb51d3,6,,,,,,candle,,,,,,0,33,33,51,1,6,1,,,,,,,,,,,,,,,,,,,,,,,,,,,,,,,,,,,,,,,,,,,,,,,,,,,,,,,,,,,,,,,,,,,,,,,,,,,
,,,,,,,,,,stimuli/images/PICTURE_233.png,LOTS,5eaaf5a813401e06eb256e9c,17/11/1944,2020-07-09_21h15.02.707,proactive,2020.1.2,Win32,60,5f073de81c76c3308c0e4fb3,5f077aa493f5f90119cb51d3,6,,,,,,salt,,,,,,0,34,34,42,1,5,1,,,,,,,,,,,,,,,,,,,,,,,,,,,,,,,,,,,,,,,,,,,,,,,,,,,,,,,,,,,,,,,,,,,,,,,,,,,
,,,,,,,,,,stimuli/images/PICTURE_449.png,DUDE,5eaaf5a813401e06eb256e9c,17/11/1944,2020-07-09_21h15.02.707,proactive,2020.1.2,Win32,60,5f073de81c76c3308c0e4fb3,5f077aa493f5f90119cb51d3,6,,,,,,bench,,,,,,0,35,35,17,1,2,1,,,,,,,,,,,,,,,,,,,,,,,,,,,,,,,,,,,,,,,,,,,,,,,,,,,,,,,,,,,,,,,,,,,,,,,,,,,
,,,,,,,,,,stimuli/images/PICTURE_42.png,BOYS,5eaaf5a813401e06eb256e9c,17/11/1944,2020-07-09_21h15.02.707,proactive,2020.1.2,Win32,60,5f073de81c76c3308c0e4fb3,5f077aa493f5f90119cb51d3,6,,,,,,pear,,,,,,0,36,36,55,1,6,1,,,,,,,,,,,,,,,,,,,,,,,,,,,,,,,,,,,,,,,,,,,,,,,,,,,,,,,,,,,,,,,,,,,,,,,,,,,
,,,,,,,,,,stimuli/images/PICTURE_403.png,TOILET,5eaaf5a813401e06eb256e9c,17/11/1944,2020-07-09_21h15.02.707,proactive,2020.1.2,Win32,60,5f073de81c76c3308c0e4fb3,5f077aa493f5f90119cb51d3,6,,,,,,cathedral,,,,,,0,37,37,25,1,3,1,,,,,,,,,,,,,,,,,,,,,,,,,,,,,,,,,,,,,,,,,,,,,,,,,,,,,,,,,,,,,,,,,,,,,,,,,,,
,,,,,,,,,,stimuli/images/PICTURE_491.png,RIVER,5eaaf5a813401e06eb256e9c,17/11/1944,2020-07-09_21h15.02.707,proactive,2020.1.2,Win32,60,5f073de81c76c3308c0e4fb3,5f077aa493f5f90119cb51d3,6,,,,,,rug,,,,,,0,38,38,6,1,1,1,,,,,,,,,,,,,,,,,,,,,,,,,,,,,,,,,,,,,,,,,,,,,,,,,,,,,,,,,,,,,,,,,,,,,,,,,,,
,,,,,,,,,,stimuli/images/PICTURE_405.png,YEAR,5eaaf5a813401e06eb256e9c,17/11/1944,2020-07-09_21h15.02.707,proactive,2020.1.2,Win32,60,5f073de81c76c3308c0e4fb3,5f077aa493f5f90119cb51d3,6,,,,,,anchor,,,,,,0,39,39,34,1,4,1,,,,,,,,,,,,,,,,,,,,,,,,,,,,,,,,,,,,,,,,,,,,,,,,,,,,,,,,,,,,,,,,,,,,,,,,,,,
,,,,,,,,,,stimuli/images/PICTURE_380.png,CANDY,5eaaf5a813401e06eb256e9c,17/11/1944,2020-07-09_21h15.02.707,proactive,2020.1.2,Win32,60,5f073de81c76c3308c0e4fb3,5f077aa493f5f90119cb51d3,6,,,,,,gorilla,,,,,,0,40,40,0,1,1,1,,,,,,,,,,,,,,,,,,,,,,,,,,,,,,,,,,,,,,,,,,,,,,,,,,,,,,,,,,,,,,,,,,,,,,,,,,,
,,,,,,,,,,stimuli/images/PICTURE_203.png,NIGHT,5eaaf5a813401e06eb256e9c,17/11/1944,2020-07-09_21h15.02.707,proactive,2020.1.2,Win32,60,5f073de81c76c3308c0e4fb3,5f077aa493f5f90119cb51d3,6,,,,,,cap,,,,,,0,41,41,2,1,1,1,,,,,,,,,,,,,,,,,,,,,,,,,,,,,,,,,,,,,,,,,,,,,,,,,,,,,,,,,,,,,,,,,,,,,,,,,,,
,,,,,,,,,,stimuli/images/PICTURE_491.png,GLASS,5eaaf5a813401e06eb256e9c,17/11/1944,2020-07-09_21h15.02.707,proactive,2020.1.2,Win32,60,5f073de81c76c3308c0e4fb3,5f077aa493f5f90119cb51d3,6,,,,,,rug,,,,,,0,42,42,14,1,2,1,,,,,,,,,,,,,,,,,,,,,,,,,,,,,,,,,,,,,,,,,,,,,,,,,,,,,,,,,,,,,,,,,,,,,,,,,,,
,,,,,,,,,,stimuli/images/PICTURE_340.png,LETTER,5eaaf5a813401e06eb256e9c,17/11/1944,2020-07-09_21h15.02.707,proactive,2020.1.2,Win32,60,5f073de81c76c3308c0e4fb3,5f077aa493f5f90119cb51d3,6,,,,,,mirror,,,,,,0,43,43,24,1,3,1,,,,,,,,,,,,,,,,,,,,,,,,,,,,,,,,,,,,,,,,,,,,,,,,,,,,,,,,,,,,,,,,,,,,,,,,,,,
,,,,,,,,,,stimuli/images/PICTURE_403.png,RIVER,5eaaf5a813401e06eb256e9c,17/11/1944,2020-07-09_21h15.02.707,proactive,2020.1.2,Win32,60,5f073de81c76c3308c0e4fb3,5f077aa493f5f90119cb51d3,6,,,,,,cathedral,,,,,,0,44,44,40,1,5,1,,,,,,,,,,,,,,,,,,,,,,,,,,,,,,,,,,,,,,,,,,,,,,,,,,,,,,,,,,,,,,,,,,,,,,,,,,,
,,,,,,,,,,stimuli/images/PICTURE_33.png,FRIEND,5eaaf5a813401e06eb256e9c,17/11/1944,2020-07-09_21h15.02.707,proactive,2020.1.2,Win32,60,5f073de81c76c3308c0e4fb3,5f077aa493f5f90119cb51d3,6,,,,,,frame,,,,,,0,45,45,8,1,1,1,,,,,,,,,,,,,,,,,,,,,,,,,,,,,,,,,,,,,,,,,,,,,,,,,,,,,,,,,,,,,,,,,,,,,,,,,,,
,,,,,,,,,,stimuli/images/PICTURE_403.png,WRITER,5eaaf5a813401e06eb256e9c,17/11/1944,2020-07-09_21h15.02.707,proactive,2020.1.2,Win32,60,5f073de81c76c3308c0e4fb3,5f077aa493f5f90119cb51d3,6,,,,,,cathedral,,,,,,0,46,46,31,1,4,1,,,,,,,,,,,,,,,,,,,,,,,,,,,,,,,,,,,,,,,,,,,,,,,,,,,,,,,,,,,,,,,,,,,,,,,,,,,
,,,,,,,,,,stimuli/images/PICTURE_95.png,HONEY,5eaaf5a813401e06eb256e9c,17/11/1944,2020-07-09_21h15.02.707,proactive,2020.1.2,Win32,60,5f073de81c76c3308c0e4fb3,5f077aa493f5f90119cb51d3,6,,,,,,suitcase,,,,,,0,47,47,44,1,5,1,,,,,,,,,,,,,,,,,,,,,,,,,,,,,,,,,,,,,,,,,,,,,,,,,,,,,,,,,,,,,,,,,,,,,,,,,,,
,,,,,,,,,,stimuli/images/PICTURE_654.png,MONTH,5eaaf5a813401e06eb256e9c,17/11/1944,2020-07-09_21h15.02.707,proactive,2020.1.2,Win32,60,5f073de81c76c3308c0e4fb3,5f077aa493f5f90119cb51d3,6,,,,,,pencil,,,,,,0,48,48,29,1,3,1,,,,,,,,,,,,,,,,,,,,,,,,,,,,,,,,,,,,,,,,,,,,,,,,,,,,,,,,,,,,,,,,,,,,,,,,,,,
,,,,,,,,,,stimuli/images/PICTURE_108.png,FLIGHT,5eaaf5a813401e06eb256e9c,17/11/1944,2020-07-09_21h15.02.707,proactive,2020.1.2,Win32,60,5f073de81c76c3308c0e4fb3,5f077aa493f5f90119cb51d3,6,,,,,,calendar,,,,,,0,49,49,59,1,6,1,,,,,,,,,,,,,,,,,,,,,,,,,,,,,,,,,,,,,,,,,,,,,,,,,,,,,,,,,,,,,,,,,,,,,,,,,,,
,,,,,,,,,,stimuli/images/PICTURE_296.png,LOTS,5eaaf5a813401e06eb256e9c,17/11/1944,2020-07-09_21h15.02.707,proactive,2020.1.2,Win32,60,5f073de81c76c3308c0e4fb3,5f077aa493f5f90119cb51d3,6,,,,,,bolt,,,,,,0,50,50,9,1,1,1,,,,,,,,,,,,,,,,,,,,,,,,,,,,,,,,,,,,,,,,,,,,,,,,,,,,,,,,,,,,,,,,,,,,,,,,,,,
,,,,,,,,,,stimuli/images/PICTURE_675.png,SALE,5eaaf5a813401e06eb256e9c,17/11/1944,2020-07-09_21h15.02.707,proactive,2020.1.2,Win32,60,5f073de81c76c3308c0e4fb3,5f077aa493f5f90119cb51d3,6,,,,,,windmill,,,,,,0,51,51,47,1,5,1,,,,,,,,,,,,,,,,,,,,,,,,,,,,,,,,,,,,,,,,,,,,,,,,,,,,,,,,,,,,,,,,,,,,,,,,,,,
,,,,,,,,,,stimuli/images/PICTURE_750.png,HOTEL,5eaaf5a813401e06eb256e9c,17/11/1944,2020-07-09_21h15.02.707,proactive,2020.1.2,Win32,60,5f073de81c76c3308c0e4fb3,5f077aa493f5f90119cb51d3,6,,,,,,kettle,,,,,,0,52,52,27,1,3,1,,,,,,,,,,,,,,,,,,,,,,,,,,,,,,,,,,,,,,,,,,,,,,,,,,,,,,,,,,,,,,,,,,,,,,,,,,,
,,,,,,,,,,stimuli/images/PICTURE_504.png,ARTIST,5eaaf5a813401e06eb256e9c,17/11/1944,2020-07-09_21h15.02.707,proactive,2020.1.2,Win32,60,5f073de81c76c3308c0e4fb3,5f077aa493f5f90119cb51d3,6,,,,,,wheel,,,,,,0,53,53,49,1,5,1,,,,,,,,,,,,,,,,,,,,,,,,,,,,,,,,,,,,,,,,,,,,,,,,,,,,,,,,,,,,,,,,,,,,,,,,,,,
,,,,,,,,,,stimuli/images/PICTURE_95.png,MILLER,5eaaf5a813401e06eb256e9c,17/11/1944,2020-07-09_21h15.02.707,proactive,2020.1.2,Win32,60,5f073de81c76c3308c0e4fb3,5f077aa493f5f90119cb51d3,6,,,,,,suitcase,,,,,,0,54,54,56,1,6,1,,,,,,,,,,,,,,,,,,,,,,,,,,,,,,,,,,,,,,,,,,,,,,,,,,,,,,,,,,,,,,,,,,,,,,,,,,,
,,,,,,,,,,stimuli/images/PICTURE_208.png,SYSTEM,5eaaf5a813401e06eb256e9c,17/11/1944,2020-07-09_21h15.02.707,proactive,2020.1.2,Win32,60,5f073de81c76c3308c0e4fb3,5f077aa493f5f90119cb51d3,6,,,,,,microphone,,,,,,0,55,55,32,1,4,1,,,,,,,,,,,,,,,,,,,,,,,,,,,,,,,,,,,,,,,,,,,,,,,,,,,,,,,,,,,,,,,,,,,,,,,,,,,
,,,,,,,,,,stimuli/images/PICTURE_339.png,CLIENT,5eaaf5a813401e06eb256e9c,17/11/1944,2020-07-09_21h15.02.707,proactive,2020.1.2,Win32,60,5f073de81c76c3308c0e4fb3,5f077aa493f5f90119cb51d3,6,,,,,,backpack,,,,,,0,56,56,11,1,2,1,,,,,,,,,,,,,,,,,,,,,,,,,,,,,,,,,,,,,,,,,,,,,,,,,,,,,,,,,,,,,,,,,,,,,,,,,,,
,,,,,,,,,,stimuli/images/PICTURE_177.png,WRITER,5eaaf5a813401e06eb256e9c,17/11/1944,2020-07-09_21h15.02.707,proactive,2020.1.2,Win32,60,5f073de81c76c3308c0e4fb3,5f077aa493f5f90119cb51d3,6,,,,,,mushroom,,,,,,0,57,57,41,1,5,1,,,,,,,,,,,,,,,,,,,,,,,,,,,,,,,,,,,,,,,,,,,,,,,,,,,,,,,,,,,,,,,,,,,,,,,,,,,
,,,,,,,,,,stimuli/images/PICTURE_383.png,WRITER,5eaaf5a813401e06eb256e9c,17/11/1944,2020-07-09_21h15.02.707,proactive,2020.1.2,Win32,60,5f073de81c76c3308c0e4fb3,5f077aa493f5f90119cb51d3,6,,,,,,coin,,,,,,0,58,58,28,1,3,1,,,,,,,,,,,,,,,,,,,,,,,,,,,,,,,,,,,,,,,,,,,,,,,,,,,,,,,,,,,,,,,,,,,,,,,,,,,
,,?,0.00184,0,,,,,,stimuli/images/PICTURE_85.png,NATION,5eaaf5a813401e06eb256e9c,17/11/1944,2020-07-09_21h15.02.707,proactive,2020.1.2,Win32,60,5f073de81c76c3308c0e4fb3,5f077aa493f5f90119cb51d3,6,,,,,,diamond,,,,,,,,,,,1,1,0,0,0,5,1,,,,,,,,,,,,,,,,,,,,,,,,,,,,,,,,,,,,,,,,,,,,,,,,,,,,,,,,,,,,,,,,,,,,,,
,,?,0.001715,0,,,,,,stimuli/images/PICTURE_339.png,CLIENT,5eaaf5a813401e06eb256e9c,17/11/1944,2020-07-09_21h15.02.707,proactive,2020.1.2,Win32,60,5f073de81c76c3308c0e4fb3,5f077aa493f5f90119cb51d3,6,,,,,,backpack,,,,,,,,,,,2,1,0,1,1,11,1,,,,,,,,,,,,,,,,,,,,,,,,,,,,,,,,,,,,,,,,,,,,,,,,,,,,,,,,,,,,,,,,,,,,,,
,,?,0.00193,0,,,,,,stimuli/images/PICTURE_2.png,FLIGHT,5eaaf5a813401e06eb256e9c,17/11/1944,2020-07-09_21h15.02.707,proactive,2020.1.2,Win32,60,5f073de81c76c3308c0e4fb3,5f077aa493f5f90119cb51d3,6,,,,,,tyre,,,,,,,,,,,2,1,0,2,2,15,1,,,,,,,,,,,,,,,,,,,,,,,,,,,,,,,,,,,,,,,,,,,,,,,,,,,,,,,,,,,,,,,,,,,,,,
,,?,0.000815,0,,,,,,stimuli/images/PICTURE_108.png,POLICY,5eaaf5a813401e06eb256e9c,17/11/1944,2020-07-09_21h15.02.707,proactive,2020.1.2,Win32,60,5f073de81c76c3308c0e4fb3,5f077aa493f5f90119cb51d3,6,,,,,,calendar,,,,,,,,,,,3,1,0,3,3,22,1,,,,,,,,,,,,,,,,,,,,,,,,,,,,,,,,,,,,,,,,,,,,,,,,,,,,,,,,,,,,,,,,,,,,,,
,,HOUSE,8.742205,0,,,,,,stimuli/images/PICTURE_504.png,COPS,5eaaf5a813401e06eb256e9c,17/11/1944,2020-07-09_21h15.02.707,proactive,2020.1.2,Win32,60,5f073de81c76c3308c0e4fb3,5f077aa493f5f90119cb51d3,6,,,,,,wheel,,,,,,,,,,,6,1,0,4,4,52,1,,,,,,,,,,,,,,,,,,,,,,,,,,,,,,,,,,,,,,,,,,,,,,,,,,,,,,,,,,,,,,,,,,,,,,
,,?,0.001885,0,,,,,,stimuli/images/PICTURE_449.png,DUDE,5eaaf5a813401e06eb256e9c,17/11/1944,2020-07-09_21h15.02.707,proactive,2020.1.2,Win32,60,5f073de81c76c3308c0e4fb3,5f077aa493f5f90119cb51d3,6,,,,,,bench,,,,,,,,,,,2,1,0,5,5,17,1,,,,,,,,,,,,,,,,,,,,,,,,,,,,,,,,,,,,,,,,,,,,,,,,,,,,,,,,,,,,,,,,,,,,,,
,,THING,6.07379,0,,,,,,stimuli/images/PICTURE_296.png,LIFE,5eaaf5a813401e06eb256e9c,17/11/1944,2020-07-09_21h15.02.707,proactive,2020.1.2,Win32,60,5f073de81c76c3308c0e4fb3,5f077aa493f5f90119cb51d3,6,,,,,,bolt,,,,,,,,,,,6,1,0,6,6,57,1,,,,,,,,,,,,,,,,,,,,,,,,,,,,,,,,,,,,,,,,,,,,,,,,,,,,,,,,,,,,,,,,,,,,,,
,,FLOOD,5.176155,0,,,,,,stimuli/images/PICTURE_340.png,VALLEY,5eaaf5a813401e06eb256e9c,17/11/1944,2020-07-09_21h15.02.707,proactive,2020.1.2,Win32,60,5f073de81c76c3308c0e4fb3,5f077aa493f5f90119cb51d3,6,,,,,,mirror,,,,,,,,,,,6,1,0,7,7,54,1,,,,,,,,,,,,,,,,,,,,,,,,,,,,,,,,,,,,,,,,,,,,,,,,,,,,,,,,,,,,,,,,,,,,,,
,,?,0.0019,0,,,,,,stimuli/images/PICTURE_504.png,YEAR,5eaaf5a813401e06eb256e9c,17/11/1944,2020-07-09_21h15.02.707,proactive,2020.1.2,Win32,60,5f073de81c76c3308c0e4fb3,5f077aa493f5f90119cb51d3,6,,,,,,wheel,,,,,,,,,,,2,1,0,8,8,13,1,,,,,,,,,,,,,,,,,,,,,,,,,,,,,,,,,,,,,,,,,,,,,,,,,,,,,,,,,,,,,,,,,,,,,,
,,?,0.001725,0,,,,,,stimuli/images/PICTURE_32.png,PILLS,5eaaf5a813401e06eb256e9c,17/11/1944,2020-07-09_21h15.02.707,proactive,2020.1.2,Win32,60,5f073de81c76c3308c0e4fb3,5f077aa493f5f90119cb51d3,6,,,,,,crown,,,,,,,,,,,2,1,0,9,9,18,1,,,,,,,,,,,,,,,,,,,,,,,,,,,,,,,,,,,,,,,,,,,,,,,,,,,,,,,,,,,,,,,,,,,,,,
,,?,0.001635,0,,,,,,stimuli/images/PICTURE_33.png,FRIEND,5eaaf5a813401e06eb256e9c,17/11/1944,2020-07-09_21h15.02.707,proactive,2020.1.2,Win32,60,5f073de81c76c3308c0e4fb3,5f077aa493f5f90119cb51d3,6,,,,,,frame,,,,,,,,,,,1,1,0,10,10,8,1,,,,,,,,,,,,,,,,,,,,,,,,,,,,,,,,,,,,,,,,,,,,,,,,,,,,,,,,,,,,,,,,,,,,,,
,,?,0.00235,0,,,,,,stimuli/images/PICTURE_380.png,HONEY,5eaaf5a813401e06eb256e9c,17/11/1944,2020-07-09_21h15.02.707,proactive,2020.1.2,Win32,60,5f073de81c76c3308c0e4fb3,5f077aa493f5f90119cb51d3,6,,,,,,gorilla,,,,,,,,,,,2,1,0,11,11,19,1,,,,,,,,,,,,,,,,,,,,,,,,,,,,,,,,,,,,,,,,,,,,,,,,,,,,,,,,,,,,,,,,,,,,,,
,,?,0.001085,0,,,,,,stimuli/images/PICTURE_57.png,MOMENT,5eaaf5a813401e06eb256e9c,17/11/1944,2020-07-09_21h15.02.707,proactive,2020.1.2,Win32,60,5f073de81c76c3308c0e4fb3,5f077aa493f5f90119cb51d3,6,,,,,,stamp,,,,,,,,,,,4,1,0,12,12,37,1,,,,,,,,,,,,,,,,,,,,,,,,,,,,,,,,,,,,,,,,,,,,,,,,,,,,,,,,,,,,,,,,,,,,,,
,,?,0.001005,0,,,,,,stimuli/images/PICTURE_655.png,TOILET,5eaaf5a813401e06eb256e9c,17/11/1944,2020-07-09_21h15.02.707,proactive,2020.1.2,Win32,60,5f073de81c76c3308c0e4fb3,5f077aa493f5f90119cb51d3,6,,,,,,megaphone,,,,,,,,,,,2,1,0,13,13,12,1,,,,,,,,,,,,,,,,,,,,,,,,,,,,,,,,,,,,,,,,,,,,,,,,,,,,,,,,,,,,,,,,,,,,,,
,,?,0.00105,0,,,,,,stimuli/images/PICTURE_487.png,GIRL,5eaaf5a813401e06eb256e9c,17/11/1944,2020-07-09_21h15.02.707,proactive,2020.1.2,Win32,60,5f073de81c76c3308c0e4fb3,5f077aa493f5f90119cb51d3,6,,,,,,basket,,,,,,,,,,,5,1,0,14,14,45,1,,,,,,,,,,,,,,,,,,,,,,,,,,,,,,,,,,,,,,,,,,,,,,,,,,,,,,,,,,,,,,,,,,,,,,
,,?,0.00099,0,,,,,,stimuli/images/PICTURE_491.png,GLASS,5eaaf5a813401e06eb256e9c,17/11/1944,2020-07-09_21h15.02.707,proactive,2020.1.2,Win32,60,5f073de81c76c3308c0e4fb3,5f077aa493f5f90119cb51d3,6,,,,,,rug,,,,,,,,,,,2,1,0,15,15,14,1,,,,,,,,,,,,,,,,,,,,,,,,,,,,,,,,,,,,,,,,,,,,,,,,,,,,,,,,,,,,,,,,,,,,,,
,,?,0.00098,0,,,,,,stimuli/images/PICTURE_340.png,LETTER,5eaaf5a813401e06eb256e9c,17/11/1944,2020-07-09_21h15.02.707,proactive,2020.1.2,Win32,60,5f073de81c76c3308c0e4fb3,5f077aa493f5f90119cb51d3,6,,,,,,mirror,,,,,,,,,,,3,1,0,16,16,24,1,,,,,,,,,,,,,,,,,,,,,,,,,,,,,,,,,,,,,,,,,,,,,,,,,,,,,,,,,,,,,,,,,,,,,,
