consent_key.keys,consent_key.rt,recalled,recalled_rt,recall_acc,example_recall.thisRepN,example_recall.thisTrialN,example_recall.thisN,example_recall.thisIndex,example_recall.ran,file,word,participant,please enter your date of birth (dd/mm/yyyy),date,expName,psychopyVersion,OS,frameRate,STUDY_ID,SESSION_ID,list,prac_learn_study_loop.thisRepN,prac_learn_study_loop.thisTrialN,prac_learn_study_loop.thisN,prac_learn_study_loop.thisIndex,prac_learn_study_loop.ran,image,prac_learn_test_loop.thisRepN,prac_learn_test_loop.thisTrialN,prac_learn_test_loop.thisN,prac_learn_test_loop.thisIndex,prac_learn_test_loop.ran,learn_study_loop.thisRepN,learn_study_loop.thisTrialN,learn_study_loop.thisN,learn_study_loop.thisIndex,learn_study_loop.ran,list_no,block_no,learn_test_loop.thisRepN,learn_test_loop.thisTrialN,learn_test_loop.thisN,learn_test_loop.thisIndex,learn_test_loop.ran,learn_blocks.thisRepN,learn_blocks.thisTrialN,learn_blocks.thisN,learn_blocks.thisIndex,learn_blocks.ran,block_csv,key_resp_13.keys,key_resp_13.rt,learn_blocks_loop.thisRepN,learn_blocks_loop.thisTrialN,learn_blocks_loop.thisN,learn_blocks_loop.thisIndex,learn_blocks_loop.ran,final_learn_test.thisRepN,final_learn_test.thisTrialN,final_learn_test.thisN,final_learn_test.thisIndex,final_learn_test.ran,prac_wm_test_loop.thisRepN,prac_wm_test_loop.thisTrialN,prac_wm_test_loop.thisN,prac_wm_test_loop.thisIndex,prac_wm_test_loop.ran,wm_recalled1,wm_recall_rt1,wm_probed1,wm_recall_acc1,wm_recalled2,wm_recall_rt2,wm_probed2,wm_recall_acc2,wm_recalled3,wm_recall_rt3,wm_probed3,wm_recall_acc3,wm_recalled4,wm_recall_rt4,wm_probed4,wm_recall_acc4,prac_wm_trial_loop.thisRepN,prac_wm_trial_loop.thisTrialN,prac_wm_trial_loop.thisN,prac_wm_trial_loop.thisIndex,prac_wm_trial_loop.ran,word1,image1,file1,item_type1,word2,image2,file2,item_type2,word4,image4,file4,item_type4,word3,image3,file3,item_type3,wm_test_loop.thisRepN,wm_test_loop.thisTrialN,wm_test_loop.thisN,wm_test_loop.thisIndex,wm_test_loop.ran,wm_trial_loop.thisRepN,wm_trial_loop.thisTrialN,wm_trial_loop.thisN,wm_trial_loop.thisIndex,wm_trial_loop.ran
y,3.467145,TOUGH,5.00645,1,0,0,0,0,1,stimuli/images/PICTURE_747.png,TOUGH,5eb30ae3d8bf950ee04fe701,06/04/1988,2020-07-08_16h34.25.125,proactive,2020.1.2,Win32,60,5f035e5afe130c270d6ae6dd,5f05e30f2bb2ef0ae6e2e3d6,2,,,,,,,,,,,,,,,,,,,,,,,,,,,,,,,,,,,,,,,,,,,,,,,,,,,,,,,,,,,,,,,,,,,,,,,,,,,,,,,,,,,,,,,,,,,,,
,,,,,,,,,,stimuli/images/PICTURE_697.png,KILLER,5eb30ae3d8bf950ee04fe701,06/04/1988,2020-07-08_16h34.25.125,proactive,2020.1.2,Win32,60,5f035e5afe130c270d6ae6dd,5f05e30f2bb2ef0ae6e2e3d6,2,0,0,0,4,1,peach,,,,,,,,,,,,,,,,,,,,,,,,,,,,,,,,,,,,,,,,,,,,,,,,,,,,,,,,,,,,,,,,,,,,,,,,,,,,,,,,,,,,,,,
,,,,,,,,,,stimuli/images/PICTURE_727.png,CELL,5eb30ae3d8bf950ee04fe701,06/04/1988,2020-07-08_16h34.25.125,proactive,2020.1.2,Win32,60,5f035e5afe130c270d6ae6dd,5f05e30f2bb2ef0ae6e2e3d6,2,0,1,1,1,1,hose,,,,,,,,,,,,,,,,,,,,,,,,,,,,,,,,,,,,,,,,,,,,,,,,,,,,,,,,,,,,,,,,,,,,,,,,,,,,,,,,,,,,,,,
,,,,,,,,,,stimuli/images/PICTURE_658.png,DEVIL,5eb30ae3d8bf950ee04fe701,06/04/1988,2020-07-08_16h34.25.125,proactive,2020.1.2,Win32,60,5f035e5afe130c270d6ae6dd,5f05e30f2bb2ef0ae6e2e3d6,2,0,2,2,3,1,crow,,,,,,,,,,,,,,,,,,,,,,,,,,,,,,,,,,,,,,,,,,,,,,,,,,,,,,,,,,,,,,,,,,,,,,,,,,,,,,,,,,,,,,,
,,,,,,,,,,stimuli/images/PICTURE_269.png,GENIUS,5eb30ae3d8bf950ee04fe701,06/04/1988,2020-07-08_16h34.25.125,proactive,2020.1.2,Win32,60,5f035e5afe130c270d6ae6dd,5f05e30f2bb2ef0ae6e2e3d6,2,0,3,3,0,1,chameleon,,,,,,,,,,,,,,,,,,,,,,,,,,,,,,,,,,,,,,,,,,,,,,,,,,,,,,,,,,,,,,,,,,,,,,,,,,,,,,,,,,,,,,,
,,CELL,3.49227,1,,,,,,stimuli/images/PICTURE_727.png,CELL,5eb30ae3d8bf950ee04fe701,06/04/1988,2020-07-08_16h34.25.125,proactive,2020.1.2,Win32,60,5f035e5afe130c270d6ae6dd,5f05e30f2bb2ef0ae6e2e3d6,2,,,,,,hose,0,0,0,1,1,,,,,,,,,,,,,,,,,,,,,,,,,,,,,,,,,,,,,,,,,,,,,,,,,,,,,,,,,,,,,,,,,,,,,,,,,,,,,,,,,,
,,DEVIL,3.330805,1,,,,,,stimuli/images/PICTURE_658.png,DEVIL,5eb30ae3d8bf950ee04fe701,06/04/1988,2020-07-08_16h34.25.125,proactive,2020.1.2,Win32,60,5f035e5afe130c270d6ae6dd,5f05e30f2bb2ef0ae6e2e3d6,2,,,,,,crow,0,1,1,3,1,,,,,,,,,,,,,,,,,,,,,,,,,,,,,,,,,,,,,,,,,,,,,,,,,,,,,,,,,,,,,,,,,,,,,,,,,,,,,,,,,,
,,KILLER,2.36414,1,,,,,,stimuli/images/PICTURE_697.png,KILLER,5eb30ae3d8bf950ee04fe701,06/04/1988,2020-07-08_16h34.25.125,proactive,2020.1.2,Win32,60,5f035e5afe130c270d6ae6dd,5f05e30f2bb2ef0ae6e2e3d6,2,,,,,,peach,0,2,2,4,1,,,,,,,,,,,,,,,,,,,,,,,,,,,,,,,,,,,,,,,,,,,,,,,,,,,,,,,,,,,,,,,,,,,,,,,,,,,,,,,,,,
,,GENIUS,4.7298,1,,,,,,stimuli/images/PICTURE_269.png,GENIUS,5eb30ae3d8bf950ee04fe701,06/04/1988,2020-07-08_16h34.25.125,proactive,2020.1.2,Win32,60,5f035e5afe130c270d6ae6dd,5f05e30f2bb2ef0ae6e2e3d6,2,,,,,,chameleon,0,3,3,0,1,,,,,,,,,,,,,,,,,,,,,,,,,,,,,,,,,,,,,,,,,,,,,,,,,,,,,,,,,,,,,,,,,,,,,,,,,,,,,,,,,,
,,LOSS,1.51423,1,,,,,,stimuli/images/PICTURE_378.png,LOSS,5eb30ae3d8bf950ee04fe701,06/04/1988,2020-07-08_16h34.25.125,proactive,2020.1.2,Win32,60,5f035e5afe130c270d6ae6dd,5f05e30f2bb2ef0ae6e2e3d6,2,,,,,,lobster,0,4,4,2,1,,,,,,,,,,,,,,,,,,,,,,,,,,,,,,,,,,,,,,,,,,,,,,,,,,,,,,,,,,,,,,,,,,,,,,,,,,,,,,,,,,
,,,,,,,,,,stimuli/images/PICTURE_675.png,SALE,5eb30ae3d8bf950ee04fe701,06/04/1988,2020-07-08_16h34.25.125,proactive,2020.1.2,Win32,60,5f035e5afe130c270d6ae6dd,5f05e30f2bb2ef0ae6e2e3d6,2,,,,,,windmill,,,,,,0,0,0,47,1,5,1,,,,,,,,,,,,,,,,,,,,,,,,,,,,,,,,,,,,,,,,,,,,,,,,,,,,,,,,,,,,,,,,,,,,,,,,,,,
,,,,,,,,,,stimuli/images/PICTURE_380.png,HONEY,5eb30ae3d8bf950ee04fe701,06/04/1988,2020-07-08_16h34.25.125,proactive,2020.1.2,Win32,60,5f035e5afe130c270d6ae6dd,5f05e30f2bb2ef0ae6e2e3d6,2,,,,,,gorilla,,,,,,0,1,1,19,1,2,1,,,,,,,,,,,,,,,,,,,,,,,,,,,,,,,,,,,,,,,,,,,,,,,,,,,,,,,,,,,,,,,,,,,,,,,,,,,
,,,,,,,,,,stimuli/images/PICTURE_667.png,RIVER,5eb30ae3d8bf950ee04fe701,06/04/1988,2020-07-08_16h34.25.125,proactive,2020.1.2,Win32,60,5f035e5afe130c270d6ae6dd,5f05e30f2bb2ef0ae6e2e3d6,2,,,,,,daisy,,,,,,0,2,2,10,1,2,1,,,,,,,,,,,,,,,,,,,,,,,,,,,,,,,,,,,,,,,,,,,,,,,,,,,,,,,,,,,,,,,,,,,,,,,,,,,
,,,,,,,,,,stimuli/images/PICTURE_685.png,PENNY,5eb30ae3d8bf950ee04fe701,06/04/1988,2020-07-08_16h34.25.125,proactive,2020.1.2,Win32,60,5f035e5afe130c270d6ae6dd,5f05e30f2bb2ef0ae6e2e3d6,2,,,,,,goose,,,,,,0,3,3,4,1,1,1,,,,,,,,,,,,,,,,,,,,,,,,,,,,,,,,,,,,,,,,,,,,,,,,,,,,,,,,,,,,,,,,,,,,,,,,,,,
,,,,,,,,,,stimuli/images/PICTURE_744.png,WEAPON,5eb30ae3d8bf950ee04fe701,06/04/1988,2020-07-08_16h34.25.125,proactive,2020.1.2,Win32,60,5f035e5afe130c270d6ae6dd,5f05e30f2bb2ef0ae6e2e3d6,2,,,,,,ring,,,,,,0,4,4,50,1,6,1,,,,,,,,,,,,,,,,,,,,,,,,,,,,,,,,,,,,,,,,,,,,,,,,,,,,,,,,,,,,,,,,,,,,,,,,,,,
,,,,,,,,,,stimuli/images/PICTURE_42.png,BOYS,5eb30ae3d8bf950ee04fe701,06/04/1988,2020-07-08_16h34.25.125,proactive,2020.1.2,Win32,60,5f035e5afe130c270d6ae6dd,5f05e30f2bb2ef0ae6e2e3d6,2,,,,,,pear,,,,,,0,5,5,55,1,6,1,,,,,,,,,,,,,,,,,,,,,,,,,,,,,,,,,,,,,,,,,,,,,,,,,,,,,,,,,,,,,,,,,,,,,,,,,,,
,,,,,,,,,,stimuli/images/PICTURE_340.png,LETTER,5eb30ae3d8bf950ee04fe701,06/04/1988,2020-07-08_16h34.25.125,proactive,2020.1.2,Win32,60,5f035e5afe130c270d6ae6dd,5f05e30f2bb2ef0ae6e2e3d6,2,,,,,,mirror,,,,,,0,6,6,24,1,3,1,,,,,,,,,,,,,,,,,,,,,,,,,,,,,,,,,,,,,,,,,,,,,,,,,,,,,,,,,,,,,,,,,,,,,,,,,,,
,,,,,,,,,,stimuli/images/PICTURE_95.png,HONEY,5eb30ae3d8bf950ee04fe701,06/04/1988,2020-07-08_16h34.25.125,proactive,2020.1.2,Win32,60,5f035e5afe130c270d6ae6dd,5f05e30f2bb2ef0ae6e2e3d6,2,,,,,,suitcase,,,,,,0,7,7,44,1,5,1,,,,,,,,,,,,,,,,,,,,,,,,,,,,,,,,,,,,,,,,,,,,,,,,,,,,,,,,,,,,,,,,,,,,,,,,,,,
,,,,,,,,,,stimuli/images/PICTURE_296.png,LOTS,5eb30ae3d8bf950ee04fe701,06/04/1988,2020-07-08_16h34.25.125,proactive,2020.1.2,Win32,60,5f035e5afe130c270d6ae6dd,5f05e30f2bb2ef0ae6e2e3d6,2,,,,,,bolt,,,,,,0,8,8,9,1,1,1,,,,,,,,,,,,,,,,,,,,,,,,,,,,,,,,,,,,,,,,,,,,,,,,,,,,,,,,,,,,,,,,,,,,,,,,,,,
,,,,,,,,,,stimuli/images/PICTURE_95.png,MILLER,5eb30ae3d8bf950ee04fe701,06/04/1988,2020-07-08_16h34.25.125,proactive,2020.1.2,Win32,60,5f035e5afe130c270d6ae6dd,5f05e30f2bb2ef0ae6e2e3d6,2,,,,,,suitcase,,,,,,0,9,9,56,1,6,1,,,,,,,,,,,,,,,,,,,,,,,,,,,,,,,,,,,,,,,,,,,,,,,,,,,,,,,,,,,,,,,,,,,,,,,,,,,
,,,,,,,,,,stimuli/images/PICTURE_57.png,MOMENT,5eb30ae3d8bf950ee04fe701,06/04/1988,2020-07-08_16h34.25.125,proactive,2020.1.2,Win32,60,5f035e5afe130c270d6ae6dd,5f05e30f2bb2ef0ae6e2e3d6,2,,,,,,stamp,,,,,,0,10,10,37,1,4,1,,,,,,,,,,,,,,,,,,,,,,,,,,,,,,,,,,,,,,,,,,,,,,,,,,,,,,,,,,,,,,,,,,,,,,,,,,,
,,,,,,,,,,stimuli/images/PICTURE_68.png,MILE,5eb30ae3d8bf950ee04fe701,06/04/1988,2020-07-08_16h34.25.125,proactive,2020.1.2,Win32,60,5f035e5afe130c270d6ae6dd,5f05e30f2bb2ef0ae6e2e3d6,2,,,,,,candle,,,,,,0,11,11,51,1,6,1,,,,,,,,,,,,,,,,,,,,,,,,,,,,,,,,,,,,,,,,,,,,,,,,,,,,,,,,,,,,,,,,,,,,,,,,,,,
,,,,,,,,,,stimuli/images/PICTURE_380.png,CANDY,5eb30ae3d8bf950ee04fe701,06/04/1988,2020-07-08_16h34.25.125,proactive,2020.1.2,Win32,60,5f035e5afe130c270d6ae6dd,5f05e30f2bb2ef0ae6e2e3d6,2,,,,,,gorilla,,,,,,0,12,12,0,1,1,1,,,,,,,,,,,,,,,,,,,,,,,,,,,,,,,,,,,,,,,,,,,,,,,,,,,,,,,,,,,,,,,,,,,,,,,,,,,
,,,,,,,,,,stimuli/images/PICTURE_504.png,ARTIST,5eb30ae3d8bf950ee04fe701,06/04/1988,2020-07-08_16h34.25.125,proactive,2020.1.2,Win32,60,5f035e5afe130c270d6ae6dd,5f05e30f2bb2ef0ae6e2e3d6,2,,,,,,wheel,,,,,,0,13,13,49,1,5,1,,,,,,,,,,,,,,,,,,,,,,,,,,,,,,,,,,,,,,,,,,,,,,,,,,,,,,,,,,,,,,,,,,,,,,,,,,,
,,,,,,,,,,stimuli/images/PICTURE_564.png,BATH,5eb30ae3d8bf950ee04fe701,06/04/1988,2020-07-08_16h34.25.125,proactive,2020.1.2,Win32,60,5f035e5afe130c270d6ae6dd,5f05e30f2bb2ef0ae6e2e3d6,2,,,,,,spoon,,,,,,0,14,14,26,1,3,1,,,,,,,,,,,,,,,,,,,,,,,,,,,,,,,,,,,,,,,,,,,,,,,,,,,,,,,,,,,,,,,,,,,,,,,,,,,
,,,,,,,,,,stimuli/images/PICTURE_383.png,WRITER,5eb30ae3d8bf950ee04fe701,06/04/1988,2020-07-08_16h34.25.125,proactive,2020.1.2,Win32,60,5f035e5afe130c270d6ae6dd,5f05e30f2bb2ef0ae6e2e3d6,2,,,,,,coin,,,,,,0,15,15,28,1,3,1,,,,,,,,,,,,,,,,,,,,,,,,,,,,,,,,,,,,,,,,,,,,,,,,,,,,,,,,,,,,,,,,,,,,,,,,,,,
,,,,,,,,,,stimuli/images/PICTURE_177.png,WRITER,5eb30ae3d8bf950ee04fe701,06/04/1988,2020-07-08_16h34.25.125,proactive,2020.1.2,Win32,60,5f035e5afe130c270d6ae6dd,5f05e30f2bb2ef0ae6e2e3d6,2,,,,,,mushroom,,,,,,0,16,16,41,1,5,1,,,,,,,,,,,,,,,,,,,,,,,,,,,,,,,,,,,,,,,,,,,,,,,,,,,,,,,,,,,,,,,,,,,,,,,,,,,
,,,,,,,,,,stimuli/images/PICTURE_32.png,PILLS,5eb30ae3d8bf950ee04fe701,06/04/1988,2020-07-08_16h34.25.125,proactive,2020.1.2,Win32,60,5f035e5afe130c270d6ae6dd,5f05e30f2bb2ef0ae6e2e3d6,2,,,,,,crown,,,,,,0,17,17,18,1,2,1,,,,,,,,,,,,,,,,,,,,,,,,,,,,,,,,,,,,,,,,,,,,,,,,,,,,,,,,,,,,,,,,,,,,,,,,,,,
,,,,,,,,,,stimuli/images/PICTURE_85.png,NATION,5eb30ae3d8bf950ee04fe701,06/04/1988,2020-07-08_16h34.25.125,proactive,2020.1.2,Win32,60,5f035e5afe130c270d6ae6dd,5f05e30f2bb2ef0ae6e2e3d6,2,,,,,,diamond,,,,,,0,18,18,5,1,1,1,,,,,,,,,,,,,,,,,,,,,,,,,,,,,,,,,,,,,,,,,,,,,,,,,,,,,,,,,,,,,,,,,,,,,,,,,,,
,,,,,,,,,,stimuli/images/PICTURE_491.png,RIVER,5eb30ae3d8bf950ee04fe701,06/04/1988,2020-07-08_16h34.25.125,proactive,2020.1.2,Win32,60,5f035e5afe130c270d6ae6dd,5f05e30f2bb2ef0ae6e2e3d6,2,,,,,,rug,,,,,,0,19,19,6,1,1,1,,,,,,,,,,,,,,,,,,,,,,,,,,,,,,,,,,,,,,,,,,,,,,,,,,,,,,,,,,,,,,,,,,,,,,,,,,,
,,,,,,,,,,stimuli/images/PICTURE_403.png,TOILET,5eb30ae3d8bf950ee04fe701,06/04/1988,2020-07-08_16h34.25.125,proactive,2020.1.2,Win32,60,5f035e5afe130c270d6ae6dd,5f05e30f2bb2ef0ae6e2e3d6,2,,,,,,cathedral,,,,,,0,20,20,25,1,3,1,,,,,,,,,,,,,,,,,,,,,,,,,,,,,,,,,,,,,,,,,,,,,,,,,,,,,,,,,,,,,,,,,,,,,,,,,,,
,,,,,,,,,,stimuli/images/PICTURE_504.png,YEAR,5eb30ae3d8bf950ee04fe701,06/04/1988,2020-07-08_16h34.25.125,proactive,2020.1.2,Win32,60,5f035e5afe130c270d6ae6dd,5f05e30f2bb2ef0ae6e2e3d6,2,,,,,,wheel,,,,,,0,21,21,13,1,2,1,,,,,,,,,,,,,,,,,,,,,,,,,,,,,,,,,,,,,,,,,,,,,,,,,,,,,,,,,,,,,,,,,,,,,,,,,,,
,,,,,,,,,,stimuli/images/PICTURE_383.png,SERIES,5eb30ae3d8bf950ee04fe701,06/04/1988,2020-07-08_16h34.25.125,proactive,2020.1.2,Win32,60,5f035e5afe130c270d6ae6dd,5f05e30f2bb2ef0ae6e2e3d6,2,,,,,,coin,,,,,,0,22,22,46,1,5,1,,,,,,,,,,,,,,,,,,,,,,,,,,,,,,,,,,,,,,,,,,,,,,,,,,,,,,,,,,,,,,,,,,,,,,,,,,,
,,,,,,,,,,stimuli/images/PICTURE_95.png,BOYS,5eb30ae3d8bf950ee04fe701,06/04/1988,2020-07-08_16h34.25.125,proactive,2020.1.2,Win32,60,5f035e5afe130c270d6ae6dd,5f05e30f2bb2ef0ae6e2e3d6,2,,,,,,suitcase,,,,,,0,23,23,1,1,1,1,,,,,,,,,,,,,,,,,,,,,,,,,,,,,,,,,,,,,,,,,,,,,,,,,,,,,,,,,,,,,,,,,,,,,,,,,,,
,,,,,,,,,,stimuli/images/PICTURE_403.png,WRITER,5eb30ae3d8bf950ee04fe701,06/04/1988,2020-07-08_16h34.25.125,proactive,2020.1.2,Win32,60,5f035e5afe130c270d6ae6dd,5f05e30f2bb2ef0ae6e2e3d6,2,,,,,,cathedral,,,,,,0,24,24,31,1,4,1,,,,,,,,,,,,,,,,,,,,,,,,,,,,,,,,,,,,,,,,,,,,,,,,,,,,,,,,,,,,,,,,,,,,,,,,,,,
,,,,,,,,,,stimuli/images/PICTURE_403.png,RIVER,5eb30ae3d8bf950ee04fe701,06/04/1988,2020-07-08_16h34.25.125,proactive,2020.1.2,Win32,60,5f035e5afe130c270d6ae6dd,5f05e30f2bb2ef0ae6e2e3d6,2,,,,,,cathedral,,,,,,0,25,25,40,1,5,1,,,,,,,,,,,,,,,,,,,,,,,,,,,,,,,,,,,,,,,,,,,,,,,,,,,,,,,,,,,,,,,,,,,,,,,,,,,
,,,,,,,,,,stimuli/images/PICTURE_467.png,POLICY,5eb30ae3d8bf950ee04fe701,06/04/1988,2020-07-08_16h34.25.125,proactive,2020.1.2,Win32,60,5f035e5afe130c270d6ae6dd,5f05e30f2bb2ef0ae6e2e3d6,2,,,,,,peg,,,,,,0,26,26,53,1,6,1,,,,,,,,,,,,,,,,,,,,,,,,,,,,,,,,,,,,,,,,,,,,,,,,,,,,,,,,,,,,,,,,,,,,,,,,,,,
,,,,,,,,,,stimuli/images/PICTURE_33.png,FRIEND,5eb30ae3d8bf950ee04fe701,06/04/1988,2020-07-08_16h34.25.125,proactive,2020.1.2,Win32,60,5f035e5afe130c270d6ae6dd,5f05e30f2bb2ef0ae6e2e3d6,2,,,,,,frame,,,,,,0,27,27,8,1,1,1,,,,,,,,,,,,,,,,,,,,,,,,,,,,,,,,,,,,,,,,,,,,,,,,,,,,,,,,,,,,,,,,,,,,,,,,,,,
,,,,,,,,,,stimuli/images/PICTURE_285.png,LIFE,5eb30ae3d8bf950ee04fe701,06/04/1988,2020-07-08_16h34.25.125,proactive,2020.1.2,Win32,60,5f035e5afe130c270d6ae6dd,5f05e30f2bb2ef0ae6e2e3d6,2,,,,,,carrot,,,,,,0,28,28,33,1,4,1,,,,,,,,,,,,,,,,,,,,,,,,,,,,,,,,,,,,,,,,,,,,,,,,,,,,,,,,,,,,,,,,,,,,,,,,,,,
,,,,,,,,,,stimuli/images/PICTURE_296.png,LIFE,5eb30ae3d8bf950ee04fe701,06/04/1988,2020-07-08_16h34.25.125,proactive,2020.1.2,Win32,60,5f035e5afe130c270d6ae6dd,5f05e30f2bb2ef0ae6e2e3d6,2,,,,,,bolt,,,,,,0,29,29,57,1,6,1,,,,,,,,,,,,,,,,,,,,,,,,,,,,,,,,,,,,,,,,,,,,,,,,,,,,,,,,,,,,,,,,,,,,,,,,,,,
,,,,,,,,,,stimuli/images/PICTURE_208.png,SYSTEM,5eb30ae3d8bf950ee04fe701,06/04/1988,2020-07-08_16h34.25.125,proactive,2020.1.2,Win32,60,5f035e5afe130c270d6ae6dd,5f05e30f2bb2ef0ae6e2e3d6,2,,,,,,microphone,,,,,,0,30,30,32,1,4,1,,,,,,,,,,,,,,,,,,,,,,,,,,,,,,,,,,,,,,,,,,,,,,,,,,,,,,,,,,,,,,,,,,,,,,,,,,,
,,,,,,,,,,stimuli/images/PICTURE_405.png,YEAR,5eb30ae3d8bf950ee04fe701,06/04/1988,2020-07-08_16h34.25.125,proactive,2020.1.2,Win32,60,5f035e5afe130c270d6ae6dd,5f05e30f2bb2ef0ae6e2e3d6,2,,,,,,anchor,,,,,,0,31,31,34,1,4,1,,,,,,,,,,,,,,,,,,,,,,,,,,,,,,,,,,,,,,,,,,,,,,,,,,,,,,,,,,,,,,,,,,,,,,,,,,,
,,,,,,,,,,stimuli/images/PICTURE_297.png,RIVER,5eb30ae3d8bf950ee04fe701,06/04/1988,2020-07-08_16h34.25.125,proactive,2020.1.2,Win32,60,5f035e5afe130c270d6ae6dd,5f05e30f2bb2ef0ae6e2e3d6,2,,,,,,aeroplane,,,,,,0,32,32,39,1,4,1,,,,,,,,,,,,,,,,,,,,,,,,,,,,,,,,,,,,,,,,,,,,,,,,,,,,,,,,,,,,,,,,,,,,,,,,,,,
,,,,,,,,,,stimuli/images/PICTURE_203.png,NIGHT,5eb30ae3d8bf950ee04fe701,06/04/1988,2020-07-08_16h34.25.125,proactive,2020.1.2,Win32,60,5f035e5afe130c270d6ae6dd,5f05e30f2bb2ef0ae6e2e3d6,2,,,,,,cap,,,,,,0,33,33,2,1,1,1,,,,,,,,,,,,,,,,,,,,,,,,,,,,,,,,,,,,,,,,,,,,,,,,,,,,,,,,,,,,,,,,,,,,,,,,,,,
,,,,,,,,,,stimuli/images/PICTURE_491.png,GLASS,5eb30ae3d8bf950ee04fe701,06/04/1988,2020-07-08_16h34.25.125,proactive,2020.1.2,Win32,60,5f035e5afe130c270d6ae6dd,5f05e30f2bb2ef0ae6e2e3d6,2,,,,,,rug,,,,,,0,34,34,14,1,2,1,,,,,,,,,,,,,,,,,,,,,,,,,,,,,,,,,,,,,,,,,,,,,,,,,,,,,,,,,,,,,,,,,,,,,,,,,,,
,,,,,,,,,,stimuli/images/PICTURE_2.png,FLIGHT,5eb30ae3d8bf950ee04fe701,06/04/1988,2020-07-08_16h34.25.125,proactive,2020.1.2,Win32,60,5f035e5afe130c270d6ae6dd,5f05e30f2bb2ef0ae6e2e3d6,2,,,,,,tyre,,,,,,0,35,35,15,1,2,1,,,,,,,,,,,,,,,,,,,,,,,,,,,,,,,,,,,,,,,,,,,,,,,,,,,,,,,,,,,,,,,,,,,,,,,,,,,
,,,,,,,,,,stimuli/images/PICTURE_750.png,HOTEL,5eb30ae3d8bf950ee04fe701,06/04/1988,2020-07-08_16h34.25.125,proactive,2020.1.2,Win32,60,5f035e5afe130c270d6ae6dd,5f05e30f2bb2ef0ae6e2e3d6,2,,,,,,kettle,,,,,,0,36,36,27,1,3,1,,,,,,,,,,,,,,,,,,,,,,,,,,,,,,,,,,,,,,,,,,,,,,,,,,,,,,,,,,,,,,,,,,,,,,,,,,,
,,,,,,,,,,stimuli/images/PICTURE_449.png,DUDE,5eb30ae3d8bf950ee04fe701,06/04/1988,2020-07-08_16h34.25.125,proactive,2020.1.2,Win32,60,5f035e5afe130c270d6ae6dd,5f05e30f2bb2ef0ae6e2e3d6,2,,,,,,bench,,,,,,0,37,37,17,1,2,1,,,,,,,,,,,,,,,,,,,,,,,,,,,,,,,,,,,,,,,,,,,,,,,,,,,,,,,,,,,,,,,,,,,,,,,,,,,
,,,,,,,,,,stimuli/images/PICTURE_308.png,FAMILY,5eb30ae3d8bf950ee04fe701,06/04/1988,2020-07-08_16h34.25.125,proactive,2020.1.2,Win32,60,5f035e5afe130c270d6ae6dd,5f05e30f2bb2ef0ae6e2e3d6,2,,,,,,dice,,,,,,0,38,38,36,1,4,1,,,,,,,,,,,,,,,,,,,,,,,,,,,,,,,,,,,,,,,,,,,,,,,,,,,,,,,,,,,,,,,,,,,,,,,,,,,
,,,,,,,,,,stimuli/images/PICTURE_147.png,WOMEN,5eb30ae3d8bf950ee04fe701,06/04/1988,2020-07-08_16h34.25.125,proactive,2020.1.2,Win32,60,5f035e5afe130c270d6ae6dd,5f05e30f2bb2ef0ae6e2e3d6,2,,,,,,hanger,,,,,,0,39,39,7,1,1,1,,,,,,,,,,,,,,,,,,,,,,,,,,,,,,,,,,,,,,,,,,,,,,,,,,,,,,,,,,,,,,,,,,,,,,,,,,,
,,,,,,,,,,stimuli/images/PICTURE_708.png,RECORD,5eb30ae3d8bf950ee04fe701,06/04/1988,2020-07-08_16h34.25.125,proactive,2020.1.2,Win32,60,5f035e5afe130c270d6ae6dd,5f05e30f2bb2ef0ae6e2e3d6,2,,,,,,monkey,,,,,,0,40,40,58,1,6,1,,,,,,,,,,,,,,,,,,,,,,,,,,,,,,,,,,,,,,,,,,,,,,,,,,,,,,,,,,,,,,,,,,,,,,,,,,,
,,,,,,,,,,stimuli/images/PICTURE_203.png,GODS,5eb30ae3d8bf950ee04fe701,06/04/1988,2020-07-08_16h34.25.125,proactive,2020.1.2,Win32,60,5f035e5afe130c270d6ae6dd,5f05e30f2bb2ef0ae6e2e3d6,2,,,,,,cap,,,,,,0,41,41,30,1,4,1,,,,,,,,,,,,,,,,,,,,,,,,,,,,,,,,,,,,,,,,,,,,,,,,,,,,,,,,,,,,,,,,,,,,,,,,,,,
,,,,,,,,,,stimuli/images/PICTURE_654.png,MONTH,5eb30ae3d8bf950ee04fe701,06/04/1988,2020-07-08_16h34.25.125,proactive,2020.1.2,Win32,60,5f035e5afe130c270d6ae6dd,5f05e30f2bb2ef0ae6e2e3d6,2,,,,,,pencil,,,,,,0,42,42,29,1,3,1,,,,,,,,,,,,,,,,,,,,,,,,,,,,,,,,,,,,,,,,,,,,,,,,,,,,,,,,,,,,,,,,,,,,,,,,,,,
,,,,,,,,,,stimuli/images/PICTURE_327.png,CASINO,5eb30ae3d8bf950ee04fe701,06/04/1988,2020-07-08_16h34.25.125,proactive,2020.1.2,Win32,60,5f035e5afe130c270d6ae6dd,5f05e30f2bb2ef0ae6e2e3d6,2,,,,,,helmet,,,,,,0,43,43,20,1,3,1,,,,,,,,,,,,,,,,,,,,,,,,,,,,,,,,,,,,,,,,,,,,,,,,,,,,,,,,,,,,,,,,,,,,,,,,,,,
,,,,,,,,,,stimuli/images/PICTURE_233.png,LOTS,5eb30ae3d8bf950ee04fe701,06/04/1988,2020-07-08_16h34.25.125,proactive,2020.1.2,Win32,60,5f035e5afe130c270d6ae6dd,5f05e30f2bb2ef0ae6e2e3d6,2,,,,,,salt,,,,,,0,44,44,42,1,5,1,,,,,,,,,,,,,,,,,,,,,,,,,,,,,,,,,,,,,,,,,,,,,,,,,,,,,,,,,,,,,,,,,,,,,,,,,,,
,,,,,,,,,,stimuli/images/PICTURE_340.png,VALLEY,5eb30ae3d8bf950ee04fe701,06/04/1988,2020-07-08_16h34.25.125,proactive,2020.1.2,Win32,60,5f035e5afe130c270d6ae6dd,5f05e30f2bb2ef0ae6e2e3d6,2,,,,,,mirror,,,,,,0,45,45,54,1,6,1,,,,,,,,,,,,,,,,,,,,,,,,,,,,,,,,,,,,,,,,,,,,,,,,,,,,,,,,,,,,,,,,,,,,,,,,,,,
,,,,,,,,,,stimuli/images/PICTURE_339.png,CLIENT,5eb30ae3d8bf950ee04fe701,06/04/1988,2020-07-08_16h34.25.125,proactive,2020.1.2,Win32,60,5f035e5afe130c270d6ae6dd,5f05e30f2bb2ef0ae6e2e3d6,2,,,,,,backpack,,,,,,0,46,46,11,1,2,1,,,,,,,,,,,,,,,,,,,,,,,,,,,,,,,,,,,,,,,,,,,,,,,,,,,,,,,,,,,,,,,,,,,,,,,,,,,
,,,,,,,,,,stimuli/images/PICTURE_504.png,COPS,5eb30ae3d8bf950ee04fe701,06/04/1988,2020-07-08_16h34.25.125,proactive,2020.1.2,Win32,60,5f035e5afe130c270d6ae6dd,5f05e30f2bb2ef0ae6e2e3d6,2,,,,,,wheel,,,,,,0,47,47,52,1,6,1,,,,,,,,,,,,,,,,,,,,,,,,,,,,,,,,,,,,,,,,,,,,,,,,,,,,,,,,,,,,,,,,,,,,,,,,,,,
,,,,,,,,,,stimuli/images/PICTURE_108.png,FLIGHT,5eb30ae3d8bf950ee04fe701,06/04/1988,2020-07-08_16h34.25.125,proactive,2020.1.2,Win32,60,5f035e5afe130c270d6ae6dd,5f05e30f2bb2ef0ae6e2e3d6,2,,,,,,calendar,,,,,,0,48,48,59,1,6,1,,,,,,,,,,,,,,,,,,,,,,,,,,,,,,,,,,,,,,,,,,,,,,,,,,,,,,,,,,,,,,,,,,,,,,,,,,,
,,,,,,,,,,stimuli/images/PICTURE_32.png,KIND,5eb30ae3d8bf950ee04fe701,06/04/1988,2020-07-08_16h34.25.125,proactive,2020.1.2,Win32,60,5f035e5afe130c270d6ae6dd,5f05e30f2bb2ef0ae6e2e3d6,2,,,,,,crown,,,,,,0,49,49,35,1,4,1,,,,,,,,,,,,,,,,,,,,,,,,,,,,,,,,,,,,,,,,,,,,,,,,,,,,,,,,,,,,,,,,,,,,,,,,,,,
,,,,,,,,,,stimuli/images/PICTURE_327.png,SERIES,5eb30ae3d8bf950ee04fe701,06/04/1988,2020-07-08_16h34.25.125,proactive,2020.1.2,Win32,60,5f035e5afe130c270d6ae6dd,5f05e30f2bb2ef0ae6e2e3d6,2,,,,,,helmet,,,,,,0,50,50,3,1,1,1,,,,,,,,,,,,,,,,,,,,,,,,,,,,,,,,,,,,,,,,,,,,,,,,,,,,,,,,,,,,,,,,,,,,,,,,,,,
,,,,,,,,,,stimuli/images/PICTURE_677.png,APPLE,5eb30ae3d8bf950ee04fe701,06/04/1988,2020-07-08_16h34.25.125,proactive,2020.1.2,Win32,60,5f035e5afe130c270d6ae6dd,5f05e30f2bb2ef0ae6e2e3d6,2,,,,,,map,,,,,,0,51,51,43,1,5,1,,,,,,,,,,,,,,,,,,,,,,,,,,,,,,,,,,,,,,,,,,,,,,,,,,,,,,,,,,,,,,,,,,,,,,,,,,,
,,,,,,,,,,stimuli/images/PICTURE_655.png,TOILET,5eb30ae3d8bf950ee04fe701,06/04/1988,2020-07-08_16h34.25.125,proactive,2020.1.2,Win32,60,5f035e5afe130c270d6ae6dd,5f05e30f2bb2ef0ae6e2e3d6,2,,,,,,megaphone,,,,,,0,52,52,12,1,2,1,,,,,,,,,,,,,,,,,,,,,,,,,,,,,,,,,,,,,,,,,,,,,,,,,,,,,,,,,,,,,,,,,,,,,,,,,,,
,,,,,,,,,,stimuli/images/PICTURE_108.png,POLICY,5eb30ae3d8bf950ee04fe701,06/04/1988,2020-07-08_16h34.25.125,proactive,2020.1.2,Win32,60,5f035e5afe130c270d6ae6dd,5f05e30f2bb2ef0ae6e2e3d6,2,,,,,,calendar,,,,,,0,53,53,22,1,3,1,,,,,,,,,,,,,,,,,,,,,,,,,,,,,,,,,,,,,,,,,,,,,,,,,,,,,,,,,,,,,,,,,,,,,,,,,,,
,,,,,,,,,,stimuli/images/PICTURE_68.png,ROOF,5eb30ae3d8bf950ee04fe701,06/04/1988,2020-07-08_16h34.25.125,proactive,2020.1.2,Win32,60,5f035e5afe130c270d6ae6dd,5f05e30f2bb2ef0ae6e2e3d6,2,,,,,,candle,,,,,,0,54,54,38,1,4,1,,,,,,,,,,,,,,,,,,,,,,,,,,,,,,,,,,,,,,,,,,,,,,,,,,,,,,,,,,,,,,,,,,,,,,,,,,,
,,,,,,,,,,stimuli/images/PICTURE_147.png,YEAR,5eb30ae3d8bf950ee04fe701,06/04/1988,2020-07-08_16h34.25.125,proactive,2020.1.2,Win32,60,5f035e5afe130c270d6ae6dd,5f05e30f2bb2ef0ae6e2e3d6,2,,,,,,hanger,,,,,,0,55,55,21,1,3,1,,,,,,,,,,,,,,,,,,,,,,,,,,,,,,,,,,,,,,,,,,,,,,,,,,,,,,,,,,,,,,,,,,,,,,,,,,,
,,,,,,,,,,stimuli/images/PICTURE_405.png,PLENTY,5eb30ae3d8bf950ee04fe701,06/04/1988,2020-07-08_16h34.25.125,proactive,2020.1.2,Win32,60,5f035e5afe130c270d6ae6dd,5f05e30f2bb2ef0ae6e2e3d6,2,,,,,,anchor,,,,,,0,56,56,23,1,3,1,,,,,,,,,,,,,,,,,,,,,,,,,,,,,,,,,,,,,,,,,,,,,,,,,,,,,,,,,,,,,,,,,,,,,,,,,,,
,,,,,,,,,,stimuli/images/PICTURE_487.png,GIRL,5eb30ae3d8bf950ee04fe701,06/04/1988,2020-07-08_16h34.25.125,proactive,2020.1.2,Win32,60,5f035e5afe130c270d6ae6dd,5f05e30f2bb2ef0ae6e2e3d6,2,,,,,,basket,,,,,,0,57,57,45,1,5,1,,,,,,,,,,,,,,,,,,,,,,,,,,,,,,,,,,,,,,,,,,,,,,,,,,,,,,,,,,,,,,,,,,,,,,,,,,,
,,,,,,,,,,stimuli/images/PICTURE_469.png,AGENT,5eb30ae3d8bf950ee04fe701,06/04/1988,2020-07-08_16h34.25.125,proactive,2020.1.2,Win32,60,5f035e5afe130c270d6ae6dd,5f05e30f2bb2ef0ae6e2e3d6,2,,,,,,stool,,,,,,0,58,58,16,1,2,1,,,,,,,,,,,,,,,,,,,,,,,,,,,,,,,,,,,,,,,,,,,,,,,,,,,,,,,,,,,,,,,,,,,,,,,,,,,
,,?,0.006925,0,,,,,,stimuli/images/PICTURE_405.png,PLENTY,5eb30ae3d8bf950ee04fe701,06/04/1988,2020-07-08_16h34.25.125,proactive,2020.1.2,Win32,60,5f035e5afe130c270d6ae6dd,5f05e30f2bb2ef0ae6e2e3d6,2,,,,,,anchor,,,,,,,,,,,3,1,0,0,0,23,1,,,,,,,,,,,,,,,,,,,,,,,,,,,,,,,,,,,,,,,,,,,,,,,,,,,,,,,,,,,,,,,,,,,,,,
,,?,0.00336,0,,,,,,stimuli/images/PICTURE_675.png,SALE,5eb30ae3d8bf950ee04fe701,06/04/1988,2020-07-08_16h34.25.125,proactive,2020.1.2,Win32,60,5f035e5afe130c270d6ae6dd,5f05e30f2bb2ef0ae6e2e3d6,2,,,,,,windmill,,,,,,,,,,,5,1,0,1,1,47,1,,,,,,,,,,,,,,,,,,,,,,,,,,,,,,,,,,,,,,,,,,,,,,,,,,,,,,,,,,,,,,,,,,,,,,
,,?,0.00335,0,,,,,,stimuli/images/PICTURE_297.png,RIVER,5eb30ae3d8bf950ee04fe701,06/04/1988,2020-07-08_16h34.25.125,proactive,2020.1.2,Win32,60,5f035e5afe130c270d6ae6dd,5f05e30f2bb2ef0ae6e2e3d6,2,,,,,,aeroplane,,,,,,,,,,,4,1,0,2,2,39,1,,,,,,,,,,,,,,,,,,,,,,,,,,,,,,,,,,,,,,,,,,,,,,,,,,,,,,,,,,,,,,,,,,,,,,
,,?,0.006195,0,,,,,,stimuli/images/PICTURE_85.png,NATION,5eb30ae3d8bf950ee04fe701,06/04/1988,2020-07-08_16h34.25.125,proactive,2020.1.2,Win32,60,5f035e5afe130c270d6ae6dd,5f05e30f2bb2ef0ae6e2e3d6,2,,,,,,diamond,,,,,,,,,,,1,1,0,3,3,5,1,,,,,,,,,,,,,,,,,,,,,,,,,,,,,,,,,,,,,,,,,,,,,,,,,,,,,,,,,,,,,,,,,,,,,,
,,?,0.00298,0,,,,,,stimuli/images/PICTURE_403.png,WRITER,5eb30ae3d8bf950ee04fe701,06/04/1988,2020-07-08_16h34.25.125,proactive,2020.1.2,Win32,60,5f035e5afe130c270d6ae6dd,5f05e30f2bb2ef0ae6e2e3d6,2,,,,,,cathedral,,,,,,,,,,,4,1,0,4,4,31,1,,,,,,,,,,,,,,,,,,,,,,,,,,,,,,,,,,,,,,,,,,,,,,,,,,,,,,,,,,,,,,,,,,,,,,
,,?,0.002625,0,,,,,,stimuli/images/PICTURE_296.png,LIFE,5eb30ae3d8bf950ee04fe701,06/04/1988,2020-07-08_16h34.25.125,proactive,2020.1.2,Win32,60,5f035e5afe130c270d6ae6dd,5f05e30f2bb2ef0ae6e2e3d6,2,,,,,,bolt,,,,,,,,,,,6,1,0,5,5,57,1,,,,,,,,,,,,,,,,,,,,,,,,,,,,,,,,,,,,,,,,,,,,,,,,,,,,,,,,,,,,,,,,,,,,,,
,,?,0.00265,0,,,,,,stimuli/images/PICTURE_654.png,MONTH,5eb30ae3d8bf950ee04fe701,06/04/1988,2020-07-08_16h34.25.125,proactive,2020.1.2,Win32,60,5f035e5afe130c270d6ae6dd,5f05e30f2bb2ef0ae6e2e3d6,2,,,,,,pencil,,,,,,,,,,,3,1,0,6,6,29,1,,,,,,,,,,,,,,,,,,,,,,,,,,,,,,,,,,,,,,,,,,,,,,,,,,,,,,,,,,,,,,,,,,,,,,
,,?,0.002695,0,,,,,,stimuli/images/PICTURE_147.png,WOMEN,5eb30ae3d8bf950ee04fe701,06/04/1988,2020-07-08_16h34.25.125,proactive,2020.1.2,Win32,60,5f035e5afe130c270d6ae6dd,5f05e30f2bb2ef0ae6e2e3d6,2,,,,,,hanger,,,,,,,,,,,1,1,0,7,7,7,1,,,,,,,,,,,,,,,,,,,,,,,,,,,,,,,,,,,,,,,,,,,,,,,,,,,,,,,,,,,,,,,,,,,,,,
,,?,0.00276,0,,,,,,stimuli/images/PICTURE_85.png,TOILET,5eb30ae3d8bf950ee04fe701,06/04/1988,2020-07-08_16h34.25.125,proactive,2020.1.2,Win32,60,5f035e5afe130c270d6ae6dd,5f05e30f2bb2ef0ae6e2e3d6,2,,,,,,diamond,,,,,,,,,,,5,1,0,8,8,48,1,,,,,,,,,,,,,,,,,,,,,,,,,,,,,,,,,,,,,,,,,,,,,,,,,,,,,,,,,,,,,,,,,,,,,,
,,?,0.002645,0,,,,,,stimuli/images/PICTURE_95.png,MILLER,5eb30ae3d8bf950ee04fe701,06/04/1988,2020-07-08_16h34.25.125,proactive,2020.1.2,Win32,60,5f035e5afe130c270d6ae6dd,5f05e30f2bb2ef0ae6e2e3d6,2,,,,,,suitcase,,,,,,,,,,,6,1,0,9,9,56,1,,,,,,,,,,,,,,,,,,,,,,,,,,,,,,,,,,,,,,,,,,,,,,,,,,,,,,,,,,,,,,,,,,,,,,
,,GLASS,3.059065,1,,,,,,stimuli/images/PICTURE_491.png,GLASS,5eb30ae3d8bf950ee04fe701,06/04/1988,2020-07-08_16h34.25.125,proactive,2020.1.2,Win32,60,5f035e5afe130c270d6ae6dd,5f05e30f2bb2ef0ae6e2e3d6,2,,,,,,rug,,,,,,,,,,,2,1,0,10,10,14,1,,,,,,,,,,,,,,,,,,,,,,,,,,,,,,,,,,,,,,,,,,,,,,,,,,,,,,,,,,,,,,,,,,,,,,
,,?,0.003245,0,,,,,,stimuli/images/PICTURE_340.png,VALLEY,5eb30ae3d8bf950ee04fe701,06/04/1988,2020-07-08_16h34.25.125,proactive,2020.1.2,Win32,60,5f035e5afe130c270d6ae6dd,5f05e30f2bb2ef0ae6e2e3d6,2,,,,,,mirror,,,,,,,,,,,6,1,0,11,11,54,1,,,,,,,,,,,,,,,,,,,,,,,,,,,,,,,,,,,,,,,,,,,,,,,,,,,,,,,,,,,,,,,,,,,,,,
,,?,0.00497,0,,,,,,stimuli/images/PICTURE_383.png,WRITER,5eb30ae3d8bf950ee04fe701,06/04/1988,2020-07-08_16h34.25.125,proactive,2020.1.2,Win32,60,5f035e5afe130c270d6ae6dd,5f05e30f2bb2ef0ae6e2e3d6,2,,,,,,coin,,,,,,,,,,,3,1,0,12,12,28,1,,,,,,,,,,,,,,,,,,,,,,,,,,,,,,,,,,,,,,,,,,,,,,,,,,,,,,,,,,,,,,,,,,,,,,
,,?,0.002295,0,,,,,,stimuli/images/PICTURE_340.png,LETTER,5eb30ae3d8bf950ee04fe701,06/04/1988,2020-07-08_16h34.25.125,proactive,2020.1.2,Win32,60,5f035e5afe130c270d6ae6dd,5f05e30f2bb2ef0ae6e2e3d6,2,,,,,,mirror,,,,,,,,,,,3,1,0,13,13,24,1,,,,,,,,,,,,,,,,,,,,,,,,,,,,,,,,,,,,,,,,,,,,,,,,,,,,,,,,,,,,,,,,,,,,,,
,,?,0.001975,0,,,,,,stimuli/images/PICTURE_108.png,POLICY,5eb30ae3d8bf950ee04fe701,06/04/1988,2020-07-08_16h34.25.125,proactive,2020.1.2,Win32,60,5f035e5afe130c270d6ae6dd,5f05e30f2bb2ef0ae6e2e3d6,2,,,,,,calendar,,,,,,,,,,,3,1,0,14,14,22,1,,,,,,,,,,,,,,,,,,,,,,,,,,,,,,,,,,,,,,,,,,,,,,,,,,,,,,,,,,,,,,,,,,,,,,
,,?,0.002415,0,,,,,,stimuli/images/PICTURE_285.png,LIFE,5eb30ae3d8bf950ee04fe701,06/04/1988,2020-07-08_16h34.25.125,proactive,2020.1.2,Win32,60,5f035e5afe130c270d6ae6dd,5f05e30f2bb2ef0ae6e2e3d6,2,,,,,,carrot,,,,,,,,,,,4,1,0,15,15,33,1,,,,,,,,,,,,,,,,,,,,,,,,,,,,,,,,,,,,,,,,,,,,,,,,,,,,,,,,,,,,,,,,,,,,,,
,,?,0.00195,0,,,,,,stimuli/images/PICTURE_677.png,APPLE,5eb30ae3d8bf950ee04fe701,06/04/1988,2020-07-08_16h34.25.125,proactive,2020.1.2,Win32,60,5f035e5afe130c270d6ae6dd,5f05e30f2bb2ef0ae6e2e3d6,2,,,,,,map,,,,,,,,,,,5,1,0,16,16,43,1,,,,,,,,,,,,,,,,,,,,,,,,,,,,,,,,,,,,,,,,,,,,,,,,,,,,,,,,,,,,,,,,,,,,,,
,,DUDE,2.14475,1,,,,,,stimuli/images/PICTURE_449.png,DUDE,5eb30ae3d8bf950ee04fe701,06/04/1988,2020-07-08_16h34.25.125,proactive,2020.1.2,Win32,60,5f035e5afe130c270d6ae6dd,5f05e30f2bb2ef0ae6e2e3d6,2,,,,,,bench,,,,,,,,,,,2,1,0,17,17,17,1,,,,,,,,,,,,,,,,,,,,,,,,,,,,,,,,,,,,,,,,,,,,,,,,,,,,,,,,,,,,,,,,,,,,,,
,,YEAR,2.701275,1,,,,,,stimuli/images/PICTURE_504.png,YEAR,5eb30ae3d8bf950ee04fe701,06/04/1988,2020-07-08_16h34.25.125,proactive,2020.1.2,Win32,60,5f035e5afe130c270d6ae6dd,5f05e30f2bb2ef0ae6e2e3d6,2,,,,,,wheel,,,,,,,,,,,2,1,0,18,18,13,1,,,,,,,,,,,,,,,,,,,,,,,,,,,,,,,,,,,,,,,,,,,,,,,,,,,,,,,,,,,,,,,,,,,,,,
,,FLIGHT,3.6474,1,,,,,,stimuli/images/PICTURE_2.png,FLIGHT,5eb30ae3d8bf950ee04fe701,06/04/1988,2020-07-08_16h34.25.125,proactive,2020.1.2,Win32,60,5f035e5afe130c270d6ae6dd,5f05e30f2bb2ef0ae6e2e3d6,2,,,,,,tyre,,,,,,,,,,,2,1,0,19,19,15,1,,,,,,,,,,,,,,,,,,,,,,,,,,,,,,,,,,,,,,,,,,,,,,,,,,,,,,,,,,,,,,,,,,,,,,
,,?,0.00276,0,,,,,,stimuli/images/PICTURE_95.png,BOYS,5eb30ae3d8bf950ee04fe701,06/04/1988,2020-07-08_16h34.25.125,proactive,2020.1.2,Win32,60,5f035e5afe130c270d6ae6dd,5f05e30f2bb2ef0ae6e2e3d6,2,,,,,,suitcase,,,,,,,,,,,1,1,0,20,20,1,1,,,,,,,,,,,,,,,,,,,,,,,,,,,,,,,,,,,,,,,,,,,,,,,,,,,,,,,,,,,,,,,,,,,,,,
,,?,0.002715,0,,,,,,stimuli/images/PICTURE_708.png,RECORD,5eb30ae3d8bf950ee04fe701,06/04/1988,2020-07-08_16h34.25.125,proactive,2020.1.2,Win32,60,5f035e5afe130c270d6ae6dd,5f05e30f2bb2ef0ae6e2e3d6,2,,,,,,monkey,,,,,,,,,,,6,1,0,21,21,58,1,,,,,,,,,,,,,,,,,,,,,,,,,,,,,,,,,,,,,,,,,,,,,,,,,,,,,,,,,,,,,,,,,,,,,,
,,HONEY,4.14844,1,,,,,,stimuli/images/PICTURE_380.png,HONEY,5eb30ae3d8bf950ee04fe701,06/04/1988,2020-07-08_16h34.25.125,proactive,2020.1.2,Win32,60,5f035e5afe130c270d6ae6dd,5f05e30f2bb2ef0ae6e2e3d6,2,,,,,,gorilla,,,,,,,,,,,2,1,0,22,22,19,1,,,,,,,,,,,,,,,,,,,,,,,,,,,,,,,,,,,,,,,,,,,,,,,,,,,,,,,,,,,,,,,,,,,,,,
,,?,0.003325,0,,,,,,stimuli/images/PICTURE_177.png,WRITER,5eb30ae3d8bf950ee04fe701,06/04/1988,2020-07-08_16h34.25.125,proactive,2020.1.2,Win32,60,5f035e5afe130c270d6ae6dd,5f05e30f2bb2ef0ae6e2e3d6,2,,,,,,mushroom,,,,,,,,,,,5,1,0,23,23,41,1,,,,,,,,,,,,,,,,,,,,,,,,,,,,,,,,,,,,,,,,,,,,,,,,,,,,,,,,,,,,,,,,,,,,,,
,,?,0.003165,0,,,,,,stimuli/images/PICTURE_750.png,HOTEL,5eb30ae3d8bf950ee04fe701,06/04/1988,2020-07-08_16h34.25.125,proactive,2020.1.2,Win32,60,5f035e5afe130c270d6ae6dd,5f05e30f2bb2ef0ae6e2e3d6,2,,,,,,kettle,,,,,,,,,,,3,1,0,24,24,27,1,,,,,,,,,,,,,,,,,,,,,,,,,,,,,,,,,,,,,,,,,,,,,,,,,,,,,,,,,,,,,,,,,,,,,,
,,?,0.007435,0,,,,,,stimuli/images/PICTURE_147.png,YEAR,5eb30ae3d8bf950ee04fe701,06/04/1988,2020-07-08_16h34.25.125,proactive,2020.1.2,Win32,60,5f035e5afe130c270d6ae6dd,5f05e30f2bb2ef0ae6e2e3d6,2,,,,,,hanger,,,,,,,,,,,3,1,0,25,25,21,1,,,,,,,,,,,,,,,,,,,,,,,,,,,,,,,,,,,,,,,,,,,,,,,,,,,,,,,,,,,,,,,,,,,,,,
,,?,0.00311,0,,,,,,stimuli/images/PICTURE_42.png,BOYS,5eb30ae3d8bf950ee04fe701,06/04/1988,2020-07-08_16h34.25.125,proactive,2020.1.2,Win32,60,5f035e5afe130c270d6ae6dd,5f05e30f2bb2ef0ae6e2e3d6,2,,,,,,pear,,,,,,,,,,,6,1,0,26,26,55,1,,,,,,,,,,,,,,,,,,,,,,,,,,,,,,,,,,,,,,,,,,,,,,,,,,,,,,,,,,,,,,,,,,,,,,
,,?,0.00248,0,,,,,,stimuli/images/PICTURE_95.png,HONEY,5eb30ae3d8bf950ee04fe701,06/04/1988,2020-07-08_16h34.25.125,proactive,2020.1.2,Win32,60,5f035e5afe130c270d6ae6dd,5f05e30f2bb2ef0ae6e2e3d6,2,,,,,,suitcase,,,,,,,,,,,5,1,0,27,27,44,1,,,,,,,,,,,,,,,,,,,,,,,,,,,,,,,,,,,,,,,,,,,,,,,,,,,,,,,,,,,,,,,,,,,,,,
,,?,0.00267,0,,,,,,stimuli/images/PICTURE_208.png,SYSTEM,5eb30ae3d8bf950ee04fe701,06/04/1988,2020-07-08_16h34.25.125,proactive,2020.1.2,Win32,60,5f035e5afe130c270d6ae6dd,5f05e30f2bb2ef0ae6e2e3d6,2,,,,,,microphone,,,,,,,,,,,4,1,0,28,28,32,1,,,,,,,,,,,,,,,,,,,,,,,,,,,,,,,,,,,,,,,,,,,,,,,,,,,,,,,,,,,,,,,,,,,,,,
,,?,0.002425,0,,,,,,stimuli/images/PICTURE_744.png,WEAPON,5eb30ae3d8bf950ee04fe701,06/04/1988,2020-07-08_16h34.25.125,proactive,2020.1.2,Win32,60,5f035e5afe130c270d6ae6dd,5f05e30f2bb2ef0ae6e2e3d6,2,,,,,,ring,,,,,,,,,,,6,1,0,29,29,50,1,,,,,,,,,,,,,,,,,,,,,,,,,,,,,,,,,,,,,,,,,,,,,,,,,,,,,,,,,,,,,,,,,,,,,,
,,PILLS,2.93699,1,,,,,,stimuli/images/PICTURE_32.png,PILLS,5eb30ae3d8bf950ee04fe701,06/04/1988,2020-07-08_16h34.25.125,proactive,2020.1.2,Win32,60,5f035e5afe130c270d6ae6dd,5f05e30f2bb2ef0ae6e2e3d6,2,,,,,,crown,,,,,,,,,,,2,1,0,30,30,18,1,,,,,,,,,,,,,,,,,,,,,,,,,,,,,,,,,,,,,,,,,,,,,,,,,,,,,,,,,,,,,,,,,,,,,,
,,?,0.004325,0,,,,,,stimuli/images/PICTURE_68.png,MILE,5eb30ae3d8bf950ee04fe701,06/04/1988,2020-07-08_16h34.25.125,proactive,2020.1.2,Win32,60,5f035e5afe130c270d6ae6dd,5f05e30f2bb2ef0ae6e2e3d6,2,,,,,,candle,,,,,,,,,,,6,1,0,31,31,51,1,,,,,,,,,,,,,,,,,,,,,,,,,,,,,,,,,,,,,,,,,,,,,,,,,,,,,,,,,,,,,,,,,,,,,,
,,?,0.00647,0,,,,,,stimuli/images/PICTURE_403.png,RIVER,5eb30ae3d8bf950ee04fe701,06/04/1988,2020-07-08_16h34.25.125,proactive,2020.1.2,Win32,60,5f035e5afe130c270d6ae6dd,5f05e30f2bb2ef0ae6e2e3d6,2,,,,,,cathedral,,,,,,,,,,,5,1,0,32,32,40,1,,,,,,,,,,,,,,,,,,,,,,,,,,,,,,,,,,,,,,,,,,,,,,,,,,,,,,,,,,,,,,,,,,,,,,
,,?,0.00548,0,,,,,,stimuli/images/PICTURE_108.png,FLIGHT,5eb30ae3d8bf950ee04fe701,06/04/1988,2020-07-08_16h34.25.125,proactive,2020.1.2,Win32,60,5f035e5afe130c270d6ae6dd,5f05e30f2bb2ef0ae6e2e3d6,2,,,,,,calendar,,,,,,,,,,,6,1,0,33,33,59,1,,,,,,,,,,,,,,,,,,,,,,,,,,,,,,,,,,,,,,,,,,,,,,,,,,,,,,,,,,,,,,,,,,,,,,
,,?,0.0023,0,,,,,,stimuli/images/PICTURE_487.png,GIRL,5eb30ae3d8bf950ee04fe701,06/04/1988,2020-07-08_16h34.25.125,proactive,2020.1.2,Win32,60,5f035e5afe130c270d6ae6dd,5f05e30f2bb2ef0ae6e2e3d6,2,,,,,,basket,,,,,,,,,,,5,1,0,34,34,45,1,,,,,,,,,,,,,,,,,,,,,,,,,,,,,,,,,,,,,,,,,,,,,,,,,,,,,,,,,,,,,,,,,,,,,,
,,?,0.00324,0,,,,,,stimuli/images/PICTURE_308.png,FAMILY,5eb30ae3d8bf950ee04fe701,06/04/1988,2020-07-08_16h34.25.125,proactive,2020.1.2,Win32,60,5f035e5afe130c270d6ae6dd,5f05e30f2bb2ef0ae6e2e3d6,2,,,,,,dice,,,,,,,,,,,4,1,0,35,35,36,1,,,,,,,,,,,,,,,,,,,,,,,,,,,,,,,,,,,,,,,,,,,,,,,,,,,,,,,,,,,,,,,,,,,,,,
,,CLIENT,2.544235,1,,,,,,stimuli/images/PICTURE_339.png,CLIENT,5eb30ae3d8bf950ee04fe701,06/04/1988,2020-07-08_16h34.25.125,proactive,2020.1.2,Win32,60,5f035e5afe130c270d6ae6dd,5f05e30f2bb2ef0ae6e2e3d6,2,,,,,,backpack,,,,,,,,,,,2,1,0,36,36,11,1,,,,,,,,,,,,,,,,,,,,,,,,,,,,,,,,,,,,,,,,,,,,,,,,,,,,,,,,,,,,,,,,,,,,,,
,,?,0.0044,0,,,,,,stimuli/images/PICTURE_504.png,COPS,5eb30ae3d8bf950ee04fe701,06/04/1988,2020-07-08_16h34.25.125,proactive,2020.1.2,Win32,60,5f035e5afe130c270d6ae6dd,5f05e30f2bb2ef0ae6e2e3d6,2,,,,,,wheel,,,,,,,,,,,6,1,0,37,37,52,1,,,,,,,,,,,,,,,,,,,,,,,,,,,,,,,,,,,,,,,,,,,,,,,,,,,,,,,,,,,,,,,,,,,,,,
,,?,0.00536,0,,,,,,stimuli/images/PICTURE_57.png,MOMENT,5eb30ae3d8bf950ee04fe701,06/04/1988,2020-07-08_16h34.25.125,proactive,2020.1.2,Win32,60,5f035e5afe130c270d6ae6dd,5f05e30f2bb2ef0ae6e2e3d6,2,,,,,,stamp,,,,,,,,,,,4,1,0,38,38,37,1,,,,,,,,,,,,,,,,,,,,,,,,,,,,,,,,,,,,,,,,,,,,,,,,,,,,,,,,,,,,,,,,,,,,,,
,,?,0.003135,0,,,,,,stimuli/images/PICTURE_233.png,LOTS,5eb30ae3d8bf950ee04fe701,06/04/1988,2020-07-08_16h34.25.125,proactive,2020.1.2,Win32,60,5f035e5afe130c270d6ae6dd,5f05e30f2bb2ef0ae6e2e3d6,2,,,,,,salt,,,,,,,,,,,5,1,0,39,39,42,1,,,,,,,,,,,,,,,,,,,,,,,,,,,,,,,,,,,,,,,,,,,,,,,,,,,,,,,,,,,,,,,,,,,,,,
,,?,0.0037,0,,,,,,stimuli/images/PICTURE_491.png,RIVER,5eb30ae3d8bf950ee04fe701,06/04/1988,2020-07-08_16h34.25.125,proactive,2020.1.2,Win32,60,5f035e5afe130c270d6ae6dd,5f05e30f2bb2ef0ae6e2e3d6,2,,,,,,rug,,,,,,,,,,,1,1,0,40,40,6,1,,,,,,,,,,,,,,,,,,,,,,,,,,,,,,,,,,,,,,,,,,,,,,,,,,,,,,,,,,,,,,,,,,,,,,
,,?,0.0031,0,,,,,,stimuli/images/PICTURE_405.png,YEAR,5eb30ae3d8bf950ee04fe701,06/04/1988,2020-07-08_16h34.25.125,proactive,2020.1.2,Win32,60,5f035e5afe130c270d6ae6dd,5f05e30f2bb2ef0ae6e2e3d6,2,,,,,,anchor,,,,,,,,,,,4,1,0,41,41,34,1,,,,,,,,,,,,,,,,,,,,,,,,,,,,,,,,,,,,,,,,,,,,,,,,,,,,,,,,,,,,,,,,,,,,,,
,,?,0.002735,0,,,,,,stimuli/images/PICTURE_685.png,PENNY,5eb30ae3d8bf950ee04fe701,06/04/1988,2020-07-08_16h34.25.125,proactive,2020.1.2,Win32,60,5f035e5afe130c270d6ae6dd,5f05e30f2bb2ef0ae6e2e3d6,2,,,,,,goose,,,,,,,,,,,1,1,0,42,42,4,1,,,,,,,,,,,,,,,,,,,,,,,,,,,,,,,,,,,,,,,,,,,,,,,,,,,,,,,,,,,,,,,,,,,,,,
,,?,0.002355,0,,,,,,stimuli/images/PICTURE_33.png,FRIEND,5eb30ae3d8bf950ee04fe701,06/04/1988,2020-07-08_16h34.25.125,proactive,2020.1.2,Win32,60,5f035e5afe130c270d6ae6dd,5f05e30f2bb2ef0ae6e2e3d6,2,,,,,,frame,,,,,,,,,,,1,1,0,43,43,8,1,,,,,,,,,,,,,,,,,,,,,,,,,,,,,,,,,,,,,,,,,,,,,,,,,,,,,,,,,,,,,,,,,,,,,,
,,?,0.00235,0,,,,,,stimuli/images/PICTURE_68.png,ROOF,5eb30ae3d8bf950ee04fe701,06/04/1988,2020-07-08_16h34.25.125,proactive,2020.1.2,Win32,60,5f035e5afe130c270d6ae6dd,5f05e30f2bb2ef0ae6e2e3d6,2,,,,,,candle,,,,,,,,,,,4,1,0,44,44,38,1,,,,,,,,,,,,,,,,,,,,,,,,,,,,,,,,,,,,,,,,,,,,,,,,,,,,,,,,,,,,,,,,,,,,,,
,,?,0.00476,0,,,,,,stimuli/images/PICTURE_327.png,SERIES,5eb30ae3d8bf950ee04fe701,06/04/1988,2020-07-08_16h34.25.125,proactive,2020.1.2,Win32,60,5f035e5afe130c270d6ae6dd,5f05e30f2bb2ef0ae6e2e3d6,2,,,,,,helmet,,,,,,,,,,,1,1,0,45,45,3,1,,,,,,,,,,,,,,,,,,,,,,,,,,,,,,,,,,,,,,,,,,,,,,,,,,,,,,,,,,,,,,,,,,,,,,
,,?,0.00228,0,,,,,,stimuli/images/PICTURE_203.png,GODS,5eb30ae3d8bf950ee04fe701,06/04/1988,2020-07-08_16h34.25.125,proactive,2020.1.2,Win32,60,5f035e5afe130c270d6ae6dd,5f05e30f2bb2ef0ae6e2e3d6,2,,,,,,cap,,,,,,,,,,,4,1,0,46,46,30,1,,,,,,,,,,,,,,,,,,,,,,,,,,,,,,,,,,,,,,,,,,,,,,,,,,,,,,,,,,,,,,,,,,,,,,
,,RIVER,3.08774,1,,,,,,stimuli/images/PICTURE_667.png,RIVER,5eb30ae3d8bf950ee04fe701,06/04/1988,2020-07-08_16h34.25.125,proactive,2020.1.2,Win32,60,5f035e5afe130c270d6ae6dd,5f05e30f2bb2ef0ae6e2e3d6,2,,,,,,daisy,,,,,,,,,,,2,1,0,47,47,10,1,,,,,,,,,,,,,,,,,,,,,,,,,,,,,,,,,,,,,,,,,,,,,,,,,,,,,,,,,,,,,,,,,,,,,,
,,?,0.007955,0,,,,,,stimuli/images/PICTURE_380.png,CANDY,5eb30ae3d8bf950ee04fe701,06/04/1988,2020-07-08_16h34.25.125,proactive,2020.1.2,Win32,60,5f035e5afe130c270d6ae6dd,5f05e30f2bb2ef0ae6e2e3d6,2,,,,,,gorilla,,,,,,,,,,,1,1,0,48,48,0,1,,,,,,,,,,,,,,,,,,,,,,,,,,,,,,,,,,,,,,,,,,,,,,,,,,,,,,,,,,,,,,,,,,,,,,
,,?,0.00383,0,,,,,,stimuli/images/PICTURE_467.png,POLICY,5eb30ae3d8bf950ee04fe701,06/04/1988,2020-07-08_16h34.25.125,proactive,2020.1.2,Win32,60,5f035e5afe130c270d6ae6dd,5f05e30f2bb2ef0ae6e2e3d6,2,,,,,,peg,,,,,,,,,,,6,1,0,49,49,53,1,,,,,,,,,,,,,,,,,,,,,,,,,,,,,,,,,,,,,,,,,,,,,,,,,,,,,,,,,,,,,,,,,,,,,,
,,TOILET,3.225155,1,,,,,,stimuli/images/PICTURE_655.png,TOILET,5eb30ae3d8bf950ee04fe701,06/04/1988,2020-07-08_16h34.25.125,proactive,2020.1.2,Win32,60,5f035e5afe130c270d6ae6dd,5f05e30f2bb2ef0ae6e2e3d6,2,,,,,,megaphone,,,,,,,,,,,2,1,0,50,50,12,1,,,,,,,,,,,,,,,,,,,,,,,,,,,,,,,,,,,,,,,,,,,,,,,,,,,,,,,,,,,,,,,,,,,,,,
,,?,0.004135,0,,,,,,stimuli/images/PICTURE_383.png,SERIES,5eb30ae3d8bf950ee04fe701,06/04/1988,2020-07-08_16h34.25.125,proactive,2020.1.2,Win32,60,5f035e5afe130c270d6ae6dd,5f05e30f2bb2ef0ae6e2e3d6,2,,,,,,coin,,,,,,,,,,,5,1,0,51,51,46,1,,,,,,,,,,,,,,,,,,,,,,,,,,,,,,,,,,,,,,,,,,,,,,,,,,,,,,,,,,,,,,,,,,,,,,
,,?,0.00594,0,,,,,,stimuli/images/PICTURE_296.png,LOTS,5eb30ae3d8bf950ee04fe701,06/04/1988,2020-07-08_16h34.25.125,proactive,2020.1.2,Win32,60,5f035e5afe130c270d6ae6dd,5f05e30f2bb2ef0ae6e2e3d6,2,,,,,,bolt,,,,,,,,,,,1,1,0,52,52,9,1,,,,,,,,,,,,,,,,,,,,,,,,,,,,,,,,,,,,,,,,,,,,,,,,,,,,,,,,,,,,,,,,,,,,,,
,,?,0.004575,0,,,,,,stimuli/images/PICTURE_564.png,BATH,5eb30ae3d8bf950ee04fe701,06/04/1988,2020-07-08_16h34.25.125,proactive,2020.1.2,Win32,60,5f035e5afe130c270d6ae6dd,5f05e30f2bb2ef0ae6e2e3d6,2,,,,,,spoon,,,,,,,,,,,3,1,0,53,53,26,1,,,,,,,,,,,,,,,,,,,,,,,,,,,,,,,,,,,,,,,,,,,,,,,,,,,,,,,,,,,,,,,,,,,,,,
,,?,0.007815,0,,,,,,stimuli/images/PICTURE_203.png,NIGHT,5eb30ae3d8bf950ee04fe701,06/04/1988,2020-07-08_16h34.25.125,proactive,2020.1.2,Win32,60,5f035e5afe130c270d6ae6dd,5f05e30f2bb2ef0ae6e2e3d6,2,,,,,,cap,,,,,,,,,,,1,1,0,54,54,2,1,,,,,,,,,,,,,,,,,,,,,,,,,,,,,,,,,,,,,,,,,,,,,,,,,,,,,,,,,,,,,,,,,,,,,,
,,?,0.00273,0,,,,,,stimuli/images/PICTURE_504.png,ARTIST,5eb30ae3d8bf950ee04fe701,06/04/1988,2020-07-08_16h34.25.125,proactive,2020.1.2,Win32,60,5f035e5afe130c270d6ae6dd,5f05e30f2bb2ef0ae6e2e3d6,2,,,,,,wheel,,,,,,,,,,,5,1,0,55,55,49,1,,,,,,,,,,,,,,,,,,,,,,,,,,,,,,,,,,,,,,,,,,,,,,,,,,,,,,,,,,,,,,,,,,,,,,
,,GLASS,9.250195,0,,,,,,stimuli/images/PICTURE_469.png,AGENT,5eb30ae3d8bf950ee04fe701,06/04/1988,2020-07-08_16h34.25.125,proactive,2020.1.2,Win32,60,5f035e5afe130c270d6ae6dd,5f05e30f2bb2ef0ae6e2e3d6,2,,,,,,stool,,,,,,,,,,,2,1,0,56,56,16,1,,,,,,,,,,,,,,,,,,,,,,,,,,,,,,,,,,,,,,,,,,,,,,,,,,,,,,,,,,,,,,,,,,,,,,
,,?,0.001965,0,,,,,,stimuli/images/PICTURE_403.png,TOILET,5eb30ae3d8bf950ee04fe701,06/04/1988,2020-07-08_16h34.25.125,proactive,2020.1.2,Win32,60,5f035e5afe130c270d6ae6dd,5f05e30f2bb2ef0ae6e2e3d6,2,,,,,,cathedral,,,,,,,,,,,3,1,0,57,57,25,1,,,,,,,,,,,,,,,,,,,,,,,,,,,,,,,,,,,,,,,,,,,,,,,,,,,,,,,,,,,,,,,,,,,,,,
,,?,0.0017,0,,,,,,stimuli/images/PICTURE_32.png,KIND,5eb30ae3d8bf950ee04fe701,06/04/1988,2020-07-08_16h34.25.125,proactive,2020.1.2,Win32,60,5f035e5afe130c270d6ae6dd,5f05e30f2bb2ef0ae6e2e3d6,2,,,,,,crown,,,,,,,,,,,4,1,0,58,58,35,1,,,,,,,,,,,,,,,,,,,,,,,,,,,,,,,,,,,,,,,,,,,,,,,,,,,,,,,,,,,,,,,,,,,,,,
,,?,0.001695,0,,,,,,stimuli/images/PICTURE_327.png,CASINO,5eb30ae3d8bf950ee04fe701,06/04/1988,2020-07-08_16h34.25.125,proactive,2020.1.2,Win32,60,5f035e5afe130c270d6ae6dd,5f05e30f2bb2ef0ae6e2e3d6,2,,,,,,helmet,,,,,,,,,,,3,1,0,59,59,20,1,,,,,,,,,,,,,,,,,,,,,,,,,,,,,,,,,,,,,,,,,,,,,,,,,,,,,,,,,,,,,,,,,,,,,,
,,,,,,,,,,,,5eb30ae3d8bf950ee04fe701,06/04/1988,2020-07-08_16h34.25.125,proactive,2020.1.2,Win32,60,5f035e5afe130c270d6ae6dd,5f05e30f2bb2ef0ae6e2e3d6,2,,,,,,,,,,,,,,,,,,,,,,,,0,0,0,1,1,stimuli/learn-block2.csv,,,,,,,,,,,,,,,,,,,,,,,,,,,,,,,,,,,,,,,,,,,,,,,,,,,,,,,,,,,,,,,,
,,,,,,,,,,stimuli/images/PICTURE_308.png,KIND,5eb30ae3d8bf950ee04fe701,06/04/1988,2020-07-08_16h34.25.125,proactive,2020.1.2,Win32,60,5f035e5afe130c270d6ae6dd,5f05e30f2bb2ef0ae6e2e3d6,2,,,,,,dice,,,,,,0,0,0,54,1,6,0,,,,,,,,,,,,,,,,,,,,,,,,,,,,,,,,,,,,,,,,,,,,,,,,,,,,,,,,,,,,,,,,,,,,,,,,,,,
,,,,,,,,,,stimuli/images/PICTURE_208.png,THING,5eb30ae3d8bf950ee04fe701,06/04/1988,2020-07-08_16h34.25.125,proactive,2020.1.2,Win32,60,5f035e5afe130c270d6ae6dd,5f05e30f2bb2ef0ae6e2e3d6,2,,,,,,microphone,,,,,,0,1,1,47,1,5,0,,,,,,,,,,,,,,,,,,,,,,,,,,,,,,,,,,,,,,,,,,,,,,,,,,,,,,,,,,,,,,,,,,,,,,,,,,,
,,,,,,,,,,stimuli/images/PICTURE_688.png,CASINO,5eb30ae3d8bf950ee04fe701,06/04/1988,2020-07-08_16h34.25.125,proactive,2020.1.2,Win32,60,5f035e5afe130c270d6ae6dd,5f05e30f2bb2ef0ae6e2e3d6,2,,,,,,runner,,,,,,0,2,2,2,1,1,0,,,,,,,,,,,,,,,,,,,,,,,,,,,,,,,,,,,,,,,,,,,,,,,,,,,,,,,,,,,,,,,,,,,,,,,,,,,
,,,,,,,,,,stimuli/images/PICTURE_311.png,FRIEND,5eb30ae3d8bf950ee04fe701,06/04/1988,2020-07-08_16h34.25.125,proactive,2020.1.2,Win32,60,5f035e5afe130c270d6ae6dd,5f05e30f2bb2ef0ae6e2e3d6,2,,,,,,razor,,,,,,0,3,3,34,1,4,0,,,,,,,,,,,,,,,,,,,,,,,,,,,,,,,,,,,,,,,,,,,,,,,,,,,,,,,,,,,,,,,,,,,,,,,,,,,
,,,,,,,,,,stimuli/images/PICTURE_233.png,IDEAS,5eb30ae3d8bf950ee04fe701,06/04/1988,2020-07-08_16h34.25.125,proactive,2020.1.2,Win32,60,5f035e5afe130c270d6ae6dd,5f05e30f2bb2ef0ae6e2e3d6,2,,,,,,salt,,,,,,0,4,4,28,1,3,0,,,,,,,,,,,,,,,,,,,,,,,,,,,,,,,,,,,,,,,,,,,,,,,,,,,,,,,,,,,,,,,,,,,,,,,,,,,
,,,,,,,,,,stimuli/images/PICTURE_654.png,VALLEY,5eb30ae3d8bf950ee04fe701,06/04/1988,2020-07-08_16h34.25.125,proactive,2020.1.2,Win32,60,5f035e5afe130c270d6ae6dd,5f05e30f2bb2ef0ae6e2e3d6,2,,,,,,pencil,,,,,,0,5,5,1,1,1,0,,,,,,,,,,,,,,,,,,,,,,,,,,,,,,,,,,,,,,,,,,,,,,,,,,,,,,,,,,,,,,,,,,,,,,,,,,,
,,,,,,,,,,stimuli/images/PICTURE_491.png,ROOF,5eb30ae3d8bf950ee04fe701,06/04/1988,2020-07-08_16h34.25.125,proactive,2020.1.2,Win32,60,5f035e5afe130c270d6ae6dd,5f05e30f2bb2ef0ae6e2e3d6,2,,,,,,rug,,,,,,0,6,6,24,1,3,0,,,,,,,,,,,,,,,,,,,,,,,,,,,,,,,,,,,,,,,,,,,,,,,,,,,,,,,,,,,,,,,,,,,,,,,,,,,
,,,,,,,,,,stimuli/images/PICTURE_160.png,LEADER,5eb30ae3d8bf950ee04fe701,06/04/1988,2020-07-08_16h34.25.125,proactive,2020.1.2,Win32,60,5f035e5afe130c270d6ae6dd,5f05e30f2bb2ef0ae6e2e3d6,2,,,,,,wheelbarrow,,,,,,0,7,7,3,1,1,0,,,,,,,,,,,,,,,,,,,,,,,,,,,,,,,,,,,,,,,,,,,,,,,,,,,,,,,,,,,,,,,,,,,,,,,,,,,
,,,,,,,,,,stimuli/images/PICTURE_509.png,PHOTO,5eb30ae3d8bf950ee04fe701,06/04/1988,2020-07-08_16h34.25.125,proactive,2020.1.2,Win32,60,5f035e5afe130c270d6ae6dd,5f05e30f2bb2ef0ae6e2e3d6,2,,,,,,telephone,,,,,,0,8,8,21,1,3,0,,,,,,,,,,,,,,,,,,,,,,,,,,,,,,,,,,,,,,,,,,,,,,,,,,,,,,,,,,,,,,,,,,,,,,,,,,,
,,,,,,,,,,stimuli/images/PICTURE_68.png,MILE,5eb30ae3d8bf950ee04fe701,06/04/1988,2020-07-08_16h34.25.125,proactive,2020.1.2,Win32,60,5f035e5afe130c270d6ae6dd,5f05e30f2bb2ef0ae6e2e3d6,2,,,,,,candle,,,,,,0,9,9,44,1,5,0,,,,,,,,,,,,,,,,,,,,,,,,,,,,,,,,,,,,,,,,,,,,,,,,,,,,,,,,,,,,,,,,,,,,,,,,,,,
,,,,,,,,,,stimuli/images/PICTURE_32.png,JUNGLE,5eb30ae3d8bf950ee04fe701,06/04/1988,2020-07-08_16h34.25.125,proactive,2020.1.2,Win32,60,5f035e5afe130c270d6ae6dd,5f05e30f2bb2ef0ae6e2e3d6,2,,,,,,crown,,,,,,0,10,10,45,1,5,0,,,,,,,,,,,,,,,,,,,,,,,,,,,,,,,,,,,,,,,,,,,,,,,,,,,,,,,,,,,,,,,,,,,,,,,,,,,
,,,,,,,,,,stimuli/images/PICTURE_692.png,MONTH,5eb30ae3d8bf950ee04fe701,06/04/1988,2020-07-08_16h34.25.125,proactive,2020.1.2,Win32,60,5f035e5afe130c270d6ae6dd,5f05e30f2bb2ef0ae6e2e3d6,2,,,,,,cherry,,,,,,0,11,11,16,1,2,0,,,,,,,,,,,,,,,,,,,,,,,,,,,,,,,,,,,,,,,,,,,,,,,,,,,,,,,,,,,,,,,,,,,,,,,,,,,
,,,,,,,,,,stimuli/images/PICTURE_744.png,SAKE,5eb30ae3d8bf950ee04fe701,06/04/1988,2020-07-08_16h34.25.125,proactive,2020.1.2,Win32,60,5f035e5afe130c270d6ae6dd,5f05e30f2bb2ef0ae6e2e3d6,2,,,,,,ring,,,,,,0,12,12,17,1,2,0,,,,,,,,,,,,,,,,,,,,,,,,,,,,,,,,,,,,,,,,,,,,,,,,,,,,,,,,,,,,,,,,,,,,,,,,,,,
,,,,,,,,,,stimuli/images/PICTURE_675.png,WEAPON,5eb30ae3d8bf950ee04fe701,06/04/1988,2020-07-08_16h34.25.125,proactive,2020.1.2,Win32,60,5f035e5afe130c270d6ae6dd,5f05e30f2bb2ef0ae6e2e3d6,2,,,,,,windmill,,,,,,0,13,13,32,1,4,0,,,,,,,,,,,,,,,,,,,,,,,,,,,,,,,,,,,,,,,,,,,,,,,,,,,,,,,,,,,,,,,,,,,,,,,,,,,
,,,,,,,,,,stimuli/images/PICTURE_203.png,ARTIST,5eb30ae3d8bf950ee04fe701,06/04/1988,2020-07-08_16h34.25.125,proactive,2020.1.2,Win32,60,5f035e5afe130c270d6ae6dd,5f05e30f2bb2ef0ae6e2e3d6,2,,,,,,cap,,,,,,0,14,14,26,1,3,0,,,,,,,,,,,,,,,,,,,,,,,,,,,,,,,,,,,,,,,,,,,,,,,,,,,,,,,,,,,,,,,,,,,,,,,,,,,
,,,,,,,,,,stimuli/images/PICTURE_744.png,SYSTEM,5eb30ae3d8bf950ee04fe701,06/04/1988,2020-07-08_16h34.25.125,proactive,2020.1.2,Win32,60,5f035e5afe130c270d6ae6dd,5f05e30f2bb2ef0ae6e2e3d6,2,,,,,,ring,,,,,,0,15,15,43,1,5,0,,,,,,,,,,,,,,,,,,,,,,,,,,,,,,,,,,,,,,,,,,,,,,,,,,,,,,,,,,,,,,,,,,,,,,,,,,,
,,,,,,,,,,stimuli/images/PICTURE_708.png,CLIENT,5eb30ae3d8bf950ee04fe701,06/04/1988,2020-07-08_16h34.25.125,proactive,2020.1.2,Win32,60,5f035e5afe130c270d6ae6dd,5f05e30f2bb2ef0ae6e2e3d6,2,,,,,,monkey,,,,,,0,16,16,5,1,1,0,,,,,,,,,,,,,,,,,,,,,,,,,,,,,,,,,,,,,,,,,,,,,,,,,,,,,,,,,,,,,,,,,,,,,,,,,,,
,,,,,,,,,,stimuli/images/PICTURE_667.png,PLENTY,5eb30ae3d8bf950ee04fe701,06/04/1988,2020-07-08_16h34.25.125,proactive,2020.1.2,Win32,60,5f035e5afe130c270d6ae6dd,5f05e30f2bb2ef0ae6e2e3d6,2,,,,,,daisy,,,,,,0,17,17,41,1,5,0,,,,,,,,,,,,,,,,,,,,,,,,,,,,,,,,,,,,,,,,,,,,,,,,,,,,,,,,,,,,,,,,,,,,,,,,,,,
,,,,,,,,,,stimuli/images/PICTURE_356.png,DANGER,5eb30ae3d8bf950ee04fe701,06/04/1988,2020-07-08_16h34.25.125,proactive,2020.1.2,Win32,60,5f035e5afe130c270d6ae6dd,5f05e30f2bb2ef0ae6e2e3d6,2,,,,,,pawn,,,,,,0,18,18,55,1,6,0,,,,,,,,,,,,,,,,,,,,,,,,,,,,,,,,,,,,,,,,,,,,,,,,,,,,,,,,,,,,,,,,,,,,,,,,,,,
,,,,,,,,,,stimuli/images/PICTURE_123.png,ADVICE,5eb30ae3d8bf950ee04fe701,06/04/1988,2020-07-08_16h34.25.125,proactive,2020.1.2,Win32,60,5f035e5afe130c270d6ae6dd,5f05e30f2bb2ef0ae6e2e3d6,2,,,,,,dart,,,,,,0,19,19,50,1,6,0,,,,,,,,,,,,,,,,,,,,,,,,,,,,,,,,,,,,,,,,,,,,,,,,,,,,,,,,,,,,,,,,,,,,,,,,,,,
,,,,,,,,,,stimuli/images/PICTURE_339.png,PLENTY,5eb30ae3d8bf950ee04fe701,06/04/1988,2020-07-08_16h34.25.125,proactive,2020.1.2,Win32,60,5f035e5afe130c270d6ae6dd,5f05e30f2bb2ef0ae6e2e3d6,2,,,,,,backpack,,,,,,0,20,20,0,1,1,0,,,,,,,,,,,,,,,,,,,,,,,,,,,,,,,,,,,,,,,,,,,,,,,,,,,,,,,,,,,,,,,,,,,,,,,,,,,
,,,,,,,,,,stimuli/images/PICTURE_151.png,GIRL,5eb30ae3d8bf950ee04fe701,06/04/1988,2020-07-08_16h34.25.125,proactive,2020.1.2,Win32,60,5f035e5afe130c270d6ae6dd,5f05e30f2bb2ef0ae6e2e3d6,2,,,,,,tray,,,,,,0,21,21,19,1,2,0,,,,,,,,,,,,,,,,,,,,,,,,,,,,,,,,,,,,,,,,,,,,,,,,,,,,,,,,,,,,,,,,,,,,,,,,,,,
,,,,,,,,,,stimuli/images/PICTURE_348.png,SPEECH,5eb30ae3d8bf950ee04fe701,06/04/1988,2020-07-08_16h34.25.125,proactive,2020.1.2,Win32,60,5f035e5afe130c270d6ae6dd,5f05e30f2bb2ef0ae6e2e3d6,2,,,,,,pepper,,,,,,0,22,22,20,1,3,0,,,,,,,,,,,,,,,,,,,,,,,,,,,,,,,,,,,,,,,,,,,,,,,,,,,,,,,,,,,,,,,,,,,,,,,,,,,
,,,,,,,,,,stimuli/images/PICTURE_85.png,THING,5eb30ae3d8bf950ee04fe701,06/04/1988,2020-07-08_16h34.25.125,proactive,2020.1.2,Win32,60,5f035e5afe130c270d6ae6dd,5f05e30f2bb2ef0ae6e2e3d6,2,,,,,,diamond,,,,,,0,23,23,15,1,2,0,,,,,,,,,,,,,,,,,,,,,,,,,,,,,,,,,,,,,,,,,,,,,,,,,,,,,,,,,,,,,,,,,,,,,,,,,,,
,,,,,,,,,,stimuli/images/PICTURE_160.png,FEET,5eb30ae3d8bf950ee04fe701,06/04/1988,2020-07-08_16h34.25.125,proactive,2020.1.2,Win32,60,5f035e5afe130c270d6ae6dd,5f05e30f2bb2ef0ae6e2e3d6,2,,,,,,wheelbarrow,,,,,,0,24,24,58,1,6,0,,,,,,,,,,,,,,,,,,,,,,,,,,,,,,,,,,,,,,,,,,,,,,,,,,,,,,,,,,,,,,,,,,,,,,,,,,,
,,,,,,,,,,stimuli/images/PICTURE_177.png,CARS,5eb30ae3d8bf950ee04fe701,06/04/1988,2020-07-08_16h34.25.125,proactive,2020.1.2,Win32,60,5f035e5afe130c270d6ae6dd,5f05e30f2bb2ef0ae6e2e3d6,2,,,,,,mushroom,,,,,,0,25,25,35,1,4,0,,,,,,,,,,,,,,,,,,,,,,,,,,,,,,,,,,,,,,,,,,,,,,,,,,,,,,,,,,,,,,,,,,,,,,,,,,,
,,,,,,,,,,stimuli/images/PICTURE_677.png,MILE,5eb30ae3d8bf950ee04fe701,06/04/1988,2020-07-08_16h34.25.125,proactive,2020.1.2,Win32,60,5f035e5afe130c270d6ae6dd,5f05e30f2bb2ef0ae6e2e3d6,2,,,,,,map,,,,,,0,26,26,30,1,4,0,,,,,,,,,,,,,,,,,,,,,,,,,,,,,,,,,,,,,,,,,,,,,,,,,,,,,,,,,,,,,,,,,,,,,,,,,,,
,,,,,,,,,,stimuli/images/PICTURE_302.png,FAMILY,5eb30ae3d8bf950ee04fe701,06/04/1988,2020-07-08_16h34.25.125,proactive,2020.1.2,Win32,60,5f035e5afe130c270d6ae6dd,5f05e30f2bb2ef0ae6e2e3d6,2,,,,,,taxi,,,,,,0,27,27,18,1,2,0,,,,,,,,,,,,,,,,,,,,,,,,,,,,,,,,,,,,,,,,,,,,,,,,,,,,,,,,,,,,,,,,,,,,,,,,,,,
,,,,,,,,,,stimuli/images/PICTURE_488.png,STYLE,5eb30ae3d8bf950ee04fe701,06/04/1988,2020-07-08_16h34.25.125,proactive,2020.1.2,Win32,60,5f035e5afe130c270d6ae6dd,5f05e30f2bb2ef0ae6e2e3d6,2,,,,,,sun,,,,,,0,28,28,33,1,4,0,,,,,,,,,,,,,,,,,,,,,,,,,,,,,,,,,,,,,,,,,,,,,,,,,,,,,,,,,,,,,,,,,,,,,,,,,,,
,,,,,,,,,,stimuli/images/PICTURE_208.png,LOTS,5eb30ae3d8bf950ee04fe701,06/04/1988,2020-07-08_16h34.25.125,proactive,2020.1.2,Win32,60,5f035e5afe130c270d6ae6dd,5f05e30f2bb2ef0ae6e2e3d6,2,,,,,,microphone,,,,,,0,29,29,10,1,2,0,,,,,,,,,,,,,,,,,,,,,,,,,,,,,,,,,,,,,,,,,,,,,,,,,,,,,,,,,,,,,,,,,,,,,,,,,,,
,,,,,,,,,,stimuli/images/PICTURE_380.png,DEATH,5eb30ae3d8bf950ee04fe701,06/04/1988,2020-07-08_16h34.25.125,proactive,2020.1.2,Win32,60,5f035e5afe130c270d6ae6dd,5f05e30f2bb2ef0ae6e2e3d6,2,,,,,,gorilla,,,,,,0,30,30,49,1,5,0,,,,,,,,,,,,,,,,,,,,,,,,,,,,,,,,,,,,,,,,,,,,,,,,,,,,,,,,,,,,,,,,,,,,,,,,,,,
,,,,,,,,,,stimuli/images/PICTURE_487.png,FLIGHT,5eb30ae3d8bf950ee04fe701,06/04/1988,2020-07-08_16h34.25.125,proactive,2020.1.2,Win32,60,5f035e5afe130c270d6ae6dd,5f05e30f2bb2ef0ae6e2e3d6,2,,,,,,basket,,,,,,0,31,31,9,1,1,0,,,,,,,,,,,,,,,,,,,,,,,,,,,,,,,,,,,,,,,,,,,,,,,,,,,,,,,,,,,,,,,,,,,,,,,,,,,
,,,,,,,,,,stimuli/images/PICTURE_233.png,WOMEN,5eb30ae3d8bf950ee04fe701,06/04/1988,2020-07-08_16h34.25.125,proactive,2020.1.2,Win32,60,5f035e5afe130c270d6ae6dd,5f05e30f2bb2ef0ae6e2e3d6,2,,,,,,salt,,,,,,0,32,32,38,1,4,0,,,,,,,,,,,,,,,,,,,,,,,,,,,,,,,,,,,,,,,,,,,,,,,,,,,,,,,,,,,,,,,,,,,,,,,,,,,
,,,,,,,,,,stimuli/images/PICTURE_248.png,DOZEN,5eb30ae3d8bf950ee04fe701,06/04/1988,2020-07-08_16h34.25.125,proactive,2020.1.2,Win32,60,5f035e5afe130c270d6ae6dd,5f05e30f2bb2ef0ae6e2e3d6,2,,,,,,cart,,,,,,0,33,33,39,1,4,0,,,,,,,,,,,,,,,,,,,,,,,,,,,,,,,,,,,,,,,,,,,,,,,,,,,,,,,,,,,,,,,,,,,,,,,,,,,
,,,,,,,,,,stimuli/images/PICTURE_215.png,PLENTY,5eb30ae3d8bf950ee04fe701,06/04/1988,2020-07-08_16h34.25.125,proactive,2020.1.2,Win32,60,5f035e5afe130c270d6ae6dd,5f05e30f2bb2ef0ae6e2e3d6,2,,,,,,boot,,,,,,0,34,34,37,1,4,0,,,,,,,,,,,,,,,,,,,,,,,,,,,,,,,,,,,,,,,,,,,,,,,,,,,,,,,,,,,,,,,,,,,,,,,,,,,
,,,,,,,,,,stimuli/images/PICTURE_491.png,WRITER,5eb30ae3d8bf950ee04fe701,06/04/1988,2020-07-08_16h34.25.125,proactive,2020.1.2,Win32,60,5f035e5afe130c270d6ae6dd,5f05e30f2bb2ef0ae6e2e3d6,2,,,,,,rug,,,,,,0,35,35,57,1,6,0,,,,,,,,,,,,,,,,,,,,,,,,,,,,,,,,,,,,,,,,,,,,,,,,,,,,,,,,,,,,,,,,,,,,,,,,,,,
,,,,,,,,,,stimuli/images/PICTURE_453.png,PLENTY,5eb30ae3d8bf950ee04fe701,06/04/1988,2020-07-08_16h34.25.125,proactive,2020.1.2,Win32,60,5f035e5afe130c270d6ae6dd,5f05e30f2bb2ef0ae6e2e3d6,2,,,,,,scissors,,,,,,0,36,36,56,1,6,0,,,,,,,,,,,,,,,,,,,,,,,,,,,,,,,,,,,,,,,,,,,,,,,,,,,,,,,,,,,,,,,,,,,,,,,,,,,
,,,,,,,,,,stimuli/images/PICTURE_255.png,AREA,5eb30ae3d8bf950ee04fe701,06/04/1988,2020-07-08_16h34.25.125,proactive,2020.1.2,Win32,60,5f035e5afe130c270d6ae6dd,5f05e30f2bb2ef0ae6e2e3d6,2,,,,,,shovel,,,,,,0,37,37,22,1,3,0,,,,,,,,,,,,,,,,,,,,,,,,,,,,,,,,,,,,,,,,,,,,,,,,,,,,,,,,,,,,,,,,,,,,,,,,,,,
,,,,,,,,,,stimuli/images/PICTURE_667.png,BATH,5eb30ae3d8bf950ee04fe701,06/04/1988,2020-07-08_16h34.25.125,proactive,2020.1.2,Win32,60,5f035e5afe130c270d6ae6dd,5f05e30f2bb2ef0ae6e2e3d6,2,,,,,,daisy,,,,,,0,38,38,4,1,1,0,,,,,,,,,,,,,,,,,,,,,,,,,,,,,,,,,,,,,,,,,,,,,,,,,,,,,,,,,,,,,,,,,,,,,,,,,,,
,,,,,,,,,,stimuli/images/PICTURE_469.png,ARTIST,5eb30ae3d8bf950ee04fe701,06/04/1988,2020-07-08_16h34.25.125,proactive,2020.1.2,Win32,60,5f035e5afe130c270d6ae6dd,5f05e30f2bb2ef0ae6e2e3d6,2,,,,,,stool,,,,,,0,39,39,6,1,1,0,,,,,,,,,,,,,,,,,,,,,,,,,,,,,,,,,,,,,,,,,,,,,,,,,,,,,,,,,,,,,,,,,,,,,,,,,,,
,,,,,,,,,,stimuli/images/PICTURE_123.png,ADVICE,5eb30ae3d8bf950ee04fe701,06/04/1988,2020-07-08_16h34.25.125,proactive,2020.1.2,Win32,60,5f035e5afe130c270d6ae6dd,5f05e30f2bb2ef0ae6e2e3d6,2,,,,,,dart,,,,,,0,40,40,40,1,5,0,,,,,,,,,,,,,,,,,,,,,,,,,,,,,,,,,,,,,,,,,,,,,,,,,,,,,,,,,,,,,,,,,,,,,,,,,,,
,,,,,,,,,,stimuli/images/PICTURE_314.png,SAKE,5eb30ae3d8bf950ee04fe701,06/04/1988,2020-07-08_16h34.25.125,proactive,2020.1.2,Win32,60,5f035e5afe130c270d6ae6dd,5f05e30f2bb2ef0ae6e2e3d6,2,,,,,,perfume,,,,,,0,41,41,7,1,1,0,,,,,,,,,,,,,,,,,,,,,,,,,,,,,,,,,,,,,,,,,,,,,,,,,,,,,,,,,,,,,,,,,,,,,,,,,,,
,,,,,,,,,,stimuli/images/PICTURE_470.png,CASINO,5eb30ae3d8bf950ee04fe701,06/04/1988,2020-07-08_16h34.25.125,proactive,2020.1.2,Win32,60,5f035e5afe130c270d6ae6dd,5f05e30f2bb2ef0ae6e2e3d6,2,,,,,,motorbike,,,,,,0,42,42,36,1,4,0,,,,,,,,,,,,,,,,,,,,,,,,,,,,,,,,,,,,,,,,,,,,,,,,,,,,,,,,,,,,,,,,,,,,,,,,,,,
,,,,,,,,,,stimuli/images/PICTURE_314.png,GODS,5eb30ae3d8bf950ee04fe701,06/04/1988,2020-07-08_16h34.25.125,proactive,2020.1.2,Win32,60,5f035e5afe130c270d6ae6dd,5f05e30f2bb2ef0ae6e2e3d6,2,,,,,,perfume,,,,,,0,43,43,11,1,2,0,,,,,,,,,,,,,,,,,,,,,,,,,,,,,,,,,,,,,,,,,,,,,,,,,,,,,,,,,,,,,,,,,,,,,,,,,,,
,,,,,,,,,,stimuli/images/PICTURE_208.png,MONTH,5eb30ae3d8bf950ee04fe701,06/04/1988,2020-07-08_16h34.25.125,proactive,2020.1.2,Win32,60,5f035e5afe130c270d6ae6dd,5f05e30f2bb2ef0ae6e2e3d6,2,,,,,,microphone,,,,,,0,44,44,53,1,6,0,,,,,,,,,,,,,,,,,,,,,,,,,,,,,,,,,,,,,,,,,,,,,,,,,,,,,,,,,,,,,,,,,,,,,,,,,,,
,,,,,,,,,,stimuli/images/PICTURE_147.png,MOMENT,5eb30ae3d8bf950ee04fe701,06/04/1988,2020-07-08_16h34.25.125,proactive,2020.1.2,Win32,60,5f035e5afe130c270d6ae6dd,5f05e30f2bb2ef0ae6e2e3d6,2,,,,,,hanger,,,,,,0,45,45,51,1,6,0,,,,,,,,,,,,,,,,,,,,,,,,,,,,,,,,,,,,,,,,,,,,,,,,,,,,,,,,,,,,,,,,,,,,,,,,,,,
,,,,,,,,,,stimuli/images/PICTURE_688.png,WOMEN,5eb30ae3d8bf950ee04fe701,06/04/1988,2020-07-08_16h34.25.125,proactive,2020.1.2,Win32,60,5f035e5afe130c270d6ae6dd,5f05e30f2bb2ef0ae6e2e3d6,2,,,,,,runner,,,,,,0,46,46,14,1,2,0,,,,,,,,,,,,,,,,,,,,,,,,,,,,,,,,,,,,,,,,,,,,,,,,,,,,,,,,,,,,,,,,,,,,,,,,,,,
,,,,,,,,,,stimuli/images/PICTURE_311.png,BEAUTY,5eb30ae3d8bf950ee04fe701,06/04/1988,2020-07-08_16h34.25.125,proactive,2020.1.2,Win32,60,5f035e5afe130c270d6ae6dd,5f05e30f2bb2ef0ae6e2e3d6,2,,,,,,razor,,,,,,0,47,47,13,1,2,0,,,,,,,,,,,,,,,,,,,,,,,,,,,,,,,,,,,,,,,,,,,,,,,,,,,,,,,,,,,,,,,,,,,,,,,,,,,
,,,,,,,,,,stimuli/images/PICTURE_449.png,THING,5eb30ae3d8bf950ee04fe701,06/04/1988,2020-07-08_16h34.25.125,proactive,2020.1.2,Win32,60,5f035e5afe130c270d6ae6dd,5f05e30f2bb2ef0ae6e2e3d6,2,,,,,,bench,,,,,,0,48,48,59,1,6,0,,,,,,,,,,,,,,,,,,,,,,,,,,,,,,,,,,,,,,,,,,,,,,,,,,,,,,,,,,,,,,,,,,,,,,,,,,,
,,,,,,,,,,stimuli/images/PICTURE_708.png,YARD,5eb30ae3d8bf950ee04fe701,06/04/1988,2020-07-08_16h34.25.125,proactive,2020.1.2,Win32,60,5f035e5afe130c270d6ae6dd,5f05e30f2bb2ef0ae6e2e3d6,2,,,,,,monkey,,,,,,0,49,49,29,1,3,0,,,,,,,,,,,,,,,,,,,,,,,,,,,,,,,,,,,,,,,,,,,,,,,,,,,,,,,,,,,,,,,,,,,,,,,,,,,
,,,,,,,,,,stimuli/images/PICTURE_708.png,PENNY,5eb30ae3d8bf950ee04fe701,06/04/1988,2020-07-08_16h34.25.125,proactive,2020.1.2,Win32,60,5f035e5afe130c270d6ae6dd,5f05e30f2bb2ef0ae6e2e3d6,2,,,,,,monkey,,,,,,0,50,50,31,1,4,0,,,,,,,,,,,,,,,,,,,,,,,,,,,,,,,,,,,,,,,,,,,,,,,,,,,,,,,,,,,,,,,,,,,,,,,,,,,
,,,,,,,,,,stimuli/images/PICTURE_95.png,STYLE,5eb30ae3d8bf950ee04fe701,06/04/1988,2020-07-08_16h34.25.125,proactive,2020.1.2,Win32,60,5f035e5afe130c270d6ae6dd,5f05e30f2bb2ef0ae6e2e3d6,2,,,,,,suitcase,,,,,,0,51,51,25,1,3,0,,,,,,,,,,,,,,,,,,,,,,,,,,,,,,,,,,,,,,,,,,,,,,,,,,,,,,,,,,,,,,,,,,,,,,,,,,,
,,,,,,,,,,stimuli/images/PICTURE_380.png,PHOTO,5eb30ae3d8bf950ee04fe701,06/04/1988,2020-07-08_16h34.25.125,proactive,2020.1.2,Win32,60,5f035e5afe130c270d6ae6dd,5f05e30f2bb2ef0ae6e2e3d6,2,,,,,,gorilla,,,,,,0,52,52,52,1,6,0,,,,,,,,,,,,,,,,,,,,,,,,,,,,,,,,,,,,,,,,,,,,,,,,,,,,,,,,,,,,,,,,,,,,,,,,,,,
,,,,,,,,,,stimuli/images/PICTURE_469.png,LETTER,5eb30ae3d8bf950ee04fe701,06/04/1988,2020-07-08_16h34.25.125,proactive,2020.1.2,Win32,60,5f035e5afe130c270d6ae6dd,5f05e30f2bb2ef0ae6e2e3d6,2,,,,,,stool,,,,,,0,53,53,42,1,5,0,,,,,,,,,,,,,,,,,,,,,,,,,,,,,,,,,,,,,,,,,,,,,,,,,,,,,,,,,,,,,,,,,,,,,,,,,,,
,,,,,,,,,,stimuli/images/PICTURE_453.png,DUDE,5eb30ae3d8bf950ee04fe701,06/04/1988,2020-07-08_16h34.25.125,proactive,2020.1.2,Win32,60,5f035e5afe130c270d6ae6dd,5f05e30f2bb2ef0ae6e2e3d6,2,,,,,,scissors,,,,,,0,54,54,27,1,3,0,,,,,,,,,,,,,,,,,,,,,,,,,,,,,,,,,,,,,,,,,,,,,,,,,,,,,,,,,,,,,,,,,,,,,,,,,,,
,,,,,,,,,,stimuli/images/PICTURE_308.png,ESTATE,5eb30ae3d8bf950ee04fe701,06/04/1988,2020-07-08_16h34.25.125,proactive,2020.1.2,Win32,60,5f035e5afe130c270d6ae6dd,5f05e30f2bb2ef0ae6e2e3d6,2,,,,,,dice,,,,,,0,55,55,46,1,5,0,,,,,,,,,,,,,,,,,,,,,,,,,,,,,,,,,,,,,,,,,,,,,,,,,,,,,,,,,,,,,,,,,,,,,,,,,,,
,,,,,,,,,,stimuli/images/PICTURE_285.png,ADVICE,5eb30ae3d8bf950ee04fe701,06/04/1988,2020-07-08_16h34.25.125,proactive,2020.1.2,Win32,60,5f035e5afe130c270d6ae6dd,5f05e30f2bb2ef0ae6e2e3d6,2,,,,,,carrot,,,,,,0,56,56,12,1,2,0,,,,,,,,,,,,,,,,,,,,,,,,,,,,,,,,,,,,,,,,,,,,,,,,,,,,,,,,,,,,,,,,,,,,,,,,,,,
,,,,,,,,,,stimuli/images/PICTURE_504.png,BODY,5eb30ae3d8bf950ee04fe701,06/04/1988,2020-07-08_16h34.25.125,proactive,2020.1.2,Win32,60,5f035e5afe130c270d6ae6dd,5f05e30f2bb2ef0ae6e2e3d6,2,,,,,,wheel,,,,,,0,57,57,8,1,1,0,,,,,,,,,,,,,,,,,,,,,,,,,,,,,,,,,,,,,,,,,,,,,,,,,,,,,,,,,,,,,,,,,,,,,,,,,,,
,,,,,,,,,,stimuli/images/PICTURE_467.png,DEMON,5eb30ae3d8bf950ee04fe701,06/04/1988,2020-07-08_16h34.25.125,proactive,2020.1.2,Win32,60,5f035e5afe130c270d6ae6dd,5f05e30f2bb2ef0ae6e2e3d6,2,,,,,,peg,,,,,,0,58,58,23,1,3,0,,,,,,,,,,,,,,,,,,,,,,,,,,,,,,,,,,,,,,,,,,,,,,,,,,,,,,,,,,,,,,,,,,,,,,,,,,,
,,?,0.002785,0,,,,,,stimuli/images/PICTURE_308.png,KIND,5eb30ae3d8bf950ee04fe701,06/04/1988,2020-07-08_16h34.25.125,proactive,2020.1.2,Win32,60,5f035e5afe130c270d6ae6dd,5f05e30f2bb2ef0ae6e2e3d6,2,,,,,,dice,,,,,,,,,,,6,0,0,0,0,54,1,,,,,,,,,,,,,,,,,,,,,,,,,,,,,,,,,,,,,,,,,,,,,,,,,,,,,,,,,,,,,,,,,,,,,,
,,?,0.00225,0,,,,,,stimuli/images/PICTURE_311.png,FRIEND,5eb30ae3d8bf950ee04fe701,06/04/1988,2020-07-08_16h34.25.125,proactive,2020.1.2,Win32,60,5f035e5afe130c270d6ae6dd,5f05e30f2bb2ef0ae6e2e3d6,2,,,,,,razor,,,,,,,,,,,4,0,0,1,1,34,1,,,,,,,,,,,,,,,,,,,,,,,,,,,,,,,,,,,,,,,,,,,,,,,,,,,,,,,,,,,,,,,,,,,,,,
,,?,0.00247,0,,,,,,stimuli/images/PICTURE_348.png,SPEECH,5eb30ae3d8bf950ee04fe701,06/04/1988,2020-07-08_16h34.25.125,proactive,2020.1.2,Win32,60,5f035e5afe130c270d6ae6dd,5f05e30f2bb2ef0ae6e2e3d6,2,,,,,,pepper,,,,,,,,,,,3,0,0,2,2,20,1,,,,,,,,,,,,,,,,,,,,,,,,,,,,,,,,,,,,,,,,,,,,,,,,,,,,,,,,,,,,,,,,,,,,,,
,,?,0.00204,0,,,,,,stimuli/images/PICTURE_491.png,WRITER,5eb30ae3d8bf950ee04fe701,06/04/1988,2020-07-08_16h34.25.125,proactive,2020.1.2,Win32,60,5f035e5afe130c270d6ae6dd,5f05e30f2bb2ef0ae6e2e3d6,2,,,,,,rug,,,,,,,,,,,6,0,0,3,3,57,1,,,,,,,,,,,,,,,,,,,,,,,,,,,,,,,,,,,,,,,,,,,,,,,,,,,,,,,,,,,,,,,,,,,,,,
,,?,0.00194,0,,,,,,stimuli/images/PICTURE_708.png,CLIENT,5eb30ae3d8bf950ee04fe701,06/04/1988,2020-07-08_16h34.25.125,proactive,2020.1.2,Win32,60,5f035e5afe130c270d6ae6dd,5f05e30f2bb2ef0ae6e2e3d6,2,,,,,,monkey,,,,,,,,,,,1,0,0,4,4,5,1,,,,,,,,,,,,,,,,,,,,,,,,,,,,,,,,,,,,,,,,,,,,,,,,,,,,,,,,,,,,,,,,,,,,,,
,,?,0.00174,0,,,,,,stimuli/images/PICTURE_32.png,JUNGLE,5eb30ae3d8bf950ee04fe701,06/04/1988,2020-07-08_16h34.25.125,proactive,2020.1.2,Win32,60,5f035e5afe130c270d6ae6dd,5f05e30f2bb2ef0ae6e2e3d6,2,,,,,,crown,,,,,,,,,,,5,0,0,5,5,45,1,,,,,,,,,,,,,,,,,,,,,,,,,,,,,,,,,,,,,,,,,,,,,,,,,,,,,,,,,,,,,,,,,,,,,,
,,?,0.002085,0,,,,,,stimuli/images/PICTURE_123.png,ADVICE,5eb30ae3d8bf950ee04fe701,06/04/1988,2020-07-08_16h34.25.125,proactive,2020.1.2,Win32,60,5f035e5afe130c270d6ae6dd,5f05e30f2bb2ef0ae6e2e3d6,2,,,,,,dart,,,,,,,,,,,6,0,0,6,6,50,1,,,,,,,,,,,,,,,,,,,,,,,,,,,,,,,,,,,,,,,,,,,,,,,,,,,,,,,,,,,,,,,,,,,,,,
,,GIRL,2.541475,1,,,,,,stimuli/images/PICTURE_151.png,GIRL,5eb30ae3d8bf950ee04fe701,06/04/1988,2020-07-08_16h34.25.125,proactive,2020.1.2,Win32,60,5f035e5afe130c270d6ae6dd,5f05e30f2bb2ef0ae6e2e3d6,2,,,,,,tray,,,,,,,,,,,2,0,0,7,7,19,1,,,,,,,,,,,,,,,,,,,,,,,,,,,,,,,,,,,,,,,,,,,,,,,,,,,,,,,,,,,,,,,,,,,,,,
,,?,0.003865,0,,,,,,stimuli/images/PICTURE_95.png,STYLE,5eb30ae3d8bf950ee04fe701,06/04/1988,2020-07-08_16h34.25.125,proactive,2020.1.2,Win32,60,5f035e5afe130c270d6ae6dd,5f05e30f2bb2ef0ae6e2e3d6,2,,,,,,suitcase,,,,,,,,,,,3,0,0,8,8,25,1,,,,,,,,,,,,,,,,,,,,,,,,,,,,,,,,,,,,,,,,,,,,,,,,,,,,,,,,,,,,,,,,,,,,,,
,,?,0.00598,0,,,,,,stimuli/images/PICTURE_160.png,LEADER,5eb30ae3d8bf950ee04fe701,06/04/1988,2020-07-08_16h34.25.125,proactive,2020.1.2,Win32,60,5f035e5afe130c270d6ae6dd,5f05e30f2bb2ef0ae6e2e3d6,2,,,,,,wheelbarrow,,,,,,,,,,,1,0,0,9,9,3,1,,,,,,,,,,,,,,,,,,,,,,,,,,,,,,,,,,,,,,,,,,,,,,,,,,,,,,,,,,,,,,,,,,,,,,
,,?,0.004125,0,,,,,,stimuli/images/PICTURE_339.png,PLENTY,5eb30ae3d8bf950ee04fe701,06/04/1988,2020-07-08_16h34.25.125,proactive,2020.1.2,Win32,60,5f035e5afe130c270d6ae6dd,5f05e30f2bb2ef0ae6e2e3d6,2,,,,,,backpack,,,,,,,,,,,1,0,0,10,10,0,1,,,,,,,,,,,,,,,,,,,,,,,,,,,,,,,,,,,,,,,,,,,,,,,,,,,,,,,,,,,,,,,,,,,,,,
,,?,0.00374,0,,,,,,stimuli/images/PICTURE_675.png,WEAPON,5eb30ae3d8bf950ee04fe701,06/04/1988,2020-07-08_16h34.25.125,proactive,2020.1.2,Win32,60,5f035e5afe130c270d6ae6dd,5f05e30f2bb2ef0ae6e2e3d6,2,,,,,,windmill,,,,,,,,,,,4,0,0,11,11,32,1,,,,,,,,,,,,,,,,,,,,,,,,,,,,,,,,,,,,,,,,,,,,,,,,,,,,,,,,,,,,,,,,,,,,,,
,,?,0.004835,0,,,,,,stimuli/images/PICTURE_453.png,PLENTY,5eb30ae3d8bf950ee04fe701,06/04/1988,2020-07-08_16h34.25.125,proactive,2020.1.2,Win32,60,5f035e5afe130c270d6ae6dd,5f05e30f2bb2ef0ae6e2e3d6,2,,,,,,scissors,,,,,,,,,,,6,0,0,12,12,56,1,,,,,,,,,,,,,,,,,,,,,,,,,,,,,,,,,,,,,,,,,,,,,,,,,,,,,,,,,,,,,,,,,,,,,,
,,?,0.00234,0,,,,,,stimuli/images/PICTURE_509.png,PHOTO,5eb30ae3d8bf950ee04fe701,06/04/1988,2020-07-08_16h34.25.125,proactive,2020.1.2,Win32,60,5f035e5afe130c270d6ae6dd,5f05e30f2bb2ef0ae6e2e3d6,2,,,,,,telephone,,,,,,,,,,,3,0,0,13,13,21,1,,,,,,,,,,,,,,,,,,,,,,,,,,,,,,,,,,,,,,,,,,,,,,,,,,,,,,,,,,,,,,,,,,,,,,
,,?,0.002315,0,,,,,,stimuli/images/PICTURE_380.png,PHOTO,5eb30ae3d8bf950ee04fe701,06/04/1988,2020-07-08_16h34.25.125,proactive,2020.1.2,Win32,60,5f035e5afe130c270d6ae6dd,5f05e30f2bb2ef0ae6e2e3d6,2,,,,,,gorilla,,,,,,,,,,,6,0,0,14,14,52,1,,,,,,,,,,,,,,,,,,,,,,,,,,,,,,,,,,,,,,,,,,,,,,,,,,,,,,,,,,,,,,,,,,,,,,
,,?,0.002345,0,,,,,,stimuli/images/PICTURE_491.png,ROOF,5eb30ae3d8bf950ee04fe701,06/04/1988,2020-07-08_16h34.25.125,proactive,2020.1.2,Win32,60,5f035e5afe130c270d6ae6dd,5f05e30f2bb2ef0ae6e2e3d6,2,,,,,,rug,,,,,,,,,,,3,0,0,15,15,24,1,,,,,,,,,,,,,,,,,,,,,,,,,,,,,,,,,,,,,,,,,,,,,,,,,,,,,,,,,,,,,,,,,,,,,,
,,?,0.002175,0,,,,,,stimuli/images/PICTURE_208.png,THING,5eb30ae3d8bf950ee04fe701,06/04/1988,2020-07-08_16h34.25.125,proactive,2020.1.2,Win32,60,5f035e5afe130c270d6ae6dd,5f05e30f2bb2ef0ae6e2e3d6,2,,,,,,microphone,,,,,,,,,,,5,0,0,16,16,47,1,,,,,,,,,,,,,,,,,,,,,,,,,,,,,,,,,,,,,,,,,,,,,,,,,,,,,,,,,,,,,,,,,,,,,,
,,ADVICE,3.134835,1,,,,,,stimuli/images/PICTURE_285.png,ADVICE,5eb30ae3d8bf950ee04fe701,06/04/1988,2020-07-08_16h34.25.125,proactive,2020.1.2,Win32,60,5f035e5afe130c270d6ae6dd,5f05e30f2bb2ef0ae6e2e3d6,2,,,,,,carrot,,,,,,,,,,,2,0,0,17,17,12,1,,,,,,,,,,,,,,,,,,,,,,,,,,,,,,,,,,,,,,,,,,,,,,,,,,,,,,,,,,,,,,,,,,,,,,
,,?,0.00273,0,,,,,,stimuli/images/PICTURE_453.png,DUDE,5eb30ae3d8bf950ee04fe701,06/04/1988,2020-07-08_16h34.25.125,proactive,2020.1.2,Win32,60,5f035e5afe130c270d6ae6dd,5f05e30f2bb2ef0ae6e2e3d6,2,,,,,,scissors,,,,,,,,,,,3,0,0,18,18,27,1,,,,,,,,,,,,,,,,,,,,,,,,,,,,,,,,,,,,,,,,,,,,,,,,,,,,,,,,,,,,,,,,,,,,,,
,,?,0.003155,0,,,,,,stimuli/images/PICTURE_688.png,CASINO,5eb30ae3d8bf950ee04fe701,06/04/1988,2020-07-08_16h34.25.125,proactive,2020.1.2,Win32,60,5f035e5afe130c270d6ae6dd,5f05e30f2bb2ef0ae6e2e3d6,2,,,,,,runner,,,,,,,,,,,1,0,0,19,19,2,1,,,,,,,,,,,,,,,,,,,,,,,,,,,,,,,,,,,,,,,,,,,,,,,,,,,,,,,,,,,,,,,,,,,,,,
,,?,0.00258,0,,,,,,stimuli/images/PICTURE_449.png,THING,5eb30ae3d8bf950ee04fe701,06/04/1988,2020-07-08_16h34.25.125,proactive,2020.1.2,Win32,60,5f035e5afe130c270d6ae6dd,5f05e30f2bb2ef0ae6e2e3d6,2,,,,,,bench,,,,,,,,,,,6,0,0,20,20,59,1,,,,,,,,,,,,,,,,,,,,,,,,,,,,,,,,,,,,,,,,,,,,,,,,,,,,,,,,,,,,,,,,,,,,,,
,,?,0.002435,0,,,,,,stimuli/images/PICTURE_356.png,DANGER,5eb30ae3d8bf950ee04fe701,06/04/1988,2020-07-08_16h34.25.125,proactive,2020.1.2,Win32,60,5f035e5afe130c270d6ae6dd,5f05e30f2bb2ef0ae6e2e3d6,2,,,,,,pawn,,,,,,,,,,,6,0,0,21,21,55,1,,,,,,,,,,,,,,,,,,,,,,,,,,,,,,,,,,,,,,,,,,,,,,,,,,,,,,,,,,,,,,,,,,,,,,
,,?,0.002515,0,,,,,,stimuli/images/PICTURE_708.png,YARD,5eb30ae3d8bf950ee04fe701,06/04/1988,2020-07-08_16h34.25.125,proactive,2020.1.2,Win32,60,5f035e5afe130c270d6ae6dd,5f05e30f2bb2ef0ae6e2e3d6,2,,,,,,monkey,,,,,,,,,,,3,0,0,22,22,29,1,,,,,,,,,,,,,,,,,,,,,,,,,,,,,,,,,,,,,,,,,,,,,,,,,,,,,,,,,,,,,,,,,,,,,,
,,?,0.002195,0,,,,,,stimuli/images/PICTURE_677.png,MILE,5eb30ae3d8bf950ee04fe701,06/04/1988,2020-07-08_16h34.25.125,proactive,2020.1.2,Win32,60,5f035e5afe130c270d6ae6dd,5f05e30f2bb2ef0ae6e2e3d6,2,,,,,,map,,,,,,,,,,,4,0,0,23,23,30,1,,,,,,,,,,,,,,,,,,,,,,,,,,,,,,,,,,,,,,,,,,,,,,,,,,,,,,,,,,,,,,,,,,,,,,
,,?,0.00225,0,,,,,,stimuli/images/PICTURE_654.png,VALLEY,5eb30ae3d8bf950ee04fe701,06/04/1988,2020-07-08_16h34.25.125,proactive,2020.1.2,Win32,60,5f035e5afe130c270d6ae6dd,5f05e30f2bb2ef0ae6e2e3d6,2,,,,,,pencil,,,,,,,,,,,1,0,0,24,24,1,1,,,,,,,,,,,,,,,,,,,,,,,,,,,,,,,,,,,,,,,,,,,,,,,,,,,,,,,,,,,,,,,,,,,,,,
,,?,0.001885,0,,,,,,stimuli/images/PICTURE_744.png,SYSTEM,5eb30ae3d8bf950ee04fe701,06/04/1988,2020-07-08_16h34.25.125,proactive,2020.1.2,Win32,60,5f035e5afe130c270d6ae6dd,5f05e30f2bb2ef0ae6e2e3d6,2,,,,,,ring,,,,,,,,,,,5,0,0,25,25,43,1,,,,,,,,,,,,,,,,,,,,,,,,,,,,,,,,,,,,,,,,,,,,,,,,,,,,,,,,,,,,,,,,,,,,,,
,,?,0.00175,0,,,,,,stimuli/images/PICTURE_233.png,IDEAS,5eb30ae3d8bf950ee04fe701,06/04/1988,2020-07-08_16h34.25.125,proactive,2020.1.2,Win32,60,5f035e5afe130c270d6ae6dd,5f05e30f2bb2ef0ae6e2e3d6,2,,,,,,salt,,,,,,,,,,,3,0,0,26,26,28,1,,,,,,,,,,,,,,,,,,,,,,,,,,,,,,,,,,,,,,,,,,,,,,,,,,,,,,,,,,,,,,,,,,,,,,
,,?,0.001945,0,,,,,,stimuli/images/PICTURE_208.png,MONTH,5eb30ae3d8bf950ee04fe701,06/04/1988,2020-07-08_16h34.25.125,proactive,2020.1.2,Win32,60,5f035e5afe130c270d6ae6dd,5f05e30f2bb2ef0ae6e2e3d6,2,,,,,,microphone,,,,,,,,,,,6,0,0,27,27,53,1,,,,,,,,,,,,,,,,,,,,,,,,,,,,,,,,,,,,,,,,,,,,,,,,,,,,,,,,,,,,,,,,,,,,,,
,,?,0.001765,0,,,,,,stimuli/images/PICTURE_248.png,DOZEN,5eb30ae3d8bf950ee04fe701,06/04/1988,2020-07-08_16h34.25.125,proactive,2020.1.2,Win32,60,5f035e5afe130c270d6ae6dd,5f05e30f2bb2ef0ae6e2e3d6,2,,,,,,cart,,,,,,,,,,,4,0,0,28,28,39,1,,,,,,,,,,,,,,,,,,,,,,,,,,,,,,,,,,,,,,,,,,,,,,,,,,,,,,,,,,,,,,,,,,,,,,
,,?,0.002155,0,,,,,,stimuli/images/PICTURE_504.png,BODY,5eb30ae3d8bf950ee04fe701,06/04/1988,2020-07-08_16h34.25.125,proactive,2020.1.2,Win32,60,5f035e5afe130c270d6ae6dd,5f05e30f2bb2ef0ae6e2e3d6,2,,,,,,wheel,,,,,,,,,,,1,0,0,29,29,8,1,,,,,,,,,,,,,,,,,,,,,,,,,,,,,,,,,,,,,,,,,,,,,,,,,,,,,,,,,,,,,,,,,,,,,,
,,?,0.002035,0,,,,,,stimuli/images/PICTURE_487.png,FLIGHT,5eb30ae3d8bf950ee04fe701,06/04/1988,2020-07-08_16h34.25.125,proactive,2020.1.2,Win32,60,5f035e5afe130c270d6ae6dd,5f05e30f2bb2ef0ae6e2e3d6,2,,,,,,basket,,,,,,,,,,,1,0,0,30,30,9,1,,,,,,,,,,,,,,,,,,,,,,,,,,,,,,,,,,,,,,,,,,,,,,,,,,,,,,,,,,,,,,,,,,,,,,
,,?,0.001775,0,,,,,,stimuli/images/PICTURE_380.png,DEATH,5eb30ae3d8bf950ee04fe701,06/04/1988,2020-07-08_16h34.25.125,proactive,2020.1.2,Win32,60,5f035e5afe130c270d6ae6dd,5f05e30f2bb2ef0ae6e2e3d6,2,,,,,,gorilla,,,,,,,,,,,5,0,0,31,31,49,1,,,,,,,,,,,,,,,,,,,,,,,,,,,,,,,,,,,,,,,,,,,,,,,,,,,,,,,,,,,,,,,,,,,,,,
,,?,0.00205,0,,,,,,stimuli/images/PICTURE_147.png,MOMENT,5eb30ae3d8bf950ee04fe701,06/04/1988,2020-07-08_16h34.25.125,proactive,2020.1.2,Win32,60,5f035e5afe130c270d6ae6dd,5f05e30f2bb2ef0ae6e2e3d6,2,,,,,,hanger,,,,,,,,,,,6,0,0,32,32,51,1,,,,,,,,,,,,,,,,,,,,,,,,,,,,,,,,,,,,,,,,,,,,,,,,,,,,,,,,,,,,,,,,,,,,,,
,,?,0.001765,0,,,,,,stimuli/images/PICTURE_233.png,WOMEN,5eb30ae3d8bf950ee04fe701,06/04/1988,2020-07-08_16h34.25.125,proactive,2020.1.2,Win32,60,5f035e5afe130c270d6ae6dd,5f05e30f2bb2ef0ae6e2e3d6,2,,,,,,salt,,,,,,,,,,,4,0,0,33,33,38,1,,,,,,,,,,,,,,,,,,,,,,,,,,,,,,,,,,,,,,,,,,,,,,,,,,,,,,,,,,,,,,,,,,,,,,
,,GODS,4.191295,1,,,,,,stimuli/images/PICTURE_314.png,GODS,5eb30ae3d8bf950ee04fe701,06/04/1988,2020-07-08_16h34.25.125,proactive,2020.1.2,Win32,60,5f035e5afe130c270d6ae6dd,5f05e30f2bb2ef0ae6e2e3d6,2,,,,,,perfume,,,,,,,,,,,2,0,0,34,34,11,1,,,,,,,,,,,,,,,,,,,,,,,,,,,,,,,,,,,,,,,,,,,,,,,,,,,,,,,,,,,,,,,,,,,,,,
,,?,0.00411,0,,,,,,stimuli/images/PICTURE_314.png,SAKE,5eb30ae3d8bf950ee04fe701,06/04/1988,2020-07-08_16h34.25.125,proactive,2020.1.2,Win32,60,5f035e5afe130c270d6ae6dd,5f05e30f2bb2ef0ae6e2e3d6,2,,,,,,perfume,,,,,,,,,,,1,0,0,35,35,7,1,,,,,,,,,,,,,,,,,,,,,,,,,,,,,,,,,,,,,,,,,,,,,,,,,,,,,,,,,,,,,,,,,,,,,,
,,?,0.003565,0,,,,,,stimuli/images/PICTURE_215.png,PLENTY,5eb30ae3d8bf950ee04fe701,06/04/1988,2020-07-08_16h34.25.125,proactive,2020.1.2,Win32,60,5f035e5afe130c270d6ae6dd,5f05e30f2bb2ef0ae6e2e3d6,2,,,,,,boot,,,,,,,,,,,4,0,0,36,36,37,1,,,,,,,,,,,,,,,,,,,,,,,,,,,,,,,,,,,,,,,,,,,,,,,,,,,,,,,,,,,,,,,,,,,,,,
,,?,0.002195,0,,,,,,stimuli/images/PICTURE_123.png,ADVICE,5eb30ae3d8bf950ee04fe701,06/04/1988,2020-07-08_16h34.25.125,proactive,2020.1.2,Win32,60,5f035e5afe130c270d6ae6dd,5f05e30f2bb2ef0ae6e2e3d6,2,,,,,,dart,,,,,,,,,,,5,0,0,37,37,40,1,,,,,,,,,,,,,,,,,,,,,,,,,,,,,,,,,,,,,,,,,,,,,,,,,,,,,,,,,,,,,,,,,,,,,,
,,?,0.002035,0,,,,,,stimuli/images/PICTURE_308.png,ESTATE,5eb30ae3d8bf950ee04fe701,06/04/1988,2020-07-08_16h34.25.125,proactive,2020.1.2,Win32,60,5f035e5afe130c270d6ae6dd,5f05e30f2bb2ef0ae6e2e3d6,2,,,,,,dice,,,,,,,,,,,5,0,0,38,38,46,1,,,,,,,,,,,,,,,,,,,,,,,,,,,,,,,,,,,,,,,,,,,,,,,,,,,,,,,,,,,,,,,,,,,,,,
,,?,0.002125,0,,,,,,stimuli/images/PICTURE_469.png,LETTER,5eb30ae3d8bf950ee04fe701,06/04/1988,2020-07-08_16h34.25.125,proactive,2020.1.2,Win32,60,5f035e5afe130c270d6ae6dd,5f05e30f2bb2ef0ae6e2e3d6,2,,,,,,stool,,,,,,,,,,,5,0,0,39,39,42,1,,,,,,,,,,,,,,,,,,,,,,,,,,,,,,,,,,,,,,,,,,,,,,,,,,,,,,,,,,,,,,,,,,,,,,
,,?,0.00205,0,,,,,,stimuli/images/PICTURE_667.png,PLENTY,5eb30ae3d8bf950ee04fe701,06/04/1988,2020-07-08_16h34.25.125,proactive,2020.1.2,Win32,60,5f035e5afe130c270d6ae6dd,5f05e30f2bb2ef0ae6e2e3d6,2,,,,,,daisy,,,,,,,,,,,5,0,0,40,40,41,1,,,,,,,,,,,,,,,,,,,,,,,,,,,,,,,,,,,,,,,,,,,,,,,,,,,,,,,,,,,,,,,,,,,,,,
,,?,0.002415,0,,,,,,stimuli/images/PICTURE_203.png,ARTIST,5eb30ae3d8bf950ee04fe701,06/04/1988,2020-07-08_16h34.25.125,proactive,2020.1.2,Win32,60,5f035e5afe130c270d6ae6dd,5f05e30f2bb2ef0ae6e2e3d6,2,,,,,,cap,,,,,,,,,,,3,0,0,41,41,26,1,,,,,,,,,,,,,,,,,,,,,,,,,,,,,,,,,,,,,,,,,,,,,,,,,,,,,,,,,,,,,,,,,,,,,,
,,?,0.001775,0,,,,,,stimuli/images/PICTURE_177.png,CARS,5eb30ae3d8bf950ee04fe701,06/04/1988,2020-07-08_16h34.25.125,proactive,2020.1.2,Win32,60,5f035e5afe130c270d6ae6dd,5f05e30f2bb2ef0ae6e2e3d6,2,,,,,,mushroom,,,,,,,,,,,4,0,0,42,42,35,1,,,,,,,,,,,,,,,,,,,,,,,,,,,,,,,,,,,,,,,,,,,,,,,,,,,,,,,,,,,,,,,,,,,,,,
,,WOMEN,2.25875,1,,,,,,stimuli/images/PICTURE_688.png,WOMEN,5eb30ae3d8bf950ee04fe701,06/04/1988,2020-07-08_16h34.25.125,proactive,2020.1.2,Win32,60,5f035e5afe130c270d6ae6dd,5f05e30f2bb2ef0ae6e2e3d6,2,,,,,,runner,,,,,,,,,,,2,0,0,43,43,14,1,,,,,,,,,,,,,,,,,,,,,,,,,,,,,,,,,,,,,,,,,,,,,,,,,,,,,,,,,,,,,,,,,,,,,,
,,SAKE,2.53141,1,,,,,,stimuli/images/PICTURE_744.png,SAKE,5eb30ae3d8bf950ee04fe701,06/04/1988,2020-07-08_16h34.25.125,proactive,2020.1.2,Win32,60,5f035e5afe130c270d6ae6dd,5f05e30f2bb2ef0ae6e2e3d6,2,,,,,,ring,,,,,,,,,,,2,0,0,44,44,17,1,,,,,,,,,,,,,,,,,,,,,,,,,,,,,,,,,,,,,,,,,,,,,,,,,,,,,,,,,,,,,,,,,,,,,,
,,LOTS,2.11596,1,,,,,,stimuli/images/PICTURE_208.png,LOTS,5eb30ae3d8bf950ee04fe701,06/04/1988,2020-07-08_16h34.25.125,proactive,2020.1.2,Win32,60,5f035e5afe130c270d6ae6dd,5f05e30f2bb2ef0ae6e2e3d6,2,,,,,,microphone,,,,,,,,,,,2,0,0,45,45,10,1,,,,,,,,,,,,,,,,,,,,,,,,,,,,,,,,,,,,,,,,,,,,,,,,,,,,,,,,,,,,,,,,,,,,,,
,,?,0.003,0,,,,,,stimuli/images/PICTURE_469.png,ARTIST,5eb30ae3d8bf950ee04fe701,06/04/1988,2020-07-08_16h34.25.125,proactive,2020.1.2,Win32,60,5f035e5afe130c270d6ae6dd,5f05e30f2bb2ef0ae6e2e3d6,2,,,,,,stool,,,,,,,,,,,1,0,0,46,46,6,1,,,,,,,,,,,,,,,,,,,,,,,,,,,,,,,,,,,,,,,,,,,,,,,,,,,,,,,,,,,,,,,,,,,,,,
,,THING,2.08706,1,,,,,,stimuli/images/PICTURE_85.png,THING,5eb30ae3d8bf950ee04fe701,06/04/1988,2020-07-08_16h34.25.125,proactive,2020.1.2,Win32,60,5f035e5afe130c270d6ae6dd,5f05e30f2bb2ef0ae6e2e3d6,2,,,,,,diamond,,,,,,,,,,,2,0,0,47,47,15,1,,,,,,,,,,,,,,,,,,,,,,,,,,,,,,,,,,,,,,,,,,,,,,,,,,,,,,,,,,,,,,,,,,,,,,
,,?,0.002295,0,,,,,,stimuli/images/PICTURE_488.png,STYLE,5eb30ae3d8bf950ee04fe701,06/04/1988,2020-07-08_16h34.25.125,proactive,2020.1.2,Win32,60,5f035e5afe130c270d6ae6dd,5f05e30f2bb2ef0ae6e2e3d6,2,,,,,,sun,,,,,,,,,,,4,0,0,48,48,33,1,,,,,,,,,,,,,,,,,,,,,,,,,,,,,,,,,,,,,,,,,,,,,,,,,,,,,,,,,,,,,,,,,,,,,,
,,?,0.00195,0,,,,,,stimuli/images/PICTURE_667.png,BATH,5eb30ae3d8bf950ee04fe701,06/04/1988,2020-07-08_16h34.25.125,proactive,2020.1.2,Win32,60,5f035e5afe130c270d6ae6dd,5f05e30f2bb2ef0ae6e2e3d6,2,,,,,,daisy,,,,,,,,,,,1,0,0,49,49,4,1,,,,,,,,,,,,,,,,,,,,,,,,,,,,,,,,,,,,,,,,,,,,,,,,,,,,,,,,,,,,,,,,,,,,,,
,,?,0.001875,0,,,,,,stimuli/images/PICTURE_160.png,FEET,5eb30ae3d8bf950ee04fe701,06/04/1988,2020-07-08_16h34.25.125,proactive,2020.1.2,Win32,60,5f035e5afe130c270d6ae6dd,5f05e30f2bb2ef0ae6e2e3d6,2,,,,,,wheelbarrow,,,,,,,,,,,6,0,0,50,50,58,1,,,,,,,,,,,,,,,,,,,,,,,,,,,,,,,,,,,,,,,,,,,,,,,,,,,,,,,,,,,,,,,,,,,,,,
,,?,0.004485,0,,,,,,stimuli/images/PICTURE_68.png,MILE,5eb30ae3d8bf950ee04fe701,06/04/1988,2020-07-08_16h34.25.125,proactive,2020.1.2,Win32,60,5f035e5afe130c270d6ae6dd,5f05e30f2bb2ef0ae6e2e3d6,2,,,,,,candle,,,,,,,,,,,5,0,0,51,51,44,1,,,,,,,,,,,,,,,,,,,,,,,,,,,,,,,,,,,,,,,,,,,,,,,,,,,,,,,,,,,,,,,,,,,,,,
,,?,0.00178,0,,,,,,stimuli/images/PICTURE_470.png,CASINO,5eb30ae3d8bf950ee04fe701,06/04/1988,2020-07-08_16h34.25.125,proactive,2020.1.2,Win32,60,5f035e5afe130c270d6ae6dd,5f05e30f2bb2ef0ae6e2e3d6,2,,,,,,motorbike,,,,,,,,,,,4,0,0,52,52,36,1,,,,,,,,,,,,,,,,,,,,,,,,,,,,,,,,,,,,,,,,,,,,,,,,,,,,,,,,,,,,,,,,,,,,,,
,,BEAUTY,3.169665,1,,,,,,stimuli/images/PICTURE_311.png,BEAUTY,5eb30ae3d8bf950ee04fe701,06/04/1988,2020-07-08_16h34.25.125,proactive,2020.1.2,Win32,60,5f035e5afe130c270d6ae6dd,5f05e30f2bb2ef0ae6e2e3d6,2,,,,,,razor,,,,,,,,,,,2,0,0,53,53,13,1,,,,,,,,,,,,,,,,,,,,,,,,,,,,,,,,,,,,,,,,,,,,,,,,,,,,,,,,,,,,,,,,,,,,,,
,,FAMILY,3.28189,1,,,,,,stimuli/images/PICTURE_302.png,FAMILY,5eb30ae3d8bf950ee04fe701,06/04/1988,2020-07-08_16h34.25.125,proactive,2020.1.2,Win32,60,5f035e5afe130c270d6ae6dd,5f05e30f2bb2ef0ae6e2e3d6,2,,,,,,taxi,,,,,,,,,,,2,0,0,54,54,18,1,,,,,,,,,,,,,,,,,,,,,,,,,,,,,,,,,,,,,,,,,,,,,,,,,,,,,,,,,,,,,,,,,,,,,,
,,?,0.00214,0,,,,,,stimuli/images/PICTURE_708.png,PENNY,5eb30ae3d8bf950ee04fe701,06/04/1988,2020-07-08_16h34.25.125,proactive,2020.1.2,Win32,60,5f035e5afe130c270d6ae6dd,5f05e30f2bb2ef0ae6e2e3d6,2,,,,,,monkey,,,,,,,,,,,4,0,0,55,55,31,1,,,,,,,,,,,,,,,,,,,,,,,,,,,,,,,,,,,,,,,,,,,,,,,,,,,,,,,,,,,,,,,,,,,,,,
,,?,0.00194,0,,,,,,stimuli/images/PICTURE_467.png,DEMON,5eb30ae3d8bf950ee04fe701,06/04/1988,2020-07-08_16h34.25.125,proactive,2020.1.2,Win32,60,5f035e5afe130c270d6ae6dd,5f05e30f2bb2ef0ae6e2e3d6,2,,,,,,peg,,,,,,,,,,,3,0,0,56,56,23,1,,,,,,,,,,,,,,,,,,,,,,,,,,,,,,,,,,,,,,,,,,,,,,,,,,,,,,,,,,,,,,,,,,,,,,
,,?,0.001965,0,,,,,,stimuli/images/PICTURE_255.png,AREA,5eb30ae3d8bf950ee04fe701,06/04/1988,2020-07-08_16h34.25.125,proactive,2020.1.2,Win32,60,5f035e5afe130c270d6ae6dd,5f05e30f2bb2ef0ae6e2e3d6,2,,,,,,shovel,,,,,,,,,,,3,0,0,57,57,22,1,,,,,,,,,,,,,,,,,,,,,,,,,,,,,,,,,,,,,,,,,,,,,,,,,,,,,,,,,,,,,,,,,,,,,,
,,?,0.00211,0,,,,,,stimuli/images/PICTURE_327.png,BEAUTY,5eb30ae3d8bf950ee04fe701,06/04/1988,2020-07-08_16h34.25.125,proactive,2020.1.2,Win32,60,5f035e5afe130c270d6ae6dd,5f05e30f2bb2ef0ae6e2e3d6,2,,,,,,helmet,,,,,,,,,,,5,0,0,58,58,48,1,,,,,,,,,,,,,,,,,,,,,,,,,,,,,,,,,,,,,,,,,,,,,,,,,,,,,,,,,,,,,,,,,,,,,,
,,?,10.01098,0,,,,,,stimuli/images/PICTURE_692.png,MONTH,5eb30ae3d8bf950ee04fe701,06/04/1988,2020-07-08_16h34.25.125,proactive,2020.1.2,Win32,60,5f035e5afe130c270d6ae6dd,5f05e30f2bb2ef0ae6e2e3d6,2,,,,,,cherry,,,,,,,,,,,2,0,0,59,59,16,1,,,,,,,,,,,,,,,,,,,,,,,,,,,,,,,,,,,,,,,,,,,,,,,,,,,,,,,,,,,,,,,,,,,,,,
,,,,,,,,,,,,5eb30ae3d8bf950ee04fe701,06/04/1988,2020-07-08_16h34.25.125,proactive,2020.1.2,Win32,60,5f035e5afe130c270d6ae6dd,5f05e30f2bb2ef0ae6e2e3d6,2,,,,,,,,,,,,,,,,,,,,,,,,0,1,1,0,1,stimuli/learn-block1.csv,,,,,,,,,,,,,,,,,,,,,,,,,,,,,,,,,,,,,,,,,,,,,,,,,,,,,,,,,,,,,,,,
,,,,,,,,,,stimuli/images/PICTURE_405.png,JUNGLE,5eb30ae3d8bf950ee04fe701,06/04/1988,2020-07-08_16h34.25.125,proactive,2020.1.2,Win32,60,5f035e5afe130c270d6ae6dd,5f05e30f2bb2ef0ae6e2e3d6,2,,,,,,anchor,,,,,,0,0,0,13,1,2,2,,,,,,,,,,,,,,,,,,,,,,,,,,,,,,,,,,,,,,,,,,,,,,,,,,,,,,,,,,,,,,,,,,,,,,,,,,,
,,,,,,,,,,stimuli/images/PICTURE_470.png,MOMENT,5eb30ae3d8bf950ee04fe701,06/04/1988,2020-07-08_16h34.25.125,proactive,2020.1.2,Win32,60,5f035e5afe130c270d6ae6dd,5f05e30f2bb2ef0ae6e2e3d6,2,,,,,,motorbike,,,,,,0,1,1,40,1,5,2,,,,,,,,,,,,,,,,,,,,,,,,,,,,,,,,,,,,,,,,,,,,,,,,,,,,,,,,,,,,,,,,,,,,,,,,,,,
,,,,,,,,,,stimuli/images/PICTURE_654.png,YEAR,5eb30ae3d8bf950ee04fe701,06/04/1988,2020-07-08_16h34.25.125,proactive,2020.1.2,Win32,60,5f035e5afe130c270d6ae6dd,5f05e30f2bb2ef0ae6e2e3d6,2,,,,,,pencil,,,,,,0,2,2,41,1,5,2,,,,,,,,,,,,,,,,,,,,,,,,,,,,,,,,,,,,,,,,,,,,,,,,,,,,,,,,,,,,,,,,,,,,,,,,,,,
,,,,,,,,,,stimuli/images/PICTURE_285.png,WRITER,5eb30ae3d8bf950ee04fe701,06/04/1988,2020-07-08_16h34.25.125,proactive,2020.1.2,Win32,60,5f035e5afe130c270d6ae6dd,5f05e30f2bb2ef0ae6e2e3d6,2,,,,,,carrot,,,,,,0,3,3,6,1,1,2,,,,,,,,,,,,,,,,,,,,,,,,,,,,,,,,,,,,,,,,,,,,,,,,,,,,,,,,,,,,,,,,,,,,,,,,,,,
,,,,,,,,,,stimuli/images/PICTURE_123.png,SALE,5eb30ae3d8bf950ee04fe701,06/04/1988,2020-07-08_16h34.25.125,proactive,2020.1.2,Win32,60,5f035e5afe130c270d6ae6dd,5f05e30f2bb2ef0ae6e2e3d6,2,,,,,,dart,,,,,,0,4,4,8,1,1,2,,,,,,,,,,,,,,,,,,,,,,,,,,,,,,,,,,,,,,,,,,,,,,,,,,,,,,,,,,,,,,,,,,,,,,,,,,,
,,,,,,,,,,stimuli/images/PICTURE_504.png,HOUSE,5eb30ae3d8bf950ee04fe701,06/04/1988,2020-07-08_16h34.25.125,proactive,2020.1.2,Win32,60,5f035e5afe130c270d6ae6dd,5f05e30f2bb2ef0ae6e2e3d6,2,,,,,,wheel,,,,,,0,5,5,36,1,4,2,,,,,,,,,,,,,,,,,,,,,,,,,,,,,,,,,,,,,,,,,,,,,,,,,,,,,,,,,,,,,,,,,,,,,,,,,,,
,,,,,,,,,,stimuli/images/PICTURE_452.png,COPS,5eb30ae3d8bf950ee04fe701,06/04/1988,2020-07-08_16h34.25.125,proactive,2020.1.2,Win32,60,5f035e5afe130c270d6ae6dd,5f05e30f2bb2ef0ae6e2e3d6,2,,,,,,watch,,,,,,0,6,6,0,1,1,2,,,,,,,,,,,,,,,,,,,,,,,,,,,,,,,,,,,,,,,,,,,,,,,,,,,,,,,,,,,,,,,,,,,,,,,,,,,
,,,,,,,,,,stimuli/images/PICTURE_57.png,NATION,5eb30ae3d8bf950ee04fe701,06/04/1988,2020-07-08_16h34.25.125,proactive,2020.1.2,Win32,60,5f035e5afe130c270d6ae6dd,5f05e30f2bb2ef0ae6e2e3d6,2,,,,,,stamp,,,,,,0,7,7,21,1,3,2,,,,,,,,,,,,,,,,,,,,,,,,,,,,,,,,,,,,,,,,,,,,,,,,,,,,,,,,,,,,,,,,,,,,,,,,,,,
,,,,,,,,,,stimuli/images/PICTURE_356.png,CANDY,5eb30ae3d8bf950ee04fe701,06/04/1988,2020-07-08_16h34.25.125,proactive,2020.1.2,Win32,60,5f035e5afe130c270d6ae6dd,5f05e30f2bb2ef0ae6e2e3d6,2,,,,,,pawn,,,,,,0,8,8,46,1,5,2,,,,,,,,,,,,,,,,,,,,,,,,,,,,,,,,,,,,,,,,,,,,,,,,,,,,,,,,,,,,,,,,,,,,,,,,,,,
,,,,,,,,,,stimuli/images/PICTURE_509.png,SHOTS,5eb30ae3d8bf950ee04fe701,06/04/1988,2020-07-08_16h34.25.125,proactive,2020.1.2,Win32,60,5f035e5afe130c270d6ae6dd,5f05e30f2bb2ef0ae6e2e3d6,2,,,,,,telephone,,,,,,0,9,9,7,1,1,2,,,,,,,,,,,,,,,,,,,,,,,,,,,,,,,,,,,,,,,,,,,,,,,,,,,,,,,,,,,,,,,,,,,,,,,,,,,
,,,,,,,,,,stimuli/images/PICTURE_487.png,ROOF,5eb30ae3d8bf950ee04fe701,06/04/1988,2020-07-08_16h34.25.125,proactive,2020.1.2,Win32,60,5f035e5afe130c270d6ae6dd,5f05e30f2bb2ef0ae6e2e3d6,2,,,,,,basket,,,,,,0,10,10,50,1,6,2,,,,,,,,,,,,,,,,,,,,,,,,,,,,,,,,,,,,,,,,,,,,,,,,,,,,,,,,,,,,,,,,,,,,,,,,,,,
,,,,,,,,,,stimuli/images/PICTURE_33.png,COPS,5eb30ae3d8bf950ee04fe701,06/04/1988,2020-07-08_16h34.25.125,proactive,2020.1.2,Win32,60,5f035e5afe130c270d6ae6dd,5f05e30f2bb2ef0ae6e2e3d6,2,,,,,,frame,,,,,,0,11,11,29,1,3,2,,,,,,,,,,,,,,,,,,,,,,,,,,,,,,,,,,,,,,,,,,,,,,,,,,,,,,,,,,,,,,,,,,,,,,,,,,,
,,,,,,,,,,stimuli/images/PICTURE_708.png,VALLEY,5eb30ae3d8bf950ee04fe701,06/04/1988,2020-07-08_16h34.25.125,proactive,2020.1.2,Win32,60,5f035e5afe130c270d6ae6dd,5f05e30f2bb2ef0ae6e2e3d6,2,,,,,,monkey,,,,,,0,12,12,45,1,5,2,,,,,,,,,,,,,,,,,,,,,,,,,,,,,,,,,,,,,,,,,,,,,,,,,,,,,,,,,,,,,,,,,,,,,,,,,,,
,,,,,,,,,,stimuli/images/PICTURE_470.png,BEAUTY,5eb30ae3d8bf950ee04fe701,06/04/1988,2020-07-08_16h34.25.125,proactive,2020.1.2,Win32,60,5f035e5afe130c270d6ae6dd,5f05e30f2bb2ef0ae6e2e3d6,2,,,,,,motorbike,,,,,,0,13,13,26,1,3,2,,,,,,,,,,,,,,,,,,,,,,,,,,,,,,,,,,,,,,,,,,,,,,,,,,,,,,,,,,,,,,,,,,,,,,,,,,,
,,,,,,,,,,stimuli/images/PICTURE_677.png,PHOTO,5eb30ae3d8bf950ee04fe701,06/04/1988,2020-07-08_16h34.25.125,proactive,2020.1.2,Win32,60,5f035e5afe130c270d6ae6dd,5f05e30f2bb2ef0ae6e2e3d6,2,,,,,,map,,,,,,0,14,14,14,1,2,2,,,,,,,,,,,,,,,,,,,,,,,,,,,,,,,,,,,,,,,,,,,,,,,,,,,,,,,,,,,,,,,,,,,,,,,,,,,
,,,,,,,,,,stimuli/images/PICTURE_296.png,CLOCK,5eb30ae3d8bf950ee04fe701,06/04/1988,2020-07-08_16h34.25.125,proactive,2020.1.2,Win32,60,5f035e5afe130c270d6ae6dd,5f05e30f2bb2ef0ae6e2e3d6,2,,,,,,bolt,,,,,,0,15,15,18,1,2,2,,,,,,,,,,,,,,,,,,,,,,,,,,,,,,,,,,,,,,,,,,,,,,,,,,,,,,,,,,,,,,,,,,,,,,,,,,,
,,,,,,,,,,stimuli/images/PICTURE_311.png,TOILET,5eb30ae3d8bf950ee04fe701,06/04/1988,2020-07-08_16h34.25.125,proactive,2020.1.2,Win32,60,5f035e5afe130c270d6ae6dd,5f05e30f2bb2ef0ae6e2e3d6,2,,,,,,razor,,,,,,0,16,16,54,1,6,2,,,,,,,,,,,,,,,,,,,,,,,,,,,,,,,,,,,,,,,,,,,,,,,,,,,,,,,,,,,,,,,,,,,,,,,,,,,
,,,,,,,,,,stimuli/images/PICTURE_667.png,GLASS,5eb30ae3d8bf950ee04fe701,06/04/1988,2020-07-08_16h34.25.125,proactive,2020.1.2,Win32,60,5f035e5afe130c270d6ae6dd,5f05e30f2bb2ef0ae6e2e3d6,2,,,,,,daisy,,,,,,0,17,17,27,1,3,2,,,,,,,,,,,,,,,,,,,,,,,,,,,,,,,,,,,,,,,,,,,,,,,,,,,,,,,,,,,,,,,,,,,,,,,,,,,
,,,,,,,,,,stimuli/images/PICTURE_215.png,LEADER,5eb30ae3d8bf950ee04fe701,06/04/1988,2020-07-08_16h34.25.125,proactive,2020.1.2,Win32,60,5f035e5afe130c270d6ae6dd,5f05e30f2bb2ef0ae6e2e3d6,2,,,,,,boot,,,,,,0,18,18,43,1,5,2,,,,,,,,,,,,,,,,,,,,,,,,,,,,,,,,,,,,,,,,,,,,,,,,,,,,,,,,,,,,,,,,,,,,,,,,,,,
,,,,,,,,,,stimuli/images/PICTURE_688.png,CLOCK,5eb30ae3d8bf950ee04fe701,06/04/1988,2020-07-08_16h34.25.125,proactive,2020.1.2,Win32,60,5f035e5afe130c270d6ae6dd,5f05e30f2bb2ef0ae6e2e3d6,2,,,,,,runner,,,,,,0,19,19,42,1,5,2,,,,,,,,,,,,,,,,,,,,,,,,,,,,,,,,,,,,,,,,,,,,,,,,,,,,,,,,,,,,,,,,,,,,,,,,,,,
,,,,,,,,,,stimuli/images/PICTURE_215.png,FOOD,5eb30ae3d8bf950ee04fe701,06/04/1988,2020-07-08_16h34.25.125,proactive,2020.1.2,Win32,60,5f035e5afe130c270d6ae6dd,5f05e30f2bb2ef0ae6e2e3d6,2,,,,,,boot,,,,,,0,20,20,5,1,1,2,,,,,,,,,,,,,,,,,,,,,,,,,,,,,,,,,,,,,,,,,,,,,,,,,,,,,,,,,,,,,,,,,,,,,,,,,,,
,,,,,,,,,,stimuli/images/PICTURE_750.png,POLICY,5eb30ae3d8bf950ee04fe701,06/04/1988,2020-07-08_16h34.25.125,proactive,2020.1.2,Win32,60,5f035e5afe130c270d6ae6dd,5f05e30f2bb2ef0ae6e2e3d6,2,,,,,,kettle,,,,,,0,21,21,44,1,5,2,,,,,,,,,,,,,,,,,,,,,,,,,,,,,,,,,,,,,,,,,,,,,,,,,,,,,,,,,,,,,,,,,,,,,,,,,,,
,,,,,,,,,,stimuli/images/PICTURE_32.png,LETTER,5eb30ae3d8bf950ee04fe701,06/04/1988,2020-07-08_16h34.25.125,proactive,2020.1.2,Win32,60,5f035e5afe130c270d6ae6dd,5f05e30f2bb2ef0ae6e2e3d6,2,,,,,,crown,,,,,,0,22,22,56,1,6,2,,,,,,,,,,,,,,,,,,,,,,,,,,,,,,,,,,,,,,,,,,,,,,,,,,,,,,,,,,,,,,,,,,,,,,,,,,,
,,,,,,,,,,stimuli/images/PICTURE_311.png,FLESH,5eb30ae3d8bf950ee04fe701,06/04/1988,2020-07-08_16h34.25.125,proactive,2020.1.2,Win32,60,5f035e5afe130c270d6ae6dd,5f05e30f2bb2ef0ae6e2e3d6,2,,,,,,razor,,,,,,0,23,23,3,1,1,2,,,,,,,,,,,,,,,,,,,,,,,,,,,,,,,,,,,,,,,,,,,,,,,,,,,,,,,,,,,,,,,,,,,,,,,,,,,
,,,,,,,,,,stimuli/images/PICTURE_405.png,HOUSE,5eb30ae3d8bf950ee04fe701,06/04/1988,2020-07-08_16h34.25.125,proactive,2020.1.2,Win32,60,5f035e5afe130c270d6ae6dd,5f05e30f2bb2ef0ae6e2e3d6,2,,,,,,anchor,,,,,,0,24,24,2,1,1,2,,,,,,,,,,,,,,,,,,,,,,,,,,,,,,,,,,,,,,,,,,,,,,,,,,,,,,,,,,,,,,,,,,,,,,,,,,,
,,,,,,,,,,stimuli/images/PICTURE_285.png,PRINCE,5eb30ae3d8bf950ee04fe701,06/04/1988,2020-07-08_16h34.25.125,proactive,2020.1.2,Win32,60,5f035e5afe130c270d6ae6dd,5f05e30f2bb2ef0ae6e2e3d6,2,,,,,,carrot,,,,,,0,25,25,20,1,3,2,,,,,,,,,,,,,,,,,,,,,,,,,,,,,,,,,,,,,,,,,,,,,,,,,,,,,,,,,,,,,,,,,,,,,,,,,,,
,,,,,,,,,,stimuli/images/PICTURE_147.png,LEADER,5eb30ae3d8bf950ee04fe701,06/04/1988,2020-07-08_16h34.25.125,proactive,2020.1.2,Win32,60,5f035e5afe130c270d6ae6dd,5f05e30f2bb2ef0ae6e2e3d6,2,,,,,,hanger,,,,,,0,26,26,33,1,4,2,,,,,,,,,,,,,,,,,,,,,,,,,,,,,,,,,,,,,,,,,,,,,,,,,,,,,,,,,,,,,,,,,,,,,,,,,,,
,,,,,,,,,,stimuli/images/PICTURE_2.png,AREA,5eb30ae3d8bf950ee04fe701,06/04/1988,2020-07-08_16h34.25.125,proactive,2020.1.2,Win32,60,5f035e5afe130c270d6ae6dd,5f05e30f2bb2ef0ae6e2e3d6,2,,,,,,tyre,,,,,,0,27,27,32,1,4,2,,,,,,,,,,,,,,,,,,,,,,,,,,,,,,,,,,,,,,,,,,,,,,,,,,,,,,,,,,,,,,,,,,,,,,,,,,,
,,,,,,,,,,stimuli/images/PICTURE_509.png,MILLER,5eb30ae3d8bf950ee04fe701,06/04/1988,2020-07-08_16h34.25.125,proactive,2020.1.2,Win32,60,5f035e5afe130c270d6ae6dd,5f05e30f2bb2ef0ae6e2e3d6,2,,,,,,telephone,,,,,,0,28,28,49,1,5,2,,,,,,,,,,,,,,,,,,,,,,,,,,,,,,,,,,,,,,,,,,,,,,,,,,,,,,,,,,,,,,,,,,,,,,,,,,,
,,,,,,,,,,stimuli/images/PICTURE_18.png,RIVER,5eb30ae3d8bf950ee04fe701,06/04/1988,2020-07-08_16h34.25.125,proactive,2020.1.2,Win32,60,5f035e5afe130c270d6ae6dd,5f05e30f2bb2ef0ae6e2e3d6,2,,,,,,planet,,,,,,0,29,29,22,1,3,2,,,,,,,,,,,,,,,,,,,,,,,,,,,,,,,,,,,,,,,,,,,,,,,,,,,,,,,,,,,,,,,,,,,,,,,,,,,
,,,,,,,,,,stimuli/images/PICTURE_487.png,POLICY,5eb30ae3d8bf950ee04fe701,06/04/1988,2020-07-08_16h34.25.125,proactive,2020.1.2,Win32,60,5f035e5afe130c270d6ae6dd,5f05e30f2bb2ef0ae6e2e3d6,2,,,,,,basket,,,,,,0,30,30,34,1,4,2,,,,,,,,,,,,,,,,,,,,,,,,,,,,,,,,,,,,,,,,,,,,,,,,,,,,,,,,,,,,,,,,,,,,,,,,,,,
,,,,,,,,,,stimuli/images/PICTURE_177.png,HOUSE,5eb30ae3d8bf950ee04fe701,06/04/1988,2020-07-08_16h34.25.125,proactive,2020.1.2,Win32,60,5f035e5afe130c270d6ae6dd,5f05e30f2bb2ef0ae6e2e3d6,2,,,,,,mushroom,,,,,,0,31,31,25,1,3,2,,,,,,,,,,,,,,,,,,,,,,,,,,,,,,,,,,,,,,,,,,,,,,,,,,,,,,,,,,,,,,,,,,,,,,,,,,,
,,,,,,,,,,stimuli/images/PICTURE_141.png,CLIENT,5eb30ae3d8bf950ee04fe701,06/04/1988,2020-07-08_16h34.25.125,proactive,2020.1.2,Win32,60,5f035e5afe130c270d6ae6dd,5f05e30f2bb2ef0ae6e2e3d6,2,,,,,,sunflower,,,,,,0,32,32,30,1,4,2,,,,,,,,,,,,,,,,,,,,,,,,,,,,,,,,,,,,,,,,,,,,,,,,,,,,,,,,,,,,,,,,,,,,,,,,,,,
,,,,,,,,,,stimuli/images/PICTURE_2.png,YARD,5eb30ae3d8bf950ee04fe701,06/04/1988,2020-07-08_16h34.25.125,proactive,2020.1.2,Win32,60,5f035e5afe130c270d6ae6dd,5f05e30f2bb2ef0ae6e2e3d6,2,,,,,,tyre,,,,,,0,33,33,55,1,6,2,,,,,,,,,,,,,,,,,,,,,,,,,,,,,,,,,,,,,,,,,,,,,,,,,,,,,,,,,,,,,,,,,,,,,,,,,,,
,,,,,,,,,,stimuli/images/PICTURE_327.png,LEADER,5eb30ae3d8bf950ee04fe701,06/04/1988,2020-07-08_16h34.25.125,proactive,2020.1.2,Win32,60,5f035e5afe130c270d6ae6dd,5f05e30f2bb2ef0ae6e2e3d6,2,,,,,,helmet,,,,,,0,34,34,17,1,2,2,,,,,,,,,,,,,,,,,,,,,,,,,,,,,,,,,,,,,,,,,,,,,,,,,,,,,,,,,,,,,,,,,,,,,,,,,,,
,,,,,,,,,,stimuli/images/PICTURE_453.png,FAMILY,5eb30ae3d8bf950ee04fe701,06/04/1988,2020-07-08_16h34.25.125,proactive,2020.1.2,Win32,60,5f035e5afe130c270d6ae6dd,5f05e30f2bb2ef0ae6e2e3d6,2,,,,,,scissors,,,,,,0,35,35,48,1,5,2,,,,,,,,,,,,,,,,,,,,,,,,,,,,,,,,,,,,,,,,,,,,,,,,,,,,,,,,,,,,,,,,,,,,,,,,,,,
,,,,,,,,,,stimuli/images/PICTURE_215.png,BOYS,5eb30ae3d8bf950ee04fe701,06/04/1988,2020-07-08_16h34.25.125,proactive,2020.1.2,Win32,60,5f035e5afe130c270d6ae6dd,5f05e30f2bb2ef0ae6e2e3d6,2,,,,,,boot,,,,,,0,36,36,24,1,3,2,,,,,,,,,,,,,,,,,,,,,,,,,,,,,,,,,,,,,,,,,,,,,,,,,,,,,,,,,,,,,,,,,,,,,,,,,,,
,,,,,,,,,,stimuli/images/PICTURE_57.png,CASINO,5eb30ae3d8bf950ee04fe701,06/04/1988,2020-07-08_16h34.25.125,proactive,2020.1.2,Win32,60,5f035e5afe130c270d6ae6dd,5f05e30f2bb2ef0ae6e2e3d6,2,,,,,,stamp,,,,,,0,37,37,12,1,2,2,,,,,,,,,,,,,,,,,,,,,,,,,,,,,,,,,,,,,,,,,,,,,,,,,,,,,,,,,,,,,,,,,,,,,,,,,,,
,,,,,,,,,,stimuli/images/PICTURE_297.png,BODY,5eb30ae3d8bf950ee04fe701,06/04/1988,2020-07-08_16h34.25.125,proactive,2020.1.2,Win32,60,5f035e5afe130c270d6ae6dd,5f05e30f2bb2ef0ae6e2e3d6,2,,,,,,aeroplane,,,,,,0,38,38,51,1,6,2,,,,,,,,,,,,,,,,,,,,,,,,,,,,,,,,,,,,,,,,,,,,,,,,,,,,,,,,,,,,,,,,,,,,,,,,,,,
,,,,,,,,,,stimuli/images/PICTURE_348.png,DUDE,5eb30ae3d8bf950ee04fe701,06/04/1988,2020-07-08_16h34.25.125,proactive,2020.1.2,Win32,60,5f035e5afe130c270d6ae6dd,5f05e30f2bb2ef0ae6e2e3d6,2,,,,,,pepper,,,,,,0,39,39,59,1,6,2,,,,,,,,,,,,,,,,,,,,,,,,,,,,,,,,,,,,,,,,,,,,,,,,,,,,,,,,,,,,,,,,,,,,,,,,,,,
,,,,,,,,,,stimuli/images/PICTURE_2.png,JUNGLE,5eb30ae3d8bf950ee04fe701,06/04/1988,2020-07-08_16h34.25.125,proactive,2020.1.2,Win32,60,5f035e5afe130c270d6ae6dd,5f05e30f2bb2ef0ae6e2e3d6,2,,,,,,tyre,,,,,,0,40,40,1,1,1,2,,,,,,,,,,,,,,,,,,,,,,,,,,,,,,,,,,,,,,,,,,,,,,,,,,,,,,,,,,,,,,,,,,,,,,,,,,,
,,,,,,,,,,stimuli/images/PICTURE_68.png,KIND,5eb30ae3d8bf950ee04fe701,06/04/1988,2020-07-08_16h34.25.125,proactive,2020.1.2,Win32,60,5f035e5afe130c270d6ae6dd,5f05e30f2bb2ef0ae6e2e3d6,2,,,,,,candle,,,,,,0,41,41,23,1,3,2,,,,,,,,,,,,,,,,,,,,,,,,,,,,,,,,,,,,,,,,,,,,,,,,,,,,,,,,,,,,,,,,,,,,,,,,,,,
,,,,,,,,,,stimuli/images/PICTURE_491.png,SERIES,5eb30ae3d8bf950ee04fe701,06/04/1988,2020-07-08_16h34.25.125,proactive,2020.1.2,Win32,60,5f035e5afe130c270d6ae6dd,5f05e30f2bb2ef0ae6e2e3d6,2,,,,,,rug,,,,,,0,42,42,39,1,4,2,,,,,,,,,,,,,,,,,,,,,,,,,,,,,,,,,,,,,,,,,,,,,,,,,,,,,,,,,,,,,,,,,,,,,,,,,,,
,,,,,,,,,,stimuli/images/PICTURE_95.png,NIGHT,5eb30ae3d8bf950ee04fe701,06/04/1988,2020-07-08_16h34.25.125,proactive,2020.1.2,Win32,60,5f035e5afe130c270d6ae6dd,5f05e30f2bb2ef0ae6e2e3d6,2,,,,,,suitcase,,,,,,0,43,43,37,1,4,2,,,,,,,,,,,,,,,,,,,,,,,,,,,,,,,,,,,,,,,,,,,,,,,,,,,,,,,,,,,,,,,,,,,,,,,,,,,
,,,,,,,,,,stimuli/images/PICTURE_509.png,APPLE,5eb30ae3d8bf950ee04fe701,06/04/1988,2020-07-08_16h34.25.125,proactive,2020.1.2,Win32,60,5f035e5afe130c270d6ae6dd,5f05e30f2bb2ef0ae6e2e3d6,2,,,,,,telephone,,,,,,0,44,44,38,1,4,2,,,,,,,,,,,,,,,,,,,,,,,,,,,,,,,,,,,,,,,,,,,,,,,,,,,,,,,,,,,,,,,,,,,,,,,,,,,
,,,,,,,,,,stimuli/images/PICTURE_677.png,FAMILY,5eb30ae3d8bf950ee04fe701,06/04/1988,2020-07-08_16h34.25.125,proactive,2020.1.2,Win32,60,5f035e5afe130c270d6ae6dd,5f05e30f2bb2ef0ae6e2e3d6,2,,,,,,map,,,,,,0,45,45,53,1,6,2,,,,,,,,,,,,,,,,,,,,,,,,,,,,,,,,,,,,,,,,,,,,,,,,,,,,,,,,,,,,,,,,,,,,,,,,,,,
,,,,,,,,,,stimuli/images/PICTURE_692.png,DUDE,5eb30ae3d8bf950ee04fe701,06/04/1988,2020-07-08_16h34.25.125,proactive,2020.1.2,Win32,60,5f035e5afe130c270d6ae6dd,5f05e30f2bb2ef0ae6e2e3d6,2,,,,,,cherry,,,,,,0,46,46,47,1,5,2,,,,,,,,,,,,,,,,,,,,,,,,,,,,,,,,,,,,,,,,,,,,,,,,,,,,,,,,,,,,,,,,,,,,,,,,,,,
,,,,,,,,,,stimuli/images/PICTURE_405.png,JUNGLE,5eb30ae3d8bf950ee04fe701,06/04/1988,2020-07-08_16h34.25.125,proactive,2020.1.2,Win32,60,5f035e5afe130c270d6ae6dd,5f05e30f2bb2ef0ae6e2e3d6,2,,,,,,anchor,,,,,,0,47,47,58,1,6,2,,,,,,,,,,,,,,,,,,,,,,,,,,,,,,,,,,,,,,,,,,,,,,,,,,,,,,,,,,,,,,,,,,,,,,,,,,,
,,,,,,,,,,stimuli/images/PICTURE_160.png,HOTEL,5eb30ae3d8bf950ee04fe701,06/04/1988,2020-07-08_16h34.25.125,proactive,2020.1.2,Win32,60,5f035e5afe130c270d6ae6dd,5f05e30f2bb2ef0ae6e2e3d6,2,,,,,,wheelbarrow,,,,,,0,48,48,16,1,2,2,,,,,,,,,,,,,,,,,,,,,,,,,,,,,,,,,,,,,,,,,,,,,,,,,,,,,,,,,,,,,,,,,,,,,,,,,,,
,,,,,,,,,,stimuli/images/PICTURE_93.png,GIRL,5eb30ae3d8bf950ee04fe701,06/04/1988,2020-07-08_16h34.25.125,proactive,2020.1.2,Win32,60,5f035e5afe130c270d6ae6dd,5f05e30f2bb2ef0ae6e2e3d6,2,,,,,,skateboard,,,,,,0,49,49,31,1,4,2,,,,,,,,,,,,,,,,,,,,,,,,,,,,,,,,,,,,,,,,,,,,,,,,,,,,,,,,,,,,,,,,,,,,,,,,,,,
,,,,,,,,,,stimuli/images/PICTURE_564.png,PLENTY,5eb30ae3d8bf950ee04fe701,06/04/1988,2020-07-08_16h34.25.125,proactive,2020.1.2,Win32,60,5f035e5afe130c270d6ae6dd,5f05e30f2bb2ef0ae6e2e3d6,2,,,,,,spoon,,,,,,0,50,50,11,1,2,2,,,,,,,,,,,,,,,,,,,,,,,,,,,,,,,,,,,,,,,,,,,,,,,,,,,,,,,,,,,,,,,,,,,,,,,,,,,
,,,,,,,,,,stimuli/images/PICTURE_654.png,COPS,5eb30ae3d8bf950ee04fe701,06/04/1988,2020-07-08_16h34.25.125,proactive,2020.1.2,Win32,60,5f035e5afe130c270d6ae6dd,5f05e30f2bb2ef0ae6e2e3d6,2,,,,,,pencil,,,,,,0,51,51,10,1,2,2,,,,,,,,,,,,,,,,,,,,,,,,,,,,,,,,,,,,,,,,,,,,,,,,,,,,,,,,,,,,,,,,,,,,,,,,,,,
,,,,,,,,,,stimuli/images/PICTURE_403.png,FAMILY,5eb30ae3d8bf950ee04fe701,06/04/1988,2020-07-08_16h34.25.125,proactive,2020.1.2,Win32,60,5f035e5afe130c270d6ae6dd,5f05e30f2bb2ef0ae6e2e3d6,2,,,,,,cathedral,,,,,,0,52,52,9,1,1,2,,,,,,,,,,,,,,,,,,,,,,,,,,,,,,,,,,,,,,,,,,,,,,,,,,,,,,,,,,,,,,,,,,,,,,,,,,,
,,,,,,,,,,stimuli/images/PICTURE_208.png,SPIRIT,5eb30ae3d8bf950ee04fe701,06/04/1988,2020-07-08_16h34.25.125,proactive,2020.1.2,Win32,60,5f035e5afe130c270d6ae6dd,5f05e30f2bb2ef0ae6e2e3d6,2,,,,,,microphone,,,,,,0,53,53,28,1,3,2,,,,,,,,,,,,,,,,,,,,,,,,,,,,,,,,,,,,,,,,,,,,,,,,,,,,,,,,,,,,,,,,,,,,,,,,,,,
,,,,,,,,,,stimuli/images/PICTURE_314.png,SPEECH,5eb30ae3d8bf950ee04fe701,06/04/1988,2020-07-08_16h34.25.125,proactive,2020.1.2,Win32,60,5f035e5afe130c270d6ae6dd,5f05e30f2bb2ef0ae6e2e3d6,2,,,,,,perfume,,,,,,0,54,54,35,1,4,2,,,,,,,,,,,,,,,,,,,,,,,,,,,,,,,,,,,,,,,,,,,,,,,,,,,,,,,,,,,,,,,,,,,,,,,,,,,
,,,,,,,,,,stimuli/images/PICTURE_655.png,SALE,5eb30ae3d8bf950ee04fe701,06/04/1988,2020-07-08_16h34.25.125,proactive,2020.1.2,Win32,60,5f035e5afe130c270d6ae6dd,5f05e30f2bb2ef0ae6e2e3d6,2,,,,,,megaphone,,,,,,0,55,55,57,1,6,2,,,,,,,,,,,,,,,,,,,,,,,,,,,,,,,,,,,,,,,,,,,,,,,,,,,,,,,,,,,,,,,,,,,,,,,,,,,
,,,,,,,,,,stimuli/images/PICTURE_348.png,TOILET,5eb30ae3d8bf950ee04fe701,06/04/1988,2020-07-08_16h34.25.125,proactive,2020.1.2,Win32,60,5f035e5afe130c270d6ae6dd,5f05e30f2bb2ef0ae6e2e3d6,2,,,,,,pepper,,,,,,0,56,56,4,1,1,2,,,,,,,,,,,,,,,,,,,,,,,,,,,,,,,,,,,,,,,,,,,,,,,,,,,,,,,,,,,,,,,,,,,,,,,,,,,
,,,,,,,,,,stimuli/images/PICTURE_255.png,PENNY,5eb30ae3d8bf950ee04fe701,06/04/1988,2020-07-08_16h34.25.125,proactive,2020.1.2,Win32,60,5f035e5afe130c270d6ae6dd,5f05e30f2bb2ef0ae6e2e3d6,2,,,,,,shovel,,,,,,0,57,57,19,1,2,2,,,,,,,,,,,,,,,,,,,,,,,,,,,,,,,,,,,,,,,,,,,,,,,,,,,,,,,,,,,,,,,,,,,,,,,,,,,
,,,,,,,,,,stimuli/images/PICTURE_57.png,CANDY,5eb30ae3d8bf950ee04fe701,06/04/1988,2020-07-08_16h34.25.125,proactive,2020.1.2,Win32,60,5f035e5afe130c270d6ae6dd,5f05e30f2bb2ef0ae6e2e3d6,2,,,,,,stamp,,,,,,0,58,58,52,1,6,2,,,,,,,,,,,,,,,,,,,,,,,,,,,,,,,,,,,,,,,,,,,,,,,,,,,,,,,,,,,,,,,,,,,,,,,,,,,
,,HOTEL,3.449635,1,,,,,,stimuli/images/PICTURE_160.png,HOTEL,5eb30ae3d8bf950ee04fe701,06/04/1988,2020-07-08_16h34.25.125,proactive,2020.1.2,Win32,60,5f035e5afe130c270d6ae6dd,5f05e30f2bb2ef0ae6e2e3d6,2,,,,,,wheelbarrow,,,,,,,,,,,2,2,0,0,0,16,1,,,,,,,,,,,,,,,,,,,,,,,,,,,,,,,,,,,,,,,,,,,,,,,,,,,,,,,,,,,,,,,,,,,,,,
,,?,0.002375,0,,,,,,stimuli/images/PICTURE_491.png,SERIES,5eb30ae3d8bf950ee04fe701,06/04/1988,2020-07-08_16h34.25.125,proactive,2020.1.2,Win32,60,5f035e5afe130c270d6ae6dd,5f05e30f2bb2ef0ae6e2e3d6,2,,,,,,rug,,,,,,,,,,,4,2,0,1,1,39,1,,,,,,,,,,,,,,,,,,,,,,,,,,,,,,,,,,,,,,,,,,,,,,,,,,,,,,,,,,,,,,,,,,,,,,
,,?,0.00192,0,,,,,,stimuli/images/PICTURE_2.png,JUNGLE,5eb30ae3d8bf950ee04fe701,06/04/1988,2020-07-08_16h34.25.125,proactive,2020.1.2,Win32,60,5f035e5afe130c270d6ae6dd,5f05e30f2bb2ef0ae6e2e3d6,2,,,,,,tyre,,,,,,,,,,,1,2,0,2,2,1,1,,,,,,,,,,,,,,,,,,,,,,,,,,,,,,,,,,,,,,,,,,,,,,,,,,,,,,,,,,,,,,,,,,,,,,
,,?,0.001985,0,,,,,,stimuli/images/PICTURE_405.png,JUNGLE,5eb30ae3d8bf950ee04fe701,06/04/1988,2020-07-08_16h34.25.125,proactive,2020.1.2,Win32,60,5f035e5afe130c270d6ae6dd,5f05e30f2bb2ef0ae6e2e3d6,2,,,,,,anchor,,,,,,,,,,,6,2,0,3,3,58,1,,,,,,,,,,,,,,,,,,,,,,,,,,,,,,,,,,,,,,,,,,,,,,,,,,,,,,,,,,,,,,,,,,,,,,
,,?,0.00222,0,,,,,,stimuli/images/PICTURE_348.png,DUDE,5eb30ae3d8bf950ee04fe701,06/04/1988,2020-07-08_16h34.25.125,proactive,2020.1.2,Win32,60,5f035e5afe130c270d6ae6dd,5f05e30f2bb2ef0ae6e2e3d6,2,,,,,,pepper,,,,,,,,,,,6,2,0,4,4,59,1,,,,,,,,,,,,,,,,,,,,,,,,,,,,,,,,,,,,,,,,,,,,,,,,,,,,,,,,,,,,,,,,,,,,,,
,,?,0.001935,0,,,,,,stimuli/images/PICTURE_487.png,POLICY,5eb30ae3d8bf950ee04fe701,06/04/1988,2020-07-08_16h34.25.125,proactive,2020.1.2,Win32,60,5f035e5afe130c270d6ae6dd,5f05e30f2bb2ef0ae6e2e3d6,2,,,,,,basket,,,,,,,,,,,4,2,0,5,5,34,1,,,,,,,,,,,,,,,,,,,,,,,,,,,,,,,,,,,,,,,,,,,,,,,,,,,,,,,,,,,,,,,,,,,,,,
,,?,0.002185,0,,,,,,stimuli/images/PICTURE_177.png,HOUSE,5eb30ae3d8bf950ee04fe701,06/04/1988,2020-07-08_16h34.25.125,proactive,2020.1.2,Win32,60,5f035e5afe130c270d6ae6dd,5f05e30f2bb2ef0ae6e2e3d6,2,,,,,,mushroom,,,,,,,,,,,3,2,0,6,6,25,1,,,,,,,,,,,,,,,,,,,,,,,,,,,,,,,,,,,,,,,,,,,,,,,,,,,,,,,,,,,,,,,,,,,,,,
,,?,0.00192,0,,,,,,stimuli/images/PICTURE_215.png,LEADER,5eb30ae3d8bf950ee04fe701,06/04/1988,2020-07-08_16h34.25.125,proactive,2020.1.2,Win32,60,5f035e5afe130c270d6ae6dd,5f05e30f2bb2ef0ae6e2e3d6,2,,,,,,boot,,,,,,,,,,,5,2,0,7,7,43,1,,,,,,,,,,,,,,,,,,,,,,,,,,,,,,,,,,,,,,,,,,,,,,,,,,,,,,,,,,,,,,,,,,,,,,
,,?,0.00183,0,,,,,,stimuli/images/PICTURE_57.png,NATION,5eb30ae3d8bf950ee04fe701,06/04/1988,2020-07-08_16h34.25.125,proactive,2020.1.2,Win32,60,5f035e5afe130c270d6ae6dd,5f05e30f2bb2ef0ae6e2e3d6,2,,,,,,stamp,,,,,,,,,,,3,2,0,8,8,21,1,,,,,,,,,,,,,,,,,,,,,,,,,,,,,,,,,,,,,,,,,,,,,,,,,,,,,,,,,,,,,,,,,,,,,,
,,?,0.00229,0,,,,,,stimuli/images/PICTURE_215.png,BOYS,5eb30ae3d8bf950ee04fe701,06/04/1988,2020-07-08_16h34.25.125,proactive,2020.1.2,Win32,60,5f035e5afe130c270d6ae6dd,5f05e30f2bb2ef0ae6e2e3d6,2,,,,,,boot,,,,,,,,,,,3,2,0,9,9,24,1,,,,,,,,,,,,,,,,,,,,,,,,,,,,,,,,,,,,,,,,,,,,,,,,,,,,,,,,,,,,,,,,,,,,,,
,,?,0.002635,0,,,,,,stimuli/images/PICTURE_453.png,FAMILY,5eb30ae3d8bf950ee04fe701,06/04/1988,2020-07-08_16h34.25.125,proactive,2020.1.2,Win32,60,5f035e5afe130c270d6ae6dd,5f05e30f2bb2ef0ae6e2e3d6,2,,,,,,scissors,,,,,,,,,,,5,2,0,10,10,48,1,,,,,,,,,,,,,,,,,,,,,,,,,,,,,,,,,,,,,,,,,,,,,,,,,,,,,,,,,,,,,,,,,,,,,,
,,?,0.002255,0,,,,,,stimuli/images/PICTURE_215.png,FOOD,5eb30ae3d8bf950ee04fe701,06/04/1988,2020-07-08_16h34.25.125,proactive,2020.1.2,Win32,60,5f035e5afe130c270d6ae6dd,5f05e30f2bb2ef0ae6e2e3d6,2,,,,,,boot,,,,,,,,,,,1,2,0,11,11,5,1,,,,,,,,,,,,,,,,,,,,,,,,,,,,,,,,,,,,,,,,,,,,,,,,,,,,,,,,,,,,,,,,,,,,,,
,,?,0.00249,0,,,,,,stimuli/images/PICTURE_470.png,BEAUTY,5eb30ae3d8bf950ee04fe701,06/04/1988,2020-07-08_16h34.25.125,proactive,2020.1.2,Win32,60,5f035e5afe130c270d6ae6dd,5f05e30f2bb2ef0ae6e2e3d6,2,,,,,,motorbike,,,,,,,,,,,3,2,0,12,12,26,1,,,,,,,,,,,,,,,,,,,,,,,,,,,,,,,,,,,,,,,,,,,,,,,,,,,,,,,,,,,,,,,,,,,,,,
,,PENNY,4.19712,1,,,,,,stimuli/images/PICTURE_255.png,PENNY,5eb30ae3d8bf950ee04fe701,06/04/1988,2020-07-08_16h34.25.125,proactive,2020.1.2,Win32,60,5f035e5afe130c270d6ae6dd,5f05e30f2bb2ef0ae6e2e3d6,2,,,,,,shovel,,,,,,,,,,,2,2,0,13,13,19,1,,,,,,,,,,,,,,,,,,,,,,,,,,,,,,,,,,,,,,,,,,,,,,,,,,,,,,,,,,,,,,,,,,,,,,
,,PLENTY,5.231835,1,,,,,,stimuli/images/PICTURE_564.png,PLENTY,5eb30ae3d8bf950ee04fe701,06/04/1988,2020-07-08_16h34.25.125,proactive,2020.1.2,Win32,60,5f035e5afe130c270d6ae6dd,5f05e30f2bb2ef0ae6e2e3d6,2,,,,,,spoon,,,,,,,,,,,2,2,0,14,14,11,1,,,,,,,,,,,,,,,,,,,,,,,,,,,,,,,,,,,,,,,,,,,,,,,,,,,,,,,,,,,,,,,,,,,,,,
,,?,0.00214,0,,,,,,stimuli/images/PICTURE_123.png,SALE,5eb30ae3d8bf950ee04fe701,06/04/1988,2020-07-08_16h34.25.125,proactive,2020.1.2,Win32,60,5f035e5afe130c270d6ae6dd,5f05e30f2bb2ef0ae6e2e3d6,2,,,,,,dart,,,,,,,,,,,1,2,0,15,15,8,1,,,,,,,,,,,,,,,,,,,,,,,,,,,,,,,,,,,,,,,,,,,,,,,,,,,,,,,,,,,,,,,,,,,,,,
,,?,0.002025,0,,,,,,stimuli/images/PICTURE_18.png,RIVER,5eb30ae3d8bf950ee04fe701,06/04/1988,2020-07-08_16h34.25.125,proactive,2020.1.2,Win32,60,5f035e5afe130c270d6ae6dd,5f05e30f2bb2ef0ae6e2e3d6,2,,,,,,planet,,,,,,,,,,,3,2,0,16,16,22,1,,,,,,,,,,,,,,,,,,,,,,,,,,,,,,,,,,,,,,,,,,,,,,,,,,,,,,,,,,,,,,,,,,,,,,
