consent_key.keys,consent_key.rt,recalled,recalled_rt,recall_acc,example_recall.thisRepN,example_recall.thisTrialN,example_recall.thisN,example_recall.thisIndex,example_recall.ran,file,word,participant,please enter your date of birth (dd/mm/yyyy),date,expName,psychopyVersion,OS,frameRate,STUDY_ID,SESSION_ID,list,prac_learn_study_loop.thisRepN,prac_learn_study_loop.thisTrialN,prac_learn_study_loop.thisN,prac_learn_study_loop.thisIndex,prac_learn_study_loop.ran,image,prac_learn_test_loop.thisRepN,prac_learn_test_loop.thisTrialN,prac_learn_test_loop.thisN,prac_learn_test_loop.thisIndex,prac_learn_test_loop.ran,learn_study_loop.thisRepN,learn_study_loop.thisTrialN,learn_study_loop.thisN,learn_study_loop.thisIndex,learn_study_loop.ran,list_no,block_no,learn_test_loop.thisRepN,learn_test_loop.thisTrialN,learn_test_loop.thisN,learn_test_loop.thisIndex,learn_test_loop.ran,learn_blocks.thisRepN,learn_blocks.thisTrialN,learn_blocks.thisN,learn_blocks.thisIndex,learn_blocks.ran,block_csv,key_resp_13.keys,key_resp_13.rt,learn_blocks_loop.thisRepN,learn_blocks_loop.thisTrialN,learn_blocks_loop.thisN,learn_blocks_loop.thisIndex,learn_blocks_loop.ran,final_learn_test.thisRepN,final_learn_test.thisTrialN,final_learn_test.thisN,final_learn_test.thisIndex,final_learn_test.ran,prac_wm_test_loop.thisRepN,prac_wm_test_loop.thisTrialN,prac_wm_test_loop.thisN,prac_wm_test_loop.thisIndex,prac_wm_test_loop.ran,wm_recalled1,wm_recall_rt1,wm_probed1,wm_recall_acc1,wm_recalled2,wm_recall_rt2,wm_probed2,wm_recall_acc2,wm_recalled3,wm_recall_rt3,wm_probed3,wm_recall_acc3,wm_recalled4,wm_recall_rt4,wm_probed4,wm_recall_acc4,prac_wm_trial_loop.thisRepN,prac_wm_trial_loop.thisTrialN,prac_wm_trial_loop.thisN,prac_wm_trial_loop.thisIndex,prac_wm_trial_loop.ran,word1,image1,file1,item_type1,word2,image2,file2,item_type2,word4,image4,file4,item_type4,word3,image3,file3,item_type3,wm_test_loop.thisRepN,wm_test_loop.thisTrialN,wm_test_loop.thisN,wm_test_loop.thisIndex,wm_test_loop.ran,wm_trial_loop.thisRepN,wm_trial_loop.thisTrialN,wm_trial_loop.thisN,wm_trial_loop.thisIndex,wm_trial_loop.ran
y,3.049025,TOUGH,3.022975,1,0,0,0,0,1,stimuli/images/PICTURE_747.png,TOUGH,5eb96457ed4e980484601bf7,29/11/2000,2020-07-08_16h15.45.661,proactive,2020.1.2,MacIntel,60,5f035e5afe130c270d6ae6dd,5f05e30d4925e40b942457e7,6,,,,,,,,,,,,,,,,,,,,,,,,,,,,,,,,,,,,,,,,,,,,,,,,,,,,,,,,,,,,,,,,,,,,,,,,,,,,,,,,,,,,,,,,,,,,,
,,,,,,,,,,stimuli/images/PICTURE_658.png,DEVIL,5eb96457ed4e980484601bf7,29/11/2000,2020-07-08_16h15.45.661,proactive,2020.1.2,MacIntel,60,5f035e5afe130c270d6ae6dd,5f05e30d4925e40b942457e7,6,0,0,0,3,1,crow,,,,,,,,,,,,,,,,,,,,,,,,,,,,,,,,,,,,,,,,,,,,,,,,,,,,,,,,,,,,,,,,,,,,,,,,,,,,,,,,,,,,,,,
,,,,,,,,,,stimuli/images/PICTURE_727.png,CELL,5eb96457ed4e980484601bf7,29/11/2000,2020-07-08_16h15.45.661,proactive,2020.1.2,MacIntel,60,5f035e5afe130c270d6ae6dd,5f05e30d4925e40b942457e7,6,0,1,1,1,1,hose,,,,,,,,,,,,,,,,,,,,,,,,,,,,,,,,,,,,,,,,,,,,,,,,,,,,,,,,,,,,,,,,,,,,,,,,,,,,,,,,,,,,,,,
,,,,,,,,,,stimuli/images/PICTURE_697.png,KILLER,5eb96457ed4e980484601bf7,29/11/2000,2020-07-08_16h15.45.661,proactive,2020.1.2,MacIntel,60,5f035e5afe130c270d6ae6dd,5f05e30d4925e40b942457e7,6,0,2,2,4,1,peach,,,,,,,,,,,,,,,,,,,,,,,,,,,,,,,,,,,,,,,,,,,,,,,,,,,,,,,,,,,,,,,,,,,,,,,,,,,,,,,,,,,,,,,
,,,,,,,,,,stimuli/images/PICTURE_378.png,LOSS,5eb96457ed4e980484601bf7,29/11/2000,2020-07-08_16h15.45.661,proactive,2020.1.2,MacIntel,60,5f035e5afe130c270d6ae6dd,5f05e30d4925e40b942457e7,6,0,3,3,2,1,lobster,,,,,,,,,,,,,,,,,,,,,,,,,,,,,,,,,,,,,,,,,,,,,,,,,,,,,,,,,,,,,,,,,,,,,,,,,,,,,,,,,,,,,,,
,,HELL,3.296765,0,,,,,,stimuli/images/PICTURE_697.png,KILLER,5eb96457ed4e980484601bf7,29/11/2000,2020-07-08_16h15.45.661,proactive,2020.1.2,MacIntel,60,5f035e5afe130c270d6ae6dd,5f05e30d4925e40b942457e7,6,,,,,,peach,0,0,0,4,1,,,,,,,,,,,,,,,,,,,,,,,,,,,,,,,,,,,,,,,,,,,,,,,,,,,,,,,,,,,,,,,,,,,,,,,,,,,,,,,,,,
,,GENUIS,9.48217,0,,,,,,stimuli/images/PICTURE_269.png,GENIUS,5eb96457ed4e980484601bf7,29/11/2000,2020-07-08_16h15.45.661,proactive,2020.1.2,MacIntel,60,5f035e5afe130c270d6ae6dd,5f05e30d4925e40b942457e7,6,,,,,,chameleon,0,1,1,0,1,,,,,,,,,,,,,,,,,,,,,,,,,,,,,,,,,,,,,,,,,,,,,,,,,,,,,,,,,,,,,,,,,,,,,,,,,,,,,,,,,,
,,DEVIL,4.845715,1,,,,,,stimuli/images/PICTURE_658.png,DEVIL,5eb96457ed4e980484601bf7,29/11/2000,2020-07-08_16h15.45.661,proactive,2020.1.2,MacIntel,60,5f035e5afe130c270d6ae6dd,5f05e30d4925e40b942457e7,6,,,,,,crow,0,2,2,3,1,,,,,,,,,,,,,,,,,,,,,,,,,,,,,,,,,,,,,,,,,,,,,,,,,,,,,,,,,,,,,,,,,,,,,,,,,,,,,,,,,,
,,LOSS,4.833895,1,,,,,,stimuli/images/PICTURE_378.png,LOSS,5eb96457ed4e980484601bf7,29/11/2000,2020-07-08_16h15.45.661,proactive,2020.1.2,MacIntel,60,5f035e5afe130c270d6ae6dd,5f05e30d4925e40b942457e7,6,,,,,,lobster,0,3,3,2,1,,,,,,,,,,,,,,,,,,,,,,,,,,,,,,,,,,,,,,,,,,,,,,,,,,,,,,,,,,,,,,,,,,,,,,,,,,,,,,,,,,
,,CELL,3.91442,1,,,,,,stimuli/images/PICTURE_727.png,CELL,5eb96457ed4e980484601bf7,29/11/2000,2020-07-08_16h15.45.661,proactive,2020.1.2,MacIntel,60,5f035e5afe130c270d6ae6dd,5f05e30d4925e40b942457e7,6,,,,,,hose,0,4,4,1,1,,,,,,,,,,,,,,,,,,,,,,,,,,,,,,,,,,,,,,,,,,,,,,,,,,,,,,,,,,,,,,,,,,,,,,,,,,,,,,,,,,
,,,,,,,,,,stimuli/images/PICTURE_667.png,BATH,5eb96457ed4e980484601bf7,29/11/2000,2020-07-08_16h15.45.661,proactive,2020.1.2,MacIntel,60,5f035e5afe130c270d6ae6dd,5f05e30d4925e40b942457e7,6,,,,,,daisy,,,,,,0,0,0,4,1,1,0,,,,,,,,,,,,,,,,,,,,,,,,,,,,,,,,,,,,,,,,,,,,,,,,,,,,,,,,,,,,,,,,,,,,,,,,,,,
,,,,,,,,,,stimuli/images/PICTURE_469.png,LETTER,5eb96457ed4e980484601bf7,29/11/2000,2020-07-08_16h15.45.661,proactive,2020.1.2,MacIntel,60,5f035e5afe130c270d6ae6dd,5f05e30d4925e40b942457e7,6,,,,,,stool,,,,,,0,1,1,42,1,5,0,,,,,,,,,,,,,,,,,,,,,,,,,,,,,,,,,,,,,,,,,,,,,,,,,,,,,,,,,,,,,,,,,,,,,,,,,,,
,,,,,,,,,,stimuli/images/PICTURE_692.png,MONTH,5eb96457ed4e980484601bf7,29/11/2000,2020-07-08_16h15.45.661,proactive,2020.1.2,MacIntel,60,5f035e5afe130c270d6ae6dd,5f05e30d4925e40b942457e7,6,,,,,,cherry,,,,,,0,2,2,16,1,2,0,,,,,,,,,,,,,,,,,,,,,,,,,,,,,,,,,,,,,,,,,,,,,,,,,,,,,,,,,,,,,,,,,,,,,,,,,,,
,,,,,,,,,,stimuli/images/PICTURE_233.png,IDEAS,5eb96457ed4e980484601bf7,29/11/2000,2020-07-08_16h15.45.661,proactive,2020.1.2,MacIntel,60,5f035e5afe130c270d6ae6dd,5f05e30d4925e40b942457e7,6,,,,,,salt,,,,,,0,3,3,28,1,3,0,,,,,,,,,,,,,,,,,,,,,,,,,,,,,,,,,,,,,,,,,,,,,,,,,,,,,,,,,,,,,,,,,,,,,,,,,,,
,,,,,,,,,,stimuli/images/PICTURE_308.png,KIND,5eb96457ed4e980484601bf7,29/11/2000,2020-07-08_16h15.45.661,proactive,2020.1.2,MacIntel,60,5f035e5afe130c270d6ae6dd,5f05e30d4925e40b942457e7,6,,,,,,dice,,,,,,0,4,4,54,1,6,0,,,,,,,,,,,,,,,,,,,,,,,,,,,,,,,,,,,,,,,,,,,,,,,,,,,,,,,,,,,,,,,,,,,,,,,,,,,
,,,,,,,,,,stimuli/images/PICTURE_487.png,FLIGHT,5eb96457ed4e980484601bf7,29/11/2000,2020-07-08_16h15.45.661,proactive,2020.1.2,MacIntel,60,5f035e5afe130c270d6ae6dd,5f05e30d4925e40b942457e7,6,,,,,,basket,,,,,,0,5,5,9,1,1,0,,,,,,,,,,,,,,,,,,,,,,,,,,,,,,,,,,,,,,,,,,,,,,,,,,,,,,,,,,,,,,,,,,,,,,,,,,,
,,,,,,,,,,stimuli/images/PICTURE_380.png,PHOTO,5eb96457ed4e980484601bf7,29/11/2000,2020-07-08_16h15.45.661,proactive,2020.1.2,MacIntel,60,5f035e5afe130c270d6ae6dd,5f05e30d4925e40b942457e7,6,,,,,,gorilla,,,,,,0,6,6,52,1,6,0,,,,,,,,,,,,,,,,,,,,,,,,,,,,,,,,,,,,,,,,,,,,,,,,,,,,,,,,,,,,,,,,,,,,,,,,,,,
,,,,,,,,,,stimuli/images/PICTURE_453.png,PLENTY,5eb96457ed4e980484601bf7,29/11/2000,2020-07-08_16h15.45.661,proactive,2020.1.2,MacIntel,60,5f035e5afe130c270d6ae6dd,5f05e30d4925e40b942457e7,6,,,,,,scissors,,,,,,0,7,7,56,1,6,0,,,,,,,,,,,,,,,,,,,,,,,,,,,,,,,,,,,,,,,,,,,,,,,,,,,,,,,,,,,,,,,,,,,,,,,,,,,
,,,,,,,,,,stimuli/images/PICTURE_255.png,AREA,5eb96457ed4e980484601bf7,29/11/2000,2020-07-08_16h15.45.661,proactive,2020.1.2,MacIntel,60,5f035e5afe130c270d6ae6dd,5f05e30d4925e40b942457e7,6,,,,,,shovel,,,,,,0,8,8,22,1,3,0,,,,,,,,,,,,,,,,,,,,,,,,,,,,,,,,,,,,,,,,,,,,,,,,,,,,,,,,,,,,,,,,,,,,,,,,,,,
,,,,,,,,,,stimuli/images/PICTURE_311.png,BEAUTY,5eb96457ed4e980484601bf7,29/11/2000,2020-07-08_16h15.45.661,proactive,2020.1.2,MacIntel,60,5f035e5afe130c270d6ae6dd,5f05e30d4925e40b942457e7,6,,,,,,razor,,,,,,0,9,9,13,1,2,0,,,,,,,,,,,,,,,,,,,,,,,,,,,,,,,,,,,,,,,,,,,,,,,,,,,,,,,,,,,,,,,,,,,,,,,,,,,
,,,,,,,,,,stimuli/images/PICTURE_708.png,CLIENT,5eb96457ed4e980484601bf7,29/11/2000,2020-07-08_16h15.45.661,proactive,2020.1.2,MacIntel,60,5f035e5afe130c270d6ae6dd,5f05e30d4925e40b942457e7,6,,,,,,monkey,,,,,,0,10,10,5,1,1,0,,,,,,,,,,,,,,,,,,,,,,,,,,,,,,,,,,,,,,,,,,,,,,,,,,,,,,,,,,,,,,,,,,,,,,,,,,,
,,,,,,,,,,stimuli/images/PICTURE_68.png,MILE,5eb96457ed4e980484601bf7,29/11/2000,2020-07-08_16h15.45.661,proactive,2020.1.2,MacIntel,60,5f035e5afe130c270d6ae6dd,5f05e30d4925e40b942457e7,6,,,,,,candle,,,,,,0,11,11,44,1,5,0,,,,,,,,,,,,,,,,,,,,,,,,,,,,,,,,,,,,,,,,,,,,,,,,,,,,,,,,,,,,,,,,,,,,,,,,,,,
,,,,,,,,,,stimuli/images/PICTURE_203.png,ARTIST,5eb96457ed4e980484601bf7,29/11/2000,2020-07-08_16h15.45.661,proactive,2020.1.2,MacIntel,60,5f035e5afe130c270d6ae6dd,5f05e30d4925e40b942457e7,6,,,,,,cap,,,,,,0,12,12,26,1,3,0,,,,,,,,,,,,,,,,,,,,,,,,,,,,,,,,,,,,,,,,,,,,,,,,,,,,,,,,,,,,,,,,,,,,,,,,,,,
,,,,,,,,,,stimuli/images/PICTURE_160.png,LEADER,5eb96457ed4e980484601bf7,29/11/2000,2020-07-08_16h15.45.661,proactive,2020.1.2,MacIntel,60,5f035e5afe130c270d6ae6dd,5f05e30d4925e40b942457e7,6,,,,,,wheelbarrow,,,,,,0,13,13,3,1,1,0,,,,,,,,,,,,,,,,,,,,,,,,,,,,,,,,,,,,,,,,,,,,,,,,,,,,,,,,,,,,,,,,,,,,,,,,,,,
,,,,,,,,,,stimuli/images/PICTURE_208.png,MONTH,5eb96457ed4e980484601bf7,29/11/2000,2020-07-08_16h15.45.661,proactive,2020.1.2,MacIntel,60,5f035e5afe130c270d6ae6dd,5f05e30d4925e40b942457e7,6,,,,,,microphone,,,,,,0,14,14,53,1,6,0,,,,,,,,,,,,,,,,,,,,,,,,,,,,,,,,,,,,,,,,,,,,,,,,,,,,,,,,,,,,,,,,,,,,,,,,,,,
,,,,,,,,,,stimuli/images/PICTURE_160.png,FEET,5eb96457ed4e980484601bf7,29/11/2000,2020-07-08_16h15.45.661,proactive,2020.1.2,MacIntel,60,5f035e5afe130c270d6ae6dd,5f05e30d4925e40b942457e7,6,,,,,,wheelbarrow,,,,,,0,15,15,58,1,6,0,,,,,,,,,,,,,,,,,,,,,,,,,,,,,,,,,,,,,,,,,,,,,,,,,,,,,,,,,,,,,,,,,,,,,,,,,,,
,,,,,,,,,,stimuli/images/PICTURE_339.png,PLENTY,5eb96457ed4e980484601bf7,29/11/2000,2020-07-08_16h15.45.661,proactive,2020.1.2,MacIntel,60,5f035e5afe130c270d6ae6dd,5f05e30d4925e40b942457e7,6,,,,,,backpack,,,,,,0,16,16,0,1,1,0,,,,,,,,,,,,,,,,,,,,,,,,,,,,,,,,,,,,,,,,,,,,,,,,,,,,,,,,,,,,,,,,,,,,,,,,,,,
,,,,,,,,,,stimuli/images/PICTURE_467.png,DEMON,5eb96457ed4e980484601bf7,29/11/2000,2020-07-08_16h15.45.661,proactive,2020.1.2,MacIntel,60,5f035e5afe130c270d6ae6dd,5f05e30d4925e40b942457e7,6,,,,,,peg,,,,,,0,17,17,23,1,3,0,,,,,,,,,,,,,,,,,,,,,,,,,,,,,,,,,,,,,,,,,,,,,,,,,,,,,,,,,,,,,,,,,,,,,,,,,,,
,,,,,,,,,,stimuli/images/PICTURE_308.png,ESTATE,5eb96457ed4e980484601bf7,29/11/2000,2020-07-08_16h15.45.661,proactive,2020.1.2,MacIntel,60,5f035e5afe130c270d6ae6dd,5f05e30d4925e40b942457e7,6,,,,,,dice,,,,,,0,18,18,46,1,5,0,,,,,,,,,,,,,,,,,,,,,,,,,,,,,,,,,,,,,,,,,,,,,,,,,,,,,,,,,,,,,,,,,,,,,,,,,,,
,,,,,,,,,,stimuli/images/PICTURE_123.png,ADVICE,5eb96457ed4e980484601bf7,29/11/2000,2020-07-08_16h15.45.661,proactive,2020.1.2,MacIntel,60,5f035e5afe130c270d6ae6dd,5f05e30d4925e40b942457e7,6,,,,,,dart,,,,,,0,19,19,40,1,5,0,,,,,,,,,,,,,,,,,,,,,,,,,,,,,,,,,,,,,,,,,,,,,,,,,,,,,,,,,,,,,,,,,,,,,,,,,,,
,,,,,,,,,,stimuli/images/PICTURE_469.png,ARTIST,5eb96457ed4e980484601bf7,29/11/2000,2020-07-08_16h15.45.661,proactive,2020.1.2,MacIntel,60,5f035e5afe130c270d6ae6dd,5f05e30d4925e40b942457e7,6,,,,,,stool,,,,,,0,20,20,6,1,1,0,,,,,,,,,,,,,,,,,,,,,,,,,,,,,,,,,,,,,,,,,,,,,,,,,,,,,,,,,,,,,,,,,,,,,,,,,,,
,,,,,,,,,,stimuli/images/PICTURE_491.png,WRITER,5eb96457ed4e980484601bf7,29/11/2000,2020-07-08_16h15.45.661,proactive,2020.1.2,MacIntel,60,5f035e5afe130c270d6ae6dd,5f05e30d4925e40b942457e7,6,,,,,,rug,,,,,,0,21,21,57,1,6,0,,,,,,,,,,,,,,,,,,,,,,,,,,,,,,,,,,,,,,,,,,,,,,,,,,,,,,,,,,,,,,,,,,,,,,,,,,,
,,,,,,,,,,stimuli/images/PICTURE_314.png,SAKE,5eb96457ed4e980484601bf7,29/11/2000,2020-07-08_16h15.45.661,proactive,2020.1.2,MacIntel,60,5f035e5afe130c270d6ae6dd,5f05e30d4925e40b942457e7,6,,,,,,perfume,,,,,,0,22,22,7,1,1,0,,,,,,,,,,,,,,,,,,,,,,,,,,,,,,,,,,,,,,,,,,,,,,,,,,,,,,,,,,,,,,,,,,,,,,,,,,,
,,,,,,,,,,stimuli/images/PICTURE_470.png,CASINO,5eb96457ed4e980484601bf7,29/11/2000,2020-07-08_16h15.45.661,proactive,2020.1.2,MacIntel,60,5f035e5afe130c270d6ae6dd,5f05e30d4925e40b942457e7,6,,,,,,motorbike,,,,,,0,23,23,36,1,4,0,,,,,,,,,,,,,,,,,,,,,,,,,,,,,,,,,,,,,,,,,,,,,,,,,,,,,,,,,,,,,,,,,,,,,,,,,,,
,,,,,,,,,,stimuli/images/PICTURE_654.png,VALLEY,5eb96457ed4e980484601bf7,29/11/2000,2020-07-08_16h15.45.661,proactive,2020.1.2,MacIntel,60,5f035e5afe130c270d6ae6dd,5f05e30d4925e40b942457e7,6,,,,,,pencil,,,,,,0,24,24,1,1,1,0,,,,,,,,,,,,,,,,,,,,,,,,,,,,,,,,,,,,,,,,,,,,,,,,,,,,,,,,,,,,,,,,,,,,,,,,,,,
,,,,,,,,,,stimuli/images/PICTURE_177.png,CARS,5eb96457ed4e980484601bf7,29/11/2000,2020-07-08_16h15.45.661,proactive,2020.1.2,MacIntel,60,5f035e5afe130c270d6ae6dd,5f05e30d4925e40b942457e7,6,,,,,,mushroom,,,,,,0,25,25,35,1,4,0,,,,,,,,,,,,,,,,,,,,,,,,,,,,,,,,,,,,,,,,,,,,,,,,,,,,,,,,,,,,,,,,,,,,,,,,,,,
,,,,,,,,,,stimuli/images/PICTURE_302.png,FAMILY,5eb96457ed4e980484601bf7,29/11/2000,2020-07-08_16h15.45.661,proactive,2020.1.2,MacIntel,60,5f035e5afe130c270d6ae6dd,5f05e30d4925e40b942457e7,6,,,,,,taxi,,,,,,0,26,26,18,1,2,0,,,,,,,,,,,,,,,,,,,,,,,,,,,,,,,,,,,,,,,,,,,,,,,,,,,,,,,,,,,,,,,,,,,,,,,,,,,
,,,,,,,,,,stimuli/images/PICTURE_208.png,THING,5eb96457ed4e980484601bf7,29/11/2000,2020-07-08_16h15.45.661,proactive,2020.1.2,MacIntel,60,5f035e5afe130c270d6ae6dd,5f05e30d4925e40b942457e7,6,,,,,,microphone,,,,,,0,27,27,47,1,5,0,,,,,,,,,,,,,,,,,,,,,,,,,,,,,,,,,,,,,,,,,,,,,,,,,,,,,,,,,,,,,,,,,,,,,,,,,,,
,,,,,,,,,,stimuli/images/PICTURE_32.png,JUNGLE,5eb96457ed4e980484601bf7,29/11/2000,2020-07-08_16h15.45.661,proactive,2020.1.2,MacIntel,60,5f035e5afe130c270d6ae6dd,5f05e30d4925e40b942457e7,6,,,,,,crown,,,,,,0,28,28,45,1,5,0,,,,,,,,,,,,,,,,,,,,,,,,,,,,,,,,,,,,,,,,,,,,,,,,,,,,,,,,,,,,,,,,,,,,,,,,,,,
,,,,,,,,,,stimuli/images/PICTURE_248.png,DOZEN,5eb96457ed4e980484601bf7,29/11/2000,2020-07-08_16h15.45.661,proactive,2020.1.2,MacIntel,60,5f035e5afe130c270d6ae6dd,5f05e30d4925e40b942457e7,6,,,,,,cart,,,,,,0,29,29,39,1,4,0,,,,,,,,,,,,,,,,,,,,,,,,,,,,,,,,,,,,,,,,,,,,,,,,,,,,,,,,,,,,,,,,,,,,,,,,,,,
,,,,,,,,,,stimuli/images/PICTURE_208.png,LOTS,5eb96457ed4e980484601bf7,29/11/2000,2020-07-08_16h15.45.661,proactive,2020.1.2,MacIntel,60,5f035e5afe130c270d6ae6dd,5f05e30d4925e40b942457e7,6,,,,,,microphone,,,,,,0,30,30,10,1,2,0,,,,,,,,,,,,,,,,,,,,,,,,,,,,,,,,,,,,,,,,,,,,,,,,,,,,,,,,,,,,,,,,,,,,,,,,,,,
,,,,,,,,,,stimuli/images/PICTURE_123.png,ADVICE,5eb96457ed4e980484601bf7,29/11/2000,2020-07-08_16h15.45.661,proactive,2020.1.2,MacIntel,60,5f035e5afe130c270d6ae6dd,5f05e30d4925e40b942457e7,6,,,,,,dart,,,,,,0,31,31,50,1,6,0,,,,,,,,,,,,,,,,,,,,,,,,,,,,,,,,,,,,,,,,,,,,,,,,,,,,,,,,,,,,,,,,,,,,,,,,,,,
,,,,,,,,,,stimuli/images/PICTURE_667.png,PLENTY,5eb96457ed4e980484601bf7,29/11/2000,2020-07-08_16h15.45.661,proactive,2020.1.2,MacIntel,60,5f035e5afe130c270d6ae6dd,5f05e30d4925e40b942457e7,6,,,,,,daisy,,,,,,0,32,32,41,1,5,0,,,,,,,,,,,,,,,,,,,,,,,,,,,,,,,,,,,,,,,,,,,,,,,,,,,,,,,,,,,,,,,,,,,,,,,,,,,
,,,,,,,,,,stimuli/images/PICTURE_744.png,SYSTEM,5eb96457ed4e980484601bf7,29/11/2000,2020-07-08_16h15.45.661,proactive,2020.1.2,MacIntel,60,5f035e5afe130c270d6ae6dd,5f05e30d4925e40b942457e7,6,,,,,,ring,,,,,,0,33,33,43,1,5,0,,,,,,,,,,,,,,,,,,,,,,,,,,,,,,,,,,,,,,,,,,,,,,,,,,,,,,,,,,,,,,,,,,,,,,,,,,,
,,,,,,,,,,stimuli/images/PICTURE_488.png,STYLE,5eb96457ed4e980484601bf7,29/11/2000,2020-07-08_16h15.45.661,proactive,2020.1.2,MacIntel,60,5f035e5afe130c270d6ae6dd,5f05e30d4925e40b942457e7,6,,,,,,sun,,,,,,0,34,34,33,1,4,0,,,,,,,,,,,,,,,,,,,,,,,,,,,,,,,,,,,,,,,,,,,,,,,,,,,,,,,,,,,,,,,,,,,,,,,,,,,
,,,,,,,,,,stimuli/images/PICTURE_311.png,FRIEND,5eb96457ed4e980484601bf7,29/11/2000,2020-07-08_16h15.45.661,proactive,2020.1.2,MacIntel,60,5f035e5afe130c270d6ae6dd,5f05e30d4925e40b942457e7,6,,,,,,razor,,,,,,0,35,35,34,1,4,0,,,,,,,,,,,,,,,,,,,,,,,,,,,,,,,,,,,,,,,,,,,,,,,,,,,,,,,,,,,,,,,,,,,,,,,,,,,
,,,,,,,,,,stimuli/images/PICTURE_688.png,WOMEN,5eb96457ed4e980484601bf7,29/11/2000,2020-07-08_16h15.45.661,proactive,2020.1.2,MacIntel,60,5f035e5afe130c270d6ae6dd,5f05e30d4925e40b942457e7,6,,,,,,runner,,,,,,0,36,36,14,1,2,0,,,,,,,,,,,,,,,,,,,,,,,,,,,,,,,,,,,,,,,,,,,,,,,,,,,,,,,,,,,,,,,,,,,,,,,,,,,
,,,,,,,,,,stimuli/images/PICTURE_453.png,DUDE,5eb96457ed4e980484601bf7,29/11/2000,2020-07-08_16h15.45.661,proactive,2020.1.2,MacIntel,60,5f035e5afe130c270d6ae6dd,5f05e30d4925e40b942457e7,6,,,,,,scissors,,,,,,0,37,37,27,1,3,0,,,,,,,,,,,,,,,,,,,,,,,,,,,,,,,,,,,,,,,,,,,,,,,,,,,,,,,,,,,,,,,,,,,,,,,,,,,
,,,,,,,,,,stimuli/images/PICTURE_708.png,YARD,5eb96457ed4e980484601bf7,29/11/2000,2020-07-08_16h15.45.661,proactive,2020.1.2,MacIntel,60,5f035e5afe130c270d6ae6dd,5f05e30d4925e40b942457e7,6,,,,,,monkey,,,,,,0,38,38,29,1,3,0,,,,,,,,,,,,,,,,,,,,,,,,,,,,,,,,,,,,,,,,,,,,,,,,,,,,,,,,,,,,,,,,,,,,,,,,,,,
,,,,,,,,,,stimuli/images/PICTURE_85.png,THING,5eb96457ed4e980484601bf7,29/11/2000,2020-07-08_16h15.45.661,proactive,2020.1.2,MacIntel,60,5f035e5afe130c270d6ae6dd,5f05e30d4925e40b942457e7,6,,,,,,diamond,,,,,,0,39,39,15,1,2,0,,,,,,,,,,,,,,,,,,,,,,,,,,,,,,,,,,,,,,,,,,,,,,,,,,,,,,,,,,,,,,,,,,,,,,,,,,,
,,,,,,,,,,stimuli/images/PICTURE_314.png,GODS,5eb96457ed4e980484601bf7,29/11/2000,2020-07-08_16h15.45.661,proactive,2020.1.2,MacIntel,60,5f035e5afe130c270d6ae6dd,5f05e30d4925e40b942457e7,6,,,,,,perfume,,,,,,0,40,40,11,1,2,0,,,,,,,,,,,,,,,,,,,,,,,,,,,,,,,,,,,,,,,,,,,,,,,,,,,,,,,,,,,,,,,,,,,,,,,,,,,
,,,,,,,,,,stimuli/images/PICTURE_356.png,DANGER,5eb96457ed4e980484601bf7,29/11/2000,2020-07-08_16h15.45.661,proactive,2020.1.2,MacIntel,60,5f035e5afe130c270d6ae6dd,5f05e30d4925e40b942457e7,6,,,,,,pawn,,,,,,0,41,41,55,1,6,0,,,,,,,,,,,,,,,,,,,,,,,,,,,,,,,,,,,,,,,,,,,,,,,,,,,,,,,,,,,,,,,,,,,,,,,,,,,
,,,,,,,,,,stimuli/images/PICTURE_95.png,STYLE,5eb96457ed4e980484601bf7,29/11/2000,2020-07-08_16h15.45.661,proactive,2020.1.2,MacIntel,60,5f035e5afe130c270d6ae6dd,5f05e30d4925e40b942457e7,6,,,,,,suitcase,,,,,,0,42,42,25,1,3,0,,,,,,,,,,,,,,,,,,,,,,,,,,,,,,,,,,,,,,,,,,,,,,,,,,,,,,,,,,,,,,,,,,,,,,,,,,,
,,,,,,,,,,stimuli/images/PICTURE_327.png,BEAUTY,5eb96457ed4e980484601bf7,29/11/2000,2020-07-08_16h15.45.661,proactive,2020.1.2,MacIntel,60,5f035e5afe130c270d6ae6dd,5f05e30d4925e40b942457e7,6,,,,,,helmet,,,,,,0,43,43,48,1,5,0,,,,,,,,,,,,,,,,,,,,,,,,,,,,,,,,,,,,,,,,,,,,,,,,,,,,,,,,,,,,,,,,,,,,,,,,,,,
,,,,,,,,,,stimuli/images/PICTURE_708.png,PENNY,5eb96457ed4e980484601bf7,29/11/2000,2020-07-08_16h15.45.661,proactive,2020.1.2,MacIntel,60,5f035e5afe130c270d6ae6dd,5f05e30d4925e40b942457e7,6,,,,,,monkey,,,,,,0,44,44,31,1,4,0,,,,,,,,,,,,,,,,,,,,,,,,,,,,,,,,,,,,,,,,,,,,,,,,,,,,,,,,,,,,,,,,,,,,,,,,,,,
,,,,,,,,,,stimuli/images/PICTURE_677.png,MILE,5eb96457ed4e980484601bf7,29/11/2000,2020-07-08_16h15.45.661,proactive,2020.1.2,MacIntel,60,5f035e5afe130c270d6ae6dd,5f05e30d4925e40b942457e7,6,,,,,,map,,,,,,0,45,45,30,1,4,0,,,,,,,,,,,,,,,,,,,,,,,,,,,,,,,,,,,,,,,,,,,,,,,,,,,,,,,,,,,,,,,,,,,,,,,,,,,
,,,,,,,,,,stimuli/images/PICTURE_147.png,MOMENT,5eb96457ed4e980484601bf7,29/11/2000,2020-07-08_16h15.45.661,proactive,2020.1.2,MacIntel,60,5f035e5afe130c270d6ae6dd,5f05e30d4925e40b942457e7,6,,,,,,hanger,,,,,,0,46,46,51,1,6,0,,,,,,,,,,,,,,,,,,,,,,,,,,,,,,,,,,,,,,,,,,,,,,,,,,,,,,,,,,,,,,,,,,,,,,,,,,,
,,,,,,,,,,stimuli/images/PICTURE_491.png,ROOF,5eb96457ed4e980484601bf7,29/11/2000,2020-07-08_16h15.45.661,proactive,2020.1.2,MacIntel,60,5f035e5afe130c270d6ae6dd,5f05e30d4925e40b942457e7,6,,,,,,rug,,,,,,0,47,47,24,1,3,0,,,,,,,,,,,,,,,,,,,,,,,,,,,,,,,,,,,,,,,,,,,,,,,,,,,,,,,,,,,,,,,,,,,,,,,,,,,
,,,,,,,,,,stimuli/images/PICTURE_151.png,GIRL,5eb96457ed4e980484601bf7,29/11/2000,2020-07-08_16h15.45.661,proactive,2020.1.2,MacIntel,60,5f035e5afe130c270d6ae6dd,5f05e30d4925e40b942457e7,6,,,,,,tray,,,,,,0,48,48,19,1,2,0,,,,,,,,,,,,,,,,,,,,,,,,,,,,,,,,,,,,,,,,,,,,,,,,,,,,,,,,,,,,,,,,,,,,,,,,,,,
,,,,,,,,,,stimuli/images/PICTURE_744.png,SAKE,5eb96457ed4e980484601bf7,29/11/2000,2020-07-08_16h15.45.661,proactive,2020.1.2,MacIntel,60,5f035e5afe130c270d6ae6dd,5f05e30d4925e40b942457e7,6,,,,,,ring,,,,,,0,49,49,17,1,2,0,,,,,,,,,,,,,,,,,,,,,,,,,,,,,,,,,,,,,,,,,,,,,,,,,,,,,,,,,,,,,,,,,,,,,,,,,,,
,,,,,,,,,,stimuli/images/PICTURE_504.png,BODY,5eb96457ed4e980484601bf7,29/11/2000,2020-07-08_16h15.45.661,proactive,2020.1.2,MacIntel,60,5f035e5afe130c270d6ae6dd,5f05e30d4925e40b942457e7,6,,,,,,wheel,,,,,,0,50,50,8,1,1,0,,,,,,,,,,,,,,,,,,,,,,,,,,,,,,,,,,,,,,,,,,,,,,,,,,,,,,,,,,,,,,,,,,,,,,,,,,,
,,,,,,,,,,stimuli/images/PICTURE_449.png,THING,5eb96457ed4e980484601bf7,29/11/2000,2020-07-08_16h15.45.661,proactive,2020.1.2,MacIntel,60,5f035e5afe130c270d6ae6dd,5f05e30d4925e40b942457e7,6,,,,,,bench,,,,,,0,51,51,59,1,6,0,,,,,,,,,,,,,,,,,,,,,,,,,,,,,,,,,,,,,,,,,,,,,,,,,,,,,,,,,,,,,,,,,,,,,,,,,,,
,,,,,,,,,,stimuli/images/PICTURE_233.png,WOMEN,5eb96457ed4e980484601bf7,29/11/2000,2020-07-08_16h15.45.661,proactive,2020.1.2,MacIntel,60,5f035e5afe130c270d6ae6dd,5f05e30d4925e40b942457e7,6,,,,,,salt,,,,,,0,52,52,38,1,4,0,,,,,,,,,,,,,,,,,,,,,,,,,,,,,,,,,,,,,,,,,,,,,,,,,,,,,,,,,,,,,,,,,,,,,,,,,,,
,,,,,,,,,,stimuli/images/PICTURE_285.png,ADVICE,5eb96457ed4e980484601bf7,29/11/2000,2020-07-08_16h15.45.661,proactive,2020.1.2,MacIntel,60,5f035e5afe130c270d6ae6dd,5f05e30d4925e40b942457e7,6,,,,,,carrot,,,,,,0,53,53,12,1,2,0,,,,,,,,,,,,,,,,,,,,,,,,,,,,,,,,,,,,,,,,,,,,,,,,,,,,,,,,,,,,,,,,,,,,,,,,,,,
,,,,,,,,,,stimuli/images/PICTURE_688.png,CASINO,5eb96457ed4e980484601bf7,29/11/2000,2020-07-08_16h15.45.661,proactive,2020.1.2,MacIntel,60,5f035e5afe130c270d6ae6dd,5f05e30d4925e40b942457e7,6,,,,,,runner,,,,,,0,54,54,2,1,1,0,,,,,,,,,,,,,,,,,,,,,,,,,,,,,,,,,,,,,,,,,,,,,,,,,,,,,,,,,,,,,,,,,,,,,,,,,,,
,,,,,,,,,,stimuli/images/PICTURE_215.png,PLENTY,5eb96457ed4e980484601bf7,29/11/2000,2020-07-08_16h15.45.661,proactive,2020.1.2,MacIntel,60,5f035e5afe130c270d6ae6dd,5f05e30d4925e40b942457e7,6,,,,,,boot,,,,,,0,55,55,37,1,4,0,,,,,,,,,,,,,,,,,,,,,,,,,,,,,,,,,,,,,,,,,,,,,,,,,,,,,,,,,,,,,,,,,,,,,,,,,,,
,,,,,,,,,,stimuli/images/PICTURE_348.png,SPEECH,5eb96457ed4e980484601bf7,29/11/2000,2020-07-08_16h15.45.661,proactive,2020.1.2,MacIntel,60,5f035e5afe130c270d6ae6dd,5f05e30d4925e40b942457e7,6,,,,,,pepper,,,,,,0,56,56,20,1,3,0,,,,,,,,,,,,,,,,,,,,,,,,,,,,,,,,,,,,,,,,,,,,,,,,,,,,,,,,,,,,,,,,,,,,,,,,,,,
,,,,,,,,,,stimuli/images/PICTURE_380.png,DEATH,5eb96457ed4e980484601bf7,29/11/2000,2020-07-08_16h15.45.661,proactive,2020.1.2,MacIntel,60,5f035e5afe130c270d6ae6dd,5f05e30d4925e40b942457e7,6,,,,,,gorilla,,,,,,0,57,57,49,1,5,0,,,,,,,,,,,,,,,,,,,,,,,,,,,,,,,,,,,,,,,,,,,,,,,,,,,,,,,,,,,,,,,,,,,,,,,,,,,
,,,,,,,,,,stimuli/images/PICTURE_675.png,WEAPON,5eb96457ed4e980484601bf7,29/11/2000,2020-07-08_16h15.45.661,proactive,2020.1.2,MacIntel,60,5f035e5afe130c270d6ae6dd,5f05e30d4925e40b942457e7,6,,,,,,windmill,,,,,,0,58,58,32,1,4,0,,,,,,,,,,,,,,,,,,,,,,,,,,,,,,,,,,,,,,,,,,,,,,,,,,,,,,,,,,,,,,,,,,,,,,,,,,,
,,?,0.000965,0,,,,,,stimuli/images/PICTURE_491.png,ROOF,5eb96457ed4e980484601bf7,29/11/2000,2020-07-08_16h15.45.661,proactive,2020.1.2,MacIntel,60,5f035e5afe130c270d6ae6dd,5f05e30d4925e40b942457e7,6,,,,,,rug,,,,,,,,,,,3,0,0,0,0,24,1,,,,,,,,,,,,,,,,,,,,,,,,,,,,,,,,,,,,,,,,,,,,,,,,,,,,,,,,,,,,,,,,,,,,,,
,,?,0.00074,0,,,,,,stimuli/images/PICTURE_308.png,ESTATE,5eb96457ed4e980484601bf7,29/11/2000,2020-07-08_16h15.45.661,proactive,2020.1.2,MacIntel,60,5f035e5afe130c270d6ae6dd,5f05e30d4925e40b942457e7,6,,,,,,dice,,,,,,,,,,,5,0,0,1,1,46,1,,,,,,,,,,,,,,,,,,,,,,,,,,,,,,,,,,,,,,,,,,,,,,,,,,,,,,,,,,,,,,,,,,,,,,
,,?,0.00061,0,,,,,,stimuli/images/PICTURE_348.png,SPEECH,5eb96457ed4e980484601bf7,29/11/2000,2020-07-08_16h15.45.661,proactive,2020.1.2,MacIntel,60,5f035e5afe130c270d6ae6dd,5f05e30d4925e40b942457e7,6,,,,,,pepper,,,,,,,,,,,3,0,0,2,2,20,1,,,,,,,,,,,,,,,,,,,,,,,,,,,,,,,,,,,,,,,,,,,,,,,,,,,,,,,,,,,,,,,,,,,,,,
,,?,0.00084,0,,,,,,stimuli/images/PICTURE_654.png,VALLEY,5eb96457ed4e980484601bf7,29/11/2000,2020-07-08_16h15.45.661,proactive,2020.1.2,MacIntel,60,5f035e5afe130c270d6ae6dd,5f05e30d4925e40b942457e7,6,,,,,,pencil,,,,,,,,,,,1,0,0,3,3,1,1,,,,,,,,,,,,,,,,,,,,,,,,,,,,,,,,,,,,,,,,,,,,,,,,,,,,,,,,,,,,,,,,,,,,,,
,,?,0.000755,0,,,,,,stimuli/images/PICTURE_504.png,BODY,5eb96457ed4e980484601bf7,29/11/2000,2020-07-08_16h15.45.661,proactive,2020.1.2,MacIntel,60,5f035e5afe130c270d6ae6dd,5f05e30d4925e40b942457e7,6,,,,,,wheel,,,,,,,,,,,1,0,0,4,4,8,1,,,,,,,,,,,,,,,,,,,,,,,,,,,,,,,,,,,,,,,,,,,,,,,,,,,,,,,,,,,,,,,,,,,,,,
,,?,0.00064,0,,,,,,stimuli/images/PICTURE_470.png,CASINO,5eb96457ed4e980484601bf7,29/11/2000,2020-07-08_16h15.45.661,proactive,2020.1.2,MacIntel,60,5f035e5afe130c270d6ae6dd,5f05e30d4925e40b942457e7,6,,,,,,motorbike,,,,,,,,,,,4,0,0,5,5,36,1,,,,,,,,,,,,,,,,,,,,,,,,,,,,,,,,,,,,,,,,,,,,,,,,,,,,,,,,,,,,,,,,,,,,,,
,,?,0.000665,0,,,,,,stimuli/images/PICTURE_744.png,SYSTEM,5eb96457ed4e980484601bf7,29/11/2000,2020-07-08_16h15.45.661,proactive,2020.1.2,MacIntel,60,5f035e5afe130c270d6ae6dd,5f05e30d4925e40b942457e7,6,,,,,,ring,,,,,,,,,,,5,0,0,6,6,43,1,,,,,,,,,,,,,,,,,,,,,,,,,,,,,,,,,,,,,,,,,,,,,,,,,,,,,,,,,,,,,,,,,,,,,,
,,ADVICE,4.14324,1,,,,,,stimuli/images/PICTURE_123.png,ADVICE,5eb96457ed4e980484601bf7,29/11/2000,2020-07-08_16h15.45.661,proactive,2020.1.2,MacIntel,60,5f035e5afe130c270d6ae6dd,5f05e30d4925e40b942457e7,6,,,,,,dart,,,,,,,,,,,6,0,0,7,7,50,1,,,,,,,,,,,,,,,,,,,,,,,,,,,,,,,,,,,,,,,,,,,,,,,,,,,,,,,,,,,,,,,,,,,,,,
,,THING,4.96652,1,,,,,,stimuli/images/PICTURE_449.png,THING,5eb96457ed4e980484601bf7,29/11/2000,2020-07-08_16h15.45.661,proactive,2020.1.2,MacIntel,60,5f035e5afe130c270d6ae6dd,5f05e30d4925e40b942457e7,6,,,,,,bench,,,,,,,,,,,6,0,0,8,8,59,1,,,,,,,,,,,,,,,,,,,,,,,,,,,,,,,,,,,,,,,,,,,,,,,,,,,,,,,,,,,,,,,,,,,,,,
,,?,0.00301,0,,,,,,stimuli/images/PICTURE_32.png,JUNGLE,5eb96457ed4e980484601bf7,29/11/2000,2020-07-08_16h15.45.661,proactive,2020.1.2,MacIntel,60,5f035e5afe130c270d6ae6dd,5f05e30d4925e40b942457e7,6,,,,,,crown,,,,,,,,,,,5,0,0,9,9,45,1,,,,,,,,,,,,,,,,,,,,,,,,,,,,,,,,,,,,,,,,,,,,,,,,,,,,,,,,,,,,,,,,,,,,,,
,,?,0.000835,0,,,,,,stimuli/images/PICTURE_744.png,SAKE,5eb96457ed4e980484601bf7,29/11/2000,2020-07-08_16h15.45.661,proactive,2020.1.2,MacIntel,60,5f035e5afe130c270d6ae6dd,5f05e30d4925e40b942457e7,6,,,,,,ring,,,,,,,,,,,2,0,0,10,10,17,1,,,,,,,,,,,,,,,,,,,,,,,,,,,,,,,,,,,,,,,,,,,,,,,,,,,,,,,,,,,,,,,,,,,,,,
,,?,0.00427,0,,,,,,stimuli/images/PICTURE_68.png,MILE,5eb96457ed4e980484601bf7,29/11/2000,2020-07-08_16h15.45.661,proactive,2020.1.2,MacIntel,60,5f035e5afe130c270d6ae6dd,5f05e30d4925e40b942457e7,6,,,,,,candle,,,,,,,,,,,5,0,0,11,11,44,1,,,,,,,,,,,,,,,,,,,,,,,,,,,,,,,,,,,,,,,,,,,,,,,,,,,,,,,,,,,,,,,,,,,,,,
,,?,0.000625,0,,,,,,stimuli/images/PICTURE_667.png,BATH,5eb96457ed4e980484601bf7,29/11/2000,2020-07-08_16h15.45.661,proactive,2020.1.2,MacIntel,60,5f035e5afe130c270d6ae6dd,5f05e30d4925e40b942457e7,6,,,,,,daisy,,,,,,,,,,,1,0,0,12,12,4,1,,,,,,,,,,,,,,,,,,,,,,,,,,,,,,,,,,,,,,,,,,,,,,,,,,,,,,,,,,,,,,,,,,,,,,
,,?,0.00061,0,,,,,,stimuli/images/PICTURE_675.png,WEAPON,5eb96457ed4e980484601bf7,29/11/2000,2020-07-08_16h15.45.661,proactive,2020.1.2,MacIntel,60,5f035e5afe130c270d6ae6dd,5f05e30d4925e40b942457e7,6,,,,,,windmill,,,,,,,,,,,4,0,0,13,13,32,1,,,,,,,,,,,,,,,,,,,,,,,,,,,,,,,,,,,,,,,,,,,,,,,,,,,,,,,,,,,,,,,,,,,,,,
,,?,0.00111,0,,,,,,stimuli/images/PICTURE_487.png,FLIGHT,5eb96457ed4e980484601bf7,29/11/2000,2020-07-08_16h15.45.661,proactive,2020.1.2,MacIntel,60,5f035e5afe130c270d6ae6dd,5f05e30d4925e40b942457e7,6,,,,,,basket,,,,,,,,,,,1,0,0,14,14,9,1,,,,,,,,,,,,,,,,,,,,,,,,,,,,,,,,,,,,,,,,,,,,,,,,,,,,,,,,,,,,,,,,,,,,,,
,,?,0.000565,0,,,,,,stimuli/images/PICTURE_95.png,STYLE,5eb96457ed4e980484601bf7,29/11/2000,2020-07-08_16h15.45.661,proactive,2020.1.2,MacIntel,60,5f035e5afe130c270d6ae6dd,5f05e30d4925e40b942457e7,6,,,,,,suitcase,,,,,,,,,,,3,0,0,15,15,25,1,,,,,,,,,,,,,,,,,,,,,,,,,,,,,,,,,,,,,,,,,,,,,,,,,,,,,,,,,,,,,,,,,,,,,,
,,NIC,2.565065,0,,,,,,stimuli/images/PICTURE_208.png,MONTH,5eb96457ed4e980484601bf7,29/11/2000,2020-07-08_16h15.45.661,proactive,2020.1.2,MacIntel,60,5f035e5afe130c270d6ae6dd,5f05e30d4925e40b942457e7,6,,,,,,microphone,,,,,,,,,,,6,0,0,16,16,53,1,,,,,,,,,,,,,,,,,,,,,,,,,,,,,,,,,,,,,,,,,,,,,,,,,,,,,,,,,,,,,,,,,,,,,,
,,KIND,3.63071,1,,,,,,stimuli/images/PICTURE_308.png,KIND,5eb96457ed4e980484601bf7,29/11/2000,2020-07-08_16h15.45.661,proactive,2020.1.2,MacIntel,60,5f035e5afe130c270d6ae6dd,5f05e30d4925e40b942457e7,6,,,,,,dice,,,,,,,,,,,6,0,0,17,17,54,1,,,,,,,,,,,,,,,,,,,,,,,,,,,,,,,,,,,,,,,,,,,,,,,,,,,,,,,,,,,,,,,,,,,,,,
,,FEET,3.66482,1,,,,,,stimuli/images/PICTURE_160.png,FEET,5eb96457ed4e980484601bf7,29/11/2000,2020-07-08_16h15.45.661,proactive,2020.1.2,MacIntel,60,5f035e5afe130c270d6ae6dd,5f05e30d4925e40b942457e7,6,,,,,,wheelbarrow,,,,,,,,,,,6,0,0,18,18,58,1,,,,,,,,,,,,,,,,,,,,,,,,,,,,,,,,,,,,,,,,,,,,,,,,,,,,,,,,,,,,,,,,,,,,,,
,,?,0.001595,0,,,,,,stimuli/images/PICTURE_509.png,PHOTO,5eb96457ed4e980484601bf7,29/11/2000,2020-07-08_16h15.45.661,proactive,2020.1.2,MacIntel,60,5f035e5afe130c270d6ae6dd,5f05e30d4925e40b942457e7,6,,,,,,telephone,,,,,,,,,,,3,0,0,19,19,21,1,,,,,,,,,,,,,,,,,,,,,,,,,,,,,,,,,,,,,,,,,,,,,,,,,,,,,,,,,,,,,,,,,,,,,,
,,?,0.00062,0,,,,,,stimuli/images/PICTURE_248.png,DOZEN,5eb96457ed4e980484601bf7,29/11/2000,2020-07-08_16h15.45.661,proactive,2020.1.2,MacIntel,60,5f035e5afe130c270d6ae6dd,5f05e30d4925e40b942457e7,6,,,,,,cart,,,,,,,,,,,4,0,0,20,20,39,1,,,,,,,,,,,,,,,,,,,,,,,,,,,,,,,,,,,,,,,,,,,,,,,,,,,,,,,,,,,,,,,,,,,,,,
,,?,0.00061,0,,,,,,stimuli/images/PICTURE_692.png,MONTH,5eb96457ed4e980484601bf7,29/11/2000,2020-07-08_16h15.45.661,proactive,2020.1.2,MacIntel,60,5f035e5afe130c270d6ae6dd,5f05e30d4925e40b942457e7,6,,,,,,cherry,,,,,,,,,,,2,0,0,21,21,16,1,,,,,,,,,,,,,,,,,,,,,,,,,,,,,,,,,,,,,,,,,,,,,,,,,,,,,,,,,,,,,,,,,,,,,,
,,DANGER,3.757785,1,,,,,,stimuli/images/PICTURE_356.png,DANGER,5eb96457ed4e980484601bf7,29/11/2000,2020-07-08_16h15.45.661,proactive,2020.1.2,MacIntel,60,5f035e5afe130c270d6ae6dd,5f05e30d4925e40b942457e7,6,,,,,,pawn,,,,,,,,,,,6,0,0,22,22,55,1,,,,,,,,,,,,,,,,,,,,,,,,,,,,,,,,,,,,,,,,,,,,,,,,,,,,,,,,,,,,,,,,,,,,,,
,,WRITER,5.06696,1,,,,,,stimuli/images/PICTURE_491.png,WRITER,5eb96457ed4e980484601bf7,29/11/2000,2020-07-08_16h15.45.661,proactive,2020.1.2,MacIntel,60,5f035e5afe130c270d6ae6dd,5f05e30d4925e40b942457e7,6,,,,,,rug,,,,,,,,,,,6,0,0,23,23,57,1,,,,,,,,,,,,,,,,,,,,,,,,,,,,,,,,,,,,,,,,,,,,,,,,,,,,,,,,,,,,,,,,,,,,,,
,,?,0.00263,0,,,,,,stimuli/images/PICTURE_708.png,PENNY,5eb96457ed4e980484601bf7,29/11/2000,2020-07-08_16h15.45.661,proactive,2020.1.2,MacIntel,60,5f035e5afe130c270d6ae6dd,5f05e30d4925e40b942457e7,6,,,,,,monkey,,,,,,,,,,,4,0,0,24,24,31,1,,,,,,,,,,,,,,,,,,,,,,,,,,,,,,,,,,,,,,,,,,,,,,,,,,,,,,,,,,,,,,,,,,,,,,
,,?,0.000625,0,,,,,,stimuli/images/PICTURE_233.png,WOMEN,5eb96457ed4e980484601bf7,29/11/2000,2020-07-08_16h15.45.661,proactive,2020.1.2,MacIntel,60,5f035e5afe130c270d6ae6dd,5f05e30d4925e40b942457e7,6,,,,,,salt,,,,,,,,,,,4,0,0,25,25,38,1,,,,,,,,,,,,,,,,,,,,,,,,,,,,,,,,,,,,,,,,,,,,,,,,,,,,,,,,,,,,,,,,,,,,,,
,,?,0.000695,0,,,,,,stimuli/images/PICTURE_160.png,LEADER,5eb96457ed4e980484601bf7,29/11/2000,2020-07-08_16h15.45.661,proactive,2020.1.2,MacIntel,60,5f035e5afe130c270d6ae6dd,5f05e30d4925e40b942457e7,6,,,,,,wheelbarrow,,,,,,,,,,,1,0,0,26,26,3,1,,,,,,,,,,,,,,,,,,,,,,,,,,,,,,,,,,,,,,,,,,,,,,,,,,,,,,,,,,,,,,,,,,,,,,
,,?,0.000705,0,,,,,,stimuli/images/PICTURE_453.png,DUDE,5eb96457ed4e980484601bf7,29/11/2000,2020-07-08_16h15.45.661,proactive,2020.1.2,MacIntel,60,5f035e5afe130c270d6ae6dd,5f05e30d4925e40b942457e7,6,,,,,,scissors,,,,,,,,,,,3,0,0,27,27,27,1,,,,,,,,,,,,,,,,,,,,,,,,,,,,,,,,,,,,,,,,,,,,,,,,,,,,,,,,,,,,,,,,,,,,,,
,,?,0.00075,0,,,,,,stimuli/images/PICTURE_302.png,FAMILY,5eb96457ed4e980484601bf7,29/11/2000,2020-07-08_16h15.45.661,proactive,2020.1.2,MacIntel,60,5f035e5afe130c270d6ae6dd,5f05e30d4925e40b942457e7,6,,,,,,taxi,,,,,,,,,,,2,0,0,28,28,18,1,,,,,,,,,,,,,,,,,,,,,,,,,,,,,,,,,,,,,,,,,,,,,,,,,,,,,,,,,,,,,,,,,,,,,,
,,?,0.000595,0,,,,,,stimuli/images/PICTURE_285.png,ADVICE,5eb96457ed4e980484601bf7,29/11/2000,2020-07-08_16h15.45.661,proactive,2020.1.2,MacIntel,60,5f035e5afe130c270d6ae6dd,5f05e30d4925e40b942457e7,6,,,,,,carrot,,,,,,,,,,,2,0,0,29,29,12,1,,,,,,,,,,,,,,,,,,,,,,,,,,,,,,,,,,,,,,,,,,,,,,,,,,,,,,,,,,,,,,,,,,,,,,
,,?,0.00198,0,,,,,,stimuli/images/PICTURE_311.png,BEAUTY,5eb96457ed4e980484601bf7,29/11/2000,2020-07-08_16h15.45.661,proactive,2020.1.2,MacIntel,60,5f035e5afe130c270d6ae6dd,5f05e30d4925e40b942457e7,6,,,,,,razor,,,,,,,,,,,2,0,0,30,30,13,1,,,,,,,,,,,,,,,,,,,,,,,,,,,,,,,,,,,,,,,,,,,,,,,,,,,,,,,,,,,,,,,,,,,,,,
,,?,0.00077,0,,,,,,stimuli/images/PICTURE_708.png,YARD,5eb96457ed4e980484601bf7,29/11/2000,2020-07-08_16h15.45.661,proactive,2020.1.2,MacIntel,60,5f035e5afe130c270d6ae6dd,5f05e30d4925e40b942457e7,6,,,,,,monkey,,,,,,,,,,,3,0,0,31,31,29,1,,,,,,,,,,,,,,,,,,,,,,,,,,,,,,,,,,,,,,,,,,,,,,,,,,,,,,,,,,,,,,,,,,,,,,
,,?,0.000685,0,,,,,,stimuli/images/PICTURE_380.png,DEATH,5eb96457ed4e980484601bf7,29/11/2000,2020-07-08_16h15.45.661,proactive,2020.1.2,MacIntel,60,5f035e5afe130c270d6ae6dd,5f05e30d4925e40b942457e7,6,,,,,,gorilla,,,,,,,,,,,5,0,0,32,32,49,1,,,,,,,,,,,,,,,,,,,,,,,,,,,,,,,,,,,,,,,,,,,,,,,,,,,,,,,,,,,,,,,,,,,,,,
,,PHOTO,4.862945,1,,,,,,stimuli/images/PICTURE_380.png,PHOTO,5eb96457ed4e980484601bf7,29/11/2000,2020-07-08_16h15.45.661,proactive,2020.1.2,MacIntel,60,5f035e5afe130c270d6ae6dd,5f05e30d4925e40b942457e7,6,,,,,,gorilla,,,,,,,,,,,6,0,0,33,33,52,1,,,,,,,,,,,,,,,,,,,,,,,,,,,,,,,,,,,,,,,,,,,,,,,,,,,,,,,,,,,,,,,,,,,,,,
,,?,0.00235,0,,,,,,stimuli/images/PICTURE_151.png,GIRL,5eb96457ed4e980484601bf7,29/11/2000,2020-07-08_16h15.45.661,proactive,2020.1.2,MacIntel,60,5f035e5afe130c270d6ae6dd,5f05e30d4925e40b942457e7,6,,,,,,tray,,,,,,,,,,,2,0,0,34,34,19,1,,,,,,,,,,,,,,,,,,,,,,,,,,,,,,,,,,,,,,,,,,,,,,,,,,,,,,,,,,,,,,,,,,,,,,
,,?,0.000615,0,,,,,,stimuli/images/PICTURE_327.png,BEAUTY,5eb96457ed4e980484601bf7,29/11/2000,2020-07-08_16h15.45.661,proactive,2020.1.2,MacIntel,60,5f035e5afe130c270d6ae6dd,5f05e30d4925e40b942457e7,6,,,,,,helmet,,,,,,,,,,,5,0,0,35,35,48,1,,,,,,,,,,,,,,,,,,,,,,,,,,,,,,,,,,,,,,,,,,,,,,,,,,,,,,,,,,,,,,,,,,,,,,
,,?,0.000605,0,,,,,,stimuli/images/PICTURE_233.png,IDEAS,5eb96457ed4e980484601bf7,29/11/2000,2020-07-08_16h15.45.661,proactive,2020.1.2,MacIntel,60,5f035e5afe130c270d6ae6dd,5f05e30d4925e40b942457e7,6,,,,,,salt,,,,,,,,,,,3,0,0,36,36,28,1,,,,,,,,,,,,,,,,,,,,,,,,,,,,,,,,,,,,,,,,,,,,,,,,,,,,,,,,,,,,,,,,,,,,,,
,,?,0.000675,0,,,,,,stimuli/images/PICTURE_708.png,CLIENT,5eb96457ed4e980484601bf7,29/11/2000,2020-07-08_16h15.45.661,proactive,2020.1.2,MacIntel,60,5f035e5afe130c270d6ae6dd,5f05e30d4925e40b942457e7,6,,,,,,monkey,,,,,,,,,,,1,0,0,37,37,5,1,,,,,,,,,,,,,,,,,,,,,,,,,,,,,,,,,,,,,,,,,,,,,,,,,,,,,,,,,,,,,,,,,,,,,,
,,?,0.000655,0,,,,,,stimuli/images/PICTURE_467.png,DEMON,5eb96457ed4e980484601bf7,29/11/2000,2020-07-08_16h15.45.661,proactive,2020.1.2,MacIntel,60,5f035e5afe130c270d6ae6dd,5f05e30d4925e40b942457e7,6,,,,,,peg,,,,,,,,,,,3,0,0,38,38,23,1,,,,,,,,,,,,,,,,,,,,,,,,,,,,,,,,,,,,,,,,,,,,,,,,,,,,,,,,,,,,,,,,,,,,,,
,,?,0.00058,0,,,,,,stimuli/images/PICTURE_314.png,SAKE,5eb96457ed4e980484601bf7,29/11/2000,2020-07-08_16h15.45.661,proactive,2020.1.2,MacIntel,60,5f035e5afe130c270d6ae6dd,5f05e30d4925e40b942457e7,6,,,,,,perfume,,,,,,,,,,,1,0,0,39,39,7,1,,,,,,,,,,,,,,,,,,,,,,,,,,,,,,,,,,,,,,,,,,,,,,,,,,,,,,,,,,,,,,,,,,,,,,
,,?,0.000595,0,,,,,,stimuli/images/PICTURE_255.png,AREA,5eb96457ed4e980484601bf7,29/11/2000,2020-07-08_16h15.45.661,proactive,2020.1.2,MacIntel,60,5f035e5afe130c270d6ae6dd,5f05e30d4925e40b942457e7,6,,,,,,shovel,,,,,,,,,,,3,0,0,40,40,22,1,,,,,,,,,,,,,,,,,,,,,,,,,,,,,,,,,,,,,,,,,,,,,,,,,,,,,,,,,,,,,,,,,,,,,,
,,?,0.000715,0,,,,,,stimuli/images/PICTURE_208.png,LOTS,5eb96457ed4e980484601bf7,29/11/2000,2020-07-08_16h15.45.661,proactive,2020.1.2,MacIntel,60,5f035e5afe130c270d6ae6dd,5f05e30d4925e40b942457e7,6,,,,,,microphone,,,,,,,,,,,2,0,0,41,41,10,1,,,,,,,,,,,,,,,,,,,,,,,,,,,,,,,,,,,,,,,,,,,,,,,,,,,,,,,,,,,,,,,,,,,,,,
,,?,0.00071,0,,,,,,stimuli/images/PICTURE_688.png,WOMEN,5eb96457ed4e980484601bf7,29/11/2000,2020-07-08_16h15.45.661,proactive,2020.1.2,MacIntel,60,5f035e5afe130c270d6ae6dd,5f05e30d4925e40b942457e7,6,,,,,,runner,,,,,,,,,,,2,0,0,42,42,14,1,,,,,,,,,,,,,,,,,,,,,,,,,,,,,,,,,,,,,,,,,,,,,,,,,,,,,,,,,,,,,,,,,,,,,,
,,?,0.000665,0,,,,,,stimuli/images/PICTURE_215.png,PLENTY,5eb96457ed4e980484601bf7,29/11/2000,2020-07-08_16h15.45.661,proactive,2020.1.2,MacIntel,60,5f035e5afe130c270d6ae6dd,5f05e30d4925e40b942457e7,6,,,,,,boot,,,,,,,,,,,4,0,0,43,43,37,1,,,,,,,,,,,,,,,,,,,,,,,,,,,,,,,,,,,,,,,,,,,,,,,,,,,,,,,,,,,,,,,,,,,,,,
,,?,0.000695,0,,,,,,stimuli/images/PICTURE_177.png,CARS,5eb96457ed4e980484601bf7,29/11/2000,2020-07-08_16h15.45.661,proactive,2020.1.2,MacIntel,60,5f035e5afe130c270d6ae6dd,5f05e30d4925e40b942457e7,6,,,,,,mushroom,,,,,,,,,,,4,0,0,44,44,35,1,,,,,,,,,,,,,,,,,,,,,,,,,,,,,,,,,,,,,,,,,,,,,,,,,,,,,,,,,,,,,,,,,,,,,,
,,PLENTY,5.310975,1,,,,,,stimuli/images/PICTURE_453.png,PLENTY,5eb96457ed4e980484601bf7,29/11/2000,2020-07-08_16h15.45.661,proactive,2020.1.2,MacIntel,60,5f035e5afe130c270d6ae6dd,5f05e30d4925e40b942457e7,6,,,,,,scissors,,,,,,,,,,,6,0,0,45,45,56,1,,,,,,,,,,,,,,,,,,,,,,,,,,,,,,,,,,,,,,,,,,,,,,,,,,,,,,,,,,,,,,,,,,,,,,
,,MOMENT,4.849815,1,,,,,,stimuli/images/PICTURE_147.png,MOMENT,5eb96457ed4e980484601bf7,29/11/2000,2020-07-08_16h15.45.661,proactive,2020.1.2,MacIntel,60,5f035e5afe130c270d6ae6dd,5f05e30d4925e40b942457e7,6,,,,,,hanger,,,,,,,,,,,6,0,0,46,46,51,1,,,,,,,,,,,,,,,,,,,,,,,,,,,,,,,,,,,,,,,,,,,,,,,,,,,,,,,,,,,,,,,,,,,,,,
,,?,0.00247,0,,,,,,stimuli/images/PICTURE_85.png,THING,5eb96457ed4e980484601bf7,29/11/2000,2020-07-08_16h15.45.661,proactive,2020.1.2,MacIntel,60,5f035e5afe130c270d6ae6dd,5f05e30d4925e40b942457e7,6,,,,,,diamond,,,,,,,,,,,2,0,0,47,47,15,1,,,,,,,,,,,,,,,,,,,,,,,,,,,,,,,,,,,,,,,,,,,,,,,,,,,,,,,,,,,,,,,,,,,,,,
,,?,0.000595,0,,,,,,stimuli/images/PICTURE_123.png,ADVICE,5eb96457ed4e980484601bf7,29/11/2000,2020-07-08_16h15.45.661,proactive,2020.1.2,MacIntel,60,5f035e5afe130c270d6ae6dd,5f05e30d4925e40b942457e7,6,,,,,,dart,,,,,,,,,,,5,0,0,48,48,40,1,,,,,,,,,,,,,,,,,,,,,,,,,,,,,,,,,,,,,,,,,,,,,,,,,,,,,,,,,,,,,,,,,,,,,,
,,?,0.0006,0,,,,,,stimuli/images/PICTURE_208.png,THING,5eb96457ed4e980484601bf7,29/11/2000,2020-07-08_16h15.45.661,proactive,2020.1.2,MacIntel,60,5f035e5afe130c270d6ae6dd,5f05e30d4925e40b942457e7,6,,,,,,microphone,,,,,,,,,,,5,0,0,49,49,47,1,,,,,,,,,,,,,,,,,,,,,,,,,,,,,,,,,,,,,,,,,,,,,,,,,,,,,,,,,,,,,,,,,,,,,,
,,?,0.0006,0,,,,,,stimuli/images/PICTURE_203.png,ARTIST,5eb96457ed4e980484601bf7,29/11/2000,2020-07-08_16h15.45.661,proactive,2020.1.2,MacIntel,60,5f035e5afe130c270d6ae6dd,5f05e30d4925e40b942457e7,6,,,,,,cap,,,,,,,,,,,3,0,0,50,50,26,1,,,,,,,,,,,,,,,,,,,,,,,,,,,,,,,,,,,,,,,,,,,,,,,,,,,,,,,,,,,,,,,,,,,,,,
,,?,0.00057,0,,,,,,stimuli/images/PICTURE_488.png,STYLE,5eb96457ed4e980484601bf7,29/11/2000,2020-07-08_16h15.45.661,proactive,2020.1.2,MacIntel,60,5f035e5afe130c270d6ae6dd,5f05e30d4925e40b942457e7,6,,,,,,sun,,,,,,,,,,,4,0,0,51,51,33,1,,,,,,,,,,,,,,,,,,,,,,,,,,,,,,,,,,,,,,,,,,,,,,,,,,,,,,,,,,,,,,,,,,,,,,
,,?,0.00056,0,,,,,,stimuli/images/PICTURE_311.png,FRIEND,5eb96457ed4e980484601bf7,29/11/2000,2020-07-08_16h15.45.661,proactive,2020.1.2,MacIntel,60,5f035e5afe130c270d6ae6dd,5f05e30d4925e40b942457e7,6,,,,,,razor,,,,,,,,,,,4,0,0,52,52,34,1,,,,,,,,,,,,,,,,,,,,,,,,,,,,,,,,,,,,,,,,,,,,,,,,,,,,,,,,,,,,,,,,,,,,,,
,,?,0.000555,0,,,,,,stimuli/images/PICTURE_469.png,ARTIST,5eb96457ed4e980484601bf7,29/11/2000,2020-07-08_16h15.45.661,proactive,2020.1.2,MacIntel,60,5f035e5afe130c270d6ae6dd,5f05e30d4925e40b942457e7,6,,,,,,stool,,,,,,,,,,,1,0,0,53,53,6,1,,,,,,,,,,,,,,,,,,,,,,,,,,,,,,,,,,,,,,,,,,,,,,,,,,,,,,,,,,,,,,,,,,,,,,
,,?,0.00163,0,,,,,,stimuli/images/PICTURE_469.png,LETTER,5eb96457ed4e980484601bf7,29/11/2000,2020-07-08_16h15.45.661,proactive,2020.1.2,MacIntel,60,5f035e5afe130c270d6ae6dd,5f05e30d4925e40b942457e7,6,,,,,,stool,,,,,,,,,,,5,0,0,54,54,42,1,,,,,,,,,,,,,,,,,,,,,,,,,,,,,,,,,,,,,,,,,,,,,,,,,,,,,,,,,,,,,,,,,,,,,,
,,?,0.0007,0,,,,,,stimuli/images/PICTURE_688.png,CASINO,5eb96457ed4e980484601bf7,29/11/2000,2020-07-08_16h15.45.661,proactive,2020.1.2,MacIntel,60,5f035e5afe130c270d6ae6dd,5f05e30d4925e40b942457e7,6,,,,,,runner,,,,,,,,,,,1,0,0,55,55,2,1,,,,,,,,,,,,,,,,,,,,,,,,,,,,,,,,,,,,,,,,,,,,,,,,,,,,,,,,,,,,,,,,,,,,,,
,,?,0.000685,0,,,,,,stimuli/images/PICTURE_667.png,PLENTY,5eb96457ed4e980484601bf7,29/11/2000,2020-07-08_16h15.45.661,proactive,2020.1.2,MacIntel,60,5f035e5afe130c270d6ae6dd,5f05e30d4925e40b942457e7,6,,,,,,daisy,,,,,,,,,,,5,0,0,56,56,41,1,,,,,,,,,,,,,,,,,,,,,,,,,,,,,,,,,,,,,,,,,,,,,,,,,,,,,,,,,,,,,,,,,,,,,,
,,?,0.000685,0,,,,,,stimuli/images/PICTURE_339.png,PLENTY,5eb96457ed4e980484601bf7,29/11/2000,2020-07-08_16h15.45.661,proactive,2020.1.2,MacIntel,60,5f035e5afe130c270d6ae6dd,5f05e30d4925e40b942457e7,6,,,,,,backpack,,,,,,,,,,,1,0,0,57,57,0,1,,,,,,,,,,,,,,,,,,,,,,,,,,,,,,,,,,,,,,,,,,,,,,,,,,,,,,,,,,,,,,,,,,,,,,
,,?,0.00071,0,,,,,,stimuli/images/PICTURE_677.png,MILE,5eb96457ed4e980484601bf7,29/11/2000,2020-07-08_16h15.45.661,proactive,2020.1.2,MacIntel,60,5f035e5afe130c270d6ae6dd,5f05e30d4925e40b942457e7,6,,,,,,map,,,,,,,,,,,4,0,0,58,58,30,1,,,,,,,,,,,,,,,,,,,,,,,,,,,,,,,,,,,,,,,,,,,,,,,,,,,,,,,,,,,,,,,,,,,,,,
,,?,0.00071,0,,,,,,stimuli/images/PICTURE_314.png,GODS,5eb96457ed4e980484601bf7,29/11/2000,2020-07-08_16h15.45.661,proactive,2020.1.2,MacIntel,60,5f035e5afe130c270d6ae6dd,5f05e30d4925e40b942457e7,6,,,,,,perfume,,,,,,,,,,,2,0,0,59,59,11,1,,,,,,,,,,,,,,,,,,,,,,,,,,,,,,,,,,,,,,,,,,,,,,,,,,,,,,,,,,,,,,,,,,,,,,
,,,,,,,,,,,,5eb96457ed4e980484601bf7,29/11/2000,2020-07-08_16h15.45.661,proactive,2020.1.2,MacIntel,60,5f035e5afe130c270d6ae6dd,5f05e30d4925e40b942457e7,6,,,,,,,,,,,,,,,,,,,,,,,,0,0,0,0,1,stimuli/learn-block1.csv,,,,,,,,,,,,,,,,,,,,,,,,,,,,,,,,,,,,,,,,,,,,,,,,,,,,,,,,,,,,,,,,
,,,,,,,,,,stimuli/images/PICTURE_2.png,FLIGHT,5eb96457ed4e980484601bf7,29/11/2000,2020-07-08_16h15.45.661,proactive,2020.1.2,MacIntel,60,5f035e5afe130c270d6ae6dd,5f05e30d4925e40b942457e7,6,,,,,,tyre,,,,,,0,0,0,15,1,2,1,,,,,,,,,,,,,,,,,,,,,,,,,,,,,,,,,,,,,,,,,,,,,,,,,,,,,,,,,,,,,,,,,,,,,,,,,,,
,,,,,,,,,,stimuli/images/PICTURE_95.png,HONEY,5eb96457ed4e980484601bf7,29/11/2000,2020-07-08_16h15.45.661,proactive,2020.1.2,MacIntel,60,5f035e5afe130c270d6ae6dd,5f05e30d4925e40b942457e7,6,,,,,,suitcase,,,,,,0,1,1,44,1,5,1,,,,,,,,,,,,,,,,,,,,,,,,,,,,,,,,,,,,,,,,,,,,,,,,,,,,,,,,,,,,,,,,,,,,,,,,,,,
,,,,,,,,,,stimuli/images/PICTURE_327.png,CASINO,5eb96457ed4e980484601bf7,29/11/2000,2020-07-08_16h15.45.661,proactive,2020.1.2,MacIntel,60,5f035e5afe130c270d6ae6dd,5f05e30d4925e40b942457e7,6,,,,,,helmet,,,,,,0,2,2,20,1,3,1,,,,,,,,,,,,,,,,,,,,,,,,,,,,,,,,,,,,,,,,,,,,,,,,,,,,,,,,,,,,,,,,,,,,,,,,,,,
,,,,,,,,,,stimuli/images/PICTURE_564.png,BATH,5eb96457ed4e980484601bf7,29/11/2000,2020-07-08_16h15.45.661,proactive,2020.1.2,MacIntel,60,5f035e5afe130c270d6ae6dd,5f05e30d4925e40b942457e7,6,,,,,,spoon,,,,,,0,3,3,26,1,3,1,,,,,,,,,,,,,,,,,,,,,,,,,,,,,,,,,,,,,,,,,,,,,,,,,,,,,,,,,,,,,,,,,,,,,,,,,,,
,,,,,,,,,,stimuli/images/PICTURE_339.png,CLIENT,5eb96457ed4e980484601bf7,29/11/2000,2020-07-08_16h15.45.661,proactive,2020.1.2,MacIntel,60,5f035e5afe130c270d6ae6dd,5f05e30d4925e40b942457e7,6,,,,,,backpack,,,,,,0,4,4,11,1,2,1,,,,,,,,,,,,,,,,,,,,,,,,,,,,,,,,,,,,,,,,,,,,,,,,,,,,,,,,,,,,,,,,,,,,,,,,,,,
,,,,,,,,,,stimuli/images/PICTURE_177.png,WRITER,5eb96457ed4e980484601bf7,29/11/2000,2020-07-08_16h15.45.661,proactive,2020.1.2,MacIntel,60,5f035e5afe130c270d6ae6dd,5f05e30d4925e40b942457e7,6,,,,,,mushroom,,,,,,0,5,5,41,1,5,1,,,,,,,,,,,,,,,,,,,,,,,,,,,,,,,,,,,,,,,,,,,,,,,,,,,,,,,,,,,,,,,,,,,,,,,,,,,
,,,,,,,,,,stimuli/images/PICTURE_449.png,DUDE,5eb96457ed4e980484601bf7,29/11/2000,2020-07-08_16h15.45.661,proactive,2020.1.2,MacIntel,60,5f035e5afe130c270d6ae6dd,5f05e30d4925e40b942457e7,6,,,,,,bench,,,,,,0,6,6,17,1,2,1,,,,,,,,,,,,,,,,,,,,,,,,,,,,,,,,,,,,,,,,,,,,,,,,,,,,,,,,,,,,,,,,,,,,,,,,,,,
,,,,,,,,,,stimuli/images/PICTURE_203.png,GODS,5eb96457ed4e980484601bf7,29/11/2000,2020-07-08_16h15.45.661,proactive,2020.1.2,MacIntel,60,5f035e5afe130c270d6ae6dd,5f05e30d4925e40b942457e7,6,,,,,,cap,,,,,,0,7,7,30,1,4,1,,,,,,,,,,,,,,,,,,,,,,,,,,,,,,,,,,,,,,,,,,,,,,,,,,,,,,,,,,,,,,,,,,,,,,,,,,,
,,,,,,,,,,stimuli/images/PICTURE_469.png,AGENT,5eb96457ed4e980484601bf7,29/11/2000,2020-07-08_16h15.45.661,proactive,2020.1.2,MacIntel,60,5f035e5afe130c270d6ae6dd,5f05e30d4925e40b942457e7,6,,,,,,stool,,,,,,0,8,8,16,1,2,1,,,,,,,,,,,,,,,,,,,,,,,,,,,,,,,,,,,,,,,,,,,,,,,,,,,,,,,,,,,,,,,,,,,,,,,,,,,
,,,,,,,,,,stimuli/images/PICTURE_675.png,SALE,5eb96457ed4e980484601bf7,29/11/2000,2020-07-08_16h15.45.661,proactive,2020.1.2,MacIntel,60,5f035e5afe130c270d6ae6dd,5f05e30d4925e40b942457e7,6,,,,,,windmill,,,,,,0,9,9,47,1,5,1,,,,,,,,,,,,,,,,,,,,,,,,,,,,,,,,,,,,,,,,,,,,,,,,,,,,,,,,,,,,,,,,,,,,,,,,,,,
,,,,,,,,,,stimuli/images/PICTURE_487.png,GIRL,5eb96457ed4e980484601bf7,29/11/2000,2020-07-08_16h15.45.661,proactive,2020.1.2,MacIntel,60,5f035e5afe130c270d6ae6dd,5f05e30d4925e40b942457e7,6,,,,,,basket,,,,,,0,10,10,45,1,5,1,,,,,,,,,,,,,,,,,,,,,,,,,,,,,,,,,,,,,,,,,,,,,,,,,,,,,,,,,,,,,,,,,,,,,,,,,,,
,,,,,,,,,,stimuli/images/PICTURE_108.png,POLICY,5eb96457ed4e980484601bf7,29/11/2000,2020-07-08_16h15.45.661,proactive,2020.1.2,MacIntel,60,5f035e5afe130c270d6ae6dd,5f05e30d4925e40b942457e7,6,,,,,,calendar,,,,,,0,11,11,22,1,3,1,,,,,,,,,,,,,,,,,,,,,,,,,,,,,,,,,,,,,,,,,,,,,,,,,,,,,,,,,,,,,,,,,,,,,,,,,,,
,,,,,,,,,,stimuli/images/PICTURE_57.png,MOMENT,5eb96457ed4e980484601bf7,29/11/2000,2020-07-08_16h15.45.661,proactive,2020.1.2,MacIntel,60,5f035e5afe130c270d6ae6dd,5f05e30d4925e40b942457e7,6,,,,,,stamp,,,,,,0,12,12,37,1,4,1,,,,,,,,,,,,,,,,,,,,,,,,,,,,,,,,,,,,,,,,,,,,,,,,,,,,,,,,,,,,,,,,,,,,,,,,,,,
,,,,,,,,,,stimuli/images/PICTURE_383.png,SERIES,5eb96457ed4e980484601bf7,29/11/2000,2020-07-08_16h15.45.661,proactive,2020.1.2,MacIntel,60,5f035e5afe130c270d6ae6dd,5f05e30d4925e40b942457e7,6,,,,,,coin,,,,,,0,13,13,46,1,5,1,,,,,,,,,,,,,,,,,,,,,,,,,,,,,,,,,,,,,,,,,,,,,,,,,,,,,,,,,,,,,,,,,,,,,,,,,,,
,,,,,,,,,,stimuli/images/PICTURE_340.png,LETTER,5eb96457ed4e980484601bf7,29/11/2000,2020-07-08_16h15.45.661,proactive,2020.1.2,MacIntel,60,5f035e5afe130c270d6ae6dd,5f05e30d4925e40b942457e7,6,,,,,,mirror,,,,,,0,14,14,24,1,3,1,,,,,,,,,,,,,,,,,,,,,,,,,,,,,,,,,,,,,,,,,,,,,,,,,,,,,,,,,,,,,,,,,,,,,,,,,,,
,,,,,,,,,,stimuli/images/PICTURE_491.png,RIVER,5eb96457ed4e980484601bf7,29/11/2000,2020-07-08_16h15.45.661,proactive,2020.1.2,MacIntel,60,5f035e5afe130c270d6ae6dd,5f05e30d4925e40b942457e7,6,,,,,,rug,,,,,,0,15,15,6,1,1,1,,,,,,,,,,,,,,,,,,,,,,,,,,,,,,,,,,,,,,,,,,,,,,,,,,,,,,,,,,,,,,,,,,,,,,,,,,,
,,,,,,,,,,stimuli/images/PICTURE_68.png,ROOF,5eb96457ed4e980484601bf7,29/11/2000,2020-07-08_16h15.45.661,proactive,2020.1.2,MacIntel,60,5f035e5afe130c270d6ae6dd,5f05e30d4925e40b942457e7,6,,,,,,candle,,,,,,0,16,16,38,1,4,1,,,,,,,,,,,,,,,,,,,,,,,,,,,,,,,,,,,,,,,,,,,,,,,,,,,,,,,,,,,,,,,,,,,,,,,,,,,
,,,,,,,,,,stimuli/images/PICTURE_147.png,WOMEN,5eb96457ed4e980484601bf7,29/11/2000,2020-07-08_16h15.45.661,proactive,2020.1.2,MacIntel,60,5f035e5afe130c270d6ae6dd,5f05e30d4925e40b942457e7,6,,,,,,hanger,,,,,,0,17,17,7,1,1,1,,,,,,,,,,,,,,,,,,,,,,,,,,,,,,,,,,,,,,,,,,,,,,,,,,,,,,,,,,,,,,,,,,,,,,,,,,,
,,,,,,,,,,stimuli/images/PICTURE_491.png,GLASS,5eb96457ed4e980484601bf7,29/11/2000,2020-07-08_16h15.45.661,proactive,2020.1.2,MacIntel,60,5f035e5afe130c270d6ae6dd,5f05e30d4925e40b942457e7,6,,,,,,rug,,,,,,0,18,18,14,1,2,1,,,,,,,,,,,,,,,,,,,,,,,,,,,,,,,,,,,,,,,,,,,,,,,,,,,,,,,,,,,,,,,,,,,,,,,,,,,
,,,,,,,,,,stimuli/images/PICTURE_203.png,NIGHT,5eb96457ed4e980484601bf7,29/11/2000,2020-07-08_16h15.45.661,proactive,2020.1.2,MacIntel,60,5f035e5afe130c270d6ae6dd,5f05e30d4925e40b942457e7,6,,,,,,cap,,,,,,0,19,19,2,1,1,1,,,,,,,,,,,,,,,,,,,,,,,,,,,,,,,,,,,,,,,,,,,,,,,,,,,,,,,,,,,,,,,,,,,,,,,,,,,
,,,,,,,,,,stimuli/images/PICTURE_147.png,YEAR,5eb96457ed4e980484601bf7,29/11/2000,2020-07-08_16h15.45.661,proactive,2020.1.2,MacIntel,60,5f035e5afe130c270d6ae6dd,5f05e30d4925e40b942457e7,6,,,,,,hanger,,,,,,0,20,20,21,1,3,1,,,,,,,,,,,,,,,,,,,,,,,,,,,,,,,,,,,,,,,,,,,,,,,,,,,,,,,,,,,,,,,,,,,,,,,,,,,
,,,,,,,,,,stimuli/images/PICTURE_655.png,TOILET,5eb96457ed4e980484601bf7,29/11/2000,2020-07-08_16h15.45.661,proactive,2020.1.2,MacIntel,60,5f035e5afe130c270d6ae6dd,5f05e30d4925e40b942457e7,6,,,,,,megaphone,,,,,,0,21,21,12,1,2,1,,,,,,,,,,,,,,,,,,,,,,,,,,,,,,,,,,,,,,,,,,,,,,,,,,,,,,,,,,,,,,,,,,,,,,,,,,,
,,,,,,,,,,stimuli/images/PICTURE_744.png,WEAPON,5eb96457ed4e980484601bf7,29/11/2000,2020-07-08_16h15.45.661,proactive,2020.1.2,MacIntel,60,5f035e5afe130c270d6ae6dd,5f05e30d4925e40b942457e7,6,,,,,,ring,,,,,,0,22,22,50,1,6,1,,,,,,,,,,,,,,,,,,,,,,,,,,,,,,,,,,,,,,,,,,,,,,,,,,,,,,,,,,,,,,,,,,,,,,,,,,,
,,,,,,,,,,stimuli/images/PICTURE_85.png,NATION,5eb96457ed4e980484601bf7,29/11/2000,2020-07-08_16h15.45.661,proactive,2020.1.2,MacIntel,60,5f035e5afe130c270d6ae6dd,5f05e30d4925e40b942457e7,6,,,,,,diamond,,,,,,0,23,23,5,1,1,1,,,,,,,,,,,,,,,,,,,,,,,,,,,,,,,,,,,,,,,,,,,,,,,,,,,,,,,,,,,,,,,,,,,,,,,,,,,
,,,,,,,,,,stimuli/images/PICTURE_504.png,ARTIST,5eb96457ed4e980484601bf7,29/11/2000,2020-07-08_16h15.45.661,proactive,2020.1.2,MacIntel,60,5f035e5afe130c270d6ae6dd,5f05e30d4925e40b942457e7,6,,,,,,wheel,,,,,,0,24,24,49,1,5,1,,,,,,,,,,,,,,,,,,,,,,,,,,,,,,,,,,,,,,,,,,,,,,,,,,,,,,,,,,,,,,,,,,,,,,,,,,,
,,,,,,,,,,stimuli/images/PICTURE_667.png,RIVER,5eb96457ed4e980484601bf7,29/11/2000,2020-07-08_16h15.45.661,proactive,2020.1.2,MacIntel,60,5f035e5afe130c270d6ae6dd,5f05e30d4925e40b942457e7,6,,,,,,daisy,,,,,,0,25,25,10,1,2,1,,,,,,,,,,,,,,,,,,,,,,,,,,,,,,,,,,,,,,,,,,,,,,,,,,,,,,,,,,,,,,,,,,,,,,,,,,,
,,,,,,,,,,stimuli/images/PICTURE_296.png,LIFE,5eb96457ed4e980484601bf7,29/11/2000,2020-07-08_16h15.45.661,proactive,2020.1.2,MacIntel,60,5f035e5afe130c270d6ae6dd,5f05e30d4925e40b942457e7,6,,,,,,bolt,,,,,,0,26,26,57,1,6,1,,,,,,,,,,,,,,,,,,,,,,,,,,,,,,,,,,,,,,,,,,,,,,,,,,,,,,,,,,,,,,,,,,,,,,,,,,,
,,,,,,,,,,stimuli/images/PICTURE_42.png,BOYS,5eb96457ed4e980484601bf7,29/11/2000,2020-07-08_16h15.45.661,proactive,2020.1.2,MacIntel,60,5f035e5afe130c270d6ae6dd,5f05e30d4925e40b942457e7,6,,,,,,pear,,,,,,0,27,27,55,1,6,1,,,,,,,,,,,,,,,,,,,,,,,,,,,,,,,,,,,,,,,,,,,,,,,,,,,,,,,,,,,,,,,,,,,,,,,,,,,
,,,,,,,,,,stimuli/images/PICTURE_467.png,POLICY,5eb96457ed4e980484601bf7,29/11/2000,2020-07-08_16h15.45.661,proactive,2020.1.2,MacIntel,60,5f035e5afe130c270d6ae6dd,5f05e30d4925e40b942457e7,6,,,,,,peg,,,,,,0,28,28,53,1,6,1,,,,,,,,,,,,,,,,,,,,,,,,,,,,,,,,,,,,,,,,,,,,,,,,,,,,,,,,,,,,,,,,,,,,,,,,,,,
,,,,,,,,,,stimuli/images/PICTURE_297.png,RIVER,5eb96457ed4e980484601bf7,29/11/2000,2020-07-08_16h15.45.661,proactive,2020.1.2,MacIntel,60,5f035e5afe130c270d6ae6dd,5f05e30d4925e40b942457e7,6,,,,,,aeroplane,,,,,,0,29,29,39,1,4,1,,,,,,,,,,,,,,,,,,,,,,,,,,,,,,,,,,,,,,,,,,,,,,,,,,,,,,,,,,,,,,,,,,,,,,,,,,,
,,,,,,,,,,stimuli/images/PICTURE_403.png,RIVER,5eb96457ed4e980484601bf7,29/11/2000,2020-07-08_16h15.45.661,proactive,2020.1.2,MacIntel,60,5f035e5afe130c270d6ae6dd,5f05e30d4925e40b942457e7,6,,,,,,cathedral,,,,,,0,30,30,40,1,5,1,,,,,,,,,,,,,,,,,,,,,,,,,,,,,,,,,,,,,,,,,,,,,,,,,,,,,,,,,,,,,,,,,,,,,,,,,,,
,,,,,,,,,,stimuli/images/PICTURE_654.png,MONTH,5eb96457ed4e980484601bf7,29/11/2000,2020-07-08_16h15.45.661,proactive,2020.1.2,MacIntel,60,5f035e5afe130c270d6ae6dd,5f05e30d4925e40b942457e7,6,,,,,,pencil,,,,,,0,31,31,29,1,3,1,,,,,,,,,,,,,,,,,,,,,,,,,,,,,,,,,,,,,,,,,,,,,,,,,,,,,,,,,,,,,,,,,,,,,,,,,,,
,,,,,,,,,,stimuli/images/PICTURE_340.png,VALLEY,5eb96457ed4e980484601bf7,29/11/2000,2020-07-08_16h15.45.661,proactive,2020.1.2,MacIntel,60,5f035e5afe130c270d6ae6dd,5f05e30d4925e40b942457e7,6,,,,,,mirror,,,,,,0,32,32,54,1,6,1,,,,,,,,,,,,,,,,,,,,,,,,,,,,,,,,,,,,,,,,,,,,,,,,,,,,,,,,,,,,,,,,,,,,,,,,,,,
,,,,,,,,,,stimuli/images/PICTURE_95.png,MILLER,5eb96457ed4e980484601bf7,29/11/2000,2020-07-08_16h15.45.661,proactive,2020.1.2,MacIntel,60,5f035e5afe130c270d6ae6dd,5f05e30d4925e40b942457e7,6,,,,,,suitcase,,,,,,0,33,33,56,1,6,1,,,,,,,,,,,,,,,,,,,,,,,,,,,,,,,,,,,,,,,,,,,,,,,,,,,,,,,,,,,,,,,,,,,,,,,,,,,
,,,,,,,,,,stimuli/images/PICTURE_68.png,MILE,5eb96457ed4e980484601bf7,29/11/2000,2020-07-08_16h15.45.661,proactive,2020.1.2,MacIntel,60,5f035e5afe130c270d6ae6dd,5f05e30d4925e40b942457e7,6,,,,,,candle,,,,,,0,34,34,51,1,6,1,,,,,,,,,,,,,,,,,,,,,,,,,,,,,,,,,,,,,,,,,,,,,,,,,,,,,,,,,,,,,,,,,,,,,,,,,,,
,,,,,,,,,,stimuli/images/PICTURE_504.png,COPS,5eb96457ed4e980484601bf7,29/11/2000,2020-07-08_16h15.45.661,proactive,2020.1.2,MacIntel,60,5f035e5afe130c270d6ae6dd,5f05e30d4925e40b942457e7,6,,,,,,wheel,,,,,,0,35,35,52,1,6,1,,,,,,,,,,,,,,,,,,,,,,,,,,,,,,,,,,,,,,,,,,,,,,,,,,,,,,,,,,,,,,,,,,,,,,,,,,,
,,,,,,,,,,stimuli/images/PICTURE_403.png,WRITER,5eb96457ed4e980484601bf7,29/11/2000,2020-07-08_16h15.45.661,proactive,2020.1.2,MacIntel,60,5f035e5afe130c270d6ae6dd,5f05e30d4925e40b942457e7,6,,,,,,cathedral,,,,,,0,36,36,31,1,4,1,,,,,,,,,,,,,,,,,,,,,,,,,,,,,,,,,,,,,,,,,,,,,,,,,,,,,,,,,,,,,,,,,,,,,,,,,,,
,,,,,,,,,,stimuli/images/PICTURE_108.png,FLIGHT,5eb96457ed4e980484601bf7,29/11/2000,2020-07-08_16h15.45.661,proactive,2020.1.2,MacIntel,60,5f035e5afe130c270d6ae6dd,5f05e30d4925e40b942457e7,6,,,,,,calendar,,,,,,0,37,37,59,1,6,1,,,,,,,,,,,,,,,,,,,,,,,,,,,,,,,,,,,,,,,,,,,,,,,,,,,,,,,,,,,,,,,,,,,,,,,,,,,
,,,,,,,,,,stimuli/images/PICTURE_504.png,YEAR,5eb96457ed4e980484601bf7,29/11/2000,2020-07-08_16h15.45.661,proactive,2020.1.2,MacIntel,60,5f035e5afe130c270d6ae6dd,5f05e30d4925e40b942457e7,6,,,,,,wheel,,,,,,0,38,38,13,1,2,1,,,,,,,,,,,,,,,,,,,,,,,,,,,,,,,,,,,,,,,,,,,,,,,,,,,,,,,,,,,,,,,,,,,,,,,,,,,
,,,,,,,,,,stimuli/images/PICTURE_405.png,YEAR,5eb96457ed4e980484601bf7,29/11/2000,2020-07-08_16h15.45.661,proactive,2020.1.2,MacIntel,60,5f035e5afe130c270d6ae6dd,5f05e30d4925e40b942457e7,6,,,,,,anchor,,,,,,0,39,39,34,1,4,1,,,,,,,,,,,,,,,,,,,,,,,,,,,,,,,,,,,,,,,,,,,,,,,,,,,,,,,,,,,,,,,,,,,,,,,,,,,
,,,,,,,,,,stimuli/images/PICTURE_403.png,TOILET,5eb96457ed4e980484601bf7,29/11/2000,2020-07-08_16h15.45.661,proactive,2020.1.2,MacIntel,60,5f035e5afe130c270d6ae6dd,5f05e30d4925e40b942457e7,6,,,,,,cathedral,,,,,,0,40,40,25,1,3,1,,,,,,,,,,,,,,,,,,,,,,,,,,,,,,,,,,,,,,,,,,,,,,,,,,,,,,,,,,,,,,,,,,,,,,,,,,,
,,,,,,,,,,stimuli/images/PICTURE_383.png,WRITER,5eb96457ed4e980484601bf7,29/11/2000,2020-07-08_16h15.45.661,proactive,2020.1.2,MacIntel,60,5f035e5afe130c270d6ae6dd,5f05e30d4925e40b942457e7,6,,,,,,coin,,,,,,0,41,41,28,1,3,1,,,,,,,,,,,,,,,,,,,,,,,,,,,,,,,,,,,,,,,,,,,,,,,,,,,,,,,,,,,,,,,,,,,,,,,,,,,
,,,,,,,,,,stimuli/images/PICTURE_85.png,TOILET,5eb96457ed4e980484601bf7,29/11/2000,2020-07-08_16h15.45.661,proactive,2020.1.2,MacIntel,60,5f035e5afe130c270d6ae6dd,5f05e30d4925e40b942457e7,6,,,,,,diamond,,,,,,0,42,42,48,1,5,1,,,,,,,,,,,,,,,,,,,,,,,,,,,,,,,,,,,,,,,,,,,,,,,,,,,,,,,,,,,,,,,,,,,,,,,,,,,
,,,,,,,,,,stimuli/images/PICTURE_380.png,CANDY,5eb96457ed4e980484601bf7,29/11/2000,2020-07-08_16h15.45.661,proactive,2020.1.2,MacIntel,60,5f035e5afe130c270d6ae6dd,5f05e30d4925e40b942457e7,6,,,,,,gorilla,,,,,,0,43,43,0,1,1,1,,,,,,,,,,,,,,,,,,,,,,,,,,,,,,,,,,,,,,,,,,,,,,,,,,,,,,,,,,,,,,,,,,,,,,,,,,,
,,,,,,,,,,stimuli/images/PICTURE_285.png,LIFE,5eb96457ed4e980484601bf7,29/11/2000,2020-07-08_16h15.45.661,proactive,2020.1.2,MacIntel,60,5f035e5afe130c270d6ae6dd,5f05e30d4925e40b942457e7,6,,,,,,carrot,,,,,,0,44,44,33,1,4,1,,,,,,,,,,,,,,,,,,,,,,,,,,,,,,,,,,,,,,,,,,,,,,,,,,,,,,,,,,,,,,,,,,,,,,,,,,,
,,,,,,,,,,stimuli/images/PICTURE_708.png,RECORD,5eb96457ed4e980484601bf7,29/11/2000,2020-07-08_16h15.45.661,proactive,2020.1.2,MacIntel,60,5f035e5afe130c270d6ae6dd,5f05e30d4925e40b942457e7,6,,,,,,monkey,,,,,,0,45,45,58,1,6,1,,,,,,,,,,,,,,,,,,,,,,,,,,,,,,,,,,,,,,,,,,,,,,,,,,,,,,,,,,,,,,,,,,,,,,,,,,,
,,,,,,,,,,stimuli/images/PICTURE_33.png,FRIEND,5eb96457ed4e980484601bf7,29/11/2000,2020-07-08_16h15.45.661,proactive,2020.1.2,MacIntel,60,5f035e5afe130c270d6ae6dd,5f05e30d4925e40b942457e7,6,,,,,,frame,,,,,,0,46,46,8,1,1,1,,,,,,,,,,,,,,,,,,,,,,,,,,,,,,,,,,,,,,,,,,,,,,,,,,,,,,,,,,,,,,,,,,,,,,,,,,,
,,,,,,,,,,stimuli/images/PICTURE_677.png,APPLE,5eb96457ed4e980484601bf7,29/11/2000,2020-07-08_16h15.45.661,proactive,2020.1.2,MacIntel,60,5f035e5afe130c270d6ae6dd,5f05e30d4925e40b942457e7,6,,,,,,map,,,,,,0,47,47,43,1,5,1,,,,,,,,,,,,,,,,,,,,,,,,,,,,,,,,,,,,,,,,,,,,,,,,,,,,,,,,,,,,,,,,,,,,,,,,,,,
,,,,,,,,,,stimuli/images/PICTURE_32.png,KIND,5eb96457ed4e980484601bf7,29/11/2000,2020-07-08_16h15.45.661,proactive,2020.1.2,MacIntel,60,5f035e5afe130c270d6ae6dd,5f05e30d4925e40b942457e7,6,,,,,,crown,,,,,,0,48,48,35,1,4,1,,,,,,,,,,,,,,,,,,,,,,,,,,,,,,,,,,,,,,,,,,,,,,,,,,,,,,,,,,,,,,,,,,,,,,,,,,,
,,,,,,,,,,stimuli/images/PICTURE_233.png,LOTS,5eb96457ed4e980484601bf7,29/11/2000,2020-07-08_16h15.45.661,proactive,2020.1.2,MacIntel,60,5f035e5afe130c270d6ae6dd,5f05e30d4925e40b942457e7,6,,,,,,salt,,,,,,0,49,49,42,1,5,1,,,,,,,,,,,,,,,,,,,,,,,,,,,,,,,,,,,,,,,,,,,,,,,,,,,,,,,,,,,,,,,,,,,,,,,,,,,
,,,,,,,,,,stimuli/images/PICTURE_750.png,HOTEL,5eb96457ed4e980484601bf7,29/11/2000,2020-07-08_16h15.45.661,proactive,2020.1.2,MacIntel,60,5f035e5afe130c270d6ae6dd,5f05e30d4925e40b942457e7,6,,,,,,kettle,,,,,,0,50,50,27,1,3,1,,,,,,,,,,,,,,,,,,,,,,,,,,,,,,,,,,,,,,,,,,,,,,,,,,,,,,,,,,,,,,,,,,,,,,,,,,,
,,,,,,,,,,stimuli/images/PICTURE_32.png,PILLS,5eb96457ed4e980484601bf7,29/11/2000,2020-07-08_16h15.45.661,proactive,2020.1.2,MacIntel,60,5f035e5afe130c270d6ae6dd,5f05e30d4925e40b942457e7,6,,,,,,crown,,,,,,0,51,51,18,1,2,1,,,,,,,,,,,,,,,,,,,,,,,,,,,,,,,,,,,,,,,,,,,,,,,,,,,,,,,,,,,,,,,,,,,,,,,,,,,
,,,,,,,,,,stimuli/images/PICTURE_405.png,PLENTY,5eb96457ed4e980484601bf7,29/11/2000,2020-07-08_16h15.45.661,proactive,2020.1.2,MacIntel,60,5f035e5afe130c270d6ae6dd,5f05e30d4925e40b942457e7,6,,,,,,anchor,,,,,,0,52,52,23,1,3,1,,,,,,,,,,,,,,,,,,,,,,,,,,,,,,,,,,,,,,,,,,,,,,,,,,,,,,,,,,,,,,,,,,,,,,,,,,,
,,,,,,,,,,stimuli/images/PICTURE_327.png,SERIES,5eb96457ed4e980484601bf7,29/11/2000,2020-07-08_16h15.45.661,proactive,2020.1.2,MacIntel,60,5f035e5afe130c270d6ae6dd,5f05e30d4925e40b942457e7,6,,,,,,helmet,,,,,,0,53,53,3,1,1,1,,,,,,,,,,,,,,,,,,,,,,,,,,,,,,,,,,,,,,,,,,,,,,,,,,,,,,,,,,,,,,,,,,,,,,,,,,,
,,,,,,,,,,stimuli/images/PICTURE_208.png,SYSTEM,5eb96457ed4e980484601bf7,29/11/2000,2020-07-08_16h15.45.661,proactive,2020.1.2,MacIntel,60,5f035e5afe130c270d6ae6dd,5f05e30d4925e40b942457e7,6,,,,,,microphone,,,,,,0,54,54,32,1,4,1,,,,,,,,,,,,,,,,,,,,,,,,,,,,,,,,,,,,,,,,,,,,,,,,,,,,,,,,,,,,,,,,,,,,,,,,,,,
,,,,,,,,,,stimuli/images/PICTURE_380.png,HONEY,5eb96457ed4e980484601bf7,29/11/2000,2020-07-08_16h15.45.661,proactive,2020.1.2,MacIntel,60,5f035e5afe130c270d6ae6dd,5f05e30d4925e40b942457e7,6,,,,,,gorilla,,,,,,0,55,55,19,1,2,1,,,,,,,,,,,,,,,,,,,,,,,,,,,,,,,,,,,,,,,,,,,,,,,,,,,,,,,,,,,,,,,,,,,,,,,,,,,
,,,,,,,,,,stimuli/images/PICTURE_95.png,BOYS,5eb96457ed4e980484601bf7,29/11/2000,2020-07-08_16h15.45.661,proactive,2020.1.2,MacIntel,60,5f035e5afe130c270d6ae6dd,5f05e30d4925e40b942457e7,6,,,,,,suitcase,,,,,,0,56,56,1,1,1,1,,,,,,,,,,,,,,,,,,,,,,,,,,,,,,,,,,,,,,,,,,,,,,,,,,,,,,,,,,,,,,,,,,,,,,,,,,,
,,,,,,,,,,stimuli/images/PICTURE_308.png,FAMILY,5eb96457ed4e980484601bf7,29/11/2000,2020-07-08_16h15.45.661,proactive,2020.1.2,MacIntel,60,5f035e5afe130c270d6ae6dd,5f05e30d4925e40b942457e7,6,,,,,,dice,,,,,,0,57,57,36,1,4,1,,,,,,,,,,,,,,,,,,,,,,,,,,,,,,,,,,,,,,,,,,,,,,,,,,,,,,,,,,,,,,,,,,,,,,,,,,,
,,,,,,,,,,stimuli/images/PICTURE_685.png,PENNY,5eb96457ed4e980484601bf7,29/11/2000,2020-07-08_16h15.45.661,proactive,2020.1.2,MacIntel,60,5f035e5afe130c270d6ae6dd,5f05e30d4925e40b942457e7,6,,,,,,goose,,,,,,0,58,58,4,1,1,1,,,,,,,,,,,,,,,,,,,,,,,,,,,,,,,,,,,,,,,,,,,,,,,,,,,,,,,,,,,,,,,,,,,,,,,,,,,
,,?,0.000775,0,,,,,,stimuli/images/PICTURE_95.png,HONEY,5eb96457ed4e980484601bf7,29/11/2000,2020-07-08_16h15.45.661,proactive,2020.1.2,MacIntel,60,5f035e5afe130c270d6ae6dd,5f05e30d4925e40b942457e7,6,,,,,,suitcase,,,,,,,,,,,5,1,0,0,0,44,1,,,,,,,,,,,,,,,,,,,,,,,,,,,,,,,,,,,,,,,,,,,,,,,,,,,,,,,,,,,,,,,,,,,,,,
,,?,0.00068,0,,,,,,stimuli/images/PICTURE_296.png,LOTS,5eb96457ed4e980484601bf7,29/11/2000,2020-07-08_16h15.45.661,proactive,2020.1.2,MacIntel,60,5f035e5afe130c270d6ae6dd,5f05e30d4925e40b942457e7,6,,,,,,bolt,,,,,,,,,,,1,1,0,1,1,9,1,,,,,,,,,,,,,,,,,,,,,,,,,,,,,,,,,,,,,,,,,,,,,,,,,,,,,,,,,,,,,,,,,,,,,,
,,?,0.0006,0,,,,,,stimuli/images/PICTURE_233.png,LOTS,5eb96457ed4e980484601bf7,29/11/2000,2020-07-08_16h15.45.661,proactive,2020.1.2,MacIntel,60,5f035e5afe130c270d6ae6dd,5f05e30d4925e40b942457e7,6,,,,,,salt,,,,,,,,,,,5,1,0,2,2,42,1,,,,,,,,,,,,,,,,,,,,,,,,,,,,,,,,,,,,,,,,,,,,,,,,,,,,,,,,,,,,,,,,,,,,,,
,,?,0.000565,0,,,,,,stimuli/images/PICTURE_147.png,WOMEN,5eb96457ed4e980484601bf7,29/11/2000,2020-07-08_16h15.45.661,proactive,2020.1.2,MacIntel,60,5f035e5afe130c270d6ae6dd,5f05e30d4925e40b942457e7,6,,,,,,hanger,,,,,,,,,,,1,1,0,3,3,7,1,,,,,,,,,,,,,,,,,,,,,,,,,,,,,,,,,,,,,,,,,,,,,,,,,,,,,,,,,,,,,,,,,,,,,,
,,?,0.000575,0,,,,,,stimuli/images/PICTURE_383.png,WRITER,5eb96457ed4e980484601bf7,29/11/2000,2020-07-08_16h15.45.661,proactive,2020.1.2,MacIntel,60,5f035e5afe130c270d6ae6dd,5f05e30d4925e40b942457e7,6,,,,,,coin,,,,,,,,,,,3,1,0,4,4,28,1,,,,,,,,,,,,,,,,,,,,,,,,,,,,,,,,,,,,,,,,,,,,,,,,,,,,,,,,,,,,,,,,,,,,,,
,,?,0.00057,0,,,,,,stimuli/images/PICTURE_203.png,GODS,5eb96457ed4e980484601bf7,29/11/2000,2020-07-08_16h15.45.661,proactive,2020.1.2,MacIntel,60,5f035e5afe130c270d6ae6dd,5f05e30d4925e40b942457e7,6,,,,,,cap,,,,,,,,,,,4,1,0,5,5,30,1,,,,,,,,,,,,,,,,,,,,,,,,,,,,,,,,,,,,,,,,,,,,,,,,,,,,,,,,,,,,,,,,,,,,,,
,,?,0.00087,0,,,,,,stimuli/images/PICTURE_405.png,PLENTY,5eb96457ed4e980484601bf7,29/11/2000,2020-07-08_16h15.45.661,proactive,2020.1.2,MacIntel,60,5f035e5afe130c270d6ae6dd,5f05e30d4925e40b942457e7,6,,,,,,anchor,,,,,,,,,,,3,1,0,6,6,23,1,,,,,,,,,,,,,,,,,,,,,,,,,,,,,,,,,,,,,,,,,,,,,,,,,,,,,,,,,,,,,,,,,,,,,,
,,?,0.000735,0,,,,,,stimuli/images/PICTURE_208.png,SYSTEM,5eb96457ed4e980484601bf7,29/11/2000,2020-07-08_16h15.45.661,proactive,2020.1.2,MacIntel,60,5f035e5afe130c270d6ae6dd,5f05e30d4925e40b942457e7,6,,,,,,microphone,,,,,,,,,,,4,1,0,7,7,32,1,,,,,,,,,,,,,,,,,,,,,,,,,,,,,,,,,,,,,,,,,,,,,,,,,,,,,,,,,,,,,,,,,,,,,,
,,?,0.00066,0,,,,,,stimuli/images/PICTURE_108.png,POLICY,5eb96457ed4e980484601bf7,29/11/2000,2020-07-08_16h15.45.661,proactive,2020.1.2,MacIntel,60,5f035e5afe130c270d6ae6dd,5f05e30d4925e40b942457e7,6,,,,,,calendar,,,,,,,,,,,3,1,0,8,8,22,1,,,,,,,,,,,,,,,,,,,,,,,,,,,,,,,,,,,,,,,,,,,,,,,,,,,,,,,,,,,,,,,,,,,,,,
,,?,0.000675,0,,,,,,stimuli/images/PICTURE_308.png,FAMILY,5eb96457ed4e980484601bf7,29/11/2000,2020-07-08_16h15.45.661,proactive,2020.1.2,MacIntel,60,5f035e5afe130c270d6ae6dd,5f05e30d4925e40b942457e7,6,,,,,,dice,,,,,,,,,,,4,1,0,9,9,36,1,,,,,,,,,,,,,,,,,,,,,,,,,,,,,,,,,,,,,,,,,,,,,,,,,,,,,,,,,,,,,,,,,,,,,,
,,?,0.000675,0,,,,,,stimuli/images/PICTURE_85.png,TOILET,5eb96457ed4e980484601bf7,29/11/2000,2020-07-08_16h15.45.661,proactive,2020.1.2,MacIntel,60,5f035e5afe130c270d6ae6dd,5f05e30d4925e40b942457e7,6,,,,,,diamond,,,,,,,,,,,5,1,0,10,10,48,1,,,,,,,,,,,,,,,,,,,,,,,,,,,,,,,,,,,,,,,,,,,,,,,,,,,,,,,,,,,,,,,,,,,,,,
,,?,0.000745,0,,,,,,stimuli/images/PICTURE_654.png,MONTH,5eb96457ed4e980484601bf7,29/11/2000,2020-07-08_16h15.45.661,proactive,2020.1.2,MacIntel,60,5f035e5afe130c270d6ae6dd,5f05e30d4925e40b942457e7,6,,,,,,pencil,,,,,,,,,,,3,1,0,11,11,29,1,,,,,,,,,,,,,,,,,,,,,,,,,,,,,,,,,,,,,,,,,,,,,,,,,,,,,,,,,,,,,,,,,,,,,,
,,?,0.00166,0,,,,,,stimuli/images/PICTURE_667.png,RIVER,5eb96457ed4e980484601bf7,29/11/2000,2020-07-08_16h15.45.661,proactive,2020.1.2,MacIntel,60,5f035e5afe130c270d6ae6dd,5f05e30d4925e40b942457e7,6,,,,,,daisy,,,,,,,,,,,2,1,0,12,12,10,1,,,,,,,,,,,,,,,,,,,,,,,,,,,,,,,,,,,,,,,,,,,,,,,,,,,,,,,,,,,,,,,,,,,,,,
,,?,0.00063,0,,,,,,stimuli/images/PICTURE_403.png,RIVER,5eb96457ed4e980484601bf7,29/11/2000,2020-07-08_16h15.45.661,proactive,2020.1.2,MacIntel,60,5f035e5afe130c270d6ae6dd,5f05e30d4925e40b942457e7,6,,,,,,cathedral,,,,,,,,,,,5,1,0,13,13,40,1,,,,,,,,,,,,,,,,,,,,,,,,,,,,,,,,,,,,,,,,,,,,,,,,,,,,,,,,,,,,,,,,,,,,,,
,,FLIGHT,6.337875,1,,,,,,stimuli/images/PICTURE_108.png,FLIGHT,5eb96457ed4e980484601bf7,29/11/2000,2020-07-08_16h15.45.661,proactive,2020.1.2,MacIntel,60,5f035e5afe130c270d6ae6dd,5f05e30d4925e40b942457e7,6,,,,,,calendar,,,,,,,,,,,6,1,0,14,14,59,1,,,,,,,,,,,,,,,,,,,,,,,,,,,,,,,,,,,,,,,,,,,,,,,,,,,,,,,,,,,,,,,,,,,,,,
,,?,0.00156,0,,,,,,stimuli/images/PICTURE_32.png,PILLS,5eb96457ed4e980484601bf7,29/11/2000,2020-07-08_16h15.45.661,proactive,2020.1.2,MacIntel,60,5f035e5afe130c270d6ae6dd,5f05e30d4925e40b942457e7,6,,,,,,crown,,,,,,,,,,,2,1,0,15,15,18,1,,,,,,,,,,,,,,,,,,,,,,,,,,,,,,,,,,,,,,,,,,,,,,,,,,,,,,,,,,,,,,,,,,,,,,
,,?,0.00146,0,,,,,,stimuli/images/PICTURE_95.png,BOYS,5eb96457ed4e980484601bf7,29/11/2000,2020-07-08_16h15.45.661,proactive,2020.1.2,MacIntel,60,5f035e5afe130c270d6ae6dd,5f05e30d4925e40b942457e7,6,,,,,,suitcase,,,,,,,,,,,1,1,0,16,16,1,1,,,,,,,,,,,,,,,,,,,,,,,,,,,,,,,,,,,,,,,,,,,,,,,,,,,,,,,,,,,,,,,,,,,,,,
,,?,0.00086,0,,,,,,stimuli/images/PICTURE_504.png,YEAR,5eb96457ed4e980484601bf7,29/11/2000,2020-07-08_16h15.45.661,proactive,2020.1.2,MacIntel,60,5f035e5afe130c270d6ae6dd,5f05e30d4925e40b942457e7,6,,,,,,wheel,,,,,,,,,,,2,1,0,17,17,13,1,,,,,,,,,,,,,,,,,,,,,,,,,,,,,,,,,,,,,,,,,,,,,,,,,,,,,,,,,,,,,,,,,,,,,,
,,?,0.001,0,,,,,,stimuli/images/PICTURE_403.png,TOILET,5eb96457ed4e980484601bf7,29/11/2000,2020-07-08_16h15.45.661,proactive,2020.1.2,MacIntel,60,5f035e5afe130c270d6ae6dd,5f05e30d4925e40b942457e7,6,,,,,,cathedral,,,,,,,,,,,3,1,0,18,18,25,1,,,,,,,,,,,,,,,,,,,,,,,,,,,,,,,,,,,,,,,,,,,,,,,,,,,,,,,,,,,,,,,,,,,,,,
,,COPS,5.37084,1,,,,,,stimuli/images/PICTURE_504.png,COPS,5eb96457ed4e980484601bf7,29/11/2000,2020-07-08_16h15.45.661,proactive,2020.1.2,MacIntel,60,5f035e5afe130c270d6ae6dd,5f05e30d4925e40b942457e7,6,,,,,,wheel,,,,,,,,,,,6,1,0,19,19,52,1,,,,,,,,,,,,,,,,,,,,,,,,,,,,,,,,,,,,,,,,,,,,,,,,,,,,,,,,,,,,,,,,,,,,,,
,,?,0.00149,0,,,,,,stimuli/images/PICTURE_685.png,PENNY,5eb96457ed4e980484601bf7,29/11/2000,2020-07-08_16h15.45.661,proactive,2020.1.2,MacIntel,60,5f035e5afe130c270d6ae6dd,5f05e30d4925e40b942457e7,6,,,,,,goose,,,,,,,,,,,1,1,0,20,20,4,1,,,,,,,,,,,,,,,,,,,,,,,,,,,,,,,,,,,,,,,,,,,,,,,,,,,,,,,,,,,,,,,,,,,,,,
,,?,0.001085,0,,,,,,stimuli/images/PICTURE_383.png,SERIES,5eb96457ed4e980484601bf7,29/11/2000,2020-07-08_16h15.45.661,proactive,2020.1.2,MacIntel,60,5f035e5afe130c270d6ae6dd,5f05e30d4925e40b942457e7,6,,,,,,coin,,,,,,,,,,,5,1,0,21,21,46,1,,,,,,,,,,,,,,,,,,,,,,,,,,,,,,,,,,,,,,,,,,,,,,,,,,,,,,,,,,,,,,,,,,,,,,
,,?,0.000835,0,,,,,,stimuli/images/PICTURE_469.png,AGENT,5eb96457ed4e980484601bf7,29/11/2000,2020-07-08_16h15.45.661,proactive,2020.1.2,MacIntel,60,5f035e5afe130c270d6ae6dd,5f05e30d4925e40b942457e7,6,,,,,,stool,,,,,,,,,,,2,1,0,22,22,16,1,,,,,,,,,,,,,,,,,,,,,,,,,,,,,,,,,,,,,,,,,,,,,,,,,,,,,,,,,,,,,,,,,,,,,,
,,?,0.000695,0,,,,,,stimuli/images/PICTURE_675.png,SALE,5eb96457ed4e980484601bf7,29/11/2000,2020-07-08_16h15.45.661,proactive,2020.1.2,MacIntel,60,5f035e5afe130c270d6ae6dd,5f05e30d4925e40b942457e7,6,,,,,,windmill,,,,,,,,,,,5,1,0,23,23,47,1,,,,,,,,,,,,,,,,,,,,,,,,,,,,,,,,,,,,,,,,,,,,,,,,,,,,,,,,,,,,,,,,,,,,,,
,,VALLEY,3.42146,1,,,,,,stimuli/images/PICTURE_340.png,VALLEY,5eb96457ed4e980484601bf7,29/11/2000,2020-07-08_16h15.45.661,proactive,2020.1.2,MacIntel,60,5f035e5afe130c270d6ae6dd,5f05e30d4925e40b942457e7,6,,,,,,mirror,,,,,,,,,,,6,1,0,24,24,54,1,,,,,,,,,,,,,,,,,,,,,,,,,,,,,,,,,,,,,,,,,,,,,,,,,,,,,,,,,,,,,,,,,,,,,,
,,?,0.001655,0,,,,,,stimuli/images/PICTURE_491.png,GLASS,5eb96457ed4e980484601bf7,29/11/2000,2020-07-08_16h15.45.661,proactive,2020.1.2,MacIntel,60,5f035e5afe130c270d6ae6dd,5f05e30d4925e40b942457e7,6,,,,,,rug,,,,,,,,,,,2,1,0,25,25,14,1,,,,,,,,,,,,,,,,,,,,,,,,,,,,,,,,,,,,,,,,,,,,,,,,,,,,,,,,,,,,,,,,,,,,,,
,,?,0.00105,0,,,,,,stimuli/images/PICTURE_564.png,BATH,5eb96457ed4e980484601bf7,29/11/2000,2020-07-08_16h15.45.661,proactive,2020.1.2,MacIntel,60,5f035e5afe130c270d6ae6dd,5f05e30d4925e40b942457e7,6,,,,,,spoon,,,,,,,,,,,3,1,0,26,26,26,1,,,,,,,,,,,,,,,,,,,,,,,,,,,,,,,,,,,,,,,,,,,,,,,,,,,,,,,,,,,,,,,,,,,,,,
,,MILE,3.35821,1,,,,,,stimuli/images/PICTURE_68.png,MILE,5eb96457ed4e980484601bf7,29/11/2000,2020-07-08_16h15.45.661,proactive,2020.1.2,MacIntel,60,5f035e5afe130c270d6ae6dd,5f05e30d4925e40b942457e7,6,,,,,,candle,,,,,,,,,,,6,1,0,27,27,51,1,,,,,,,,,,,,,,,,,,,,,,,,,,,,,,,,,,,,,,,,,,,,,,,,,,,,,,,,,,,,,,,,,,,,,,
,,?,0.001615,0,,,,,,stimuli/images/PICTURE_57.png,MOMENT,5eb96457ed4e980484601bf7,29/11/2000,2020-07-08_16h15.45.661,proactive,2020.1.2,MacIntel,60,5f035e5afe130c270d6ae6dd,5f05e30d4925e40b942457e7,6,,,,,,stamp,,,,,,,,,,,4,1,0,28,28,37,1,,,,,,,,,,,,,,,,,,,,,,,,,,,,,,,,,,,,,,,,,,,,,,,,,,,,,,,,,,,,,,,,,,,,,,
,,LIFE,3.14425,1,,,,,,stimuli/images/PICTURE_296.png,LIFE,5eb96457ed4e980484601bf7,29/11/2000,2020-07-08_16h15.45.661,proactive,2020.1.2,MacIntel,60,5f035e5afe130c270d6ae6dd,5f05e30d4925e40b942457e7,6,,,,,,bolt,,,,,,,,,,,6,1,0,29,29,57,1,,,,,,,,,,,,,,,,,,,,,,,,,,,,,,,,,,,,,,,,,,,,,,,,,,,,,,,,,,,,,,,,,,,,,,
,,RECORD,4.531445,1,,,,,,stimuli/images/PICTURE_708.png,RECORD,5eb96457ed4e980484601bf7,29/11/2000,2020-07-08_16h15.45.661,proactive,2020.1.2,MacIntel,60,5f035e5afe130c270d6ae6dd,5f05e30d4925e40b942457e7,6,,,,,,monkey,,,,,,,,,,,6,1,0,30,30,58,1,,,,,,,,,,,,,,,,,,,,,,,,,,,,,,,,,,,,,,,,,,,,,,,,,,,,,,,,,,,,,,,,,,,,,,
,,?,0.001595,0,,,,,,stimuli/images/PICTURE_33.png,FRIEND,5eb96457ed4e980484601bf7,29/11/2000,2020-07-08_16h15.45.661,proactive,2020.1.2,MacIntel,60,5f035e5afe130c270d6ae6dd,5f05e30d4925e40b942457e7,6,,,,,,frame,,,,,,,,,,,1,1,0,31,31,8,1,,,,,,,,,,,,,,,,,,,,,,,,,,,,,,,,,,,,,,,,,,,,,,,,,,,,,,,,,,,,,,,,,,,,,,
,,DEAD,4.010955,0,,,,,,stimuli/images/PICTURE_467.png,POLICY,5eb96457ed4e980484601bf7,29/11/2000,2020-07-08_16h15.45.661,proactive,2020.1.2,MacIntel,60,5f035e5afe130c270d6ae6dd,5f05e30d4925e40b942457e7,6,,,,,,peg,,,,,,,,,,,6,1,0,32,32,53,1,,,,,,,,,,,,,,,,,,,,,,,,,,,,,,,,,,,,,,,,,,,,,,,,,,,,,,,,,,,,,,,,,,,,,,
,,?,0.002015,0,,,,,,stimuli/images/PICTURE_297.png,RIVER,5eb96457ed4e980484601bf7,29/11/2000,2020-07-08_16h15.45.661,proactive,2020.1.2,MacIntel,60,5f035e5afe130c270d6ae6dd,5f05e30d4925e40b942457e7,6,,,,,,aeroplane,,,,,,,,,,,4,1,0,33,33,39,1,,,,,,,,,,,,,,,,,,,,,,,,,,,,,,,,,,,,,,,,,,,,,,,,,,,,,,,,,,,,,,,,,,,,,,
,,BOYS,4.51239,1,,,,,,stimuli/images/PICTURE_42.png,BOYS,5eb96457ed4e980484601bf7,29/11/2000,2020-07-08_16h15.45.661,proactive,2020.1.2,MacIntel,60,5f035e5afe130c270d6ae6dd,5f05e30d4925e40b942457e7,6,,,,,,pear,,,,,,,,,,,6,1,0,34,34,55,1,,,,,,,,,,,,,,,,,,,,,,,,,,,,,,,,,,,,,,,,,,,,,,,,,,,,,,,,,,,,,,,,,,,,,,
,,?,0.00269,0,,,,,,stimuli/images/PICTURE_750.png,HOTEL,5eb96457ed4e980484601bf7,29/11/2000,2020-07-08_16h15.45.661,proactive,2020.1.2,MacIntel,60,5f035e5afe130c270d6ae6dd,5f05e30d4925e40b942457e7,6,,,,,,kettle,,,,,,,,,,,3,1,0,35,35,27,1,,,,,,,,,,,,,,,,,,,,,,,,,,,,,,,,,,,,,,,,,,,,,,,,,,,,,,,,,,,,,,,,,,,,,,
,,?,0.001015,0,,,,,,stimuli/images/PICTURE_85.png,NATION,5eb96457ed4e980484601bf7,29/11/2000,2020-07-08_16h15.45.661,proactive,2020.1.2,MacIntel,60,5f035e5afe130c270d6ae6dd,5f05e30d4925e40b942457e7,6,,,,,,diamond,,,,,,,,,,,1,1,0,36,36,5,1,,,,,,,,,,,,,,,,,,,,,,,,,,,,,,,,,,,,,,,,,,,,,,,,,,,,,,,,,,,,,,,,,,,,,,
,,?,0.000845,0,,,,,,stimuli/images/PICTURE_677.png,APPLE,5eb96457ed4e980484601bf7,29/11/2000,2020-07-08_16h15.45.661,proactive,2020.1.2,MacIntel,60,5f035e5afe130c270d6ae6dd,5f05e30d4925e40b942457e7,6,,,,,,map,,,,,,,,,,,5,1,0,37,37,43,1,,,,,,,,,,,,,,,,,,,,,,,,,,,,,,,,,,,,,,,,,,,,,,,,,,,,,,,,,,,,,,,,,,,,,,
,,?,0.000735,0,,,,,,stimuli/images/PICTURE_339.png,CLIENT,5eb96457ed4e980484601bf7,29/11/2000,2020-07-08_16h15.45.661,proactive,2020.1.2,MacIntel,60,5f035e5afe130c270d6ae6dd,5f05e30d4925e40b942457e7,6,,,,,,backpack,,,,,,,,,,,2,1,0,38,38,11,1,,,,,,,,,,,,,,,,,,,,,,,,,,,,,,,,,,,,,,,,,,,,,,,,,,,,,,,,,,,,,,,,,,,,,,
,,?,0.000715,0,,,,,,stimuli/images/PICTURE_285.png,LIFE,5eb96457ed4e980484601bf7,29/11/2000,2020-07-08_16h15.45.661,proactive,2020.1.2,MacIntel,60,5f035e5afe130c270d6ae6dd,5f05e30d4925e40b942457e7,6,,,,,,carrot,,,,,,,,,,,4,1,0,39,39,33,1,,,,,,,,,,,,,,,,,,,,,,,,,,,,,,,,,,,,,,,,,,,,,,,,,,,,,,,,,,,,,,,,,,,,,,
,,?,0.000585,0,,,,,,stimuli/images/PICTURE_68.png,ROOF,5eb96457ed4e980484601bf7,29/11/2000,2020-07-08_16h15.45.661,proactive,2020.1.2,MacIntel,60,5f035e5afe130c270d6ae6dd,5f05e30d4925e40b942457e7,6,,,,,,candle,,,,,,,,,,,4,1,0,40,40,38,1,,,,,,,,,,,,,,,,,,,,,,,,,,,,,,,,,,,,,,,,,,,,,,,,,,,,,,,,,,,,,,,,,,,,,,
,,?,0.00076,0,,,,,,stimuli/images/PICTURE_380.png,HONEY,5eb96457ed4e980484601bf7,29/11/2000,2020-07-08_16h15.45.661,proactive,2020.1.2,MacIntel,60,5f035e5afe130c270d6ae6dd,5f05e30d4925e40b942457e7,6,,,,,,gorilla,,,,,,,,,,,2,1,0,41,41,19,1,,,,,,,,,,,,,,,,,,,,,,,,,,,,,,,,,,,,,,,,,,,,,,,,,,,,,,,,,,,,,,,,,,,,,,
,,?,0.000835,0,,,,,,stimuli/images/PICTURE_403.png,WRITER,5eb96457ed4e980484601bf7,29/11/2000,2020-07-08_16h15.45.661,proactive,2020.1.2,MacIntel,60,5f035e5afe130c270d6ae6dd,5f05e30d4925e40b942457e7,6,,,,,,cathedral,,,,,,,,,,,4,1,0,42,42,31,1,,,,,,,,,,,,,,,,,,,,,,,,,,,,,,,,,,,,,,,,,,,,,,,,,,,,,,,,,,,,,,,,,,,,,,
,,?,0.00071,0,,,,,,stimuli/images/PICTURE_340.png,LETTER,5eb96457ed4e980484601bf7,29/11/2000,2020-07-08_16h15.45.661,proactive,2020.1.2,MacIntel,60,5f035e5afe130c270d6ae6dd,5f05e30d4925e40b942457e7,6,,,,,,mirror,,,,,,,,,,,3,1,0,43,43,24,1,,,,,,,,,,,,,,,,,,,,,,,,,,,,,,,,,,,,,,,,,,,,,,,,,,,,,,,,,,,,,,,,,,,,,,
,,?,0.00068,0,,,,,,stimuli/images/PICTURE_380.png,CANDY,5eb96457ed4e980484601bf7,29/11/2000,2020-07-08_16h15.45.661,proactive,2020.1.2,MacIntel,60,5f035e5afe130c270d6ae6dd,5f05e30d4925e40b942457e7,6,,,,,,gorilla,,,,,,,,,,,1,1,0,44,44,0,1,,,,,,,,,,,,,,,,,,,,,,,,,,,,,,,,,,,,,,,,,,,,,,,,,,,,,,,,,,,,,,,,,,,,,,
,,?,0.0007,0,,,,,,stimuli/images/PICTURE_147.png,YEAR,5eb96457ed4e980484601bf7,29/11/2000,2020-07-08_16h15.45.661,proactive,2020.1.2,MacIntel,60,5f035e5afe130c270d6ae6dd,5f05e30d4925e40b942457e7,6,,,,,,hanger,,,,,,,,,,,3,1,0,45,45,21,1,,,,,,,,,,,,,,,,,,,,,,,,,,,,,,,,,,,,,,,,,,,,,,,,,,,,,,,,,,,,,,,,,,,,,,
,,?,0.000715,0,,,,,,stimuli/images/PICTURE_177.png,WRITER,5eb96457ed4e980484601bf7,29/11/2000,2020-07-08_16h15.45.661,proactive,2020.1.2,MacIntel,60,5f035e5afe130c270d6ae6dd,5f05e30d4925e40b942457e7,6,,,,,,mushroom,,,,,,,,,,,5,1,0,46,46,41,1,,,,,,,,,,,,,,,,,,,,,,,,,,,,,,,,,,,,,,,,,,,,,,,,,,,,,,,,,,,,,,,,,,,,,,
,,?,0.000735,0,,,,,,stimuli/images/PICTURE_2.png,FLIGHT,5eb96457ed4e980484601bf7,29/11/2000,2020-07-08_16h15.45.661,proactive,2020.1.2,MacIntel,60,5f035e5afe130c270d6ae6dd,5f05e30d4925e40b942457e7,6,,,,,,tyre,,,,,,,,,,,2,1,0,47,47,15,1,,,,,,,,,,,,,,,,,,,,,,,,,,,,,,,,,,,,,,,,,,,,,,,,,,,,,,,,,,,,,,,,,,,,,,
,,?,0.00063,0,,,,,,stimuli/images/PICTURE_405.png,YEAR,5eb96457ed4e980484601bf7,29/11/2000,2020-07-08_16h15.45.661,proactive,2020.1.2,MacIntel,60,5f035e5afe130c270d6ae6dd,5f05e30d4925e40b942457e7,6,,,,,,anchor,,,,,,,,,,,4,1,0,48,48,34,1,,,,,,,,,,,,,,,,,,,,,,,,,,,,,,,,,,,,,,,,,,,,,,,,,,,,,,,,,,,,,,,,,,,,,,
,,MILLER,3.13638,1,,,,,,stimuli/images/PICTURE_95.png,MILLER,5eb96457ed4e980484601bf7,29/11/2000,2020-07-08_16h15.45.661,proactive,2020.1.2,MacIntel,60,5f035e5afe130c270d6ae6dd,5f05e30d4925e40b942457e7,6,,,,,,suitcase,,,,,,,,,,,6,1,0,49,49,56,1,,,,,,,,,,,,,,,,,,,,,,,,,,,,,,,,,,,,,,,,,,,,,,,,,,,,,,,,,,,,,,,,,,,,,,
,,?,0.00319,0,,,,,,stimuli/images/PICTURE_487.png,GIRL,5eb96457ed4e980484601bf7,29/11/2000,2020-07-08_16h15.45.661,proactive,2020.1.2,MacIntel,60,5f035e5afe130c270d6ae6dd,5f05e30d4925e40b942457e7,6,,,,,,basket,,,,,,,,,,,5,1,0,50,50,45,1,,,,,,,,,,,,,,,,,,,,,,,,,,,,,,,,,,,,,,,,,,,,,,,,,,,,,,,,,,,,,,,,,,,,,,
,,?,0.001,0,,,,,,stimuli/images/PICTURE_327.png,CASINO,5eb96457ed4e980484601bf7,29/11/2000,2020-07-08_16h15.45.661,proactive,2020.1.2,MacIntel,60,5f035e5afe130c270d6ae6dd,5f05e30d4925e40b942457e7,6,,,,,,helmet,,,,,,,,,,,3,1,0,51,51,20,1,,,,,,,,,,,,,,,,,,,,,,,,,,,,,,,,,,,,,,,,,,,,,,,,,,,,,,,,,,,,,,,,,,,,,,
,,?,0.00276,0,,,,,,stimuli/images/PICTURE_504.png,ARTIST,5eb96457ed4e980484601bf7,29/11/2000,2020-07-08_16h15.45.661,proactive,2020.1.2,MacIntel,60,5f035e5afe130c270d6ae6dd,5f05e30d4925e40b942457e7,6,,,,,,wheel,,,,,,,,,,,5,1,0,52,52,49,1,,,,,,,,,,,,,,,,,,,,,,,,,,,,,,,,,,,,,,,,,,,,,,,,,,,,,,,,,,,,,,,,,,,,,,
,,WEAPON,5.12218,1,,,,,,stimuli/images/PICTURE_744.png,WEAPON,5eb96457ed4e980484601bf7,29/11/2000,2020-07-08_16h15.45.661,proactive,2020.1.2,MacIntel,60,5f035e5afe130c270d6ae6dd,5f05e30d4925e40b942457e7,6,,,,,,ring,,,,,,,,,,,6,1,0,53,53,50,1,,,,,,,,,,,,,,,,,,,,,,,,,,,,,,,,,,,,,,,,,,,,,,,,,,,,,,,,,,,,,,,,,,,,,,
,,?,0.003595,0,,,,,,stimuli/images/PICTURE_203.png,NIGHT,5eb96457ed4e980484601bf7,29/11/2000,2020-07-08_16h15.45.661,proactive,2020.1.2,MacIntel,60,5f035e5afe130c270d6ae6dd,5f05e30d4925e40b942457e7,6,,,,,,cap,,,,,,,,,,,1,1,0,54,54,2,1,,,,,,,,,,,,,,,,,,,,,,,,,,,,,,,,,,,,,,,,,,,,,,,,,,,,,,,,,,,,,,,,,,,,,,
,,?,0.000935,0,,,,,,stimuli/images/PICTURE_32.png,KIND,5eb96457ed4e980484601bf7,29/11/2000,2020-07-08_16h15.45.661,proactive,2020.1.2,MacIntel,60,5f035e5afe130c270d6ae6dd,5f05e30d4925e40b942457e7,6,,,,,,crown,,,,,,,,,,,4,1,0,55,55,35,1,,,,,,,,,,,,,,,,,,,,,,,,,,,,,,,,,,,,,,,,,,,,,,,,,,,,,,,,,,,,,,,,,,,,,,
,,?,0.000795,0,,,,,,stimuli/images/PICTURE_327.png,SERIES,5eb96457ed4e980484601bf7,29/11/2000,2020-07-08_16h15.45.661,proactive,2020.1.2,MacIntel,60,5f035e5afe130c270d6ae6dd,5f05e30d4925e40b942457e7,6,,,,,,helmet,,,,,,,,,,,1,1,0,56,56,3,1,,,,,,,,,,,,,,,,,,,,,,,,,,,,,,,,,,,,,,,,,,,,,,,,,,,,,,,,,,,,,,,,,,,,,,
,,?,0.000715,0,,,,,,stimuli/images/PICTURE_449.png,DUDE,5eb96457ed4e980484601bf7,29/11/2000,2020-07-08_16h15.45.661,proactive,2020.1.2,MacIntel,60,5f035e5afe130c270d6ae6dd,5f05e30d4925e40b942457e7,6,,,,,,bench,,,,,,,,,,,2,1,0,57,57,17,1,,,,,,,,,,,,,,,,,,,,,,,,,,,,,,,,,,,,,,,,,,,,,,,,,,,,,,,,,,,,,,,,,,,,,,
,,?,0.00057,0,,,,,,stimuli/images/PICTURE_655.png,TOILET,5eb96457ed4e980484601bf7,29/11/2000,2020-07-08_16h15.45.661,proactive,2020.1.2,MacIntel,60,5f035e5afe130c270d6ae6dd,5f05e30d4925e40b942457e7,6,,,,,,megaphone,,,,,,,,,,,2,1,0,58,58,12,1,,,,,,,,,,,,,,,,,,,,,,,,,,,,,,,,,,,,,,,,,,,,,,,,,,,,,,,,,,,,,,,,,,,,,,
,,?,0.0007,0,,,,,,stimuli/images/PICTURE_491.png,RIVER,5eb96457ed4e980484601bf7,29/11/2000,2020-07-08_16h15.45.661,proactive,2020.1.2,MacIntel,60,5f035e5afe130c270d6ae6dd,5f05e30d4925e40b942457e7,6,,,,,,rug,,,,,,,,,,,1,1,0,59,59,6,1,,,,,,,,,,,,,,,,,,,,,,,,,,,,,,,,,,,,,,,,,,,,,,,,,,,,,,,,,,,,,,,,,,,,,,
,,,,,,,,,,,,5eb96457ed4e980484601bf7,29/11/2000,2020-07-08_16h15.45.661,proactive,2020.1.2,MacIntel,60,5f035e5afe130c270d6ae6dd,5f05e30d4925e40b942457e7,6,,,,,,,,,,,,,,,,,,,,,,,,0,1,1,1,1,stimuli/learn-block2.csv,,,,,,,,,,,,,,,,,,,,,,,,,,,,,,,,,,,,,,,,,,,,,,,,,,,,,,,,,,,,,,,,
,,,,,,,,,,stimuli/images/PICTURE_177.png,HOUSE,5eb96457ed4e980484601bf7,29/11/2000,2020-07-08_16h15.45.661,proactive,2020.1.2,MacIntel,60,5f035e5afe130c270d6ae6dd,5f05e30d4925e40b942457e7,6,,,,,,mushroom,,,,,,0,0,0,25,1,3,2,,,,,,,,,,,,,,,,,,,,,,,,,,,,,,,,,,,,,,,,,,,,,,,,,,,,,,,,,,,,,,,,,,,,,,,,,,,
,,,,,,,,,,stimuli/images/PICTURE_504.png,HOUSE,5eb96457ed4e980484601bf7,29/11/2000,2020-07-08_16h15.45.661,proactive,2020.1.2,MacIntel,60,5f035e5afe130c270d6ae6dd,5f05e30d4925e40b942457e7,6,,,,,,wheel,,,,,,0,1,1,36,1,4,2,,,,,,,,,,,,,,,,,,,,,,,,,,,,,,,,,,,,,,,,,,,,,,,,,,,,,,,,,,,,,,,,,,,,,,,,,,,
,,,,,,,,,,stimuli/images/PICTURE_208.png,SPIRIT,5eb96457ed4e980484601bf7,29/11/2000,2020-07-08_16h15.45.661,proactive,2020.1.2,MacIntel,60,5f035e5afe130c270d6ae6dd,5f05e30d4925e40b942457e7,6,,,,,,microphone,,,,,,0,2,2,28,1,3,2,,,,,,,,,,,,,,,,,,,,,,,,,,,,,,,,,,,,,,,,,,,,,,,,,,,,,,,,,,,,,,,,,,,,,,,,,,,
,,,,,,,,,,stimuli/images/PICTURE_654.png,YEAR,5eb96457ed4e980484601bf7,29/11/2000,2020-07-08_16h15.45.661,proactive,2020.1.2,MacIntel,60,5f035e5afe130c270d6ae6dd,5f05e30d4925e40b942457e7,6,,,,,,pencil,,,,,,0,3,3,41,1,5,2,,,,,,,,,,,,,,,,,,,,,,,,,,,,,,,,,,,,,,,,,,,,,,,,,,,,,,,,,,,,,,,,,,,,,,,,,,,
,,,,,,,,,,stimuli/images/PICTURE_356.png,CANDY,5eb96457ed4e980484601bf7,29/11/2000,2020-07-08_16h15.45.661,proactive,2020.1.2,MacIntel,60,5f035e5afe130c270d6ae6dd,5f05e30d4925e40b942457e7,6,,,,,,pawn,,,,,,0,4,4,46,1,5,2,,,,,,,,,,,,,,,,,,,,,,,,,,,,,,,,,,,,,,,,,,,,,,,,,,,,,,,,,,,,,,,,,,,,,,,,,,,
,,,,,,,,,,stimuli/images/PICTURE_405.png,JUNGLE,5eb96457ed4e980484601bf7,29/11/2000,2020-07-08_16h15.45.661,proactive,2020.1.2,MacIntel,60,5f035e5afe130c270d6ae6dd,5f05e30d4925e40b942457e7,6,,,,,,anchor,,,,,,0,5,5,13,1,2,2,,,,,,,,,,,,,,,,,,,,,,,,,,,,,,,,,,,,,,,,,,,,,,,,,,,,,,,,,,,,,,,,,,,,,,,,,,,
,,,,,,,,,,stimuli/images/PICTURE_33.png,COPS,5eb96457ed4e980484601bf7,29/11/2000,2020-07-08_16h15.45.661,proactive,2020.1.2,MacIntel,60,5f035e5afe130c270d6ae6dd,5f05e30d4925e40b942457e7,6,,,,,,frame,,,,,,0,6,6,29,1,3,2,,,,,,,,,,,,,,,,,,,,,,,,,,,,,,,,,,,,,,,,,,,,,,,,,,,,,,,,,,,,,,,,,,,,,,,,,,,
,,,,,,,,,,stimuli/images/PICTURE_2.png,YARD,5eb96457ed4e980484601bf7,29/11/2000,2020-07-08_16h15.45.661,proactive,2020.1.2,MacIntel,60,5f035e5afe130c270d6ae6dd,5f05e30d4925e40b942457e7,6,,,,,,tyre,,,,,,0,7,7,55,1,6,2,,,,,,,,,,,,,,,,,,,,,,,,,,,,,,,,,,,,,,,,,,,,,,,,,,,,,,,,,,,,,,,,,,,,,,,,,,,
,,,,,,,,,,stimuli/images/PICTURE_509.png,BATH,5eb96457ed4e980484601bf7,29/11/2000,2020-07-08_16h15.45.661,proactive,2020.1.2,MacIntel,60,5f035e5afe130c270d6ae6dd,5f05e30d4925e40b942457e7,6,,,,,,telephone,,,,,,0,8,8,15,1,2,2,,,,,,,,,,,,,,,,,,,,,,,,,,,,,,,,,,,,,,,,,,,,,,,,,,,,,,,,,,,,,,,,,,,,,,,,,,,
,,,,,,,,,,stimuli/images/PICTURE_470.png,BEAUTY,5eb96457ed4e980484601bf7,29/11/2000,2020-07-08_16h15.45.661,proactive,2020.1.2,MacIntel,60,5f035e5afe130c270d6ae6dd,5f05e30d4925e40b942457e7,6,,,,,,motorbike,,,,,,0,9,9,26,1,3,2,,,,,,,,,,,,,,,,,,,,,,,,,,,,,,,,,,,,,,,,,,,,,,,,,,,,,,,,,,,,,,,,,,,,,,,,,,,
,,,,,,,,,,stimuli/images/PICTURE_160.png,HOTEL,5eb96457ed4e980484601bf7,29/11/2000,2020-07-08_16h15.45.661,proactive,2020.1.2,MacIntel,60,5f035e5afe130c270d6ae6dd,5f05e30d4925e40b942457e7,6,,,,,,wheelbarrow,,,,,,0,10,10,16,1,2,2,,,,,,,,,,,,,,,,,,,,,,,,,,,,,,,,,,,,,,,,,,,,,,,,,,,,,,,,,,,,,,,,,,,,,,,,,,,
,,,,,,,,,,stimuli/images/PICTURE_215.png,FOOD,5eb96457ed4e980484601bf7,29/11/2000,2020-07-08_16h15.45.661,proactive,2020.1.2,MacIntel,60,5f035e5afe130c270d6ae6dd,5f05e30d4925e40b942457e7,6,,,,,,boot,,,,,,0,11,11,5,1,1,2,,,,,,,,,,,,,,,,,,,,,,,,,,,,,,,,,,,,,,,,,,,,,,,,,,,,,,,,,,,,,,,,,,,,,,,,,,,
,,,,,,,,,,stimuli/images/PICTURE_255.png,PENNY,5eb96457ed4e980484601bf7,29/11/2000,2020-07-08_16h15.45.661,proactive,2020.1.2,MacIntel,60,5f035e5afe130c270d6ae6dd,5f05e30d4925e40b942457e7,6,,,,,,shovel,,,,,,0,12,12,19,1,2,2,,,,,,,,,,,,,,,,,,,,,,,,,,,,,,,,,,,,,,,,,,,,,,,,,,,,,,,,,,,,,,,,,,,,,,,,,,,
,,,,,,,,,,stimuli/images/PICTURE_403.png,FAMILY,5eb96457ed4e980484601bf7,29/11/2000,2020-07-08_16h15.45.661,proactive,2020.1.2,MacIntel,60,5f035e5afe130c270d6ae6dd,5f05e30d4925e40b942457e7,6,,,,,,cathedral,,,,,,0,13,13,9,1,1,2,,,,,,,,,,,,,,,,,,,,,,,,,,,,,,,,,,,,,,,,,,,,,,,,,,,,,,,,,,,,,,,,,,,,,,,,,,,
,,,,,,,,,,stimuli/images/PICTURE_708.png,VALLEY,5eb96457ed4e980484601bf7,29/11/2000,2020-07-08_16h15.45.661,proactive,2020.1.2,MacIntel,60,5f035e5afe130c270d6ae6dd,5f05e30d4925e40b942457e7,6,,,,,,monkey,,,,,,0,14,14,45,1,5,2,,,,,,,,,,,,,,,,,,,,,,,,,,,,,,,,,,,,,,,,,,,,,,,,,,,,,,,,,,,,,,,,,,,,,,,,,,,
,,,,,,,,,,stimuli/images/PICTURE_654.png,COPS,5eb96457ed4e980484601bf7,29/11/2000,2020-07-08_16h15.45.661,proactive,2020.1.2,MacIntel,60,5f035e5afe130c270d6ae6dd,5f05e30d4925e40b942457e7,6,,,,,,pencil,,,,,,0,15,15,10,1,2,2,,,,,,,,,,,,,,,,,,,,,,,,,,,,,,,,,,,,,,,,,,,,,,,,,,,,,,,,,,,,,,,,,,,,,,,,,,,
,,,,,,,,,,stimuli/images/PICTURE_2.png,JUNGLE,5eb96457ed4e980484601bf7,29/11/2000,2020-07-08_16h15.45.661,proactive,2020.1.2,MacIntel,60,5f035e5afe130c270d6ae6dd,5f05e30d4925e40b942457e7,6,,,,,,tyre,,,,,,0,16,16,1,1,1,2,,,,,,,,,,,,,,,,,,,,,,,,,,,,,,,,,,,,,,,,,,,,,,,,,,,,,,,,,,,,,,,,,,,,,,,,,,,
,,,,,,,,,,stimuli/images/PICTURE_57.png,NATION,5eb96457ed4e980484601bf7,29/11/2000,2020-07-08_16h15.45.661,proactive,2020.1.2,MacIntel,60,5f035e5afe130c270d6ae6dd,5f05e30d4925e40b942457e7,6,,,,,,stamp,,,,,,0,17,17,21,1,3,2,,,,,,,,,,,,,,,,,,,,,,,,,,,,,,,,,,,,,,,,,,,,,,,,,,,,,,,,,,,,,,,,,,,,,,,,,,,
,,,,,,,,,,stimuli/images/PICTURE_667.png,GLASS,5eb96457ed4e980484601bf7,29/11/2000,2020-07-08_16h15.45.661,proactive,2020.1.2,MacIntel,60,5f035e5afe130c270d6ae6dd,5f05e30d4925e40b942457e7,6,,,,,,daisy,,,,,,0,18,18,27,1,3,2,,,,,,,,,,,,,,,,,,,,,,,,,,,,,,,,,,,,,,,,,,,,,,,,,,,,,,,,,,,,,,,,,,,,,,,,,,,
,,,,,,,,,,stimuli/images/PICTURE_750.png,POLICY,5eb96457ed4e980484601bf7,29/11/2000,2020-07-08_16h15.45.661,proactive,2020.1.2,MacIntel,60,5f035e5afe130c270d6ae6dd,5f05e30d4925e40b942457e7,6,,,,,,kettle,,,,,,0,19,19,44,1,5,2,,,,,,,,,,,,,,,,,,,,,,,,,,,,,,,,,,,,,,,,,,,,,,,,,,,,,,,,,,,,,,,,,,,,,,,,,,,
,,,,,,,,,,stimuli/images/PICTURE_296.png,CLOCK,5eb96457ed4e980484601bf7,29/11/2000,2020-07-08_16h15.45.661,proactive,2020.1.2,MacIntel,60,5f035e5afe130c270d6ae6dd,5f05e30d4925e40b942457e7,6,,,,,,bolt,,,,,,0,20,20,18,1,2,2,,,,,,,,,,,,,,,,,,,,,,,,,,,,,,,,,,,,,,,,,,,,,,,,,,,,,,,,,,,,,,,,,,,,,,,,,,,
,,,,,,,,,,stimuli/images/PICTURE_297.png,BODY,5eb96457ed4e980484601bf7,29/11/2000,2020-07-08_16h15.45.661,proactive,2020.1.2,MacIntel,60,5f035e5afe130c270d6ae6dd,5f05e30d4925e40b942457e7,6,,,,,,aeroplane,,,,,,0,21,21,51,1,6,2,,,,,,,,,,,,,,,,,,,,,,,,,,,,,,,,,,,,,,,,,,,,,,,,,,,,,,,,,,,,,,,,,,,,,,,,,,,
,,,,,,,,,,stimuli/images/PICTURE_314.png,SPEECH,5eb96457ed4e980484601bf7,29/11/2000,2020-07-08_16h15.45.661,proactive,2020.1.2,MacIntel,60,5f035e5afe130c270d6ae6dd,5f05e30d4925e40b942457e7,6,,,,,,perfume,,,,,,0,22,22,35,1,4,2,,,,,,,,,,,,,,,,,,,,,,,,,,,,,,,,,,,,,,,,,,,,,,,,,,,,,,,,,,,,,,,,,,,,,,,,,,,
,,,,,,,,,,stimuli/images/PICTURE_348.png,TOILET,5eb96457ed4e980484601bf7,29/11/2000,2020-07-08_16h15.45.661,proactive,2020.1.2,MacIntel,60,5f035e5afe130c270d6ae6dd,5f05e30d4925e40b942457e7,6,,,,,,pepper,,,,,,0,23,23,4,1,1,2,,,,,,,,,,,,,,,,,,,,,,,,,,,,,,,,,,,,,,,,,,,,,,,,,,,,,,,,,,,,,,,,,,,,,,,,,,,
,,,,,,,,,,stimuli/images/PICTURE_491.png,SERIES,5eb96457ed4e980484601bf7,29/11/2000,2020-07-08_16h15.45.661,proactive,2020.1.2,MacIntel,60,5f035e5afe130c270d6ae6dd,5f05e30d4925e40b942457e7,6,,,,,,rug,,,,,,0,24,24,39,1,4,2,,,,,,,,,,,,,,,,,,,,,,,,,,,,,,,,,,,,,,,,,,,,,,,,,,,,,,,,,,,,,,,,,,,,,,,,,,,
,,,,,,,,,,stimuli/images/PICTURE_487.png,ROOF,5eb96457ed4e980484601bf7,29/11/2000,2020-07-08_16h15.45.661,proactive,2020.1.2,MacIntel,60,5f035e5afe130c270d6ae6dd,5f05e30d4925e40b942457e7,6,,,,,,basket,,,,,,0,25,25,50,1,6,2,,,,,,,,,,,,,,,,,,,,,,,,,,,,,,,,,,,,,,,,,,,,,,,,,,,,,,,,,,,,,,,,,,,,,,,,,,,
,,,,,,,,,,stimuli/images/PICTURE_453.png,FAMILY,5eb96457ed4e980484601bf7,29/11/2000,2020-07-08_16h15.45.661,proactive,2020.1.2,MacIntel,60,5f035e5afe130c270d6ae6dd,5f05e30d4925e40b942457e7,6,,,,,,scissors,,,,,,0,26,26,48,1,5,2,,,,,,,,,,,,,,,,,,,,,,,,,,,,,,,,,,,,,,,,,,,,,,,,,,,,,,,,,,,,,,,,,,,,,,,,,,,
,,,,,,,,,,stimuli/images/PICTURE_677.png,FAMILY,5eb96457ed4e980484601bf7,29/11/2000,2020-07-08_16h15.45.661,proactive,2020.1.2,MacIntel,60,5f035e5afe130c270d6ae6dd,5f05e30d4925e40b942457e7,6,,,,,,map,,,,,,0,27,27,53,1,6,2,,,,,,,,,,,,,,,,,,,,,,,,,,,,,,,,,,,,,,,,,,,,,,,,,,,,,,,,,,,,,,,,,,,,,,,,,,,
,,,,,,,,,,stimuli/images/PICTURE_677.png,PHOTO,5eb96457ed4e980484601bf7,29/11/2000,2020-07-08_16h15.45.661,proactive,2020.1.2,MacIntel,60,5f035e5afe130c270d6ae6dd,5f05e30d4925e40b942457e7,6,,,,,,map,,,,,,0,28,28,14,1,2,2,,,,,,,,,,,,,,,,,,,,,,,,,,,,,,,,,,,,,,,,,,,,,,,,,,,,,,,,,,,,,,,,,,,,,,,,,,,
,,,,,,,,,,stimuli/images/PICTURE_141.png,CLIENT,5eb96457ed4e980484601bf7,29/11/2000,2020-07-08_16h15.45.661,proactive,2020.1.2,MacIntel,60,5f035e5afe130c270d6ae6dd,5f05e30d4925e40b942457e7,6,,,,,,sunflower,,,,,,0,29,29,30,1,4,2,,,,,,,,,,,,,,,,,,,,,,,,,,,,,,,,,,,,,,,,,,,,,,,,,,,,,,,,,,,,,,,,,,,,,,,,,,,
,,,,,,,,,,stimuli/images/PICTURE_452.png,COPS,5eb96457ed4e980484601bf7,29/11/2000,2020-07-08_16h15.45.661,proactive,2020.1.2,MacIntel,60,5f035e5afe130c270d6ae6dd,5f05e30d4925e40b942457e7,6,,,,,,watch,,,,,,0,30,30,0,1,1,2,,,,,,,,,,,,,,,,,,,,,,,,,,,,,,,,,,,,,,,,,,,,,,,,,,,,,,,,,,,,,,,,,,,,,,,,,,,
,,,,,,,,,,stimuli/images/PICTURE_509.png,MILLER,5eb96457ed4e980484601bf7,29/11/2000,2020-07-08_16h15.45.661,proactive,2020.1.2,MacIntel,60,5f035e5afe130c270d6ae6dd,5f05e30d4925e40b942457e7,6,,,,,,telephone,,,,,,0,31,31,49,1,5,2,,,,,,,,,,,,,,,,,,,,,,,,,,,,,,,,,,,,,,,,,,,,,,,,,,,,,,,,,,,,,,,,,,,,,,,,,,,
,,,,,,,,,,stimuli/images/PICTURE_93.png,GIRL,5eb96457ed4e980484601bf7,29/11/2000,2020-07-08_16h15.45.661,proactive,2020.1.2,MacIntel,60,5f035e5afe130c270d6ae6dd,5f05e30d4925e40b942457e7,6,,,,,,skateboard,,,,,,0,32,32,31,1,4,2,,,,,,,,,,,,,,,,,,,,,,,,,,,,,,,,,,,,,,,,,,,,,,,,,,,,,,,,,,,,,,,,,,,,,,,,,,,
,,,,,,,,,,stimuli/images/PICTURE_95.png,NIGHT,5eb96457ed4e980484601bf7,29/11/2000,2020-07-08_16h15.45.661,proactive,2020.1.2,MacIntel,60,5f035e5afe130c270d6ae6dd,5f05e30d4925e40b942457e7,6,,,,,,suitcase,,,,,,0,33,33,37,1,4,2,,,,,,,,,,,,,,,,,,,,,,,,,,,,,,,,,,,,,,,,,,,,,,,,,,,,,,,,,,,,,,,,,,,,,,,,,,,
,,,,,,,,,,stimuli/images/PICTURE_215.png,BOYS,5eb96457ed4e980484601bf7,29/11/2000,2020-07-08_16h15.45.661,proactive,2020.1.2,MacIntel,60,5f035e5afe130c270d6ae6dd,5f05e30d4925e40b942457e7,6,,,,,,boot,,,,,,0,34,34,24,1,3,2,,,,,,,,,,,,,,,,,,,,,,,,,,,,,,,,,,,,,,,,,,,,,,,,,,,,,,,,,,,,,,,,,,,,,,,,,,,
,,,,,,,,,,stimuli/images/PICTURE_655.png,SALE,5eb96457ed4e980484601bf7,29/11/2000,2020-07-08_16h15.45.661,proactive,2020.1.2,MacIntel,60,5f035e5afe130c270d6ae6dd,5f05e30d4925e40b942457e7,6,,,,,,megaphone,,,,,,0,35,35,57,1,6,2,,,,,,,,,,,,,,,,,,,,,,,,,,,,,,,,,,,,,,,,,,,,,,,,,,,,,,,,,,,,,,,,,,,,,,,,,,,
,,,,,,,,,,stimuli/images/PICTURE_147.png,LEADER,5eb96457ed4e980484601bf7,29/11/2000,2020-07-08_16h15.45.661,proactive,2020.1.2,MacIntel,60,5f035e5afe130c270d6ae6dd,5f05e30d4925e40b942457e7,6,,,,,,hanger,,,,,,0,36,36,33,1,4,2,,,,,,,,,,,,,,,,,,,,,,,,,,,,,,,,,,,,,,,,,,,,,,,,,,,,,,,,,,,,,,,,,,,,,,,,,,,
,,,,,,,,,,stimuli/images/PICTURE_509.png,SHOTS,5eb96457ed4e980484601bf7,29/11/2000,2020-07-08_16h15.45.661,proactive,2020.1.2,MacIntel,60,5f035e5afe130c270d6ae6dd,5f05e30d4925e40b942457e7,6,,,,,,telephone,,,,,,0,37,37,7,1,1,2,,,,,,,,,,,,,,,,,,,,,,,,,,,,,,,,,,,,,,,,,,,,,,,,,,,,,,,,,,,,,,,,,,,,,,,,,,,
,,,,,,,,,,stimuli/images/PICTURE_68.png,KIND,5eb96457ed4e980484601bf7,29/11/2000,2020-07-08_16h15.45.661,proactive,2020.1.2,MacIntel,60,5f035e5afe130c270d6ae6dd,5f05e30d4925e40b942457e7,6,,,,,,candle,,,,,,0,38,38,23,1,3,2,,,,,,,,,,,,,,,,,,,,,,,,,,,,,,,,,,,,,,,,,,,,,,,,,,,,,,,,,,,,,,,,,,,,,,,,,,,
,,,,,,,,,,stimuli/images/PICTURE_285.png,PRINCE,5eb96457ed4e980484601bf7,29/11/2000,2020-07-08_16h15.45.661,proactive,2020.1.2,MacIntel,60,5f035e5afe130c270d6ae6dd,5f05e30d4925e40b942457e7,6,,,,,,carrot,,,,,,0,39,39,20,1,3,2,,,,,,,,,,,,,,,,,,,,,,,,,,,,,,,,,,,,,,,,,,,,,,,,,,,,,,,,,,,,,,,,,,,,,,,,,,,
,,,,,,,,,,stimuli/images/PICTURE_18.png,RIVER,5eb96457ed4e980484601bf7,29/11/2000,2020-07-08_16h15.45.661,proactive,2020.1.2,MacIntel,60,5f035e5afe130c270d6ae6dd,5f05e30d4925e40b942457e7,6,,,,,,planet,,,,,,0,40,40,22,1,3,2,,,,,,,,,,,,,,,,,,,,,,,,,,,,,,,,,,,,,,,,,,,,,,,,,,,,,,,,,,,,,,,,,,,,,,,,,,,
,,,,,,,,,,stimuli/images/PICTURE_327.png,LEADER,5eb96457ed4e980484601bf7,29/11/2000,2020-07-08_16h15.45.661,proactive,2020.1.2,MacIntel,60,5f035e5afe130c270d6ae6dd,5f05e30d4925e40b942457e7,6,,,,,,helmet,,,,,,0,41,41,17,1,2,2,,,,,,,,,,,,,,,,,,,,,,,,,,,,,,,,,,,,,,,,,,,,,,,,,,,,,,,,,,,,,,,,,,,,,,,,,,,
,,,,,,,,,,stimuli/images/PICTURE_311.png,FLESH,5eb96457ed4e980484601bf7,29/11/2000,2020-07-08_16h15.45.661,proactive,2020.1.2,MacIntel,60,5f035e5afe130c270d6ae6dd,5f05e30d4925e40b942457e7,6,,,,,,razor,,,,,,0,42,42,3,1,1,2,,,,,,,,,,,,,,,,,,,,,,,,,,,,,,,,,,,,,,,,,,,,,,,,,,,,,,,,,,,,,,,,,,,,,,,,,,,
,,,,,,,,,,stimuli/images/PICTURE_32.png,LETTER,5eb96457ed4e980484601bf7,29/11/2000,2020-07-08_16h15.45.661,proactive,2020.1.2,MacIntel,60,5f035e5afe130c270d6ae6dd,5f05e30d4925e40b942457e7,6,,,,,,crown,,,,,,0,43,43,56,1,6,2,,,,,,,,,,,,,,,,,,,,,,,,,,,,,,,,,,,,,,,,,,,,,,,,,,,,,,,,,,,,,,,,,,,,,,,,,,,
,,,,,,,,,,stimuli/images/PICTURE_405.png,JUNGLE,5eb96457ed4e980484601bf7,29/11/2000,2020-07-08_16h15.45.661,proactive,2020.1.2,MacIntel,60,5f035e5afe130c270d6ae6dd,5f05e30d4925e40b942457e7,6,,,,,,anchor,,,,,,0,44,44,58,1,6,2,,,,,,,,,,,,,,,,,,,,,,,,,,,,,,,,,,,,,,,,,,,,,,,,,,,,,,,,,,,,,,,,,,,,,,,,,,,
,,,,,,,,,,stimuli/images/PICTURE_348.png,DUDE,5eb96457ed4e980484601bf7,29/11/2000,2020-07-08_16h15.45.661,proactive,2020.1.2,MacIntel,60,5f035e5afe130c270d6ae6dd,5f05e30d4925e40b942457e7,6,,,,,,pepper,,,,,,0,45,45,59,1,6,2,,,,,,,,,,,,,,,,,,,,,,,,,,,,,,,,,,,,,,,,,,,,,,,,,,,,,,,,,,,,,,,,,,,,,,,,,,,
,,,,,,,,,,stimuli/images/PICTURE_509.png,APPLE,5eb96457ed4e980484601bf7,29/11/2000,2020-07-08_16h15.45.661,proactive,2020.1.2,MacIntel,60,5f035e5afe130c270d6ae6dd,5f05e30d4925e40b942457e7,6,,,,,,telephone,,,,,,0,46,46,38,1,4,2,,,,,,,,,,,,,,,,,,,,,,,,,,,,,,,,,,,,,,,,,,,,,,,,,,,,,,,,,,,,,,,,,,,,,,,,,,,
,,,,,,,,,,stimuli/images/PICTURE_692.png,DUDE,5eb96457ed4e980484601bf7,29/11/2000,2020-07-08_16h15.45.661,proactive,2020.1.2,MacIntel,60,5f035e5afe130c270d6ae6dd,5f05e30d4925e40b942457e7,6,,,,,,cherry,,,,,,0,47,47,47,1,5,2,,,,,,,,,,,,,,,,,,,,,,,,,,,,,,,,,,,,,,,,,,,,,,,,,,,,,,,,,,,,,,,,,,,,,,,,,,,
,,,,,,,,,,stimuli/images/PICTURE_2.png,AREA,5eb96457ed4e980484601bf7,29/11/2000,2020-07-08_16h15.45.661,proactive,2020.1.2,MacIntel,60,5f035e5afe130c270d6ae6dd,5f05e30d4925e40b942457e7,6,,,,,,tyre,,,,,,0,48,48,32,1,4,2,,,,,,,,,,,,,,,,,,,,,,,,,,,,,,,,,,,,,,,,,,,,,,,,,,,,,,,,,,,,,,,,,,,,,,,,,,,
,,,,,,,,,,stimuli/images/PICTURE_57.png,CASINO,5eb96457ed4e980484601bf7,29/11/2000,2020-07-08_16h15.45.661,proactive,2020.1.2,MacIntel,60,5f035e5afe130c270d6ae6dd,5f05e30d4925e40b942457e7,6,,,,,,stamp,,,,,,0,49,49,12,1,2,2,,,,,,,,,,,,,,,,,,,,,,,,,,,,,,,,,,,,,,,,,,,,,,,,,,,,,,,,,,,,,,,,,,,,,,,,,,,
,,,,,,,,,,stimuli/images/PICTURE_405.png,HOUSE,5eb96457ed4e980484601bf7,29/11/2000,2020-07-08_16h15.45.661,proactive,2020.1.2,MacIntel,60,5f035e5afe130c270d6ae6dd,5f05e30d4925e40b942457e7,6,,,,,,anchor,,,,,,0,50,50,2,1,1,2,,,,,,,,,,,,,,,,,,,,,,,,,,,,,,,,,,,,,,,,,,,,,,,,,,,,,,,,,,,,,,,,,,,,,,,,,,,
,,,,,,,,,,stimuli/images/PICTURE_285.png,WRITER,5eb96457ed4e980484601bf7,29/11/2000,2020-07-08_16h15.45.661,proactive,2020.1.2,MacIntel,60,5f035e5afe130c270d6ae6dd,5f05e30d4925e40b942457e7,6,,,,,,carrot,,,,,,0,51,51,6,1,1,2,,,,,,,,,,,,,,,,,,,,,,,,,,,,,,,,,,,,,,,,,,,,,,,,,,,,,,,,,,,,,,,,,,,,,,,,,,,
,,,,,,,,,,stimuli/images/PICTURE_215.png,LEADER,5eb96457ed4e980484601bf7,29/11/2000,2020-07-08_16h15.45.661,proactive,2020.1.2,MacIntel,60,5f035e5afe130c270d6ae6dd,5f05e30d4925e40b942457e7,6,,,,,,boot,,,,,,0,52,52,43,1,5,2,,,,,,,,,,,,,,,,,,,,,,,,,,,,,,,,,,,,,,,,,,,,,,,,,,,,,,,,,,,,,,,,,,,,,,,,,,,
,,,,,,,,,,stimuli/images/PICTURE_123.png,SALE,5eb96457ed4e980484601bf7,29/11/2000,2020-07-08_16h15.45.661,proactive,2020.1.2,MacIntel,60,5f035e5afe130c270d6ae6dd,5f05e30d4925e40b942457e7,6,,,,,,dart,,,,,,0,53,53,8,1,1,2,,,,,,,,,,,,,,,,,,,,,,,,,,,,,,,,,,,,,,,,,,,,,,,,,,,,,,,,,,,,,,,,,,,,,,,,,,,
,,,,,,,,,,stimuli/images/PICTURE_311.png,TOILET,5eb96457ed4e980484601bf7,29/11/2000,2020-07-08_16h15.45.661,proactive,2020.1.2,MacIntel,60,5f035e5afe130c270d6ae6dd,5f05e30d4925e40b942457e7,6,,,,,,razor,,,,,,0,54,54,54,1,6,2,,,,,,,,,,,,,,,,,,,,,,,,,,,,,,,,,,,,,,,,,,,,,,,,,,,,,,,,,,,,,,,,,,,,,,,,,,,
,,,,,,,,,,stimuli/images/PICTURE_688.png,CLOCK,5eb96457ed4e980484601bf7,29/11/2000,2020-07-08_16h15.45.661,proactive,2020.1.2,MacIntel,60,5f035e5afe130c270d6ae6dd,5f05e30d4925e40b942457e7,6,,,,,,runner,,,,,,0,55,55,42,1,5,2,,,,,,,,,,,,,,,,,,,,,,,,,,,,,,,,,,,,,,,,,,,,,,,,,,,,,,,,,,,,,,,,,,,,,,,,,,,
,,,,,,,,,,stimuli/images/PICTURE_470.png,MOMENT,5eb96457ed4e980484601bf7,29/11/2000,2020-07-08_16h15.45.661,proactive,2020.1.2,MacIntel,60,5f035e5afe130c270d6ae6dd,5f05e30d4925e40b942457e7,6,,,,,,motorbike,,,,,,0,56,56,40,1,5,2,,,,,,,,,,,,,,,,,,,,,,,,,,,,,,,,,,,,,,,,,,,,,,,,,,,,,,,,,,,,,,,,,,,,,,,,,,,
,,,,,,,,,,stimuli/images/PICTURE_487.png,POLICY,5eb96457ed4e980484601bf7,29/11/2000,2020-07-08_16h15.45.661,proactive,2020.1.2,MacIntel,60,5f035e5afe130c270d6ae6dd,5f05e30d4925e40b942457e7,6,,,,,,basket,,,,,,0,57,57,34,1,4,2,,,,,,,,,,,,,,,,,,,,,,,,,,,,,,,,,,,,,,,,,,,,,,,,,,,,,,,,,,,,,,,,,,,,,,,,,,,
,,,,,,,,,,stimuli/images/PICTURE_57.png,CANDY,5eb96457ed4e980484601bf7,29/11/2000,2020-07-08_16h15.45.661,proactive,2020.1.2,MacIntel,60,5f035e5afe130c270d6ae6dd,5f05e30d4925e40b942457e7,6,,,,,,stamp,,,,,,0,58,58,52,1,6,2,,,,,,,,,,,,,,,,,,,,,,,,,,,,,,,,,,,,,,,,,,,,,,,,,,,,,,,,,,,,,,,,,,,,,,,,,,,
,,?,0.000835,0,,,,,,stimuli/images/PICTURE_708.png,VALLEY,5eb96457ed4e980484601bf7,29/11/2000,2020-07-08_16h15.45.661,proactive,2020.1.2,MacIntel,60,5f035e5afe130c270d6ae6dd,5f05e30d4925e40b942457e7,6,,,,,,monkey,,,,,,,,,,,5,2,0,0,0,45,1,,,,,,,,,,,,,,,,,,,,,,,,,,,,,,,,,,,,,,,,,,,,,,,,,,,,,,,,,,,,,,,,,,,,,,
,,?,0.000665,0,,,,,,stimuli/images/PICTURE_18.png,RIVER,5eb96457ed4e980484601bf7,29/11/2000,2020-07-08_16h15.45.661,proactive,2020.1.2,MacIntel,60,5f035e5afe130c270d6ae6dd,5f05e30d4925e40b942457e7,6,,,,,,planet,,,,,,,,,,,3,2,0,1,1,22,1,,,,,,,,,,,,,,,,,,,,,,,,,,,,,,,,,,,,,,,,,,,,,,,,,,,,,,,,,,,,,,,,,,,,,,
,,?,0.000795,0,,,,,,stimuli/images/PICTURE_667.png,GLASS,5eb96457ed4e980484601bf7,29/11/2000,2020-07-08_16h15.45.661,proactive,2020.1.2,MacIntel,60,5f035e5afe130c270d6ae6dd,5f05e30d4925e40b942457e7,6,,,,,,daisy,,,,,,,,,,,3,2,0,2,2,27,1,,,,,,,,,,,,,,,,,,,,,,,,,,,,,,,,,,,,,,,,,,,,,,,,,,,,,,,,,,,,,,,,,,,,,,
,,?,0.00082,0,,,,,,stimuli/images/PICTURE_255.png,PENNY,5eb96457ed4e980484601bf7,29/11/2000,2020-07-08_16h15.45.661,proactive,2020.1.2,MacIntel,60,5f035e5afe130c270d6ae6dd,5f05e30d4925e40b942457e7,6,,,,,,shovel,,,,,,,,,,,2,2,0,3,3,19,1,,,,,,,,,,,,,,,,,,,,,,,,,,,,,,,,,,,,,,,,,,,,,,,,,,,,,,,,,,,,,,,,,,,,,,
,,?,0.00061,0,,,,,,stimuli/images/PICTURE_677.png,PHOTO,5eb96457ed4e980484601bf7,29/11/2000,2020-07-08_16h15.45.661,proactive,2020.1.2,MacIntel,60,5f035e5afe130c270d6ae6dd,5f05e30d4925e40b942457e7,6,,,,,,map,,,,,,,,,,,2,2,0,4,4,14,1,,,,,,,,,,,,,,,,,,,,,,,,,,,,,,,,,,,,,,,,,,,,,,,,,,,,,,,,,,,,,,,,,,,,,,
,,?,0.000585,0,,,,,,stimuli/images/PICTURE_141.png,CLIENT,5eb96457ed4e980484601bf7,29/11/2000,2020-07-08_16h15.45.661,proactive,2020.1.2,MacIntel,60,5f035e5afe130c270d6ae6dd,5f05e30d4925e40b942457e7,6,,,,,,sunflower,,,,,,,,,,,4,2,0,5,5,30,1,,,,,,,,,,,,,,,,,,,,,,,,,,,,,,,,,,,,,,,,,,,,,,,,,,,,,,,,,,,,,,,,,,,,,,
,,?,0.00056,0,,,,,,stimuli/images/PICTURE_215.png,BOYS,5eb96457ed4e980484601bf7,29/11/2000,2020-07-08_16h15.45.661,proactive,2020.1.2,MacIntel,60,5f035e5afe130c270d6ae6dd,5f05e30d4925e40b942457e7,6,,,,,,boot,,,,,,,,,,,3,2,0,6,6,24,1,,,,,,,,,,,,,,,,,,,,,,,,,,,,,,,,,,,,,,,,,,,,,,,,,,,,,,,,,,,,,,,,,,,,,,
,,?,0.00059,0,,,,,,stimuli/images/PICTURE_160.png,HOTEL,5eb96457ed4e980484601bf7,29/11/2000,2020-07-08_16h15.45.661,proactive,2020.1.2,MacIntel,60,5f035e5afe130c270d6ae6dd,5f05e30d4925e40b942457e7,6,,,,,,wheelbarrow,,,,,,,,,,,2,2,0,7,7,16,1,,,,,,,,,,,,,,,,,,,,,,,,,,,,,,,,,,,,,,,,,,,,,,,,,,,,,,,,,,,,,,,,,,,,,,
,,?,0.000565,0,,,,,,stimuli/images/PICTURE_296.png,CLOCK,5eb96457ed4e980484601bf7,29/11/2000,2020-07-08_16h15.45.661,proactive,2020.1.2,MacIntel,60,5f035e5afe130c270d6ae6dd,5f05e30d4925e40b942457e7,6,,,,,,bolt,,,,,,,,,,,2,2,0,8,8,18,1,,,,,,,,,,,,,,,,,,,,,,,,,,,,,,,,,,,,,,,,,,,,,,,,,,,,,,,,,,,,,,,,,,,,,,
,,?,0.00055,0,,,,,,stimuli/images/PICTURE_509.png,SHOTS,5eb96457ed4e980484601bf7,29/11/2000,2020-07-08_16h15.45.661,proactive,2020.1.2,MacIntel,60,5f035e5afe130c270d6ae6dd,5f05e30d4925e40b942457e7,6,,,,,,telephone,,,,,,,,,,,1,2,0,9,9,7,1,,,,,,,,,,,,,,,,,,,,,,,,,,,,,,,,,,,,,,,,,,,,,,,,,,,,,,,,,,,,,,,,,,,,,,
,,?,0.00059,0,,,,,,stimuli/images/PICTURE_750.png,POLICY,5eb96457ed4e980484601bf7,29/11/2000,2020-07-08_16h15.45.661,proactive,2020.1.2,MacIntel,60,5f035e5afe130c270d6ae6dd,5f05e30d4925e40b942457e7,6,,,,,,kettle,,,,,,,,,,,5,2,0,10,10,44,1,,,,,,,,,,,,,,,,,,,,,,,,,,,,,,,,,,,,,,,,,,,,,,,,,,,,,,,,,,,,,,,,,,,,,,
,,TOILET,4.00453,1,,,,,,stimuli/images/PICTURE_311.png,TOILET,5eb96457ed4e980484601bf7,29/11/2000,2020-07-08_16h15.45.661,proactive,2020.1.2,MacIntel,60,5f035e5afe130c270d6ae6dd,5f05e30d4925e40b942457e7,6,,,,,,razor,,,,,,,,,,,6,2,0,11,11,54,1,,,,,,,,,,,,,,,,,,,,,,,,,,,,,,,,,,,,,,,,,,,,,,,,,,,,,,,,,,,,,,,,,,,,,,
,,?,0.00184,0,,,,,,stimuli/images/PICTURE_95.png,NIGHT,5eb96457ed4e980484601bf7,29/11/2000,2020-07-08_16h15.45.661,proactive,2020.1.2,MacIntel,60,5f035e5afe130c270d6ae6dd,5f05e30d4925e40b942457e7,6,,,,,,suitcase,,,,,,,,,,,4,2,0,12,12,37,1,,,,,,,,,,,,,,,,,,,,,,,,,,,,,,,,,,,,,,,,,,,,,,,,,,,,,,,,,,,,,,,,,,,,,,
,,?,0.000985,0,,,,,,stimuli/images/PICTURE_403.png,FAMILY,5eb96457ed4e980484601bf7,29/11/2000,2020-07-08_16h15.45.661,proactive,2020.1.2,MacIntel,60,5f035e5afe130c270d6ae6dd,5f05e30d4925e40b942457e7,6,,,,,,cathedral,,,,,,,,,,,1,2,0,13,13,9,1,,,,,,,,,,,,,,,,,,,,,,,,,,,,,,,,,,,,,,,,,,,,,,,,,,,,,,,,,,,,,,,,,,,,,,
