consent_key.keys,consent_key.rt,recalled,recalled_rt,recall_acc,example_recall.thisRepN,example_recall.thisTrialN,example_recall.thisN,example_recall.thisIndex,example_recall.ran,file,word,participant,date,expName,psychopyVersion,OS,frameRate,STUDY_ID,SESSION_ID,list,prac_learn_study_loop.thisRepN,prac_learn_study_loop.thisTrialN,prac_learn_study_loop.thisN,prac_learn_study_loop.thisIndex,prac_learn_study_loop.ran,image,prac_learn_test_loop.thisRepN,prac_learn_test_loop.thisTrialN,prac_learn_test_loop.thisN,prac_learn_test_loop.thisIndex,prac_learn_test_loop.ran,learn_study_loop.thisRepN,learn_study_loop.thisTrialN,learn_study_loop.thisN,learn_study_loop.thisIndex,learn_study_loop.ran,list_no,block_no,learn_test_loop.thisRepN,learn_test_loop.thisTrialN,learn_test_loop.thisN,learn_test_loop.thisIndex,learn_test_loop.ran,learn_blocks.thisRepN,learn_blocks.thisTrialN,learn_blocks.thisN,learn_blocks.thisIndex,learn_blocks.ran,block_csv,key_resp_13.keys,key_resp_13.rt,learn_blocks_loop.thisRepN,learn_blocks_loop.thisTrialN,learn_blocks_loop.thisN,learn_blocks_loop.thisIndex,learn_blocks_loop.ran,final_learn_test.thisRepN,final_learn_test.thisTrialN,final_learn_test.thisN,final_learn_test.thisIndex,final_learn_test.ran,prac_wm_test_loop.thisRepN,prac_wm_test_loop.thisTrialN,prac_wm_test_loop.thisN,prac_wm_test_loop.thisIndex,prac_wm_test_loop.ran,wm_recalled1,wm_recall_rt1,wm_probed1,wm_recall_acc1,wm_recalled2,wm_recall_rt2,wm_probed2,wm_recall_acc2,wm_recalled3,wm_recall_rt3,wm_probed3,wm_recall_acc3,wm_recalled4,wm_recall_rt4,wm_probed4,wm_recall_acc4,prac_wm_trial_loop.thisRepN,prac_wm_trial_loop.thisTrialN,prac_wm_trial_loop.thisN,prac_wm_trial_loop.thisIndex,prac_wm_trial_loop.ran,word1,image1,file1,item_type1,word2,image2,file2,item_type2,word4,image4,file4,item_type4,word3,image3,file3,item_type3,wm_test_loop.thisRepN,wm_test_loop.thisTrialN,wm_test_loop.thisN,wm_test_loop.thisIndex,wm_test_loop.ran,wm_trial_loop.thisRepN,wm_trial_loop.thisTrialN,wm_trial_loop.thisN,wm_trial_loop.thisIndex,wm_trial_loop.ran
y,12.67085,TOUGH,2.33481,1,0,0,0,0,1,stimuli/images/PICTURE_747.png,TOUGH,5ecff9937fd043096b2c1984,2020-06-30_14h41.11.110,proactive,2020.1.2,Win32,60,5efb791ed4cb570da489e737,5efb87214baea00fc3eee071,4,,,,,,,,,,,,,,,,,,,,,,,,,,,,,,,,,,,,,,,,,,,,,,,,,,,,,,,,,,,,,,,,,,,,,,,,,,,,,,,,,,,,,,,,,,,,,
,,,,,,,,,,stimuli/images/PICTURE_727.png,CELL,5ecff9937fd043096b2c1984,2020-06-30_14h41.11.110,proactive,2020.1.2,Win32,60,5efb791ed4cb570da489e737,5efb87214baea00fc3eee071,4,0,0,0,1,1,hose,,,,,,,,,,,,,,,,,,,,,,,,,,,,,,,,,,,,,,,,,,,,,,,,,,,,,,,,,,,,,,,,,,,,,,,,,,,,,,,,,,,,,,,
,,,,,,,,,,stimuli/images/PICTURE_697.png,KILLER,5ecff9937fd043096b2c1984,2020-06-30_14h41.11.110,proactive,2020.1.2,Win32,60,5efb791ed4cb570da489e737,5efb87214baea00fc3eee071,4,0,1,1,4,1,peach,,,,,,,,,,,,,,,,,,,,,,,,,,,,,,,,,,,,,,,,,,,,,,,,,,,,,,,,,,,,,,,,,,,,,,,,,,,,,,,,,,,,,,,
,,,,,,,,,,stimuli/images/PICTURE_378.png,LOSS,5ecff9937fd043096b2c1984,2020-06-30_14h41.11.110,proactive,2020.1.2,Win32,60,5efb791ed4cb570da489e737,5efb87214baea00fc3eee071,4,0,2,2,2,1,lobster,,,,,,,,,,,,,,,,,,,,,,,,,,,,,,,,,,,,,,,,,,,,,,,,,,,,,,,,,,,,,,,,,,,,,,,,,,,,,,,,,,,,,,,
,,,,,,,,,,stimuli/images/PICTURE_658.png,DEVIL,5ecff9937fd043096b2c1984,2020-06-30_14h41.11.110,proactive,2020.1.2,Win32,60,5efb791ed4cb570da489e737,5efb87214baea00fc3eee071,4,0,3,3,3,1,crow,,,,,,,,,,,,,,,,,,,,,,,,,,,,,,,,,,,,,,,,,,,,,,,,,,,,,,,,,,,,,,,,,,,,,,,,,,,,,,,,,,,,,,,
,,CELL,2.049905,1,,,,,,stimuli/images/PICTURE_727.png,CELL,5ecff9937fd043096b2c1984,2020-06-30_14h41.11.110,proactive,2020.1.2,Win32,60,5efb791ed4cb570da489e737,5efb87214baea00fc3eee071,4,,,,,,hose,0,0,0,1,1,,,,,,,,,,,,,,,,,,,,,,,,,,,,,,,,,,,,,,,,,,,,,,,,,,,,,,,,,,,,,,,,,,,,,,,,,,,,,,,,,,
,,KILLER,1.346655,0,,,,,,stimuli/images/PICTURE_658.png,DEVIL,5ecff9937fd043096b2c1984,2020-06-30_14h41.11.110,proactive,2020.1.2,Win32,60,5efb791ed4cb570da489e737,5efb87214baea00fc3eee071,4,,,,,,crow,0,1,1,3,1,,,,,,,,,,,,,,,,,,,,,,,,,,,,,,,,,,,,,,,,,,,,,,,,,,,,,,,,,,,,,,,,,,,,,,,,,,,,,,,,,,
,,LOSS,1.61426,1,,,,,,stimuli/images/PICTURE_378.png,LOSS,5ecff9937fd043096b2c1984,2020-06-30_14h41.11.110,proactive,2020.1.2,Win32,60,5efb791ed4cb570da489e737,5efb87214baea00fc3eee071,4,,,,,,lobster,0,2,2,2,1,,,,,,,,,,,,,,,,,,,,,,,,,,,,,,,,,,,,,,,,,,,,,,,,,,,,,,,,,,,,,,,,,,,,,,,,,,,,,,,,,,
,,KILLER,5.99288,0,,,,,,stimuli/images/PICTURE_269.png,GENIUS,5ecff9937fd043096b2c1984,2020-06-30_14h41.11.110,proactive,2020.1.2,Win32,60,5efb791ed4cb570da489e737,5efb87214baea00fc3eee071,4,,,,,,chameleon,0,3,3,0,1,,,,,,,,,,,,,,,,,,,,,,,,,,,,,,,,,,,,,,,,,,,,,,,,,,,,,,,,,,,,,,,,,,,,,,,,,,,,,,,,,,
,,KILLER,5.077575,1,,,,,,stimuli/images/PICTURE_697.png,KILLER,5ecff9937fd043096b2c1984,2020-06-30_14h41.11.110,proactive,2020.1.2,Win32,60,5efb791ed4cb570da489e737,5efb87214baea00fc3eee071,4,,,,,,peach,0,4,4,4,1,,,,,,,,,,,,,,,,,,,,,,,,,,,,,,,,,,,,,,,,,,,,,,,,,,,,,,,,,,,,,,,,,,,,,,,,,,,,,,,,,,
,,,,,,,,,,stimuli/images/PICTURE_32.png,KIND,5ecff9937fd043096b2c1984,2020-06-30_14h41.11.110,proactive,2020.1.2,Win32,60,5efb791ed4cb570da489e737,5efb87214baea00fc3eee071,4,,,,,,crown,,,,,,0,0,0,35,1,4,1,,,,,,,,,,,,,,,,,,,,,,,,,,,,,,,,,,,,,,,,,,,,,,,,,,,,,,,,,,,,,,,,,,,,,,,,,,,
,,,,,,,,,,stimuli/images/PICTURE_491.png,RIVER,5ecff9937fd043096b2c1984,2020-06-30_14h41.11.110,proactive,2020.1.2,Win32,60,5efb791ed4cb570da489e737,5efb87214baea00fc3eee071,4,,,,,,rug,,,,,,0,1,1,6,1,1,1,,,,,,,,,,,,,,,,,,,,,,,,,,,,,,,,,,,,,,,,,,,,,,,,,,,,,,,,,,,,,,,,,,,,,,,,,,,
,,,,,,,,,,stimuli/images/PICTURE_654.png,MONTH,5ecff9937fd043096b2c1984,2020-06-30_14h41.11.110,proactive,2020.1.2,Win32,60,5efb791ed4cb570da489e737,5efb87214baea00fc3eee071,4,,,,,,pencil,,,,,,0,2,2,29,1,3,1,,,,,,,,,,,,,,,,,,,,,,,,,,,,,,,,,,,,,,,,,,,,,,,,,,,,,,,,,,,,,,,,,,,,,,,,,,,
,,,,,,,,,,stimuli/images/PICTURE_405.png,PLENTY,5ecff9937fd043096b2c1984,2020-06-30_14h41.11.110,proactive,2020.1.2,Win32,60,5efb791ed4cb570da489e737,5efb87214baea00fc3eee071,4,,,,,,anchor,,,,,,0,3,3,23,1,3,1,,,,,,,,,,,,,,,,,,,,,,,,,,,,,,,,,,,,,,,,,,,,,,,,,,,,,,,,,,,,,,,,,,,,,,,,,,,
,,,,,,,,,,stimuli/images/PICTURE_667.png,RIVER,5ecff9937fd043096b2c1984,2020-06-30_14h41.11.110,proactive,2020.1.2,Win32,60,5efb791ed4cb570da489e737,5efb87214baea00fc3eee071,4,,,,,,daisy,,,,,,0,4,4,10,1,2,1,,,,,,,,,,,,,,,,,,,,,,,,,,,,,,,,,,,,,,,,,,,,,,,,,,,,,,,,,,,,,,,,,,,,,,,,,,,
,,,,,,,,,,stimuli/images/PICTURE_403.png,WRITER,5ecff9937fd043096b2c1984,2020-06-30_14h41.11.110,proactive,2020.1.2,Win32,60,5efb791ed4cb570da489e737,5efb87214baea00fc3eee071,4,,,,,,cathedral,,,,,,0,5,5,31,1,4,1,,,,,,,,,,,,,,,,,,,,,,,,,,,,,,,,,,,,,,,,,,,,,,,,,,,,,,,,,,,,,,,,,,,,,,,,,,,
,,,,,,,,,,stimuli/images/PICTURE_677.png,APPLE,5ecff9937fd043096b2c1984,2020-06-30_14h41.11.110,proactive,2020.1.2,Win32,60,5efb791ed4cb570da489e737,5efb87214baea00fc3eee071,4,,,,,,map,,,,,,0,6,6,43,1,5,1,,,,,,,,,,,,,,,,,,,,,,,,,,,,,,,,,,,,,,,,,,,,,,,,,,,,,,,,,,,,,,,,,,,,,,,,,,,
,,,,,,,,,,stimuli/images/PICTURE_147.png,WOMEN,5ecff9937fd043096b2c1984,2020-06-30_14h41.11.110,proactive,2020.1.2,Win32,60,5efb791ed4cb570da489e737,5efb87214baea00fc3eee071,4,,,,,,hanger,,,,,,0,7,7,7,1,1,1,,,,,,,,,,,,,,,,,,,,,,,,,,,,,,,,,,,,,,,,,,,,,,,,,,,,,,,,,,,,,,,,,,,,,,,,,,,
,,,,,,,,,,stimuli/images/PICTURE_95.png,BOYS,5ecff9937fd043096b2c1984,2020-06-30_14h41.11.110,proactive,2020.1.2,Win32,60,5efb791ed4cb570da489e737,5efb87214baea00fc3eee071,4,,,,,,suitcase,,,,,,0,8,8,1,1,1,1,,,,,,,,,,,,,,,,,,,,,,,,,,,,,,,,,,,,,,,,,,,,,,,,,,,,,,,,,,,,,,,,,,,,,,,,,,,
,,,,,,,,,,stimuli/images/PICTURE_675.png,SALE,5ecff9937fd043096b2c1984,2020-06-30_14h41.11.110,proactive,2020.1.2,Win32,60,5efb791ed4cb570da489e737,5efb87214baea00fc3eee071,4,,,,,,windmill,,,,,,0,9,9,47,1,5,1,,,,,,,,,,,,,,,,,,,,,,,,,,,,,,,,,,,,,,,,,,,,,,,,,,,,,,,,,,,,,,,,,,,,,,,,,,,
,,,,,,,,,,stimuli/images/PICTURE_504.png,ARTIST,5ecff9937fd043096b2c1984,2020-06-30_14h41.11.110,proactive,2020.1.2,Win32,60,5efb791ed4cb570da489e737,5efb87214baea00fc3eee071,4,,,,,,wheel,,,,,,0,10,10,49,1,5,1,,,,,,,,,,,,,,,,,,,,,,,,,,,,,,,,,,,,,,,,,,,,,,,,,,,,,,,,,,,,,,,,,,,,,,,,,,,
,,,,,,,,,,stimuli/images/PICTURE_403.png,RIVER,5ecff9937fd043096b2c1984,2020-06-30_14h41.11.110,proactive,2020.1.2,Win32,60,5efb791ed4cb570da489e737,5efb87214baea00fc3eee071,4,,,,,,cathedral,,,,,,0,11,11,40,1,5,1,,,,,,,,,,,,,,,,,,,,,,,,,,,,,,,,,,,,,,,,,,,,,,,,,,,,,,,,,,,,,,,,,,,,,,,,,,,
,,,,,,,,,,stimuli/images/PICTURE_383.png,WRITER,5ecff9937fd043096b2c1984,2020-06-30_14h41.11.110,proactive,2020.1.2,Win32,60,5efb791ed4cb570da489e737,5efb87214baea00fc3eee071,4,,,,,,coin,,,,,,0,12,12,28,1,3,1,,,,,,,,,,,,,,,,,,,,,,,,,,,,,,,,,,,,,,,,,,,,,,,,,,,,,,,,,,,,,,,,,,,,,,,,,,,
,,,,,,,,,,stimuli/images/PICTURE_108.png,FLIGHT,5ecff9937fd043096b2c1984,2020-06-30_14h41.11.110,proactive,2020.1.2,Win32,60,5efb791ed4cb570da489e737,5efb87214baea00fc3eee071,4,,,,,,calendar,,,,,,0,13,13,59,1,6,1,,,,,,,,,,,,,,,,,,,,,,,,,,,,,,,,,,,,,,,,,,,,,,,,,,,,,,,,,,,,,,,,,,,,,,,,,,,
,,,,,,,,,,stimuli/images/PICTURE_208.png,SYSTEM,5ecff9937fd043096b2c1984,2020-06-30_14h41.11.110,proactive,2020.1.2,Win32,60,5efb791ed4cb570da489e737,5efb87214baea00fc3eee071,4,,,,,,microphone,,,,,,0,14,14,32,1,4,1,,,,,,,,,,,,,,,,,,,,,,,,,,,,,,,,,,,,,,,,,,,,,,,,,,,,,,,,,,,,,,,,,,,,,,,,,,,
,,,,,,,,,,stimuli/images/PICTURE_504.png,YEAR,5ecff9937fd043096b2c1984,2020-06-30_14h41.11.110,proactive,2020.1.2,Win32,60,5efb791ed4cb570da489e737,5efb87214baea00fc3eee071,4,,,,,,wheel,,,,,,0,15,15,13,1,2,1,,,,,,,,,,,,,,,,,,,,,,,,,,,,,,,,,,,,,,,,,,,,,,,,,,,,,,,,,,,,,,,,,,,,,,,,,,,
,,,,,,,,,,stimuli/images/PICTURE_744.png,WEAPON,5ecff9937fd043096b2c1984,2020-06-30_14h41.11.110,proactive,2020.1.2,Win32,60,5efb791ed4cb570da489e737,5efb87214baea00fc3eee071,4,,,,,,ring,,,,,,0,16,16,50,1,6,1,,,,,,,,,,,,,,,,,,,,,,,,,,,,,,,,,,,,,,,,,,,,,,,,,,,,,,,,,,,,,,,,,,,,,,,,,,,
,,,,,,,,,,stimuli/images/PICTURE_68.png,MILE,5ecff9937fd043096b2c1984,2020-06-30_14h41.11.110,proactive,2020.1.2,Win32,60,5efb791ed4cb570da489e737,5efb87214baea00fc3eee071,4,,,,,,candle,,,,,,0,17,17,51,1,6,1,,,,,,,,,,,,,,,,,,,,,,,,,,,,,,,,,,,,,,,,,,,,,,,,,,,,,,,,,,,,,,,,,,,,,,,,,,,
,,,,,,,,,,stimuli/images/PICTURE_68.png,ROOF,5ecff9937fd043096b2c1984,2020-06-30_14h41.11.110,proactive,2020.1.2,Win32,60,5efb791ed4cb570da489e737,5efb87214baea00fc3eee071,4,,,,,,candle,,,,,,0,18,18,38,1,4,1,,,,,,,,,,,,,,,,,,,,,,,,,,,,,,,,,,,,,,,,,,,,,,,,,,,,,,,,,,,,,,,,,,,,,,,,,,,
,,,,,,,,,,stimuli/images/PICTURE_467.png,POLICY,5ecff9937fd043096b2c1984,2020-06-30_14h41.11.110,proactive,2020.1.2,Win32,60,5efb791ed4cb570da489e737,5efb87214baea00fc3eee071,4,,,,,,peg,,,,,,0,19,19,53,1,6,1,,,,,,,,,,,,,,,,,,,,,,,,,,,,,,,,,,,,,,,,,,,,,,,,,,,,,,,,,,,,,,,,,,,,,,,,,,,
,,,,,,,,,,stimuli/images/PICTURE_85.png,NATION,5ecff9937fd043096b2c1984,2020-06-30_14h41.11.110,proactive,2020.1.2,Win32,60,5efb791ed4cb570da489e737,5efb87214baea00fc3eee071,4,,,,,,diamond,,,,,,0,20,20,5,1,1,1,,,,,,,,,,,,,,,,,,,,,,,,,,,,,,,,,,,,,,,,,,,,,,,,,,,,,,,,,,,,,,,,,,,,,,,,,,,
,,,,,,,,,,stimuli/images/PICTURE_297.png,RIVER,5ecff9937fd043096b2c1984,2020-06-30_14h41.11.110,proactive,2020.1.2,Win32,60,5efb791ed4cb570da489e737,5efb87214baea00fc3eee071,4,,,,,,aeroplane,,,,,,0,21,21,39,1,4,1,,,,,,,,,,,,,,,,,,,,,,,,,,,,,,,,,,,,,,,,,,,,,,,,,,,,,,,,,,,,,,,,,,,,,,,,,,,
,,,,,,,,,,stimuli/images/PICTURE_57.png,MOMENT,5ecff9937fd043096b2c1984,2020-06-30_14h41.11.110,proactive,2020.1.2,Win32,60,5efb791ed4cb570da489e737,5efb87214baea00fc3eee071,4,,,,,,stamp,,,,,,0,22,22,37,1,4,1,,,,,,,,,,,,,,,,,,,,,,,,,,,,,,,,,,,,,,,,,,,,,,,,,,,,,,,,,,,,,,,,,,,,,,,,,,,
,,,,,,,,,,stimuli/images/PICTURE_147.png,YEAR,5ecff9937fd043096b2c1984,2020-06-30_14h41.11.110,proactive,2020.1.2,Win32,60,5efb791ed4cb570da489e737,5efb87214baea00fc3eee071,4,,,,,,hanger,,,,,,0,23,23,21,1,3,1,,,,,,,,,,,,,,,,,,,,,,,,,,,,,,,,,,,,,,,,,,,,,,,,,,,,,,,,,,,,,,,,,,,,,,,,,,,
,,,,,,,,,,stimuli/images/PICTURE_296.png,LIFE,5ecff9937fd043096b2c1984,2020-06-30_14h41.11.110,proactive,2020.1.2,Win32,60,5efb791ed4cb570da489e737,5efb87214baea00fc3eee071,4,,,,,,bolt,,,,,,0,24,24,57,1,6,1,,,,,,,,,,,,,,,,,,,,,,,,,,,,,,,,,,,,,,,,,,,,,,,,,,,,,,,,,,,,,,,,,,,,,,,,,,,
,,,,,,,,,,stimuli/images/PICTURE_177.png,WRITER,5ecff9937fd043096b2c1984,2020-06-30_14h41.11.110,proactive,2020.1.2,Win32,60,5efb791ed4cb570da489e737,5efb87214baea00fc3eee071,4,,,,,,mushroom,,,,,,0,25,25,41,1,5,1,,,,,,,,,,,,,,,,,,,,,,,,,,,,,,,,,,,,,,,,,,,,,,,,,,,,,,,,,,,,,,,,,,,,,,,,,,,
,,,,,,,,,,stimuli/images/PICTURE_308.png,FAMILY,5ecff9937fd043096b2c1984,2020-06-30_14h41.11.110,proactive,2020.1.2,Win32,60,5efb791ed4cb570da489e737,5efb87214baea00fc3eee071,4,,,,,,dice,,,,,,0,26,26,36,1,4,1,,,,,,,,,,,,,,,,,,,,,,,,,,,,,,,,,,,,,,,,,,,,,,,,,,,,,,,,,,,,,,,,,,,,,,,,,,,
,,,,,,,,,,stimuli/images/PICTURE_2.png,FLIGHT,5ecff9937fd043096b2c1984,2020-06-30_14h41.11.110,proactive,2020.1.2,Win32,60,5efb791ed4cb570da489e737,5efb87214baea00fc3eee071,4,,,,,,tyre,,,,,,0,27,27,15,1,2,1,,,,,,,,,,,,,,,,,,,,,,,,,,,,,,,,,,,,,,,,,,,,,,,,,,,,,,,,,,,,,,,,,,,,,,,,,,,
,,,,,,,,,,stimuli/images/PICTURE_203.png,NIGHT,5ecff9937fd043096b2c1984,2020-06-30_14h41.11.110,proactive,2020.1.2,Win32,60,5efb791ed4cb570da489e737,5efb87214baea00fc3eee071,4,,,,,,cap,,,,,,0,28,28,2,1,1,1,,,,,,,,,,,,,,,,,,,,,,,,,,,,,,,,,,,,,,,,,,,,,,,,,,,,,,,,,,,,,,,,,,,,,,,,,,,
,,,,,,,,,,stimuli/images/PICTURE_449.png,DUDE,5ecff9937fd043096b2c1984,2020-06-30_14h41.11.110,proactive,2020.1.2,Win32,60,5efb791ed4cb570da489e737,5efb87214baea00fc3eee071,4,,,,,,bench,,,,,,0,29,29,17,1,2,1,,,,,,,,,,,,,,,,,,,,,,,,,,,,,,,,,,,,,,,,,,,,,,,,,,,,,,,,,,,,,,,,,,,,,,,,,,,
,,,,,,,,,,stimuli/images/PICTURE_504.png,COPS,5ecff9937fd043096b2c1984,2020-06-30_14h41.11.110,proactive,2020.1.2,Win32,60,5efb791ed4cb570da489e737,5efb87214baea00fc3eee071,4,,,,,,wheel,,,,,,0,30,30,52,1,6,1,,,,,,,,,,,,,,,,,,,,,,,,,,,,,,,,,,,,,,,,,,,,,,,,,,,,,,,,,,,,,,,,,,,,,,,,,,,
,,,,,,,,,,stimuli/images/PICTURE_233.png,LOTS,5ecff9937fd043096b2c1984,2020-06-30_14h41.11.110,proactive,2020.1.2,Win32,60,5efb791ed4cb570da489e737,5efb87214baea00fc3eee071,4,,,,,,salt,,,,,,0,31,31,42,1,5,1,,,,,,,,,,,,,,,,,,,,,,,,,,,,,,,,,,,,,,,,,,,,,,,,,,,,,,,,,,,,,,,,,,,,,,,,,,,
,,,,,,,,,,stimuli/images/PICTURE_339.png,CLIENT,5ecff9937fd043096b2c1984,2020-06-30_14h41.11.110,proactive,2020.1.2,Win32,60,5efb791ed4cb570da489e737,5efb87214baea00fc3eee071,4,,,,,,backpack,,,,,,0,32,32,11,1,2,1,,,,,,,,,,,,,,,,,,,,,,,,,,,,,,,,,,,,,,,,,,,,,,,,,,,,,,,,,,,,,,,,,,,,,,,,,,,
,,,,,,,,,,stimuli/images/PICTURE_403.png,TOILET,5ecff9937fd043096b2c1984,2020-06-30_14h41.11.110,proactive,2020.1.2,Win32,60,5efb791ed4cb570da489e737,5efb87214baea00fc3eee071,4,,,,,,cathedral,,,,,,0,33,33,25,1,3,1,,,,,,,,,,,,,,,,,,,,,,,,,,,,,,,,,,,,,,,,,,,,,,,,,,,,,,,,,,,,,,,,,,,,,,,,,,,
,,,,,,,,,,stimuli/images/PICTURE_491.png,GLASS,5ecff9937fd043096b2c1984,2020-06-30_14h41.11.110,proactive,2020.1.2,Win32,60,5efb791ed4cb570da489e737,5efb87214baea00fc3eee071,4,,,,,,rug,,,,,,0,34,34,14,1,2,1,,,,,,,,,,,,,,,,,,,,,,,,,,,,,,,,,,,,,,,,,,,,,,,,,,,,,,,,,,,,,,,,,,,,,,,,,,,
,,,,,,,,,,stimuli/images/PICTURE_380.png,CANDY,5ecff9937fd043096b2c1984,2020-06-30_14h41.11.110,proactive,2020.1.2,Win32,60,5efb791ed4cb570da489e737,5efb87214baea00fc3eee071,4,,,,,,gorilla,,,,,,0,35,35,0,1,1,1,,,,,,,,,,,,,,,,,,,,,,,,,,,,,,,,,,,,,,,,,,,,,,,,,,,,,,,,,,,,,,,,,,,,,,,,,,,
,,,,,,,,,,stimuli/images/PICTURE_108.png,POLICY,5ecff9937fd043096b2c1984,2020-06-30_14h41.11.110,proactive,2020.1.2,Win32,60,5efb791ed4cb570da489e737,5efb87214baea00fc3eee071,4,,,,,,calendar,,,,,,0,36,36,22,1,3,1,,,,,,,,,,,,,,,,,,,,,,,,,,,,,,,,,,,,,,,,,,,,,,,,,,,,,,,,,,,,,,,,,,,,,,,,,,,
,,,,,,,,,,stimuli/images/PICTURE_95.png,MILLER,5ecff9937fd043096b2c1984,2020-06-30_14h41.11.110,proactive,2020.1.2,Win32,60,5efb791ed4cb570da489e737,5efb87214baea00fc3eee071,4,,,,,,suitcase,,,,,,0,37,37,56,1,6,1,,,,,,,,,,,,,,,,,,,,,,,,,,,,,,,,,,,,,,,,,,,,,,,,,,,,,,,,,,,,,,,,,,,,,,,,,,,
,,,,,,,,,,stimuli/images/PICTURE_655.png,TOILET,5ecff9937fd043096b2c1984,2020-06-30_14h41.11.110,proactive,2020.1.2,Win32,60,5efb791ed4cb570da489e737,5efb87214baea00fc3eee071,4,,,,,,megaphone,,,,,,0,38,38,12,1,2,1,,,,,,,,,,,,,,,,,,,,,,,,,,,,,,,,,,,,,,,,,,,,,,,,,,,,,,,,,,,,,,,,,,,,,,,,,,,
,,,,,,,,,,stimuli/images/PICTURE_685.png,PENNY,5ecff9937fd043096b2c1984,2020-06-30_14h41.11.110,proactive,2020.1.2,Win32,60,5efb791ed4cb570da489e737,5efb87214baea00fc3eee071,4,,,,,,goose,,,,,,0,39,39,4,1,1,1,,,,,,,,,,,,,,,,,,,,,,,,,,,,,,,,,,,,,,,,,,,,,,,,,,,,,,,,,,,,,,,,,,,,,,,,,,,
,,,,,,,,,,stimuli/images/PICTURE_327.png,CASINO,5ecff9937fd043096b2c1984,2020-06-30_14h41.11.110,proactive,2020.1.2,Win32,60,5efb791ed4cb570da489e737,5efb87214baea00fc3eee071,4,,,,,,helmet,,,,,,0,40,40,20,1,3,1,,,,,,,,,,,,,,,,,,,,,,,,,,,,,,,,,,,,,,,,,,,,,,,,,,,,,,,,,,,,,,,,,,,,,,,,,,,
,,,,,,,,,,stimuli/images/PICTURE_85.png,TOILET,5ecff9937fd043096b2c1984,2020-06-30_14h41.11.110,proactive,2020.1.2,Win32,60,5efb791ed4cb570da489e737,5efb87214baea00fc3eee071,4,,,,,,diamond,,,,,,0,41,41,48,1,5,1,,,,,,,,,,,,,,,,,,,,,,,,,,,,,,,,,,,,,,,,,,,,,,,,,,,,,,,,,,,,,,,,,,,,,,,,,,,
,,,,,,,,,,stimuli/images/PICTURE_32.png,PILLS,5ecff9937fd043096b2c1984,2020-06-30_14h41.11.110,proactive,2020.1.2,Win32,60,5efb791ed4cb570da489e737,5efb87214baea00fc3eee071,4,,,,,,crown,,,,,,0,42,42,18,1,2,1,,,,,,,,,,,,,,,,,,,,,,,,,,,,,,,,,,,,,,,,,,,,,,,,,,,,,,,,,,,,,,,,,,,,,,,,,,,
,,,,,,,,,,stimuli/images/PICTURE_469.png,AGENT,5ecff9937fd043096b2c1984,2020-06-30_14h41.11.110,proactive,2020.1.2,Win32,60,5efb791ed4cb570da489e737,5efb87214baea00fc3eee071,4,,,,,,stool,,,,,,0,43,43,16,1,2,1,,,,,,,,,,,,,,,,,,,,,,,,,,,,,,,,,,,,,,,,,,,,,,,,,,,,,,,,,,,,,,,,,,,,,,,,,,,
,,,,,,,,,,stimuli/images/PICTURE_327.png,SERIES,5ecff9937fd043096b2c1984,2020-06-30_14h41.11.110,proactive,2020.1.2,Win32,60,5efb791ed4cb570da489e737,5efb87214baea00fc3eee071,4,,,,,,helmet,,,,,,0,44,44,3,1,1,1,,,,,,,,,,,,,,,,,,,,,,,,,,,,,,,,,,,,,,,,,,,,,,,,,,,,,,,,,,,,,,,,,,,,,,,,,,,
,,,,,,,,,,stimuli/images/PICTURE_203.png,GODS,5ecff9937fd043096b2c1984,2020-06-30_14h41.11.110,proactive,2020.1.2,Win32,60,5efb791ed4cb570da489e737,5efb87214baea00fc3eee071,4,,,,,,cap,,,,,,0,45,45,30,1,4,1,,,,,,,,,,,,,,,,,,,,,,,,,,,,,,,,,,,,,,,,,,,,,,,,,,,,,,,,,,,,,,,,,,,,,,,,,,,
,,,,,,,,,,stimuli/images/PICTURE_383.png,SERIES,5ecff9937fd043096b2c1984,2020-06-30_14h41.11.110,proactive,2020.1.2,Win32,60,5efb791ed4cb570da489e737,5efb87214baea00fc3eee071,4,,,,,,coin,,,,,,0,46,46,46,1,5,1,,,,,,,,,,,,,,,,,,,,,,,,,,,,,,,,,,,,,,,,,,,,,,,,,,,,,,,,,,,,,,,,,,,,,,,,,,,
,,,,,,,,,,stimuli/images/PICTURE_340.png,VALLEY,5ecff9937fd043096b2c1984,2020-06-30_14h41.11.110,proactive,2020.1.2,Win32,60,5efb791ed4cb570da489e737,5efb87214baea00fc3eee071,4,,,,,,mirror,,,,,,0,47,47,54,1,6,1,,,,,,,,,,,,,,,,,,,,,,,,,,,,,,,,,,,,,,,,,,,,,,,,,,,,,,,,,,,,,,,,,,,,,,,,,,,
,,,,,,,,,,stimuli/images/PICTURE_708.png,RECORD,5ecff9937fd043096b2c1984,2020-06-30_14h41.11.110,proactive,2020.1.2,Win32,60,5efb791ed4cb570da489e737,5efb87214baea00fc3eee071,4,,,,,,monkey,,,,,,0,48,48,58,1,6,1,,,,,,,,,,,,,,,,,,,,,,,,,,,,,,,,,,,,,,,,,,,,,,,,,,,,,,,,,,,,,,,,,,,,,,,,,,,
,,,,,,,,,,stimuli/images/PICTURE_487.png,GIRL,5ecff9937fd043096b2c1984,2020-06-30_14h41.11.110,proactive,2020.1.2,Win32,60,5efb791ed4cb570da489e737,5efb87214baea00fc3eee071,4,,,,,,basket,,,,,,0,49,49,45,1,5,1,,,,,,,,,,,,,,,,,,,,,,,,,,,,,,,,,,,,,,,,,,,,,,,,,,,,,,,,,,,,,,,,,,,,,,,,,,,
,,,,,,,,,,stimuli/images/PICTURE_42.png,BOYS,5ecff9937fd043096b2c1984,2020-06-30_14h41.11.110,proactive,2020.1.2,Win32,60,5efb791ed4cb570da489e737,5efb87214baea00fc3eee071,4,,,,,,pear,,,,,,0,50,50,55,1,6,1,,,,,,,,,,,,,,,,,,,,,,,,,,,,,,,,,,,,,,,,,,,,,,,,,,,,,,,,,,,,,,,,,,,,,,,,,,,
,,,,,,,,,,stimuli/images/PICTURE_285.png,LIFE,5ecff9937fd043096b2c1984,2020-06-30_14h41.11.110,proactive,2020.1.2,Win32,60,5efb791ed4cb570da489e737,5efb87214baea00fc3eee071,4,,,,,,carrot,,,,,,0,51,51,33,1,4,1,,,,,,,,,,,,,,,,,,,,,,,,,,,,,,,,,,,,,,,,,,,,,,,,,,,,,,,,,,,,,,,,,,,,,,,,,,,
,,,,,,,,,,stimuli/images/PICTURE_564.png,BATH,5ecff9937fd043096b2c1984,2020-06-30_14h41.11.110,proactive,2020.1.2,Win32,60,5efb791ed4cb570da489e737,5efb87214baea00fc3eee071,4,,,,,,spoon,,,,,,0,52,52,26,1,3,1,,,,,,,,,,,,,,,,,,,,,,,,,,,,,,,,,,,,,,,,,,,,,,,,,,,,,,,,,,,,,,,,,,,,,,,,,,,
,,,,,,,,,,stimuli/images/PICTURE_296.png,LOTS,5ecff9937fd043096b2c1984,2020-06-30_14h41.11.110,proactive,2020.1.2,Win32,60,5efb791ed4cb570da489e737,5efb87214baea00fc3eee071,4,,,,,,bolt,,,,,,0,53,53,9,1,1,1,,,,,,,,,,,,,,,,,,,,,,,,,,,,,,,,,,,,,,,,,,,,,,,,,,,,,,,,,,,,,,,,,,,,,,,,,,,
,,,,,,,,,,stimuli/images/PICTURE_750.png,HOTEL,5ecff9937fd043096b2c1984,2020-06-30_14h41.11.110,proactive,2020.1.2,Win32,60,5efb791ed4cb570da489e737,5efb87214baea00fc3eee071,4,,,,,,kettle,,,,,,0,54,54,27,1,3,1,,,,,,,,,,,,,,,,,,,,,,,,,,,,,,,,,,,,,,,,,,,,,,,,,,,,,,,,,,,,,,,,,,,,,,,,,,,
,,,,,,,,,,stimuli/images/PICTURE_95.png,HONEY,5ecff9937fd043096b2c1984,2020-06-30_14h41.11.110,proactive,2020.1.2,Win32,60,5efb791ed4cb570da489e737,5efb87214baea00fc3eee071,4,,,,,,suitcase,,,,,,0,55,55,44,1,5,1,,,,,,,,,,,,,,,,,,,,,,,,,,,,,,,,,,,,,,,,,,,,,,,,,,,,,,,,,,,,,,,,,,,,,,,,,,,
,,,,,,,,,,stimuli/images/PICTURE_405.png,YEAR,5ecff9937fd043096b2c1984,2020-06-30_14h41.11.110,proactive,2020.1.2,Win32,60,5efb791ed4cb570da489e737,5efb87214baea00fc3eee071,4,,,,,,anchor,,,,,,0,56,56,34,1,4,1,,,,,,,,,,,,,,,,,,,,,,,,,,,,,,,,,,,,,,,,,,,,,,,,,,,,,,,,,,,,,,,,,,,,,,,,,,,
,,,,,,,,,,stimuli/images/PICTURE_380.png,HONEY,5ecff9937fd043096b2c1984,2020-06-30_14h41.11.110,proactive,2020.1.2,Win32,60,5efb791ed4cb570da489e737,5efb87214baea00fc3eee071,4,,,,,,gorilla,,,,,,0,57,57,19,1,2,1,,,,,,,,,,,,,,,,,,,,,,,,,,,,,,,,,,,,,,,,,,,,,,,,,,,,,,,,,,,,,,,,,,,,,,,,,,,
,,,,,,,,,,stimuli/images/PICTURE_33.png,FRIEND,5ecff9937fd043096b2c1984,2020-06-30_14h41.11.110,proactive,2020.1.2,Win32,60,5efb791ed4cb570da489e737,5efb87214baea00fc3eee071,4,,,,,,frame,,,,,,0,58,58,8,1,1,1,,,,,,,,,,,,,,,,,,,,,,,,,,,,,,,,,,,,,,,,,,,,,,,,,,,,,,,,,,,,,,,,,,,,,,,,,,,
,,?,10.014895,0,,,,,,stimuli/images/PICTURE_203.png,GODS,5ecff9937fd043096b2c1984,2020-06-30_14h41.11.110,proactive,2020.1.2,Win32,60,5efb791ed4cb570da489e737,5efb87214baea00fc3eee071,4,,,,,,cap,,,,,,,,,,,4,1,0,0,0,30,1,,,,,,,,,,,,,,,,,,,,,,,,,,,,,,,,,,,,,,,,,,,,,,,,,,,,,,,,,,,,,,,,,,,,,,
,,?,10.006195,0,,,,,,stimuli/images/PICTURE_405.png,YEAR,5ecff9937fd043096b2c1984,2020-06-30_14h41.11.110,proactive,2020.1.2,Win32,60,5efb791ed4cb570da489e737,5efb87214baea00fc3eee071,4,,,,,,anchor,,,,,,,,,,,4,1,0,1,1,34,1,,,,,,,,,,,,,,,,,,,,,,,,,,,,,,,,,,,,,,,,,,,,,,,,,,,,,,,,,,,,,,,,,,,,,,
,,?,0.00199,0,,,,,,stimuli/images/PICTURE_564.png,BATH,5ecff9937fd043096b2c1984,2020-06-30_14h41.11.110,proactive,2020.1.2,Win32,60,5efb791ed4cb570da489e737,5efb87214baea00fc3eee071,4,,,,,,spoon,,,,,,,,,,,3,1,0,2,2,26,1,,,,,,,,,,,,,,,,,,,,,,,,,,,,,,,,,,,,,,,,,,,,,,,,,,,,,,,,,,,,,,,,,,,,,,
,,?,0.00164,0,,,,,,stimuli/images/PICTURE_403.png,RIVER,5ecff9937fd043096b2c1984,2020-06-30_14h41.11.110,proactive,2020.1.2,Win32,60,5efb791ed4cb570da489e737,5efb87214baea00fc3eee071,4,,,,,,cathedral,,,,,,,,,,,5,1,0,3,3,40,1,,,,,,,,,,,,,,,,,,,,,,,,,,,,,,,,,,,,,,,,,,,,,,,,,,,,,,,,,,,,,,,,,,,,,,
,,?,0.00165,0,,,,,,stimuli/images/PICTURE_449.png,DUDE,5ecff9937fd043096b2c1984,2020-06-30_14h41.11.110,proactive,2020.1.2,Win32,60,5efb791ed4cb570da489e737,5efb87214baea00fc3eee071,4,,,,,,bench,,,,,,,,,,,2,1,0,4,4,17,1,,,,,,,,,,,,,,,,,,,,,,,,,,,,,,,,,,,,,,,,,,,,,,,,,,,,,,,,,,,,,,,,,,,,,,
,,MOMENT,5.49558,1,,,,,,stimuli/images/PICTURE_57.png,MOMENT,5ecff9937fd043096b2c1984,2020-06-30_14h41.11.110,proactive,2020.1.2,Win32,60,5efb791ed4cb570da489e737,5efb87214baea00fc3eee071,4,,,,,,stamp,,,,,,,,,,,4,1,0,5,5,37,1,,,,,,,,,,,,,,,,,,,,,,,,,,,,,,,,,,,,,,,,,,,,,,,,,,,,,,,,,,,,,,,,,,,,,,
,,?,0.001905,0,,,,,,stimuli/images/PICTURE_491.png,RIVER,5ecff9937fd043096b2c1984,2020-06-30_14h41.11.110,proactive,2020.1.2,Win32,60,5efb791ed4cb570da489e737,5efb87214baea00fc3eee071,4,,,,,,rug,,,,,,,,,,,1,1,0,6,6,6,1,,,,,,,,,,,,,,,,,,,,,,,,,,,,,,,,,,,,,,,,,,,,,,,,,,,,,,,,,,,,,,,,,,,,,,
,,?,0.001555,0,,,,,,stimuli/images/PICTURE_383.png,WRITER,5ecff9937fd043096b2c1984,2020-06-30_14h41.11.110,proactive,2020.1.2,Win32,60,5efb791ed4cb570da489e737,5efb87214baea00fc3eee071,4,,,,,,coin,,,,,,,,,,,3,1,0,7,7,28,1,,,,,,,,,,,,,,,,,,,,,,,,,,,,,,,,,,,,,,,,,,,,,,,,,,,,,,,,,,,,,,,,,,,,,,
,,?,0.001575,0,,,,,,stimuli/images/PICTURE_383.png,SERIES,5ecff9937fd043096b2c1984,2020-06-30_14h41.11.110,proactive,2020.1.2,Win32,60,5efb791ed4cb570da489e737,5efb87214baea00fc3eee071,4,,,,,,coin,,,,,,,,,,,5,1,0,8,8,46,1,,,,,,,,,,,,,,,,,,,,,,,,,,,,,,,,,,,,,,,,,,,,,,,,,,,,,,,,,,,,,,,,,,,,,,
,,?,0.00163,0,,,,,,stimuli/images/PICTURE_504.png,ARTIST,5ecff9937fd043096b2c1984,2020-06-30_14h41.11.110,proactive,2020.1.2,Win32,60,5efb791ed4cb570da489e737,5efb87214baea00fc3eee071,4,,,,,,wheel,,,,,,,,,,,5,1,0,9,9,49,1,,,,,,,,,,,,,,,,,,,,,,,,,,,,,,,,,,,,,,,,,,,,,,,,,,,,,,,,,,,,,,,,,,,,,,
,,?,0.001865,0,,,,,,stimuli/images/PICTURE_32.png,PILLS,5ecff9937fd043096b2c1984,2020-06-30_14h41.11.110,proactive,2020.1.2,Win32,60,5efb791ed4cb570da489e737,5efb87214baea00fc3eee071,4,,,,,,crown,,,,,,,,,,,2,1,0,10,10,18,1,,,,,,,,,,,,,,,,,,,,,,,,,,,,,,,,,,,,,,,,,,,,,,,,,,,,,,,,,,,,,,,,,,,,,,
,,?,0.00666,0,,,,,,stimuli/images/PICTURE_504.png,COPS,5ecff9937fd043096b2c1984,2020-06-30_14h41.11.110,proactive,2020.1.2,Win32,60,5efb791ed4cb570da489e737,5efb87214baea00fc3eee071,4,,,,,,wheel,,,,,,,,,,,6,1,0,11,11,52,1,,,,,,,,,,,,,,,,,,,,,,,,,,,,,,,,,,,,,,,,,,,,,,,,,,,,,,,,,,,,,,,,,,,,,,
,,?,0.001735,0,,,,,,stimuli/images/PICTURE_667.png,RIVER,5ecff9937fd043096b2c1984,2020-06-30_14h41.11.110,proactive,2020.1.2,Win32,60,5efb791ed4cb570da489e737,5efb87214baea00fc3eee071,4,,,,,,daisy,,,,,,,,,,,2,1,0,12,12,10,1,,,,,,,,,,,,,,,,,,,,,,,,,,,,,,,,,,,,,,,,,,,,,,,,,,,,,,,,,,,,,,,,,,,,,,
,,RIVER,3.15906,1,,,,,,stimuli/images/PICTURE_297.png,RIVER,5ecff9937fd043096b2c1984,2020-06-30_14h41.11.110,proactive,2020.1.2,Win32,60,5efb791ed4cb570da489e737,5efb87214baea00fc3eee071,4,,,,,,aeroplane,,,,,,,,,,,4,1,0,13,13,39,1,,,,,,,,,,,,,,,,,,,,,,,,,,,,,,,,,,,,,,,,,,,,,,,,,,,,,,,,,,,,,,,,,,,,,,
,,?,0.001985,0,,,,,,stimuli/images/PICTURE_487.png,GIRL,5ecff9937fd043096b2c1984,2020-06-30_14h41.11.110,proactive,2020.1.2,Win32,60,5efb791ed4cb570da489e737,5efb87214baea00fc3eee071,4,,,,,,basket,,,,,,,,,,,5,1,0,14,14,45,1,,,,,,,,,,,,,,,,,,,,,,,,,,,,,,,,,,,,,,,,,,,,,,,,,,,,,,,,,,,,,,,,,,,,,,
,,?,0.00526,0,,,,,,stimuli/images/PICTURE_467.png,POLICY,5ecff9937fd043096b2c1984,2020-06-30_14h41.11.110,proactive,2020.1.2,Win32,60,5efb791ed4cb570da489e737,5efb87214baea00fc3eee071,4,,,,,,peg,,,,,,,,,,,6,1,0,15,15,53,1,,,,,,,,,,,,,,,,,,,,,,,,,,,,,,,,,,,,,,,,,,,,,,,,,,,,,,,,,,,,,,,,,,,,,,
,,KIND,2.16818,1,,,,,,stimuli/images/PICTURE_32.png,KIND,5ecff9937fd043096b2c1984,2020-06-30_14h41.11.110,proactive,2020.1.2,Win32,60,5efb791ed4cb570da489e737,5efb87214baea00fc3eee071,4,,,,,,crown,,,,,,,,,,,4,1,0,16,16,35,1,,,,,,,,,,,,,,,,,,,,,,,,,,,,,,,,,,,,,,,,,,,,,,,,,,,,,,,,,,,,,,,,,,,,,,
,,?,0.002285,0,,,,,,stimuli/images/PICTURE_339.png,CLIENT,5ecff9937fd043096b2c1984,2020-06-30_14h41.11.110,proactive,2020.1.2,Win32,60,5efb791ed4cb570da489e737,5efb87214baea00fc3eee071,4,,,,,,backpack,,,,,,,,,,,2,1,0,17,17,11,1,,,,,,,,,,,,,,,,,,,,,,,,,,,,,,,,,,,,,,,,,,,,,,,,,,,,,,,,,,,,,,,,,,,,,,
,,WRITER,7.35417,1,,,,,,stimuli/images/PICTURE_403.png,WRITER,5ecff9937fd043096b2c1984,2020-06-30_14h41.11.110,proactive,2020.1.2,Win32,60,5efb791ed4cb570da489e737,5efb87214baea00fc3eee071,4,,,,,,cathedral,,,,,,,,,,,4,1,0,18,18,31,1,,,,,,,,,,,,,,,,,,,,,,,,,,,,,,,,,,,,,,,,,,,,,,,,,,,,,,,,,,,,,,,,,,,,,,
,,?,0.00187,0,,,,,,stimuli/images/PICTURE_327.png,CASINO,5ecff9937fd043096b2c1984,2020-06-30_14h41.11.110,proactive,2020.1.2,Win32,60,5efb791ed4cb570da489e737,5efb87214baea00fc3eee071,4,,,,,,helmet,,,,,,,,,,,3,1,0,19,19,20,1,,,,,,,,,,,,,,,,,,,,,,,,,,,,,,,,,,,,,,,,,,,,,,,,,,,,,,,,,,,,,,,,,,,,,,
,,?,0.001465,0,,,,,,stimuli/images/PICTURE_2.png,FLIGHT,5ecff9937fd043096b2c1984,2020-06-30_14h41.11.110,proactive,2020.1.2,Win32,60,5efb791ed4cb570da489e737,5efb87214baea00fc3eee071,4,,,,,,tyre,,,,,,,,,,,2,1,0,20,20,15,1,,,,,,,,,,,,,,,,,,,,,,,,,,,,,,,,,,,,,,,,,,,,,,,,,,,,,,,,,,,,,,,,,,,,,,
,,?,0.001865,0,,,,,,stimuli/images/PICTURE_380.png,CANDY,5ecff9937fd043096b2c1984,2020-06-30_14h41.11.110,proactive,2020.1.2,Win32,60,5efb791ed4cb570da489e737,5efb87214baea00fc3eee071,4,,,,,,gorilla,,,,,,,,,,,1,1,0,21,21,0,1,,,,,,,,,,,,,,,,,,,,,,,,,,,,,,,,,,,,,,,,,,,,,,,,,,,,,,,,,,,,,,,,,,,,,,
,,?,0.001595,0,,,,,,stimuli/images/PICTURE_42.png,BOYS,5ecff9937fd043096b2c1984,2020-06-30_14h41.11.110,proactive,2020.1.2,Win32,60,5efb791ed4cb570da489e737,5efb87214baea00fc3eee071,4,,,,,,pear,,,,,,,,,,,6,1,0,22,22,55,1,,,,,,,,,,,,,,,,,,,,,,,,,,,,,,,,,,,,,,,,,,,,,,,,,,,,,,,,,,,,,,,,,,,,,,
,,?,0.001555,0,,,,,,stimuli/images/PICTURE_340.png,VALLEY,5ecff9937fd043096b2c1984,2020-06-30_14h41.11.110,proactive,2020.1.2,Win32,60,5efb791ed4cb570da489e737,5efb87214baea00fc3eee071,4,,,,,,mirror,,,,,,,,,,,6,1,0,23,23,54,1,,,,,,,,,,,,,,,,,,,,,,,,,,,,,,,,,,,,,,,,,,,,,,,,,,,,,,,,,,,,,,,,,,,,,,
,,?,0.00154,0,,,,,,stimuli/images/PICTURE_296.png,LIFE,5ecff9937fd043096b2c1984,2020-06-30_14h41.11.110,proactive,2020.1.2,Win32,60,5efb791ed4cb570da489e737,5efb87214baea00fc3eee071,4,,,,,,bolt,,,,,,,,,,,6,1,0,24,24,57,1,,,,,,,,,,,,,,,,,,,,,,,,,,,,,,,,,,,,,,,,,,,,,,,,,,,,,,,,,,,,,,,,,,,,,,
,,?,0.001765,0,,,,,,stimuli/images/PICTURE_750.png,HOTEL,5ecff9937fd043096b2c1984,2020-06-30_14h41.11.110,proactive,2020.1.2,Win32,60,5efb791ed4cb570da489e737,5efb87214baea00fc3eee071,4,,,,,,kettle,,,,,,,,,,,3,1,0,25,25,27,1,,,,,,,,,,,,,,,,,,,,,,,,,,,,,,,,,,,,,,,,,,,,,,,,,,,,,,,,,,,,,,,,,,,,,,
,,?,0.00148,0,,,,,,stimuli/images/PICTURE_296.png,LOTS,5ecff9937fd043096b2c1984,2020-06-30_14h41.11.110,proactive,2020.1.2,Win32,60,5efb791ed4cb570da489e737,5efb87214baea00fc3eee071,4,,,,,,bolt,,,,,,,,,,,1,1,0,26,26,9,1,,,,,,,,,,,,,,,,,,,,,,,,,,,,,,,,,,,,,,,,,,,,,,,,,,,,,,,,,,,,,,,,,,,,,,
,,?,0.001495,0,,,,,,stimuli/images/PICTURE_85.png,TOILET,5ecff9937fd043096b2c1984,2020-06-30_14h41.11.110,proactive,2020.1.2,Win32,60,5efb791ed4cb570da489e737,5efb87214baea00fc3eee071,4,,,,,,diamond,,,,,,,,,,,5,1,0,27,27,48,1,,,,,,,,,,,,,,,,,,,,,,,,,,,,,,,,,,,,,,,,,,,,,,,,,,,,,,,,,,,,,,,,,,,,,,
,,FAMILY,6.11949,1,,,,,,stimuli/images/PICTURE_308.png,FAMILY,5ecff9937fd043096b2c1984,2020-06-30_14h41.11.110,proactive,2020.1.2,Win32,60,5efb791ed4cb570da489e737,5efb87214baea00fc3eee071,4,,,,,,dice,,,,,,,,,,,4,1,0,28,28,36,1,,,,,,,,,,,,,,,,,,,,,,,,,,,,,,,,,,,,,,,,,,,,,,,,,,,,,,,,,,,,,,,,,,,,,,
,,?,0.00183,0,,,,,,stimuli/images/PICTURE_340.png,LETTER,5ecff9937fd043096b2c1984,2020-06-30_14h41.11.110,proactive,2020.1.2,Win32,60,5efb791ed4cb570da489e737,5efb87214baea00fc3eee071,4,,,,,,mirror,,,,,,,,,,,3,1,0,29,29,24,1,,,,,,,,,,,,,,,,,,,,,,,,,,,,,,,,,,,,,,,,,,,,,,,,,,,,,,,,,,,,,,,,,,,,,,
,,,10.015365,0,,,,,,stimuli/images/PICTURE_285.png,LIFE,5ecff9937fd043096b2c1984,2020-06-30_14h41.11.110,proactive,2020.1.2,Win32,60,5efb791ed4cb570da489e737,5efb87214baea00fc3eee071,4,,,,,,carrot,,,,,,,,,,,4,1,0,30,30,33,1,,,,,,,,,,,,,,,,,,,,,,,,,,,,,,,,,,,,,,,,,,,,,,,,,,,,,,,,,,,,,,,,,,,,,,
,,?,0.00191,0,,,,,,stimuli/images/PICTURE_675.png,SALE,5ecff9937fd043096b2c1984,2020-06-30_14h41.11.110,proactive,2020.1.2,Win32,60,5efb791ed4cb570da489e737,5efb87214baea00fc3eee071,4,,,,,,windmill,,,,,,,,,,,5,1,0,31,31,47,1,,,,,,,,,,,,,,,,,,,,,,,,,,,,,,,,,,,,,,,,,,,,,,,,,,,,,,,,,,,,,,,,,,,,,,
,,?,0.00149,0,,,,,,stimuli/images/PICTURE_491.png,GLASS,5ecff9937fd043096b2c1984,2020-06-30_14h41.11.110,proactive,2020.1.2,Win32,60,5efb791ed4cb570da489e737,5efb87214baea00fc3eee071,4,,,,,,rug,,,,,,,,,,,2,1,0,32,32,14,1,,,,,,,,,,,,,,,,,,,,,,,,,,,,,,,,,,,,,,,,,,,,,,,,,,,,,,,,,,,,,,,,,,,,,,
,,?,0.001505,0,,,,,,stimuli/images/PICTURE_147.png,YEAR,5ecff9937fd043096b2c1984,2020-06-30_14h41.11.110,proactive,2020.1.2,Win32,60,5efb791ed4cb570da489e737,5efb87214baea00fc3eee071,4,,,,,,hanger,,,,,,,,,,,3,1,0,33,33,21,1,,,,,,,,,,,,,,,,,,,,,,,,,,,,,,,,,,,,,,,,,,,,,,,,,,,,,,,,,,,,,,,,,,,,,,
,,ROOF,2.83255,1,,,,,,stimuli/images/PICTURE_68.png,ROOF,5ecff9937fd043096b2c1984,2020-06-30_14h41.11.110,proactive,2020.1.2,Win32,60,5efb791ed4cb570da489e737,5efb87214baea00fc3eee071,4,,,,,,candle,,,,,,,,,,,4,1,0,34,34,38,1,,,,,,,,,,,,,,,,,,,,,,,,,,,,,,,,,,,,,,,,,,,,,,,,,,,,,,,,,,,,,,,,,,,,,,
,,?,0.001775,0,,,,,,stimuli/images/PICTURE_108.png,POLICY,5ecff9937fd043096b2c1984,2020-06-30_14h41.11.110,proactive,2020.1.2,Win32,60,5efb791ed4cb570da489e737,5efb87214baea00fc3eee071,4,,,,,,calendar,,,,,,,,,,,3,1,0,35,35,22,1,,,,,,,,,,,,,,,,,,,,,,,,,,,,,,,,,,,,,,,,,,,,,,,,,,,,,,,,,,,,,,,,,,,,,,
,,?,0.0015,0,,,,,,stimuli/images/PICTURE_108.png,FLIGHT,5ecff9937fd043096b2c1984,2020-06-30_14h41.11.110,proactive,2020.1.2,Win32,60,5efb791ed4cb570da489e737,5efb87214baea00fc3eee071,4,,,,,,calendar,,,,,,,,,,,6,1,0,36,36,59,1,,,,,,,,,,,,,,,,,,,,,,,,,,,,,,,,,,,,,,,,,,,,,,,,,,,,,,,,,,,,,,,,,,,,,,
,,?,0.0015,0,,,,,,stimuli/images/PICTURE_33.png,FRIEND,5ecff9937fd043096b2c1984,2020-06-30_14h41.11.110,proactive,2020.1.2,Win32,60,5efb791ed4cb570da489e737,5efb87214baea00fc3eee071,4,,,,,,frame,,,,,,,,,,,1,1,0,37,37,8,1,,,,,,,,,,,,,,,,,,,,,,,,,,,,,,,,,,,,,,,,,,,,,,,,,,,,,,,,,,,,,,,,,,,,,,
,,?,0.001495,0,,,,,,stimuli/images/PICTURE_405.png,PLENTY,5ecff9937fd043096b2c1984,2020-06-30_14h41.11.110,proactive,2020.1.2,Win32,60,5efb791ed4cb570da489e737,5efb87214baea00fc3eee071,4,,,,,,anchor,,,,,,,,,,,3,1,0,38,38,23,1,,,,,,,,,,,,,,,,,,,,,,,,,,,,,,,,,,,,,,,,,,,,,,,,,,,,,,,,,,,,,,,,,,,,,,
,,?,0.001515,0,,,,,,stimuli/images/PICTURE_177.png,WRITER,5ecff9937fd043096b2c1984,2020-06-30_14h41.11.110,proactive,2020.1.2,Win32,60,5efb791ed4cb570da489e737,5efb87214baea00fc3eee071,4,,,,,,mushroom,,,,,,,,,,,5,1,0,39,39,41,1,,,,,,,,,,,,,,,,,,,,,,,,,,,,,,,,,,,,,,,,,,,,,,,,,,,,,,,,,,,,,,,,,,,,,,
,,?,0.00142,0,,,,,,stimuli/images/PICTURE_380.png,HONEY,5ecff9937fd043096b2c1984,2020-06-30_14h41.11.110,proactive,2020.1.2,Win32,60,5efb791ed4cb570da489e737,5efb87214baea00fc3eee071,4,,,,,,gorilla,,,,,,,,,,,2,1,0,40,40,19,1,,,,,,,,,,,,,,,,,,,,,,,,,,,,,,,,,,,,,,,,,,,,,,,,,,,,,,,,,,,,,,,,,,,,,,
,,?,0.001425,0,,,,,,stimuli/images/PICTURE_469.png,AGENT,5ecff9937fd043096b2c1984,2020-06-30_14h41.11.110,proactive,2020.1.2,Win32,60,5efb791ed4cb570da489e737,5efb87214baea00fc3eee071,4,,,,,,stool,,,,,,,,,,,2,1,0,41,41,16,1,,,,,,,,,,,,,,,,,,,,,,,,,,,,,,,,,,,,,,,,,,,,,,,,,,,,,,,,,,,,,,,,,,,,,,
,,?,0.00139,0,,,,,,stimuli/images/PICTURE_655.png,TOILET,5ecff9937fd043096b2c1984,2020-06-30_14h41.11.110,proactive,2020.1.2,Win32,60,5efb791ed4cb570da489e737,5efb87214baea00fc3eee071,4,,,,,,megaphone,,,,,,,,,,,2,1,0,42,42,12,1,,,,,,,,,,,,,,,,,,,,,,,,,,,,,,,,,,,,,,,,,,,,,,,,,,,,,,,,,,,,,,,,,,,,,,
,,?,0.001275,0,,,,,,stimuli/images/PICTURE_95.png,HONEY,5ecff9937fd043096b2c1984,2020-06-30_14h41.11.110,proactive,2020.1.2,Win32,60,5efb791ed4cb570da489e737,5efb87214baea00fc3eee071,4,,,,,,suitcase,,,,,,,,,,,5,1,0,43,43,44,1,,,,,,,,,,,,,,,,,,,,,,,,,,,,,,,,,,,,,,,,,,,,,,,,,,,,,,,,,,,,,,,,,,,,,,
,,?,0.001255,0,,,,,,stimuli/images/PICTURE_403.png,TOILET,5ecff9937fd043096b2c1984,2020-06-30_14h41.11.110,proactive,2020.1.2,Win32,60,5efb791ed4cb570da489e737,5efb87214baea00fc3eee071,4,,,,,,cathedral,,,,,,,,,,,3,1,0,44,44,25,1,,,,,,,,,,,,,,,,,,,,,,,,,,,,,,,,,,,,,,,,,,,,,,,,,,,,,,,,,,,,,,,,,,,,,,
,,?,0.001235,0,,,,,,stimuli/images/PICTURE_654.png,MONTH,5ecff9937fd043096b2c1984,2020-06-30_14h41.11.110,proactive,2020.1.2,Win32,60,5efb791ed4cb570da489e737,5efb87214baea00fc3eee071,4,,,,,,pencil,,,,,,,,,,,3,1,0,45,45,29,1,,,,,,,,,,,,,,,,,,,,,,,,,,,,,,,,,,,,,,,,,,,,,,,,,,,,,,,,,,,,,,,,,,,,,,
,,?,0.001235,0,,,,,,stimuli/images/PICTURE_708.png,RECORD,5ecff9937fd043096b2c1984,2020-06-30_14h41.11.110,proactive,2020.1.2,Win32,60,5efb791ed4cb570da489e737,5efb87214baea00fc3eee071,4,,,,,,monkey,,,,,,,,,,,6,1,0,46,46,58,1,,,,,,,,,,,,,,,,,,,,,,,,,,,,,,,,,,,,,,,,,,,,,,,,,,,,,,,,,,,,,,,,,,,,,,
,,?,0.001415,0,,,,,,stimuli/images/PICTURE_685.png,PENNY,5ecff9937fd043096b2c1984,2020-06-30_14h41.11.110,proactive,2020.1.2,Win32,60,5efb791ed4cb570da489e737,5efb87214baea00fc3eee071,4,,,,,,goose,,,,,,,,,,,1,1,0,47,47,4,1,,,,,,,,,,,,,,,,,,,,,,,,,,,,,,,,,,,,,,,,,,,,,,,,,,,,,,,,,,,,,,,,,,,,,,
,,?,0.001215,0,,,,,,stimuli/images/PICTURE_68.png,MILE,5ecff9937fd043096b2c1984,2020-06-30_14h41.11.110,proactive,2020.1.2,Win32,60,5efb791ed4cb570da489e737,5efb87214baea00fc3eee071,4,,,,,,candle,,,,,,,,,,,6,1,0,48,48,51,1,,,,,,,,,,,,,,,,,,,,,,,,,,,,,,,,,,,,,,,,,,,,,,,,,,,,,,,,,,,,,,,,,,,,,,
,,?,0.00129,0,,,,,,stimuli/images/PICTURE_677.png,APPLE,5ecff9937fd043096b2c1984,2020-06-30_14h41.11.110,proactive,2020.1.2,Win32,60,5efb791ed4cb570da489e737,5efb87214baea00fc3eee071,4,,,,,,map,,,,,,,,,,,5,1,0,49,49,43,1,,,,,,,,,,,,,,,,,,,,,,,,,,,,,,,,,,,,,,,,,,,,,,,,,,,,,,,,,,,,,,,,,,,,,,
,,?,0.001245,0,,,,,,stimuli/images/PICTURE_95.png,MILLER,5ecff9937fd043096b2c1984,2020-06-30_14h41.11.110,proactive,2020.1.2,Win32,60,5efb791ed4cb570da489e737,5efb87214baea00fc3eee071,4,,,,,,suitcase,,,,,,,,,,,6,1,0,50,50,56,1,,,,,,,,,,,,,,,,,,,,,,,,,,,,,,,,,,,,,,,,,,,,,,,,,,,,,,,,,,,,,,,,,,,,,,
,,?,0.00124,0,,,,,,stimuli/images/PICTURE_203.png,NIGHT,5ecff9937fd043096b2c1984,2020-06-30_14h41.11.110,proactive,2020.1.2,Win32,60,5efb791ed4cb570da489e737,5efb87214baea00fc3eee071,4,,,,,,cap,,,,,,,,,,,1,1,0,51,51,2,1,,,,,,,,,,,,,,,,,,,,,,,,,,,,,,,,,,,,,,,,,,,,,,,,,,,,,,,,,,,,,,,,,,,,,,
,,SYSTEM,7.27908,1,,,,,,stimuli/images/PICTURE_208.png,SYSTEM,5ecff9937fd043096b2c1984,2020-06-30_14h41.11.110,proactive,2020.1.2,Win32,60,5efb791ed4cb570da489e737,5efb87214baea00fc3eee071,4,,,,,,microphone,,,,,,,,,,,4,1,0,52,52,32,1,,,,,,,,,,,,,,,,,,,,,,,,,,,,,,,,,,,,,,,,,,,,,,,,,,,,,,,,,,,,,,,,,,,,,,
,,?,0.00169,0,,,,,,stimuli/images/PICTURE_233.png,LOTS,5ecff9937fd043096b2c1984,2020-06-30_14h41.11.110,proactive,2020.1.2,Win32,60,5efb791ed4cb570da489e737,5efb87214baea00fc3eee071,4,,,,,,salt,,,,,,,,,,,5,1,0,53,53,42,1,,,,,,,,,,,,,,,,,,,,,,,,,,,,,,,,,,,,,,,,,,,,,,,,,,,,,,,,,,,,,,,,,,,,,,
,,?,0.001425,0,,,,,,stimuli/images/PICTURE_85.png,NATION,5ecff9937fd043096b2c1984,2020-06-30_14h41.11.110,proactive,2020.1.2,Win32,60,5efb791ed4cb570da489e737,5efb87214baea00fc3eee071,4,,,,,,diamond,,,,,,,,,,,1,1,0,54,54,5,1,,,,,,,,,,,,,,,,,,,,,,,,,,,,,,,,,,,,,,,,,,,,,,,,,,,,,,,,,,,,,,,,,,,,,,
,,?,0.001545,0,,,,,,stimuli/images/PICTURE_744.png,WEAPON,5ecff9937fd043096b2c1984,2020-06-30_14h41.11.110,proactive,2020.1.2,Win32,60,5efb791ed4cb570da489e737,5efb87214baea00fc3eee071,4,,,,,,ring,,,,,,,,,,,6,1,0,55,55,50,1,,,,,,,,,,,,,,,,,,,,,,,,,,,,,,,,,,,,,,,,,,,,,,,,,,,,,,,,,,,,,,,,,,,,,,
,,?,0.00147,0,,,,,,stimuli/images/PICTURE_95.png,BOYS,5ecff9937fd043096b2c1984,2020-06-30_14h41.11.110,proactive,2020.1.2,Win32,60,5efb791ed4cb570da489e737,5efb87214baea00fc3eee071,4,,,,,,suitcase,,,,,,,,,,,1,1,0,56,56,1,1,,,,,,,,,,,,,,,,,,,,,,,,,,,,,,,,,,,,,,,,,,,,,,,,,,,,,,,,,,,,,,,,,,,,,,
,,?,0.00187,0,,,,,,stimuli/images/PICTURE_504.png,YEAR,5ecff9937fd043096b2c1984,2020-06-30_14h41.11.110,proactive,2020.1.2,Win32,60,5efb791ed4cb570da489e737,5efb87214baea00fc3eee071,4,,,,,,wheel,,,,,,,,,,,2,1,0,57,57,13,1,,,,,,,,,,,,,,,,,,,,,,,,,,,,,,,,,,,,,,,,,,,,,,,,,,,,,,,,,,,,,,,,,,,,,,
,,?,0.01712,0,,,,,,stimuli/images/PICTURE_147.png,WOMEN,5ecff9937fd043096b2c1984,2020-06-30_14h41.11.110,proactive,2020.1.2,Win32,60,5efb791ed4cb570da489e737,5efb87214baea00fc3eee071,4,,,,,,hanger,,,,,,,,,,,1,1,0,58,58,7,1,,,,,,,,,,,,,,,,,,,,,,,,,,,,,,,,,,,,,,,,,,,,,,,,,,,,,,,,,,,,,,,,,,,,,,
,,?,0.001435,0,,,,,,stimuli/images/PICTURE_327.png,SERIES,5ecff9937fd043096b2c1984,2020-06-30_14h41.11.110,proactive,2020.1.2,Win32,60,5efb791ed4cb570da489e737,5efb87214baea00fc3eee071,4,,,,,,helmet,,,,,,,,,,,1,1,0,59,59,3,1,,,,,,,,,,,,,,,,,,,,,,,,,,,,,,,,,,,,,,,,,,,,,,,,,,,,,,,,,,,,,,,,,,,,,,
,,,,,,,,,,,,5ecff9937fd043096b2c1984,2020-06-30_14h41.11.110,proactive,2020.1.2,Win32,60,5efb791ed4cb570da489e737,5efb87214baea00fc3eee071,4,,,,,,,,,,,,,,,,,,,,,,,,0,0,0,1,1,stimuli/learn-block2.csv,,,,,,,,,,,,,,,,,,,,,,,,,,,,,,,,,,,,,,,,,,,,,,,,,,,,,,,,,,,,,,,,
,,,,,,,,,,stimuli/images/PICTURE_469.png,ARTIST,5ecff9937fd043096b2c1984,2020-06-30_14h41.11.110,proactive,2020.1.2,Win32,60,5efb791ed4cb570da489e737,5efb87214baea00fc3eee071,4,,,,,,stool,,,,,,0,0,0,6,1,1,0,,,,,,,,,,,,,,,,,,,,,,,,,,,,,,,,,,,,,,,,,,,,,,,,,,,,,,,,,,,,,,,,,,,,,,,,,,,
,,,,,,,,,,stimuli/images/PICTURE_177.png,CARS,5ecff9937fd043096b2c1984,2020-06-30_14h41.11.110,proactive,2020.1.2,Win32,60,5efb791ed4cb570da489e737,5efb87214baea00fc3eee071,4,,,,,,mushroom,,,,,,0,1,1,35,1,4,0,,,,,,,,,,,,,,,,,,,,,,,,,,,,,,,,,,,,,,,,,,,,,,,,,,,,,,,,,,,,,,,,,,,,,,,,,,,
,,,,,,,,,,stimuli/images/PICTURE_308.png,ESTATE,5ecff9937fd043096b2c1984,2020-06-30_14h41.11.110,proactive,2020.1.2,Win32,60,5efb791ed4cb570da489e737,5efb87214baea00fc3eee071,4,,,,,,dice,,,,,,0,2,2,46,1,5,0,,,,,,,,,,,,,,,,,,,,,,,,,,,,,,,,,,,,,,,,,,,,,,,,,,,,,,,,,,,,,,,,,,,,,,,,,,,
,,,,,,,,,,stimuli/images/PICTURE_491.png,ROOF,5ecff9937fd043096b2c1984,2020-06-30_14h41.11.110,proactive,2020.1.2,Win32,60,5efb791ed4cb570da489e737,5efb87214baea00fc3eee071,4,,,,,,rug,,,,,,0,3,3,24,1,3,0,,,,,,,,,,,,,,,,,,,,,,,,,,,,,,,,,,,,,,,,,,,,,,,,,,,,,,,,,,,,,,,,,,,,,,,,,,,
,,,,,,,,,,stimuli/images/PICTURE_314.png,SAKE,5ecff9937fd043096b2c1984,2020-06-30_14h41.11.110,proactive,2020.1.2,Win32,60,5efb791ed4cb570da489e737,5efb87214baea00fc3eee071,4,,,,,,perfume,,,,,,0,4,4,7,1,1,0,,,,,,,,,,,,,,,,,,,,,,,,,,,,,,,,,,,,,,,,,,,,,,,,,,,,,,,,,,,,,,,,,,,,,,,,,,,
,,,,,,,,,,stimuli/images/PICTURE_208.png,MONTH,5ecff9937fd043096b2c1984,2020-06-30_14h41.11.110,proactive,2020.1.2,Win32,60,5efb791ed4cb570da489e737,5efb87214baea00fc3eee071,4,,,,,,microphone,,,,,,0,5,5,53,1,6,0,,,,,,,,,,,,,,,,,,,,,,,,,,,,,,,,,,,,,,,,,,,,,,,,,,,,,,,,,,,,,,,,,,,,,,,,,,,
,,,,,,,,,,stimuli/images/PICTURE_208.png,LOTS,5ecff9937fd043096b2c1984,2020-06-30_14h41.11.110,proactive,2020.1.2,Win32,60,5efb791ed4cb570da489e737,5efb87214baea00fc3eee071,4,,,,,,microphone,,,,,,0,6,6,10,1,2,0,,,,,,,,,,,,,,,,,,,,,,,,,,,,,,,,,,,,,,,,,,,,,,,,,,,,,,,,,,,,,,,,,,,,,,,,,,,
,,,,,,,,,,stimuli/images/PICTURE_311.png,FRIEND,5ecff9937fd043096b2c1984,2020-06-30_14h41.11.110,proactive,2020.1.2,Win32,60,5efb791ed4cb570da489e737,5efb87214baea00fc3eee071,4,,,,,,razor,,,,,,0,7,7,34,1,4,0,,,,,,,,,,,,,,,,,,,,,,,,,,,,,,,,,,,,,,,,,,,,,,,,,,,,,,,,,,,,,,,,,,,,,,,,,,,
,,,,,,,,,,stimuli/images/PICTURE_667.png,PLENTY,5ecff9937fd043096b2c1984,2020-06-30_14h41.11.110,proactive,2020.1.2,Win32,60,5efb791ed4cb570da489e737,5efb87214baea00fc3eee071,4,,,,,,daisy,,,,,,0,8,8,41,1,5,0,,,,,,,,,,,,,,,,,,,,,,,,,,,,,,,,,,,,,,,,,,,,,,,,,,,,,,,,,,,,,,,,,,,,,,,,,,,
,,,,,,,,,,stimuli/images/PICTURE_675.png,WEAPON,5ecff9937fd043096b2c1984,2020-06-30_14h41.11.110,proactive,2020.1.2,Win32,60,5efb791ed4cb570da489e737,5efb87214baea00fc3eee071,4,,,,,,windmill,,,,,,0,9,9,32,1,4,0,,,,,,,,,,,,,,,,,,,,,,,,,,,,,,,,,,,,,,,,,,,,,,,,,,,,,,,,,,,,,,,,,,,,,,,,,,,
,,,,,,,,,,stimuli/images/PICTURE_449.png,THING,5ecff9937fd043096b2c1984,2020-06-30_14h41.11.110,proactive,2020.1.2,Win32,60,5efb791ed4cb570da489e737,5efb87214baea00fc3eee071,4,,,,,,bench,,,,,,0,10,10,59,1,6,0,,,,,,,,,,,,,,,,,,,,,,,,,,,,,,,,,,,,,,,,,,,,,,,,,,,,,,,,,,,,,,,,,,,,,,,,,,,
,,,,,,,,,,stimuli/images/PICTURE_233.png,WOMEN,5ecff9937fd043096b2c1984,2020-06-30_14h41.11.110,proactive,2020.1.2,Win32,60,5efb791ed4cb570da489e737,5efb87214baea00fc3eee071,4,,,,,,salt,,,,,,0,11,11,38,1,4,0,,,,,,,,,,,,,,,,,,,,,,,,,,,,,,,,,,,,,,,,,,,,,,,,,,,,,,,,,,,,,,,,,,,,,,,,,,,
,,,,,,,,,,stimuli/images/PICTURE_68.png,MILE,5ecff9937fd043096b2c1984,2020-06-30_14h41.11.110,proactive,2020.1.2,Win32,60,5efb791ed4cb570da489e737,5efb87214baea00fc3eee071,4,,,,,,candle,,,,,,0,12,12,44,1,5,0,,,,,,,,,,,,,,,,,,,,,,,,,,,,,,,,,,,,,,,,,,,,,,,,,,,,,,,,,,,,,,,,,,,,,,,,,,,
,,,,,,,,,,stimuli/images/PICTURE_677.png,MILE,5ecff9937fd043096b2c1984,2020-06-30_14h41.11.110,proactive,2020.1.2,Win32,60,5efb791ed4cb570da489e737,5efb87214baea00fc3eee071,4,,,,,,map,,,,,,0,13,13,30,1,4,0,,,,,,,,,,,,,,,,,,,,,,,,,,,,,,,,,,,,,,,,,,,,,,,,,,,,,,,,,,,,,,,,,,,,,,,,,,,
,,,,,,,,,,stimuli/images/PICTURE_453.png,PLENTY,5ecff9937fd043096b2c1984,2020-06-30_14h41.11.110,proactive,2020.1.2,Win32,60,5efb791ed4cb570da489e737,5efb87214baea00fc3eee071,4,,,,,,scissors,,,,,,0,14,14,56,1,6,0,,,,,,,,,,,,,,,,,,,,,,,,,,,,,,,,,,,,,,,,,,,,,,,,,,,,,,,,,,,,,,,,,,,,,,,,,,,
,,,,,,,,,,stimuli/images/PICTURE_348.png,SPEECH,5ecff9937fd043096b2c1984,2020-06-30_14h41.11.110,proactive,2020.1.2,Win32,60,5efb791ed4cb570da489e737,5efb87214baea00fc3eee071,4,,,,,,pepper,,,,,,0,15,15,20,1,3,0,,,,,,,,,,,,,,,,,,,,,,,,,,,,,,,,,,,,,,,,,,,,,,,,,,,,,,,,,,,,,,,,,,,,,,,,,,,
,,,,,,,,,,stimuli/images/PICTURE_160.png,FEET,5ecff9937fd043096b2c1984,2020-06-30_14h41.11.110,proactive,2020.1.2,Win32,60,5efb791ed4cb570da489e737,5efb87214baea00fc3eee071,4,,,,,,wheelbarrow,,,,,,0,16,16,58,1,6,0,,,,,,,,,,,,,,,,,,,,,,,,,,,,,,,,,,,,,,,,,,,,,,,,,,,,,,,,,,,,,,,,,,,,,,,,,,,
,,,,,,,,,,stimuli/images/PICTURE_95.png,STYLE,5ecff9937fd043096b2c1984,2020-06-30_14h41.11.110,proactive,2020.1.2,Win32,60,5efb791ed4cb570da489e737,5efb87214baea00fc3eee071,4,,,,,,suitcase,,,,,,0,17,17,25,1,3,0,,,,,,,,,,,,,,,,,,,,,,,,,,,,,,,,,,,,,,,,,,,,,,,,,,,,,,,,,,,,,,,,,,,,,,,,,,,
,,,,,,,,,,stimuli/images/PICTURE_380.png,PHOTO,5ecff9937fd043096b2c1984,2020-06-30_14h41.11.110,proactive,2020.1.2,Win32,60,5efb791ed4cb570da489e737,5efb87214baea00fc3eee071,4,,,,,,gorilla,,,,,,0,18,18,52,1,6,0,,,,,,,,,,,,,,,,,,,,,,,,,,,,,,,,,,,,,,,,,,,,,,,,,,,,,,,,,,,,,,,,,,,,,,,,,,,
,,,,,,,,,,stimuli/images/PICTURE_308.png,KIND,5ecff9937fd043096b2c1984,2020-06-30_14h41.11.110,proactive,2020.1.2,Win32,60,5efb791ed4cb570da489e737,5efb87214baea00fc3eee071,4,,,,,,dice,,,,,,0,19,19,54,1,6,0,,,,,,,,,,,,,,,,,,,,,,,,,,,,,,,,,,,,,,,,,,,,,,,,,,,,,,,,,,,,,,,,,,,,,,,,,,,
,,,,,,,,,,stimuli/images/PICTURE_488.png,STYLE,5ecff9937fd043096b2c1984,2020-06-30_14h41.11.110,proactive,2020.1.2,Win32,60,5efb791ed4cb570da489e737,5efb87214baea00fc3eee071,4,,,,,,sun,,,,,,0,20,20,33,1,4,0,,,,,,,,,,,,,,,,,,,,,,,,,,,,,,,,,,,,,,,,,,,,,,,,,,,,,,,,,,,,,,,,,,,,,,,,,,,
,,,,,,,,,,stimuli/images/PICTURE_208.png,THING,5ecff9937fd043096b2c1984,2020-06-30_14h41.11.110,proactive,2020.1.2,Win32,60,5efb791ed4cb570da489e737,5efb87214baea00fc3eee071,4,,,,,,microphone,,,,,,0,21,21,47,1,5,0,,,,,,,,,,,,,,,,,,,,,,,,,,,,,,,,,,,,,,,,,,,,,,,,,,,,,,,,,,,,,,,,,,,,,,,,,,,
,,,,,,,,,,stimuli/images/PICTURE_380.png,DEATH,5ecff9937fd043096b2c1984,2020-06-30_14h41.11.110,proactive,2020.1.2,Win32,60,5efb791ed4cb570da489e737,5efb87214baea00fc3eee071,4,,,,,,gorilla,,,,,,0,22,22,49,1,5,0,,,,,,,,,,,,,,,,,,,,,,,,,,,,,,,,,,,,,,,,,,,,,,,,,,,,,,,,,,,,,,,,,,,,,,,,,,,
,,,,,,,,,,stimuli/images/PICTURE_123.png,ADVICE,5ecff9937fd043096b2c1984,2020-06-30_14h41.11.110,proactive,2020.1.2,Win32,60,5efb791ed4cb570da489e737,5efb87214baea00fc3eee071,4,,,,,,dart,,,,,,0,23,23,50,1,6,0,,,,,,,,,,,,,,,,,,,,,,,,,,,,,,,,,,,,,,,,,,,,,,,,,,,,,,,,,,,,,,,,,,,,,,,,,,,
,,,,,,,,,,stimuli/images/PICTURE_215.png,PLENTY,5ecff9937fd043096b2c1984,2020-06-30_14h41.11.110,proactive,2020.1.2,Win32,60,5efb791ed4cb570da489e737,5efb87214baea00fc3eee071,4,,,,,,boot,,,,,,0,24,24,37,1,4,0,,,,,,,,,,,,,,,,,,,,,,,,,,,,,,,,,,,,,,,,,,,,,,,,,,,,,,,,,,,,,,,,,,,,,,,,,,,
,,,,,,,,,,stimuli/images/PICTURE_504.png,BODY,5ecff9937fd043096b2c1984,2020-06-30_14h41.11.110,proactive,2020.1.2,Win32,60,5efb791ed4cb570da489e737,5efb87214baea00fc3eee071,4,,,,,,wheel,,,,,,0,25,25,8,1,1,0,,,,,,,,,,,,,,,,,,,,,,,,,,,,,,,,,,,,,,,,,,,,,,,,,,,,,,,,,,,,,,,,,,,,,,,,,,,
,,,,,,,,,,stimuli/images/PICTURE_233.png,IDEAS,5ecff9937fd043096b2c1984,2020-06-30_14h41.11.110,proactive,2020.1.2,Win32,60,5efb791ed4cb570da489e737,5efb87214baea00fc3eee071,4,,,,,,salt,,,,,,0,26,26,28,1,3,0,,,,,,,,,,,,,,,,,,,,,,,,,,,,,,,,,,,,,,,,,,,,,,,,,,,,,,,,,,,,,,,,,,,,,,,,,,,
,,,,,,,,,,stimuli/images/PICTURE_314.png,GODS,5ecff9937fd043096b2c1984,2020-06-30_14h41.11.110,proactive,2020.1.2,Win32,60,5efb791ed4cb570da489e737,5efb87214baea00fc3eee071,4,,,,,,perfume,,,,,,0,27,27,11,1,2,0,,,,,,,,,,,,,,,,,,,,,,,,,,,,,,,,,,,,,,,,,,,,,,,,,,,,,,,,,,,,,,,,,,,,,,,,,,,
,,,,,,,,,,stimuli/images/PICTURE_302.png,FAMILY,5ecff9937fd043096b2c1984,2020-06-30_14h41.11.110,proactive,2020.1.2,Win32,60,5efb791ed4cb570da489e737,5efb87214baea00fc3eee071,4,,,,,,taxi,,,,,,0,28,28,18,1,2,0,,,,,,,,,,,,,,,,,,,,,,,,,,,,,,,,,,,,,,,,,,,,,,,,,,,,,,,,,,,,,,,,,,,,,,,,,,,
,,,,,,,,,,stimuli/images/PICTURE_688.png,CASINO,5ecff9937fd043096b2c1984,2020-06-30_14h41.11.110,proactive,2020.1.2,Win32,60,5efb791ed4cb570da489e737,5efb87214baea00fc3eee071,4,,,,,,runner,,,,,,0,29,29,2,1,1,0,,,,,,,,,,,,,,,,,,,,,,,,,,,,,,,,,,,,,,,,,,,,,,,,,,,,,,,,,,,,,,,,,,,,,,,,,,,
,,,,,,,,,,stimuli/images/PICTURE_311.png,BEAUTY,5ecff9937fd043096b2c1984,2020-06-30_14h41.11.110,proactive,2020.1.2,Win32,60,5efb791ed4cb570da489e737,5efb87214baea00fc3eee071,4,,,,,,razor,,,,,,0,30,30,13,1,2,0,,,,,,,,,,,,,,,,,,,,,,,,,,,,,,,,,,,,,,,,,,,,,,,,,,,,,,,,,,,,,,,,,,,,,,,,,,,
,,,,,,,,,,stimuli/images/PICTURE_203.png,ARTIST,5ecff9937fd043096b2c1984,2020-06-30_14h41.11.110,proactive,2020.1.2,Win32,60,5efb791ed4cb570da489e737,5efb87214baea00fc3eee071,4,,,,,,cap,,,,,,0,31,31,26,1,3,0,,,,,,,,,,,,,,,,,,,,,,,,,,,,,,,,,,,,,,,,,,,,,,,,,,,,,,,,,,,,,,,,,,,,,,,,,,,
,,,,,,,,,,stimuli/images/PICTURE_147.png,MOMENT,5ecff9937fd043096b2c1984,2020-06-30_14h41.11.110,proactive,2020.1.2,Win32,60,5efb791ed4cb570da489e737,5efb87214baea00fc3eee071,4,,,,,,hanger,,,,,,0,32,32,51,1,6,0,,,,,,,,,,,,,,,,,,,,,,,,,,,,,,,,,,,,,,,,,,,,,,,,,,,,,,,,,,,,,,,,,,,,,,,,,,,
,,,,,,,,,,stimuli/images/PICTURE_327.png,BEAUTY,5ecff9937fd043096b2c1984,2020-06-30_14h41.11.110,proactive,2020.1.2,Win32,60,5efb791ed4cb570da489e737,5efb87214baea00fc3eee071,4,,,,,,helmet,,,,,,0,33,33,48,1,5,0,,,,,,,,,,,,,,,,,,,,,,,,,,,,,,,,,,,,,,,,,,,,,,,,,,,,,,,,,,,,,,,,,,,,,,,,,,,
,,,,,,,,,,stimuli/images/PICTURE_470.png,CASINO,5ecff9937fd043096b2c1984,2020-06-30_14h41.11.110,proactive,2020.1.2,Win32,60,5efb791ed4cb570da489e737,5efb87214baea00fc3eee071,4,,,,,,motorbike,,,,,,0,34,34,36,1,4,0,,,,,,,,,,,,,,,,,,,,,,,,,,,,,,,,,,,,,,,,,,,,,,,,,,,,,,,,,,,,,,,,,,,,,,,,,,,
,,,,,,,,,,stimuli/images/PICTURE_285.png,ADVICE,5ecff9937fd043096b2c1984,2020-06-30_14h41.11.110,proactive,2020.1.2,Win32,60,5efb791ed4cb570da489e737,5efb87214baea00fc3eee071,4,,,,,,carrot,,,,,,0,35,35,12,1,2,0,,,,,,,,,,,,,,,,,,,,,,,,,,,,,,,,,,,,,,,,,,,,,,,,,,,,,,,,,,,,,,,,,,,,,,,,,,,
,,,,,,,,,,stimuli/images/PICTURE_255.png,AREA,5ecff9937fd043096b2c1984,2020-06-30_14h41.11.110,proactive,2020.1.2,Win32,60,5efb791ed4cb570da489e737,5efb87214baea00fc3eee071,4,,,,,,shovel,,,,,,0,36,36,22,1,3,0,,,,,,,,,,,,,,,,,,,,,,,,,,,,,,,,,,,,,,,,,,,,,,,,,,,,,,,,,,,,,,,,,,,,,,,,,,,
,,,,,,,,,,stimuli/images/PICTURE_469.png,LETTER,5ecff9937fd043096b2c1984,2020-06-30_14h41.11.110,proactive,2020.1.2,Win32,60,5efb791ed4cb570da489e737,5efb87214baea00fc3eee071,4,,,,,,stool,,,,,,0,37,37,42,1,5,0,,,,,,,,,,,,,,,,,,,,,,,,,,,,,,,,,,,,,,,,,,,,,,,,,,,,,,,,,,,,,,,,,,,,,,,,,,,
,,,,,,,,,,stimuli/images/PICTURE_248.png,DOZEN,5ecff9937fd043096b2c1984,2020-06-30_14h41.11.110,proactive,2020.1.2,Win32,60,5efb791ed4cb570da489e737,5efb87214baea00fc3eee071,4,,,,,,cart,,,,,,0,38,38,39,1,4,0,,,,,,,,,,,,,,,,,,,,,,,,,,,,,,,,,,,,,,,,,,,,,,,,,,,,,,,,,,,,,,,,,,,,,,,,,,,
,,,,,,,,,,stimuli/images/PICTURE_453.png,DUDE,5ecff9937fd043096b2c1984,2020-06-30_14h41.11.110,proactive,2020.1.2,Win32,60,5efb791ed4cb570da489e737,5efb87214baea00fc3eee071,4,,,,,,scissors,,,,,,0,39,39,27,1,3,0,,,,,,,,,,,,,,,,,,,,,,,,,,,,,,,,,,,,,,,,,,,,,,,,,,,,,,,,,,,,,,,,,,,,,,,,,,,
,,,,,,,,,,stimuli/images/PICTURE_708.png,PENNY,5ecff9937fd043096b2c1984,2020-06-30_14h41.11.110,proactive,2020.1.2,Win32,60,5efb791ed4cb570da489e737,5efb87214baea00fc3eee071,4,,,,,,monkey,,,,,,0,40,40,31,1,4,0,,,,,,,,,,,,,,,,,,,,,,,,,,,,,,,,,,,,,,,,,,,,,,,,,,,,,,,,,,,,,,,,,,,,,,,,,,,
,,,,,,,,,,stimuli/images/PICTURE_509.png,PHOTO,5ecff9937fd043096b2c1984,2020-06-30_14h41.11.110,proactive,2020.1.2,Win32,60,5efb791ed4cb570da489e737,5efb87214baea00fc3eee071,4,,,,,,telephone,,,,,,0,41,41,21,1,3,0,,,,,,,,,,,,,,,,,,,,,,,,,,,,,,,,,,,,,,,,,,,,,,,,,,,,,,,,,,,,,,,,,,,,,,,,,,,
,,,,,,,,,,stimuli/images/PICTURE_654.png,VALLEY,5ecff9937fd043096b2c1984,2020-06-30_14h41.11.110,proactive,2020.1.2,Win32,60,5efb791ed4cb570da489e737,5efb87214baea00fc3eee071,4,,,,,,pencil,,,,,,0,42,42,1,1,1,0,,,,,,,,,,,,,,,,,,,,,,,,,,,,,,,,,,,,,,,,,,,,,,,,,,,,,,,,,,,,,,,,,,,,,,,,,,,
,,,,,,,,,,stimuli/images/PICTURE_688.png,WOMEN,5ecff9937fd043096b2c1984,2020-06-30_14h41.11.110,proactive,2020.1.2,Win32,60,5efb791ed4cb570da489e737,5efb87214baea00fc3eee071,4,,,,,,runner,,,,,,0,43,43,14,1,2,0,,,,,,,,,,,,,,,,,,,,,,,,,,,,,,,,,,,,,,,,,,,,,,,,,,,,,,,,,,,,,,,,,,,,,,,,,,,
,,,,,,,,,,stimuli/images/PICTURE_708.png,YARD,5ecff9937fd043096b2c1984,2020-06-30_14h41.11.110,proactive,2020.1.2,Win32,60,5efb791ed4cb570da489e737,5efb87214baea00fc3eee071,4,,,,,,monkey,,,,,,0,44,44,29,1,3,0,,,,,,,,,,,,,,,,,,,,,,,,,,,,,,,,,,,,,,,,,,,,,,,,,,,,,,,,,,,,,,,,,,,,,,,,,,,
,,,,,,,,,,stimuli/images/PICTURE_151.png,GIRL,5ecff9937fd043096b2c1984,2020-06-30_14h41.11.110,proactive,2020.1.2,Win32,60,5efb791ed4cb570da489e737,5efb87214baea00fc3eee071,4,,,,,,tray,,,,,,0,45,45,19,1,2,0,,,,,,,,,,,,,,,,,,,,,,,,,,,,,,,,,,,,,,,,,,,,,,,,,,,,,,,,,,,,,,,,,,,,,,,,,,,
,,,,,,,,,,stimuli/images/PICTURE_160.png,LEADER,5ecff9937fd043096b2c1984,2020-06-30_14h41.11.110,proactive,2020.1.2,Win32,60,5efb791ed4cb570da489e737,5efb87214baea00fc3eee071,4,,,,,,wheelbarrow,,,,,,0,46,46,3,1,1,0,,,,,,,,,,,,,,,,,,,,,,,,,,,,,,,,,,,,,,,,,,,,,,,,,,,,,,,,,,,,,,,,,,,,,,,,,,,
,,,,,,,,,,stimuli/images/PICTURE_32.png,JUNGLE,5ecff9937fd043096b2c1984,2020-06-30_14h41.11.110,proactive,2020.1.2,Win32,60,5efb791ed4cb570da489e737,5efb87214baea00fc3eee071,4,,,,,,crown,,,,,,0,47,47,45,1,5,0,,,,,,,,,,,,,,,,,,,,,,,,,,,,,,,,,,,,,,,,,,,,,,,,,,,,,,,,,,,,,,,,,,,,,,,,,,,
,,,,,,,,,,stimuli/images/PICTURE_356.png,DANGER,5ecff9937fd043096b2c1984,2020-06-30_14h41.11.110,proactive,2020.1.2,Win32,60,5efb791ed4cb570da489e737,5efb87214baea00fc3eee071,4,,,,,,pawn,,,,,,0,48,48,55,1,6,0,,,,,,,,,,,,,,,,,,,,,,,,,,,,,,,,,,,,,,,,,,,,,,,,,,,,,,,,,,,,,,,,,,,,,,,,,,,
,,,,,,,,,,stimuli/images/PICTURE_487.png,FLIGHT,5ecff9937fd043096b2c1984,2020-06-30_14h41.11.110,proactive,2020.1.2,Win32,60,5efb791ed4cb570da489e737,5efb87214baea00fc3eee071,4,,,,,,basket,,,,,,0,49,49,9,1,1,0,,,,,,,,,,,,,,,,,,,,,,,,,,,,,,,,,,,,,,,,,,,,,,,,,,,,,,,,,,,,,,,,,,,,,,,,,,,
,,,,,,,,,,stimuli/images/PICTURE_744.png,SAKE,5ecff9937fd043096b2c1984,2020-06-30_14h41.11.110,proactive,2020.1.2,Win32,60,5efb791ed4cb570da489e737,5efb87214baea00fc3eee071,4,,,,,,ring,,,,,,0,50,50,17,1,2,0,,,,,,,,,,,,,,,,,,,,,,,,,,,,,,,,,,,,,,,,,,,,,,,,,,,,,,,,,,,,,,,,,,,,,,,,,,,
,,,,,,,,,,stimuli/images/PICTURE_85.png,THING,5ecff9937fd043096b2c1984,2020-06-30_14h41.11.110,proactive,2020.1.2,Win32,60,5efb791ed4cb570da489e737,5efb87214baea00fc3eee071,4,,,,,,diamond,,,,,,0,51,51,15,1,2,0,,,,,,,,,,,,,,,,,,,,,,,,,,,,,,,,,,,,,,,,,,,,,,,,,,,,,,,,,,,,,,,,,,,,,,,,,,,
,,,,,,,,,,stimuli/images/PICTURE_667.png,BATH,5ecff9937fd043096b2c1984,2020-06-30_14h41.11.110,proactive,2020.1.2,Win32,60,5efb791ed4cb570da489e737,5efb87214baea00fc3eee071,4,,,,,,daisy,,,,,,0,52,52,4,1,1,0,,,,,,,,,,,,,,,,,,,,,,,,,,,,,,,,,,,,,,,,,,,,,,,,,,,,,,,,,,,,,,,,,,,,,,,,,,,
,,,,,,,,,,stimuli/images/PICTURE_467.png,DEMON,5ecff9937fd043096b2c1984,2020-06-30_14h41.11.110,proactive,2020.1.2,Win32,60,5efb791ed4cb570da489e737,5efb87214baea00fc3eee071,4,,,,,,peg,,,,,,0,53,53,23,1,3,0,,,,,,,,,,,,,,,,,,,,,,,,,,,,,,,,,,,,,,,,,,,,,,,,,,,,,,,,,,,,,,,,,,,,,,,,,,,
,,,,,,,,,,stimuli/images/PICTURE_339.png,PLENTY,5ecff9937fd043096b2c1984,2020-06-30_14h41.11.110,proactive,2020.1.2,Win32,60,5efb791ed4cb570da489e737,5efb87214baea00fc3eee071,4,,,,,,backpack,,,,,,0,54,54,0,1,1,0,,,,,,,,,,,,,,,,,,,,,,,,,,,,,,,,,,,,,,,,,,,,,,,,,,,,,,,,,,,,,,,,,,,,,,,,,,,
,,,,,,,,,,stimuli/images/PICTURE_708.png,CLIENT,5ecff9937fd043096b2c1984,2020-06-30_14h41.11.110,proactive,2020.1.2,Win32,60,5efb791ed4cb570da489e737,5efb87214baea00fc3eee071,4,,,,,,monkey,,,,,,0,55,55,5,1,1,0,,,,,,,,,,,,,,,,,,,,,,,,,,,,,,,,,,,,,,,,,,,,,,,,,,,,,,,,,,,,,,,,,,,,,,,,,,,
,,,,,,,,,,stimuli/images/PICTURE_123.png,ADVICE,5ecff9937fd043096b2c1984,2020-06-30_14h41.11.110,proactive,2020.1.2,Win32,60,5efb791ed4cb570da489e737,5efb87214baea00fc3eee071,4,,,,,,dart,,,,,,0,56,56,40,1,5,0,,,,,,,,,,,,,,,,,,,,,,,,,,,,,,,,,,,,,,,,,,,,,,,,,,,,,,,,,,,,,,,,,,,,,,,,,,,
,,,,,,,,,,stimuli/images/PICTURE_692.png,MONTH,5ecff9937fd043096b2c1984,2020-06-30_14h41.11.110,proactive,2020.1.2,Win32,60,5efb791ed4cb570da489e737,5efb87214baea00fc3eee071,4,,,,,,cherry,,,,,,0,57,57,16,1,2,0,,,,,,,,,,,,,,,,,,,,,,,,,,,,,,,,,,,,,,,,,,,,,,,,,,,,,,,,,,,,,,,,,,,,,,,,,,,
,,,,,,,,,,stimuli/images/PICTURE_744.png,SYSTEM,5ecff9937fd043096b2c1984,2020-06-30_14h41.11.110,proactive,2020.1.2,Win32,60,5efb791ed4cb570da489e737,5efb87214baea00fc3eee071,4,,,,,,ring,,,,,,0,58,58,43,1,5,0,,,,,,,,,,,,,,,,,,,,,,,,,,,,,,,,,,,,,,,,,,,,,,,,,,,,,,,,,,,,,,,,,,,,,,,,,,,
,,MILE,6.097475,1,,,,,,stimuli/images/PICTURE_677.png,MILE,5ecff9937fd043096b2c1984,2020-06-30_14h41.11.110,proactive,2020.1.2,Win32,60,5efb791ed4cb570da489e737,5efb87214baea00fc3eee071,4,,,,,,map,,,,,,,,,,,4,0,0,0,0,30,1,,,,,,,,,,,,,,,,,,,,,,,,,,,,,,,,,,,,,,,,,,,,,,,,,,,,,,,,,,,,,,,,,,,,,,
,,?,0.001755,0,,,,,,stimuli/images/PICTURE_688.png,CASINO,5ecff9937fd043096b2c1984,2020-06-30_14h41.11.110,proactive,2020.1.2,Win32,60,5efb791ed4cb570da489e737,5efb87214baea00fc3eee071,4,,,,,,runner,,,,,,,,,,,1,0,0,1,1,2,1,,,,,,,,,,,,,,,,,,,,,,,,,,,,,,,,,,,,,,,,,,,,,,,,,,,,,,,,,,,,,,,,,,,,,,
,,?,0.005255,0,,,,,,stimuli/images/PICTURE_453.png,PLENTY,5ecff9937fd043096b2c1984,2020-06-30_14h41.11.110,proactive,2020.1.2,Win32,60,5efb791ed4cb570da489e737,5efb87214baea00fc3eee071,4,,,,,,scissors,,,,,,,,,,,6,0,0,2,2,56,1,,,,,,,,,,,,,,,,,,,,,,,,,,,,,,,,,,,,,,,,,,,,,,,,,,,,,,,,,,,,,,,,,,,,,,
,,?,0.001475,0,,,,,,stimuli/images/PICTURE_692.png,MONTH,5ecff9937fd043096b2c1984,2020-06-30_14h41.11.110,proactive,2020.1.2,Win32,60,5efb791ed4cb570da489e737,5efb87214baea00fc3eee071,4,,,,,,cherry,,,,,,,,,,,2,0,0,3,3,16,1,,,,,,,,,,,,,,,,,,,,,,,,,,,,,,,,,,,,,,,,,,,,,,,,,,,,,,,,,,,,,,,,,,,,,,
,,?,0.002115,0,,,,,,stimuli/images/PICTURE_348.png,SPEECH,5ecff9937fd043096b2c1984,2020-06-30_14h41.11.110,proactive,2020.1.2,Win32,60,5efb791ed4cb570da489e737,5efb87214baea00fc3eee071,4,,,,,,pepper,,,,,,,,,,,3,0,0,4,4,20,1,,,,,,,,,,,,,,,,,,,,,,,,,,,,,,,,,,,,,,,,,,,,,,,,,,,,,,,,,,,,,,,,,,,,,,
,,PLENTY,6.372555,1,,,,,,stimuli/images/PICTURE_215.png,PLENTY,5ecff9937fd043096b2c1984,2020-06-30_14h41.11.110,proactive,2020.1.2,Win32,60,5efb791ed4cb570da489e737,5efb87214baea00fc3eee071,4,,,,,,boot,,,,,,,,,,,4,0,0,5,5,37,1,,,,,,,,,,,,,,,,,,,,,,,,,,,,,,,,,,,,,,,,,,,,,,,,,,,,,,,,,,,,,,,,,,,,,,
,,?,0.001835,0,,,,,,stimuli/images/PICTURE_285.png,ADVICE,5ecff9937fd043096b2c1984,2020-06-30_14h41.11.110,proactive,2020.1.2,Win32,60,5efb791ed4cb570da489e737,5efb87214baea00fc3eee071,4,,,,,,carrot,,,,,,,,,,,2,0,0,6,6,12,1,,,,,,,,,,,,,,,,,,,,,,,,,,,,,,,,,,,,,,,,,,,,,,,,,,,,,,,,,,,,,,,,,,,,,,
,,?,0.00173,0,,,,,,stimuli/images/PICTURE_654.png,VALLEY,5ecff9937fd043096b2c1984,2020-06-30_14h41.11.110,proactive,2020.1.2,Win32,60,5efb791ed4cb570da489e737,5efb87214baea00fc3eee071,4,,,,,,pencil,,,,,,,,,,,1,0,0,7,7,1,1,,,,,,,,,,,,,,,,,,,,,,,,,,,,,,,,,,,,,,,,,,,,,,,,,,,,,,,,,,,,,,,,,,,,,,
,,?,0.002,0,,,,,,stimuli/images/PICTURE_487.png,FLIGHT,5ecff9937fd043096b2c1984,2020-06-30_14h41.11.110,proactive,2020.1.2,Win32,60,5efb791ed4cb570da489e737,5efb87214baea00fc3eee071,4,,,,,,basket,,,,,,,,,,,1,0,0,8,8,9,1,,,,,,,,,,,,,,,,,,,,,,,,,,,,,,,,,,,,,,,,,,,,,,,,,,,,,,,,,,,,,,,,,,,,,,
,,?,0.002345,0,,,,,,stimuli/images/PICTURE_453.png,DUDE,5ecff9937fd043096b2c1984,2020-06-30_14h41.11.110,proactive,2020.1.2,Win32,60,5efb791ed4cb570da489e737,5efb87214baea00fc3eee071,4,,,,,,scissors,,,,,,,,,,,3,0,0,9,9,27,1,,,,,,,,,,,,,,,,,,,,,,,,,,,,,,,,,,,,,,,,,,,,,,,,,,,,,,,,,,,,,,,,,,,,,,
,,?,0.0015,0,,,,,,stimuli/images/PICTURE_491.png,ROOF,5ecff9937fd043096b2c1984,2020-06-30_14h41.11.110,proactive,2020.1.2,Win32,60,5efb791ed4cb570da489e737,5efb87214baea00fc3eee071,4,,,,,,rug,,,,,,,,,,,3,0,0,10,10,24,1,,,,,,,,,,,,,,,,,,,,,,,,,,,,,,,,,,,,,,,,,,,,,,,,,,,,,,,,,,,,,,,,,,,,,,
,,?,0.001475,0,,,,,,stimuli/images/PICTURE_255.png,AREA,5ecff9937fd043096b2c1984,2020-06-30_14h41.11.110,proactive,2020.1.2,Win32,60,5efb791ed4cb570da489e737,5efb87214baea00fc3eee071,4,,,,,,shovel,,,,,,,,,,,3,0,0,11,11,22,1,,,,,,,,,,,,,,,,,,,,,,,,,,,,,,,,,,,,,,,,,,,,,,,,,,,,,,,,,,,,,,,,,,,,,,
,,?,0.00164,0,,,,,,stimuli/images/PICTURE_208.png,THING,5ecff9937fd043096b2c1984,2020-06-30_14h41.11.110,proactive,2020.1.2,Win32,60,5efb791ed4cb570da489e737,5efb87214baea00fc3eee071,4,,,,,,microphone,,,,,,,,,,,5,0,0,12,12,47,1,,,,,,,,,,,,,,,,,,,,,,,,,,,,,,,,,,,,,,,,,,,,,,,,,,,,,,,,,,,,,,,,,,,,,,
,,?,0.001425,0,,,,,,stimuli/images/PICTURE_356.png,DANGER,5ecff9937fd043096b2c1984,2020-06-30_14h41.11.110,proactive,2020.1.2,Win32,60,5efb791ed4cb570da489e737,5efb87214baea00fc3eee071,4,,,,,,pawn,,,,,,,,,,,6,0,0,13,13,55,1,,,,,,,,,,,,,,,,,,,,,,,,,,,,,,,,,,,,,,,,,,,,,,,,,,,,,,,,,,,,,,,,,,,,,,
,,?,0.001475,0,,,,,,stimuli/images/PICTURE_95.png,STYLE,5ecff9937fd043096b2c1984,2020-06-30_14h41.11.110,proactive,2020.1.2,Win32,60,5efb791ed4cb570da489e737,5efb87214baea00fc3eee071,4,,,,,,suitcase,,,,,,,,,,,3,0,0,14,14,25,1,,,,,,,,,,,,,,,,,,,,,,,,,,,,,,,,,,,,,,,,,,,,,,,,,,,,,,,,,,,,,,,,,,,,,,
,,?,0.001565,0,,,,,,stimuli/images/PICTURE_160.png,LEADER,5ecff9937fd043096b2c1984,2020-06-30_14h41.11.110,proactive,2020.1.2,Win32,60,5efb791ed4cb570da489e737,5efb87214baea00fc3eee071,4,,,,,,wheelbarrow,,,,,,,,,,,1,0,0,15,15,3,1,,,,,,,,,,,,,,,,,,,,,,,,,,,,,,,,,,,,,,,,,,,,,,,,,,,,,,,,,,,,,,,,,,,,,,
,,?,0.00125,0,,,,,,stimuli/images/PICTURE_308.png,KIND,5ecff9937fd043096b2c1984,2020-06-30_14h41.11.110,proactive,2020.1.2,Win32,60,5efb791ed4cb570da489e737,5efb87214baea00fc3eee071,4,,,,,,dice,,,,,,,,,,,6,0,0,16,16,54,1,,,,,,,,,,,,,,,,,,,,,,,,,,,,,,,,,,,,,,,,,,,,,,,,,,,,,,,,,,,,,,,,,,,,,,
,,?,0.001315,0,,,,,,stimuli/images/PICTURE_708.png,YARD,5ecff9937fd043096b2c1984,2020-06-30_14h41.11.110,proactive,2020.1.2,Win32,60,5efb791ed4cb570da489e737,5efb87214baea00fc3eee071,4,,,,,,monkey,,,,,,,,,,,3,0,0,17,17,29,1,,,,,,,,,,,,,,,,,,,,,,,,,,,,,,,,,,,,,,,,,,,,,,,,,,,,,,,,,,,,,,,,,,,,,,
,,?,0.001255,0,,,,,,stimuli/images/PICTURE_509.png,PHOTO,5ecff9937fd043096b2c1984,2020-06-30_14h41.11.110,proactive,2020.1.2,Win32,60,5efb791ed4cb570da489e737,5efb87214baea00fc3eee071,4,,,,,,telephone,,,,,,,,,,,3,0,0,18,18,21,1,,,,,,,,,,,,,,,,,,,,,,,,,,,,,,,,,,,,,,,,,,,,,,,,,,,,,,,,,,,,,,,,,,,,,,
,,?,0.00127,0,,,,,,stimuli/images/PICTURE_467.png,DEMON,5ecff9937fd043096b2c1984,2020-06-30_14h41.11.110,proactive,2020.1.2,Win32,60,5efb791ed4cb570da489e737,5efb87214baea00fc3eee071,4,,,,,,peg,,,,,,,,,,,3,0,0,19,19,23,1,,,,,,,,,,,,,,,,,,,,,,,,,,,,,,,,,,,,,,,,,,,,,,,,,,,,,,,,,,,,,,,,,,,,,,
,,?,0.00134,0,,,,,,stimuli/images/PICTURE_688.png,WOMEN,5ecff9937fd043096b2c1984,2020-06-30_14h41.11.110,proactive,2020.1.2,Win32,60,5efb791ed4cb570da489e737,5efb87214baea00fc3eee071,4,,,,,,runner,,,,,,,,,,,2,0,0,20,20,14,1,,,,,,,,,,,,,,,,,,,,,,,,,,,,,,,,,,,,,,,,,,,,,,,,,,,,,,,,,,,,,,,,,,,,,,
,,?,0.001295,0,,,,,,stimuli/images/PICTURE_744.png,SYSTEM,5ecff9937fd043096b2c1984,2020-06-30_14h41.11.110,proactive,2020.1.2,Win32,60,5efb791ed4cb570da489e737,5efb87214baea00fc3eee071,4,,,,,,ring,,,,,,,,,,,5,0,0,21,21,43,1,,,,,,,,,,,,,,,,,,,,,,,,,,,,,,,,,,,,,,,,,,,,,,,,,,,,,,,,,,,,,,,,,,,,,,
,,?,0.001315,0,,,,,,stimuli/images/PICTURE_504.png,BODY,5ecff9937fd043096b2c1984,2020-06-30_14h41.11.110,proactive,2020.1.2,Win32,60,5efb791ed4cb570da489e737,5efb87214baea00fc3eee071,4,,,,,,wheel,,,,,,,,,,,1,0,0,22,22,8,1,,,,,,,,,,,,,,,,,,,,,,,,,,,,,,,,,,,,,,,,,,,,,,,,,,,,,,,,,,,,,,,,,,,,,,
,,?,0.00127,0,,,,,,stimuli/images/PICTURE_311.png,BEAUTY,5ecff9937fd043096b2c1984,2020-06-30_14h41.11.110,proactive,2020.1.2,Win32,60,5efb791ed4cb570da489e737,5efb87214baea00fc3eee071,4,,,,,,razor,,,,,,,,,,,2,0,0,23,23,13,1,,,,,,,,,,,,,,,,,,,,,,,,,,,,,,,,,,,,,,,,,,,,,,,,,,,,,,,,,,,,,,,,,,,,,,
,,?,0.0013,0,,,,,,stimuli/images/PICTURE_314.png,SAKE,5ecff9937fd043096b2c1984,2020-06-30_14h41.11.110,proactive,2020.1.2,Win32,60,5efb791ed4cb570da489e737,5efb87214baea00fc3eee071,4,,,,,,perfume,,,,,,,,,,,1,0,0,24,24,7,1,,,,,,,,,,,,,,,,,,,,,,,,,,,,,,,,,,,,,,,,,,,,,,,,,,,,,,,,,,,,,,,,,,,,,,
,,?,0.001285,0,,,,,,stimuli/images/PICTURE_469.png,ARTIST,5ecff9937fd043096b2c1984,2020-06-30_14h41.11.110,proactive,2020.1.2,Win32,60,5efb791ed4cb570da489e737,5efb87214baea00fc3eee071,4,,,,,,stool,,,,,,,,,,,1,0,0,25,25,6,1,,,,,,,,,,,,,,,,,,,,,,,,,,,,,,,,,,,,,,,,,,,,,,,,,,,,,,,,,,,,,,,,,,,,,,
,,?,0.001475,0,,,,,,stimuli/images/PICTURE_380.png,DEATH,5ecff9937fd043096b2c1984,2020-06-30_14h41.11.110,proactive,2020.1.2,Win32,60,5efb791ed4cb570da489e737,5efb87214baea00fc3eee071,4,,,,,,gorilla,,,,,,,,,,,5,0,0,26,26,49,1,,,,,,,,,,,,,,,,,,,,,,,,,,,,,,,,,,,,,,,,,,,,,,,,,,,,,,,,,,,,,,,,,,,,,,
,,?,0.001285,0,,,,,,stimuli/images/PICTURE_744.png,SAKE,5ecff9937fd043096b2c1984,2020-06-30_14h41.11.110,proactive,2020.1.2,Win32,60,5efb791ed4cb570da489e737,5efb87214baea00fc3eee071,4,,,,,,ring,,,,,,,,,,,2,0,0,27,27,17,1,,,,,,,,,,,,,,,,,,,,,,,,,,,,,,,,,,,,,,,,,,,,,,,,,,,,,,,,,,,,,,,,,,,,,,
,,?,0.00129,0,,,,,,stimuli/images/PICTURE_160.png,FEET,5ecff9937fd043096b2c1984,2020-06-30_14h41.11.110,proactive,2020.1.2,Win32,60,5efb791ed4cb570da489e737,5efb87214baea00fc3eee071,4,,,,,,wheelbarrow,,,,,,,,,,,6,0,0,28,28,58,1,,,,,,,,,,,,,,,,,,,,,,,,,,,,,,,,,,,,,,,,,,,,,,,,,,,,,,,,,,,,,,,,,,,,,,
,,WOMEN,3.55353,1,,,,,,stimuli/images/PICTURE_233.png,WOMEN,5ecff9937fd043096b2c1984,2020-06-30_14h41.11.110,proactive,2020.1.2,Win32,60,5efb791ed4cb570da489e737,5efb87214baea00fc3eee071,4,,,,,,salt,,,,,,,,,,,4,0,0,29,29,38,1,,,,,,,,,,,,,,,,,,,,,,,,,,,,,,,,,,,,,,,,,,,,,,,,,,,,,,,,,,,,,,,,,,,,,,
,,?,0.00202,0,,,,,,stimuli/images/PICTURE_203.png,ARTIST,5ecff9937fd043096b2c1984,2020-06-30_14h41.11.110,proactive,2020.1.2,Win32,60,5efb791ed4cb570da489e737,5efb87214baea00fc3eee071,4,,,,,,cap,,,,,,,,,,,3,0,0,30,30,26,1,,,,,,,,,,,,,,,,,,,,,,,,,,,,,,,,,,,,,,,,,,,,,,,,,,,,,,,,,,,,,,,,,,,,,,
,,?,0.00142,0,,,,,,stimuli/images/PICTURE_68.png,MILE,5ecff9937fd043096b2c1984,2020-06-30_14h41.11.110,proactive,2020.1.2,Win32,60,5efb791ed4cb570da489e737,5efb87214baea00fc3eee071,4,,,,,,candle,,,,,,,,,,,5,0,0,31,31,44,1,,,,,,,,,,,,,,,,,,,,,,,,,,,,,,,,,,,,,,,,,,,,,,,,,,,,,,,,,,,,,,,,,,,,,,
,,?,0.001465,0,,,,,,stimuli/images/PICTURE_151.png,GIRL,5ecff9937fd043096b2c1984,2020-06-30_14h41.11.110,proactive,2020.1.2,Win32,60,5efb791ed4cb570da489e737,5efb87214baea00fc3eee071,4,,,,,,tray,,,,,,,,,,,2,0,0,32,32,19,1,,,,,,,,,,,,,,,,,,,,,,,,,,,,,,,,,,,,,,,,,,,,,,,,,,,,,,,,,,,,,,,,,,,,,,
,,?,0.001285,0,,,,,,stimuli/images/PICTURE_85.png,THING,5ecff9937fd043096b2c1984,2020-06-30_14h41.11.110,proactive,2020.1.2,Win32,60,5efb791ed4cb570da489e737,5efb87214baea00fc3eee071,4,,,,,,diamond,,,,,,,,,,,2,0,0,33,33,15,1,,,,,,,,,,,,,,,,,,,,,,,,,,,,,,,,,,,,,,,,,,,,,,,,,,,,,,,,,,,,,,,,,,,,,,
,,?,0.001365,0,,,,,,stimuli/images/PICTURE_208.png,LOTS,5ecff9937fd043096b2c1984,2020-06-30_14h41.11.110,proactive,2020.1.2,Win32,60,5efb791ed4cb570da489e737,5efb87214baea00fc3eee071,4,,,,,,microphone,,,,,,,,,,,2,0,0,34,34,10,1,,,,,,,,,,,,,,,,,,,,,,,,,,,,,,,,,,,,,,,,,,,,,,,,,,,,,,,,,,,,,,,,,,,,,,
,,FRIEND,3.0094,1,,,,,,stimuli/images/PICTURE_311.png,FRIEND,5ecff9937fd043096b2c1984,2020-06-30_14h41.11.110,proactive,2020.1.2,Win32,60,5efb791ed4cb570da489e737,5efb87214baea00fc3eee071,4,,,,,,razor,,,,,,,,,,,4,0,0,35,35,34,1,,,,,,,,,,,,,,,,,,,,,,,,,,,,,,,,,,,,,,,,,,,,,,,,,,,,,,,,,,,,,,,,,,,,,,
,,?,0.00203,0,,,,,,stimuli/images/PICTURE_123.png,ADVICE,5ecff9937fd043096b2c1984,2020-06-30_14h41.11.110,proactive,2020.1.2,Win32,60,5efb791ed4cb570da489e737,5efb87214baea00fc3eee071,4,,,,,,dart,,,,,,,,,,,6,0,0,36,36,50,1,,,,,,,,,,,,,,,,,,,,,,,,,,,,,,,,,,,,,,,,,,,,,,,,,,,,,,,,,,,,,,,,,,,,,,
,,?,0.00189,0,,,,,,stimuli/images/PICTURE_308.png,ESTATE,5ecff9937fd043096b2c1984,2020-06-30_14h41.11.110,proactive,2020.1.2,Win32,60,5efb791ed4cb570da489e737,5efb87214baea00fc3eee071,4,,,,,,dice,,,,,,,,,,,5,0,0,37,37,46,1,,,,,,,,,,,,,,,,,,,,,,,,,,,,,,,,,,,,,,,,,,,,,,,,,,,,,,,,,,,,,,,,,,,,,,
,,?,0.001475,0,,,,,,stimuli/images/PICTURE_208.png,MONTH,5ecff9937fd043096b2c1984,2020-06-30_14h41.11.110,proactive,2020.1.2,Win32,60,5efb791ed4cb570da489e737,5efb87214baea00fc3eee071,4,,,,,,microphone,,,,,,,,,,,6,0,0,38,38,53,1,,,,,,,,,,,,,,,,,,,,,,,,,,,,,,,,,,,,,,,,,,,,,,,,,,,,,,,,,,,,,,,,,,,,,,
,,STYLE,7.78878,1,,,,,,stimuli/images/PICTURE_488.png,STYLE,5ecff9937fd043096b2c1984,2020-06-30_14h41.11.110,proactive,2020.1.2,Win32,60,5efb791ed4cb570da489e737,5efb87214baea00fc3eee071,4,,,,,,sun,,,,,,,,,,,4,0,0,39,39,33,1,,,,,,,,,,,,,,,,,,,,,,,,,,,,,,,,,,,,,,,,,,,,,,,,,,,,,,,,,,,,,,,,,,,,,,
,,?,0.00174,0,,,,,,stimuli/images/PICTURE_233.png,IDEAS,5ecff9937fd043096b2c1984,2020-06-30_14h41.11.110,proactive,2020.1.2,Win32,60,5efb791ed4cb570da489e737,5efb87214baea00fc3eee071,4,,,,,,salt,,,,,,,,,,,3,0,0,40,40,28,1,,,,,,,,,,,,,,,,,,,,,,,,,,,,,,,,,,,,,,,,,,,,,,,,,,,,,,,,,,,,,,,,,,,,,,
,,CARS,4.55709,1,,,,,,stimuli/images/PICTURE_177.png,CARS,5ecff9937fd043096b2c1984,2020-06-30_14h41.11.110,proactive,2020.1.2,Win32,60,5efb791ed4cb570da489e737,5efb87214baea00fc3eee071,4,,,,,,mushroom,,,,,,,,,,,4,0,0,41,41,35,1,,,,,,,,,,,,,,,,,,,,,,,,,,,,,,,,,,,,,,,,,,,,,,,,,,,,,,,,,,,,,,,,,,,,,,
,,?,10.00738,0,,,,,,stimuli/images/PICTURE_708.png,PENNY,5ecff9937fd043096b2c1984,2020-06-30_14h41.11.110,proactive,2020.1.2,Win32,60,5efb791ed4cb570da489e737,5efb87214baea00fc3eee071,4,,,,,,monkey,,,,,,,,,,,4,0,0,42,42,31,1,,,,,,,,,,,,,,,,,,,,,,,,,,,,,,,,,,,,,,,,,,,,,,,,,,,,,,,,,,,,,,,,,,,,,,
,,?,0.001845,0,,,,,,stimuli/images/PICTURE_32.png,JUNGLE,5ecff9937fd043096b2c1984,2020-06-30_14h41.11.110,proactive,2020.1.2,Win32,60,5efb791ed4cb570da489e737,5efb87214baea00fc3eee071,4,,,,,,crown,,,,,,,,,,,5,0,0,43,43,45,1,,,,,,,,,,,,,,,,,,,,,,,,,,,,,,,,,,,,,,,,,,,,,,,,,,,,,,,,,,,,,,,,,,,,,,
,,CASINO,5.072125,1,,,,,,stimuli/images/PICTURE_470.png,CASINO,5ecff9937fd043096b2c1984,2020-06-30_14h41.11.110,proactive,2020.1.2,Win32,60,5efb791ed4cb570da489e737,5efb87214baea00fc3eee071,4,,,,,,motorbike,,,,,,,,,,,4,0,0,44,44,36,1,,,,,,,,,,,,,,,,,,,,,,,,,,,,,,,,,,,,,,,,,,,,,,,,,,,,,,,,,,,,,,,,,,,,,,
,,?,0.00181,0,,,,,,stimuli/images/PICTURE_380.png,PHOTO,5ecff9937fd043096b2c1984,2020-06-30_14h41.11.110,proactive,2020.1.2,Win32,60,5efb791ed4cb570da489e737,5efb87214baea00fc3eee071,4,,,,,,gorilla,,,,,,,,,,,6,0,0,45,45,52,1,,,,,,,,,,,,,,,,,,,,,,,,,,,,,,,,,,,,,,,,,,,,,,,,,,,,,,,,,,,,,,,,,,,,,,
,,?,0.001495,0,,,,,,stimuli/images/PICTURE_123.png,ADVICE,5ecff9937fd043096b2c1984,2020-06-30_14h41.11.110,proactive,2020.1.2,Win32,60,5efb791ed4cb570da489e737,5efb87214baea00fc3eee071,4,,,,,,dart,,,,,,,,,,,5,0,0,46,46,40,1,,,,,,,,,,,,,,,,,,,,,,,,,,,,,,,,,,,,,,,,,,,,,,,,,,,,,,,,,,,,,,,,,,,,,,
,,?,0.00152,0,,,,,,stimuli/images/PICTURE_667.png,BATH,5ecff9937fd043096b2c1984,2020-06-30_14h41.11.110,proactive,2020.1.2,Win32,60,5efb791ed4cb570da489e737,5efb87214baea00fc3eee071,4,,,,,,daisy,,,,,,,,,,,1,0,0,47,47,4,1,,,,,,,,,,,,,,,,,,,,,,,,,,,,,,,,,,,,,,,,,,,,,,,,,,,,,,,,,,,,,,,,,,,,,,
,,?,0.001985,0,,,,,,stimuli/images/PICTURE_469.png,LETTER,5ecff9937fd043096b2c1984,2020-06-30_14h41.11.110,proactive,2020.1.2,Win32,60,5efb791ed4cb570da489e737,5efb87214baea00fc3eee071,4,,,,,,stool,,,,,,,,,,,5,0,0,48,48,42,1,,,,,,,,,,,,,,,,,,,,,,,,,,,,,,,,,,,,,,,,,,,,,,,,,,,,,,,,,,,,,,,,,,,,,,
,,?,0.001455,0,,,,,,stimuli/images/PICTURE_327.png,BEAUTY,5ecff9937fd043096b2c1984,2020-06-30_14h41.11.110,proactive,2020.1.2,Win32,60,5efb791ed4cb570da489e737,5efb87214baea00fc3eee071,4,,,,,,helmet,,,,,,,,,,,5,0,0,49,49,48,1,,,,,,,,,,,,,,,,,,,,,,,,,,,,,,,,,,,,,,,,,,,,,,,,,,,,,,,,,,,,,,,,,,,,,,
,,?,0.001505,0,,,,,,stimuli/images/PICTURE_667.png,PLENTY,5ecff9937fd043096b2c1984,2020-06-30_14h41.11.110,proactive,2020.1.2,Win32,60,5efb791ed4cb570da489e737,5efb87214baea00fc3eee071,4,,,,,,daisy,,,,,,,,,,,5,0,0,50,50,41,1,,,,,,,,,,,,,,,,,,,,,,,,,,,,,,,,,,,,,,,,,,,,,,,,,,,,,,,,,,,,,,,,,,,,,,
,,?,0.001895,0,,,,,,stimuli/images/PICTURE_339.png,PLENTY,5ecff9937fd043096b2c1984,2020-06-30_14h41.11.110,proactive,2020.1.2,Win32,60,5efb791ed4cb570da489e737,5efb87214baea00fc3eee071,4,,,,,,backpack,,,,,,,,,,,1,0,0,51,51,0,1,,,,,,,,,,,,,,,,,,,,,,,,,,,,,,,,,,,,,,,,,,,,,,,,,,,,,,,,,,,,,,,,,,,,,,
,,DOZEN,6.33137,1,,,,,,stimuli/images/PICTURE_248.png,DOZEN,5ecff9937fd043096b2c1984,2020-06-30_14h41.11.110,proactive,2020.1.2,Win32,60,5efb791ed4cb570da489e737,5efb87214baea00fc3eee071,4,,,,,,cart,,,,,,,,,,,4,0,0,52,52,39,1,,,,,,,,,,,,,,,,,,,,,,,,,,,,,,,,,,,,,,,,,,,,,,,,,,,,,,,,,,,,,,,,,,,,,,
,,?,0.001785,0,,,,,,stimuli/images/PICTURE_449.png,THING,5ecff9937fd043096b2c1984,2020-06-30_14h41.11.110,proactive,2020.1.2,Win32,60,5efb791ed4cb570da489e737,5efb87214baea00fc3eee071,4,,,,,,bench,,,,,,,,,,,6,0,0,53,53,59,1,,,,,,,,,,,,,,,,,,,,,,,,,,,,,,,,,,,,,,,,,,,,,,,,,,,,,,,,,,,,,,,,,,,,,,
,,?,0.001505,0,,,,,,stimuli/images/PICTURE_314.png,GODS,5ecff9937fd043096b2c1984,2020-06-30_14h41.11.110,proactive,2020.1.2,Win32,60,5efb791ed4cb570da489e737,5efb87214baea00fc3eee071,4,,,,,,perfume,,,,,,,,,,,2,0,0,54,54,11,1,,,,,,,,,,,,,,,,,,,,,,,,,,,,,,,,,,,,,,,,,,,,,,,,,,,,,,,,,,,,,,,,,,,,,,
,,?,0.00148,0,,,,,,stimuli/images/PICTURE_147.png,MOMENT,5ecff9937fd043096b2c1984,2020-06-30_14h41.11.110,proactive,2020.1.2,Win32,60,5efb791ed4cb570da489e737,5efb87214baea00fc3eee071,4,,,,,,hanger,,,,,,,,,,,6,0,0,55,55,51,1,,,,,,,,,,,,,,,,,,,,,,,,,,,,,,,,,,,,,,,,,,,,,,,,,,,,,,,,,,,,,,,,,,,,,,
,,?,0.00152,0,,,,,,stimuli/images/PICTURE_491.png,WRITER,5ecff9937fd043096b2c1984,2020-06-30_14h41.11.110,proactive,2020.1.2,Win32,60,5efb791ed4cb570da489e737,5efb87214baea00fc3eee071,4,,,,,,rug,,,,,,,,,,,6,0,0,56,56,57,1,,,,,,,,,,,,,,,,,,,,,,,,,,,,,,,,,,,,,,,,,,,,,,,,,,,,,,,,,,,,,,,,,,,,,,
,,?,0.001495,0,,,,,,stimuli/images/PICTURE_302.png,FAMILY,5ecff9937fd043096b2c1984,2020-06-30_14h41.11.110,proactive,2020.1.2,Win32,60,5efb791ed4cb570da489e737,5efb87214baea00fc3eee071,4,,,,,,taxi,,,,,,,,,,,2,0,0,57,57,18,1,,,,,,,,,,,,,,,,,,,,,,,,,,,,,,,,,,,,,,,,,,,,,,,,,,,,,,,,,,,,,,,,,,,,,,
,,WEAPON,4.308035,1,,,,,,stimuli/images/PICTURE_675.png,WEAPON,5ecff9937fd043096b2c1984,2020-06-30_14h41.11.110,proactive,2020.1.2,Win32,60,5efb791ed4cb570da489e737,5efb87214baea00fc3eee071,4,,,,,,windmill,,,,,,,,,,,4,0,0,58,58,32,1,,,,,,,,,,,,,,,,,,,,,,,,,,,,,,,,,,,,,,,,,,,,,,,,,,,,,,,,,,,,,,,,,,,,,,
,,?,0.00181,0,,,,,,stimuli/images/PICTURE_708.png,CLIENT,5ecff9937fd043096b2c1984,2020-06-30_14h41.11.110,proactive,2020.1.2,Win32,60,5efb791ed4cb570da489e737,5efb87214baea00fc3eee071,4,,,,,,monkey,,,,,,,,,,,1,0,0,59,59,5,1,,,,,,,,,,,,,,,,,,,,,,,,,,,,,,,,,,,,,,,,,,,,,,,,,,,,,,,,,,,,,,,,,,,,,,
,,,,,,,,,,,,5ecff9937fd043096b2c1984,2020-06-30_14h41.11.110,proactive,2020.1.2,Win32,60,5efb791ed4cb570da489e737,5efb87214baea00fc3eee071,4,,,,,,,,,,,,,,,,,,,,,,,,0,1,1,0,1,stimuli/learn-block1.csv,,,,,,,,,,,,,,,,,,,,,,,,,,,,,,,,,,,,,,,,,,,,,,,,,,,,,,,,,,,,,,,,
,,,,,,,,,,stimuli/images/PICTURE_356.png,CANDY,5ecff9937fd043096b2c1984,2020-06-30_14h41.11.110,proactive,2020.1.2,Win32,60,5efb791ed4cb570da489e737,5efb87214baea00fc3eee071,4,,,,,,pawn,,,,,,0,0,0,46,1,5,2,,,,,,,,,,,,,,,,,,,,,,,,,,,,,,,,,,,,,,,,,,,,,,,,,,,,,,,,,,,,,,,,,,,,,,,,,,,
,,,,,,,,,,stimuli/images/PICTURE_504.png,HOUSE,5ecff9937fd043096b2c1984,2020-06-30_14h41.11.110,proactive,2020.1.2,Win32,60,5efb791ed4cb570da489e737,5efb87214baea00fc3eee071,4,,,,,,wheel,,,,,,0,1,1,36,1,4,2,,,,,,,,,,,,,,,,,,,,,,,,,,,,,,,,,,,,,,,,,,,,,,,,,,,,,,,,,,,,,,,,,,,,,,,,,,,
,,,,,,,,,,stimuli/images/PICTURE_470.png,BEAUTY,5ecff9937fd043096b2c1984,2020-06-30_14h41.11.110,proactive,2020.1.2,Win32,60,5efb791ed4cb570da489e737,5efb87214baea00fc3eee071,4,,,,,,motorbike,,,,,,0,2,2,26,1,3,2,,,,,,,,,,,,,,,,,,,,,,,,,,,,,,,,,,,,,,,,,,,,,,,,,,,,,,,,,,,,,,,,,,,,,,,,,,,
,,,,,,,,,,stimuli/images/PICTURE_405.png,JUNGLE,5ecff9937fd043096b2c1984,2020-06-30_14h41.11.110,proactive,2020.1.2,Win32,60,5efb791ed4cb570da489e737,5efb87214baea00fc3eee071,4,,,,,,anchor,,,,,,0,3,3,58,1,6,2,,,,,,,,,,,,,,,,,,,,,,,,,,,,,,,,,,,,,,,,,,,,,,,,,,,,,,,,,,,,,,,,,,,,,,,,,,,
,,,,,,,,,,stimuli/images/PICTURE_453.png,FAMILY,5ecff9937fd043096b2c1984,2020-06-30_14h41.11.110,proactive,2020.1.2,Win32,60,5efb791ed4cb570da489e737,5efb87214baea00fc3eee071,4,,,,,,scissors,,,,,,0,4,4,48,1,5,2,,,,,,,,,,,,,,,,,,,,,,,,,,,,,,,,,,,,,,,,,,,,,,,,,,,,,,,,,,,,,,,,,,,,,,,,,,,
,,,,,,,,,,stimuli/images/PICTURE_57.png,NATION,5ecff9937fd043096b2c1984,2020-06-30_14h41.11.110,proactive,2020.1.2,Win32,60,5efb791ed4cb570da489e737,5efb87214baea00fc3eee071,4,,,,,,stamp,,,,,,0,5,5,21,1,3,2,,,,,,,,,,,,,,,,,,,,,,,,,,,,,,,,,,,,,,,,,,,,,,,,,,,,,,,,,,,,,,,,,,,,,,,,,,,
,,,,,,,,,,stimuli/images/PICTURE_215.png,FOOD,5ecff9937fd043096b2c1984,2020-06-30_14h41.11.110,proactive,2020.1.2,Win32,60,5efb791ed4cb570da489e737,5efb87214baea00fc3eee071,4,,,,,,boot,,,,,,0,6,6,5,1,1,2,,,,,,,,,,,,,,,,,,,,,,,,,,,,,,,,,,,,,,,,,,,,,,,,,,,,,,,,,,,,,,,,,,,,,,,,,,,
,,,,,,,,,,stimuli/images/PICTURE_491.png,SERIES,5ecff9937fd043096b2c1984,2020-06-30_14h41.11.110,proactive,2020.1.2,Win32,60,5efb791ed4cb570da489e737,5efb87214baea00fc3eee071,4,,,,,,rug,,,,,,0,7,7,39,1,4,2,,,,,,,,,,,,,,,,,,,,,,,,,,,,,,,,,,,,,,,,,,,,,,,,,,,,,,,,,,,,,,,,,,,,,,,,,,,
,,,,,,,,,,stimuli/images/PICTURE_93.png,GIRL,5ecff9937fd043096b2c1984,2020-06-30_14h41.11.110,proactive,2020.1.2,Win32,60,5efb791ed4cb570da489e737,5efb87214baea00fc3eee071,4,,,,,,skateboard,,,,,,0,8,8,31,1,4,2,,,,,,,,,,,,,,,,,,,,,,,,,,,,,,,,,,,,,,,,,,,,,,,,,,,,,,,,,,,,,,,,,,,,,,,,,,,
,,,,,,,,,,stimuli/images/PICTURE_311.png,TOILET,5ecff9937fd043096b2c1984,2020-06-30_14h41.11.110,proactive,2020.1.2,Win32,60,5efb791ed4cb570da489e737,5efb87214baea00fc3eee071,4,,,,,,razor,,,,,,0,9,9,54,1,6,2,,,,,,,,,,,,,,,,,,,,,,,,,,,,,,,,,,,,,,,,,,,,,,,,,,,,,,,,,,,,,,,,,,,,,,,,,,,
,,,,,,,,,,stimuli/images/PICTURE_147.png,LEADER,5ecff9937fd043096b2c1984,2020-06-30_14h41.11.110,proactive,2020.1.2,Win32,60,5efb791ed4cb570da489e737,5efb87214baea00fc3eee071,4,,,,,,hanger,,,,,,0,10,10,33,1,4,2,,,,,,,,,,,,,,,,,,,,,,,,,,,,,,,,,,,,,,,,,,,,,,,,,,,,,,,,,,,,,,,,,,,,,,,,,,,
,,,,,,,,,,stimuli/images/PICTURE_405.png,JUNGLE,5ecff9937fd043096b2c1984,2020-06-30_14h41.11.110,proactive,2020.1.2,Win32,60,5efb791ed4cb570da489e737,5efb87214baea00fc3eee071,4,,,,,,anchor,,,,,,0,11,11,13,1,2,2,,,,,,,,,,,,,,,,,,,,,,,,,,,,,,,,,,,,,,,,,,,,,,,,,,,,,,,,,,,,,,,,,,,,,,,,,,,
,,,,,,,,,,stimuli/images/PICTURE_470.png,MOMENT,5ecff9937fd043096b2c1984,2020-06-30_14h41.11.110,proactive,2020.1.2,Win32,60,5efb791ed4cb570da489e737,5efb87214baea00fc3eee071,4,,,,,,motorbike,,,,,,0,12,12,40,1,5,2,,,,,,,,,,,,,,,,,,,,,,,,,,,,,,,,,,,,,,,,,,,,,,,,,,,,,,,,,,,,,,,,,,,,,,,,,,,
,,,,,,,,,,stimuli/images/PICTURE_677.png,FAMILY,5ecff9937fd043096b2c1984,2020-06-30_14h41.11.110,proactive,2020.1.2,Win32,60,5efb791ed4cb570da489e737,5efb87214baea00fc3eee071,4,,,,,,map,,,,,,0,13,13,53,1,6,2,,,,,,,,,,,,,,,,,,,,,,,,,,,,,,,,,,,,,,,,,,,,,,,,,,,,,,,,,,,,,,,,,,,,,,,,,,,
,,,,,,,,,,stimuli/images/PICTURE_285.png,PRINCE,5ecff9937fd043096b2c1984,2020-06-30_14h41.11.110,proactive,2020.1.2,Win32,60,5efb791ed4cb570da489e737,5efb87214baea00fc3eee071,4,,,,,,carrot,,,,,,0,14,14,20,1,3,2,,,,,,,,,,,,,,,,,,,,,,,,,,,,,,,,,,,,,,,,,,,,,,,,,,,,,,,,,,,,,,,,,,,,,,,,,,,
,,,,,,,,,,stimuli/images/PICTURE_654.png,COPS,5ecff9937fd043096b2c1984,2020-06-30_14h41.11.110,proactive,2020.1.2,Win32,60,5efb791ed4cb570da489e737,5efb87214baea00fc3eee071,4,,,,,,pencil,,,,,,0,15,15,10,1,2,2,,,,,,,,,,,,,,,,,,,,,,,,,,,,,,,,,,,,,,,,,,,,,,,,,,,,,,,,,,,,,,,,,,,,,,,,,,,
,,,,,,,,,,stimuli/images/PICTURE_452.png,COPS,5ecff9937fd043096b2c1984,2020-06-30_14h41.11.110,proactive,2020.1.2,Win32,60,5efb791ed4cb570da489e737,5efb87214baea00fc3eee071,4,,,,,,watch,,,,,,0,16,16,0,1,1,2,,,,,,,,,,,,,,,,,,,,,,,,,,,,,,,,,,,,,,,,,,,,,,,,,,,,,,,,,,,,,,,,,,,,,,,,,,,
,,,,,,,,,,stimuli/images/PICTURE_487.png,ROOF,5ecff9937fd043096b2c1984,2020-06-30_14h41.11.110,proactive,2020.1.2,Win32,60,5efb791ed4cb570da489e737,5efb87214baea00fc3eee071,4,,,,,,basket,,,,,,0,17,17,50,1,6,2,,,,,,,,,,,,,,,,,,,,,,,,,,,,,,,,,,,,,,,,,,,,,,,,,,,,,,,,,,,,,,,,,,,,,,,,,,,
,,,,,,,,,,stimuli/images/PICTURE_95.png,NIGHT,5ecff9937fd043096b2c1984,2020-06-30_14h41.11.110,proactive,2020.1.2,Win32,60,5efb791ed4cb570da489e737,5efb87214baea00fc3eee071,4,,,,,,suitcase,,,,,,0,18,18,37,1,4,2,,,,,,,,,,,,,,,,,,,,,,,,,,,,,,,,,,,,,,,,,,,,,,,,,,,,,,,,,,,,,,,,,,,,,,,,,,,
,,,,,,,,,,stimuli/images/PICTURE_215.png,BOYS,5ecff9937fd043096b2c1984,2020-06-30_14h41.11.110,proactive,2020.1.2,Win32,60,5efb791ed4cb570da489e737,5efb87214baea00fc3eee071,4,,,,,,boot,,,,,,0,19,19,24,1,3,2,,,,,,,,,,,,,,,,,,,,,,,,,,,,,,,,,,,,,,,,,,,,,,,,,,,,,,,,,,,,,,,,,,,,,,,,,,,
,,,,,,,,,,stimuli/images/PICTURE_509.png,APPLE,5ecff9937fd043096b2c1984,2020-06-30_14h41.11.110,proactive,2020.1.2,Win32,60,5efb791ed4cb570da489e737,5efb87214baea00fc3eee071,4,,,,,,telephone,,,,,,0,20,20,38,1,4,2,,,,,,,,,,,,,,,,,,,,,,,,,,,,,,,,,,,,,,,,,,,,,,,,,,,,,,,,,,,,,,,,,,,,,,,,,,,
,,,,,,,,,,stimuli/images/PICTURE_509.png,SHOTS,5ecff9937fd043096b2c1984,2020-06-30_14h41.11.110,proactive,2020.1.2,Win32,60,5efb791ed4cb570da489e737,5efb87214baea00fc3eee071,4,,,,,,telephone,,,,,,0,21,21,7,1,1,2,,,,,,,,,,,,,,,,,,,,,,,,,,,,,,,,,,,,,,,,,,,,,,,,,,,,,,,,,,,,,,,,,,,,,,,,,,,
,,,,,,,,,,stimuli/images/PICTURE_487.png,POLICY,5ecff9937fd043096b2c1984,2020-06-30_14h41.11.110,proactive,2020.1.2,Win32,60,5efb791ed4cb570da489e737,5efb87214baea00fc3eee071,4,,,,,,basket,,,,,,0,22,22,34,1,4,2,,,,,,,,,,,,,,,,,,,,,,,,,,,,,,,,,,,,,,,,,,,,,,,,,,,,,,,,,,,,,,,,,,,,,,,,,,,
,,,,,,,,,,stimuli/images/PICTURE_655.png,SALE,5ecff9937fd043096b2c1984,2020-06-30_14h41.11.110,proactive,2020.1.2,Win32,60,5efb791ed4cb570da489e737,5efb87214baea00fc3eee071,4,,,,,,megaphone,,,,,,0,23,23,57,1,6,2,,,,,,,,,,,,,,,,,,,,,,,,,,,,,,,,,,,,,,,,,,,,,,,,,,,,,,,,,,,,,,,,,,,,,,,,,,,
,,,,,,,,,,stimuli/images/PICTURE_405.png,HOUSE,5ecff9937fd043096b2c1984,2020-06-30_14h41.11.110,proactive,2020.1.2,Win32,60,5efb791ed4cb570da489e737,5efb87214baea00fc3eee071,4,,,,,,anchor,,,,,,0,24,24,2,1,1,2,,,,,,,,,,,,,,,,,,,,,,,,,,,,,,,,,,,,,,,,,,,,,,,,,,,,,,,,,,,,,,,,,,,,,,,,,,,
,,,,,,,,,,stimuli/images/PICTURE_160.png,HOTEL,5ecff9937fd043096b2c1984,2020-06-30_14h41.11.110,proactive,2020.1.2,Win32,60,5efb791ed4cb570da489e737,5efb87214baea00fc3eee071,4,,,,,,wheelbarrow,,,,,,0,25,25,16,1,2,2,,,,,,,,,,,,,,,,,,,,,,,,,,,,,,,,,,,,,,,,,,,,,,,,,,,,,,,,,,,,,,,,,,,,,,,,,,,
,,,,,,,,,,stimuli/images/PICTURE_285.png,WRITER,5ecff9937fd043096b2c1984,2020-06-30_14h41.11.110,proactive,2020.1.2,Win32,60,5efb791ed4cb570da489e737,5efb87214baea00fc3eee071,4,,,,,,carrot,,,,,,0,26,26,6,1,1,2,,,,,,,,,,,,,,,,,,,,,,,,,,,,,,,,,,,,,,,,,,,,,,,,,,,,,,,,,,,,,,,,,,,,,,,,,,,
,,,,,,,,,,stimuli/images/PICTURE_314.png,SPEECH,5ecff9937fd043096b2c1984,2020-06-30_14h41.11.110,proactive,2020.1.2,Win32,60,5efb791ed4cb570da489e737,5efb87214baea00fc3eee071,4,,,,,,perfume,,,,,,0,27,27,35,1,4,2,,,,,,,,,,,,,,,,,,,,,,,,,,,,,,,,,,,,,,,,,,,,,,,,,,,,,,,,,,,,,,,,,,,,,,,,,,,
,,,,,,,,,,stimuli/images/PICTURE_141.png,CLIENT,5ecff9937fd043096b2c1984,2020-06-30_14h41.11.110,proactive,2020.1.2,Win32,60,5efb791ed4cb570da489e737,5efb87214baea00fc3eee071,4,,,,,,sunflower,,,,,,0,28,28,30,1,4,2,,,,,,,,,,,,,,,,,,,,,,,,,,,,,,,,,,,,,,,,,,,,,,,,,,,,,,,,,,,,,,,,,,,,,,,,,,,
,,,,,,,,,,stimuli/images/PICTURE_677.png,PHOTO,5ecff9937fd043096b2c1984,2020-06-30_14h41.11.110,proactive,2020.1.2,Win32,60,5efb791ed4cb570da489e737,5efb87214baea00fc3eee071,4,,,,,,map,,,,,,0,29,29,14,1,2,2,,,,,,,,,,,,,,,,,,,,,,,,,,,,,,,,,,,,,,,,,,,,,,,,,,,,,,,,,,,,,,,,,,,,,,,,,,,
,,,,,,,,,,stimuli/images/PICTURE_311.png,FLESH,5ecff9937fd043096b2c1984,2020-06-30_14h41.11.110,proactive,2020.1.2,Win32,60,5efb791ed4cb570da489e737,5efb87214baea00fc3eee071,4,,,,,,razor,,,,,,0,30,30,3,1,1,2,,,,,,,,,,,,,,,,,,,,,,,,,,,,,,,,,,,,,,,,,,,,,,,,,,,,,,,,,,,,,,,,,,,,,,,,,,,
,,,,,,,,,,stimuli/images/PICTURE_177.png,HOUSE,5ecff9937fd043096b2c1984,2020-06-30_14h41.11.110,proactive,2020.1.2,Win32,60,5efb791ed4cb570da489e737,5efb87214baea00fc3eee071,4,,,,,,mushroom,,,,,,0,31,31,25,1,3,2,,,,,,,,,,,,,,,,,,,,,,,,,,,,,,,,,,,,,,,,,,,,,,,,,,,,,,,,,,,,,,,,,,,,,,,,,,,
,,,,,,,,,,stimuli/images/PICTURE_667.png,GLASS,5ecff9937fd043096b2c1984,2020-06-30_14h41.11.110,proactive,2020.1.2,Win32,60,5efb791ed4cb570da489e737,5efb87214baea00fc3eee071,4,,,,,,daisy,,,,,,0,32,32,27,1,3,2,,,,,,,,,,,,,,,,,,,,,,,,,,,,,,,,,,,,,,,,,,,,,,,,,,,,,,,,,,,,,,,,,,,,,,,,,,,
,,,,,,,,,,stimuli/images/PICTURE_2.png,AREA,5ecff9937fd043096b2c1984,2020-06-30_14h41.11.110,proactive,2020.1.2,Win32,60,5efb791ed4cb570da489e737,5efb87214baea00fc3eee071,4,,,,,,tyre,,,,,,0,33,33,32,1,4,2,,,,,,,,,,,,,,,,,,,,,,,,,,,,,,,,,,,,,,,,,,,,,,,,,,,,,,,,,,,,,,,,,,,,,,,,,,,
,,,,,,,,,,stimuli/images/PICTURE_688.png,CLOCK,5ecff9937fd043096b2c1984,2020-06-30_14h41.11.110,proactive,2020.1.2,Win32,60,5efb791ed4cb570da489e737,5efb87214baea00fc3eee071,4,,,,,,runner,,,,,,0,34,34,42,1,5,2,,,,,,,,,,,,,,,,,,,,,,,,,,,,,,,,,,,,,,,,,,,,,,,,,,,,,,,,,,,,,,,,,,,,,,,,,,,
,,,,,,,,,,stimuli/images/PICTURE_348.png,TOILET,5ecff9937fd043096b2c1984,2020-06-30_14h41.11.110,proactive,2020.1.2,Win32,60,5efb791ed4cb570da489e737,5efb87214baea00fc3eee071,4,,,,,,pepper,,,,,,0,35,35,4,1,1,2,,,,,,,,,,,,,,,,,,,,,,,,,,,,,,,,,,,,,,,,,,,,,,,,,,,,,,,,,,,,,,,,,,,,,,,,,,,
,,,,,,,,,,stimuli/images/PICTURE_348.png,DUDE,5ecff9937fd043096b2c1984,2020-06-30_14h41.11.110,proactive,2020.1.2,Win32,60,5efb791ed4cb570da489e737,5efb87214baea00fc3eee071,4,,,,,,pepper,,,,,,0,36,36,59,1,6,2,,,,,,,,,,,,,,,,,,,,,,,,,,,,,,,,,,,,,,,,,,,,,,,,,,,,,,,,,,,,,,,,,,,,,,,,,,,
,,,,,,,,,,stimuli/images/PICTURE_2.png,JUNGLE,5ecff9937fd043096b2c1984,2020-06-30_14h41.11.110,proactive,2020.1.2,Win32,60,5efb791ed4cb570da489e737,5efb87214baea00fc3eee071,4,,,,,,tyre,,,,,,0,37,37,1,1,1,2,,,,,,,,,,,,,,,,,,,,,,,,,,,,,,,,,,,,,,,,,,,,,,,,,,,,,,,,,,,,,,,,,,,,,,,,,,,
,,,,,,,,,,stimuli/images/PICTURE_297.png,BODY,5ecff9937fd043096b2c1984,2020-06-30_14h41.11.110,proactive,2020.1.2,Win32,60,5efb791ed4cb570da489e737,5efb87214baea00fc3eee071,4,,,,,,aeroplane,,,,,,0,38,38,51,1,6,2,,,,,,,,,,,,,,,,,,,,,,,,,,,,,,,,,,,,,,,,,,,,,,,,,,,,,,,,,,,,,,,,,,,,,,,,,,,
,,,,,,,,,,stimuli/images/PICTURE_509.png,BATH,5ecff9937fd043096b2c1984,2020-06-30_14h41.11.110,proactive,2020.1.2,Win32,60,5efb791ed4cb570da489e737,5efb87214baea00fc3eee071,4,,,,,,telephone,,,,,,0,39,39,15,1,2,2,,,,,,,,,,,,,,,,,,,,,,,,,,,,,,,,,,,,,,,,,,,,,,,,,,,,,,,,,,,,,,,,,,,,,,,,,,,
,,,,,,,,,,stimuli/images/PICTURE_32.png,LETTER,5ecff9937fd043096b2c1984,2020-06-30_14h41.11.110,proactive,2020.1.2,Win32,60,5efb791ed4cb570da489e737,5efb87214baea00fc3eee071,4,,,,,,crown,,,,,,0,40,40,56,1,6,2,,,,,,,,,,,,,,,,,,,,,,,,,,,,,,,,,,,,,,,,,,,,,,,,,,,,,,,,,,,,,,,,,,,,,,,,,,,
,,,,,,,,,,stimuli/images/PICTURE_18.png,RIVER,5ecff9937fd043096b2c1984,2020-06-30_14h41.11.110,proactive,2020.1.2,Win32,60,5efb791ed4cb570da489e737,5efb87214baea00fc3eee071,4,,,,,,planet,,,,,,0,41,41,22,1,3,2,,,,,,,,,,,,,,,,,,,,,,,,,,,,,,,,,,,,,,,,,,,,,,,,,,,,,,,,,,,,,,,,,,,,,,,,,,,
,,,,,,,,,,stimuli/images/PICTURE_750.png,POLICY,5ecff9937fd043096b2c1984,2020-06-30_14h41.11.110,proactive,2020.1.2,Win32,60,5efb791ed4cb570da489e737,5efb87214baea00fc3eee071,4,,,,,,kettle,,,,,,0,42,42,44,1,5,2,,,,,,,,,,,,,,,,,,,,,,,,,,,,,,,,,,,,,,,,,,,,,,,,,,,,,,,,,,,,,,,,,,,,,,,,,,,
,,,,,,,,,,stimuli/images/PICTURE_208.png,SPIRIT,5ecff9937fd043096b2c1984,2020-06-30_14h41.11.110,proactive,2020.1.2,Win32,60,5efb791ed4cb570da489e737,5efb87214baea00fc3eee071,4,,,,,,microphone,,,,,,0,43,43,28,1,3,2,,,,,,,,,,,,,,,,,,,,,,,,,,,,,,,,,,,,,,,,,,,,,,,,,,,,,,,,,,,,,,,,,,,,,,,,,,,
,,,,,,,,,,stimuli/images/PICTURE_403.png,FAMILY,5ecff9937fd043096b2c1984,2020-06-30_14h41.11.110,proactive,2020.1.2,Win32,60,5efb791ed4cb570da489e737,5efb87214baea00fc3eee071,4,,,,,,cathedral,,,,,,0,44,44,9,1,1,2,,,,,,,,,,,,,,,,,,,,,,,,,,,,,,,,,,,,,,,,,,,,,,,,,,,,,,,,,,,,,,,,,,,,,,,,,,,
,,,,,,,,,,stimuli/images/PICTURE_215.png,LEADER,5ecff9937fd043096b2c1984,2020-06-30_14h41.11.110,proactive,2020.1.2,Win32,60,5efb791ed4cb570da489e737,5efb87214baea00fc3eee071,4,,,,,,boot,,,,,,0,45,45,43,1,5,2,,,,,,,,,,,,,,,,,,,,,,,,,,,,,,,,,,,,,,,,,,,,,,,,,,,,,,,,,,,,,,,,,,,,,,,,,,,
,,,,,,,,,,stimuli/images/PICTURE_57.png,CASINO,5ecff9937fd043096b2c1984,2020-06-30_14h41.11.110,proactive,2020.1.2,Win32,60,5efb791ed4cb570da489e737,5efb87214baea00fc3eee071,4,,,,,,stamp,,,,,,0,46,46,12,1,2,2,,,,,,,,,,,,,,,,,,,,,,,,,,,,,,,,,,,,,,,,,,,,,,,,,,,,,,,,,,,,,,,,,,,,,,,,,,,
,,,,,,,,,,stimuli/images/PICTURE_708.png,VALLEY,5ecff9937fd043096b2c1984,2020-06-30_14h41.11.110,proactive,2020.1.2,Win32,60,5efb791ed4cb570da489e737,5efb87214baea00fc3eee071,4,,,,,,monkey,,,,,,0,47,47,45,1,5,2,,,,,,,,,,,,,,,,,,,,,,,,,,,,,,,,,,,,,,,,,,,,,,,,,,,,,,,,,,,,,,,,,,,,,,,,,,,
,,,,,,,,,,stimuli/images/PICTURE_509.png,MILLER,5ecff9937fd043096b2c1984,2020-06-30_14h41.11.110,proactive,2020.1.2,Win32,60,5efb791ed4cb570da489e737,5efb87214baea00fc3eee071,4,,,,,,telephone,,,,,,0,48,48,49,1,5,2,,,,,,,,,,,,,,,,,,,,,,,,,,,,,,,,,,,,,,,,,,,,,,,,,,,,,,,,,,,,,,,,,,,,,,,,,,,
,,,,,,,,,,stimuli/images/PICTURE_2.png,YARD,5ecff9937fd043096b2c1984,2020-06-30_14h41.11.110,proactive,2020.1.2,Win32,60,5efb791ed4cb570da489e737,5efb87214baea00fc3eee071,4,,,,,,tyre,,,,,,0,49,49,55,1,6,2,,,,,,,,,,,,,,,,,,,,,,,,,,,,,,,,,,,,,,,,,,,,,,,,,,,,,,,,,,,,,,,,,,,,,,,,,,,
,,,,,,,,,,stimuli/images/PICTURE_255.png,PENNY,5ecff9937fd043096b2c1984,2020-06-30_14h41.11.110,proactive,2020.1.2,Win32,60,5efb791ed4cb570da489e737,5efb87214baea00fc3eee071,4,,,,,,shovel,,,,,,0,50,50,19,1,2,2,,,,,,,,,,,,,,,,,,,,,,,,,,,,,,,,,,,,,,,,,,,,,,,,,,,,,,,,,,,,,,,,,,,,,,,,,,,
,,,,,,,,,,stimuli/images/PICTURE_327.png,LEADER,5ecff9937fd043096b2c1984,2020-06-30_14h41.11.110,proactive,2020.1.2,Win32,60,5efb791ed4cb570da489e737,5efb87214baea00fc3eee071,4,,,,,,helmet,,,,,,0,51,51,17,1,2,2,,,,,,,,,,,,,,,,,,,,,,,,,,,,,,,,,,,,,,,,,,,,,,,,,,,,,,,,,,,,,,,,,,,,,,,,,,,
,,,,,,,,,,stimuli/images/PICTURE_654.png,YEAR,5ecff9937fd043096b2c1984,2020-06-30_14h41.11.110,proactive,2020.1.2,Win32,60,5efb791ed4cb570da489e737,5efb87214baea00fc3eee071,4,,,,,,pencil,,,,,,0,52,52,41,1,5,2,,,,,,,,,,,,,,,,,,,,,,,,,,,,,,,,,,,,,,,,,,,,,,,,,,,,,,,,,,,,,,,,,,,,,,,,,,,
,,,,,,,,,,stimuli/images/PICTURE_692.png,DUDE,5ecff9937fd043096b2c1984,2020-06-30_14h41.11.110,proactive,2020.1.2,Win32,60,5efb791ed4cb570da489e737,5efb87214baea00fc3eee071,4,,,,,,cherry,,,,,,0,53,53,47,1,5,2,,,,,,,,,,,,,,,,,,,,,,,,,,,,,,,,,,,,,,,,,,,,,,,,,,,,,,,,,,,,,,,,,,,,,,,,,,,
,,,,,,,,,,stimuli/images/PICTURE_33.png,COPS,5ecff9937fd043096b2c1984,2020-06-30_14h41.11.110,proactive,2020.1.2,Win32,60,5efb791ed4cb570da489e737,5efb87214baea00fc3eee071,4,,,,,,frame,,,,,,0,54,54,29,1,3,2,,,,,,,,,,,,,,,,,,,,,,,,,,,,,,,,,,,,,,,,,,,,,,,,,,,,,,,,,,,,,,,,,,,,,,,,,,,
,,,,,,,,,,stimuli/images/PICTURE_123.png,SALE,5ecff9937fd043096b2c1984,2020-06-30_14h41.11.110,proactive,2020.1.2,Win32,60,5efb791ed4cb570da489e737,5efb87214baea00fc3eee071,4,,,,,,dart,,,,,,0,55,55,8,1,1,2,,,,,,,,,,,,,,,,,,,,,,,,,,,,,,,,,,,,,,,,,,,,,,,,,,,,,,,,,,,,,,,,,,,,,,,,,,,
,,,,,,,,,,stimuli/images/PICTURE_68.png,KIND,5ecff9937fd043096b2c1984,2020-06-30_14h41.11.110,proactive,2020.1.2,Win32,60,5efb791ed4cb570da489e737,5efb87214baea00fc3eee071,4,,,,,,candle,,,,,,0,56,56,23,1,3,2,,,,,,,,,,,,,,,,,,,,,,,,,,,,,,,,,,,,,,,,,,,,,,,,,,,,,,,,,,,,,,,,,,,,,,,,,,,
,,,,,,,,,,stimuli/images/PICTURE_296.png,CLOCK,5ecff9937fd043096b2c1984,2020-06-30_14h41.11.110,proactive,2020.1.2,Win32,60,5efb791ed4cb570da489e737,5efb87214baea00fc3eee071,4,,,,,,bolt,,,,,,0,57,57,18,1,2,2,,,,,,,,,,,,,,,,,,,,,,,,,,,,,,,,,,,,,,,,,,,,,,,,,,,,,,,,,,,,,,,,,,,,,,,,,,,
,,,,,,,,,,stimuli/images/PICTURE_57.png,CANDY,5ecff9937fd043096b2c1984,2020-06-30_14h41.11.110,proactive,2020.1.2,Win32,60,5efb791ed4cb570da489e737,5efb87214baea00fc3eee071,4,,,,,,stamp,,,,,,0,58,58,52,1,6,2,,,,,,,,,,,,,,,,,,,,,,,,,,,,,,,,,,,,,,,,,,,,,,,,,,,,,,,,,,,,,,,,,,,,,,,,,,,
,,?,0.00327,0,,,,,,stimuli/images/PICTURE_311.png,TOILET,5ecff9937fd043096b2c1984,2020-06-30_14h41.11.110,proactive,2020.1.2,Win32,60,5efb791ed4cb570da489e737,5efb87214baea00fc3eee071,4,,,,,,razor,,,,,,,,,,,6,2,0,0,0,54,1,,,,,,,,,,,,,,,,,,,,,,,,,,,,,,,,,,,,,,,,,,,,,,,,,,,,,,,,,,,,,,,,,,,,,,
,,?,0.001565,0,,,,,,stimuli/images/PICTURE_470.png,BEAUTY,5ecff9937fd043096b2c1984,2020-06-30_14h41.11.110,proactive,2020.1.2,Win32,60,5efb791ed4cb570da489e737,5efb87214baea00fc3eee071,4,,,,,,motorbike,,,,,,,,,,,3,2,0,1,1,26,1,,,,,,,,,,,,,,,,,,,,,,,,,,,,,,,,,,,,,,,,,,,,,,,,,,,,,,,,,,,,,,,,,,,,,,
,,?,0.00173,0,,,,,,stimuli/images/PICTURE_750.png,POLICY,5ecff9937fd043096b2c1984,2020-06-30_14h41.11.110,proactive,2020.1.2,Win32,60,5efb791ed4cb570da489e737,5efb87214baea00fc3eee071,4,,,,,,kettle,,,,,,,,,,,5,2,0,2,2,44,1,,,,,,,,,,,,,,,,,,,,,,,,,,,,,,,,,,,,,,,,,,,,,,,,,,,,,,,,,,,,,,,,,,,,,,
,,?,0.00153,0,,,,,,stimuli/images/PICTURE_160.png,HOTEL,5ecff9937fd043096b2c1984,2020-06-30_14h41.11.110,proactive,2020.1.2,Win32,60,5efb791ed4cb570da489e737,5efb87214baea00fc3eee071,4,,,,,,wheelbarrow,,,,,,,,,,,2,2,0,3,3,16,1,,,,,,,,,,,,,,,,,,,,,,,,,,,,,,,,,,,,,,,,,,,,,,,,,,,,,,,,,,,,,,,,,,,,,,
,,POLICY,6.34041,1,,,,,,stimuli/images/PICTURE_487.png,POLICY,5ecff9937fd043096b2c1984,2020-06-30_14h41.11.110,proactive,2020.1.2,Win32,60,5efb791ed4cb570da489e737,5efb87214baea00fc3eee071,4,,,,,,basket,,,,,,,,,,,4,2,0,4,4,34,1,,,,,,,,,,,,,,,,,,,,,,,,,,,,,,,,,,,,,,,,,,,,,,,,,,,,,,,,,,,,,,,,,,,,,,
,,?,0.0018,0,,,,,,stimuli/images/PICTURE_32.png,LETTER,5ecff9937fd043096b2c1984,2020-06-30_14h41.11.110,proactive,2020.1.2,Win32,60,5efb791ed4cb570da489e737,5efb87214baea00fc3eee071,4,,,,,,crown,,,,,,,,,,,6,2,0,5,5,56,1,,,,,,,,,,,,,,,,,,,,,,,,,,,,,,,,,,,,,,,,,,,,,,,,,,,,,,,,,,,,,,,,,,,,,,
,,?,0.00151,0,,,,,,stimuli/images/PICTURE_677.png,FAMILY,5ecff9937fd043096b2c1984,2020-06-30_14h41.11.110,proactive,2020.1.2,Win32,60,5efb791ed4cb570da489e737,5efb87214baea00fc3eee071,4,,,,,,map,,,,,,,,,,,6,2,0,6,6,53,1,,,,,,,,,,,,,,,,,,,,,,,,,,,,,,,,,,,,,,,,,,,,,,,,,,,,,,,,,,,,,,,,,,,,,,
,,SERIES,6.568265,1,,,,,,stimuli/images/PICTURE_491.png,SERIES,5ecff9937fd043096b2c1984,2020-06-30_14h41.11.110,proactive,2020.1.2,Win32,60,5efb791ed4cb570da489e737,5efb87214baea00fc3eee071,4,,,,,,rug,,,,,,,,,,,4,2,0,7,7,39,1,,,,,,,,,,,,,,,,,,,,,,,,,,,,,,,,,,,,,,,,,,,,,,,,,,,,,,,,,,,,,,,,,,,,,,
,,?,0.00179,0,,,,,,stimuli/images/PICTURE_57.png,NATION,5ecff9937fd043096b2c1984,2020-06-30_14h41.11.110,proactive,2020.1.2,Win32,60,5efb791ed4cb570da489e737,5efb87214baea00fc3eee071,4,,,,,,stamp,,,,,,,,,,,3,2,0,8,8,21,1,,,,,,,,,,,,,,,,,,,,,,,,,,,,,,,,,,,,,,,,,,,,,,,,,,,,,,,,,,,,,,,,,,,,,,
,,?,0.001515,0,,,,,,stimuli/images/PICTURE_215.png,FOOD,5ecff9937fd043096b2c1984,2020-06-30_14h41.11.110,proactive,2020.1.2,Win32,60,5efb791ed4cb570da489e737,5efb87214baea00fc3eee071,4,,,,,,boot,,,,,,,,,,,1,2,0,9,9,5,1,,,,,,,,,,,,,,,,,,,,,,,,,,,,,,,,,,,,,,,,,,,,,,,,,,,,,,,,,,,,,,,,,,,,,,
,,?,0.001655,0,,,,,,stimuli/images/PICTURE_509.png,BATH,5ecff9937fd043096b2c1984,2020-06-30_14h41.11.110,proactive,2020.1.2,Win32,60,5efb791ed4cb570da489e737,5efb87214baea00fc3eee071,4,,,,,,telephone,,,,,,,,,,,2,2,0,10,10,15,1,,,,,,,,,,,,,,,,,,,,,,,,,,,,,,,,,,,,,,,,,,,,,,,,,,,,,,,,,,,,,,,,,,,,,,
,,?,0.00162,0,,,,,,stimuli/images/PICTURE_296.png,CLOCK,5ecff9937fd043096b2c1984,2020-06-30_14h41.11.110,proactive,2020.1.2,Win32,60,5efb791ed4cb570da489e737,5efb87214baea00fc3eee071,4,,,,,,bolt,,,,,,,,,,,2,2,0,11,11,18,1,,,,,,,,,,,,,,,,,,,,,,,,,,,,,,,,,,,,,,,,,,,,,,,,,,,,,,,,,,,,,,,,,,,,,,
,,?,0.001715,0,,,,,,stimuli/images/PICTURE_285.png,WRITER,5ecff9937fd043096b2c1984,2020-06-30_14h41.11.110,proactive,2020.1.2,Win32,60,5efb791ed4cb570da489e737,5efb87214baea00fc3eee071,4,,,,,,carrot,,,,,,,,,,,1,2,0,12,12,6,1,,,,,,,,,,,,,,,,,,,,,,,,,,,,,,,,,,,,,,,,,,,,,,,,,,,,,,,,,,,,,,,,,,,,,,
,,?,0.0014,0,,,,,,stimuli/images/PICTURE_487.png,ROOF,5ecff9937fd043096b2c1984,2020-06-30_14h41.11.110,proactive,2020.1.2,Win32,60,5efb791ed4cb570da489e737,5efb87214baea00fc3eee071,4,,,,,,basket,,,,,,,,,,,6,2,0,13,13,50,1,,,,,,,,,,,,,,,,,,,,,,,,,,,,,,,,,,,,,,,,,,,,,,,,,,,,,,,,,,,,,,,,,,,,,,
,,?,0.00756,0,,,,,,stimuli/images/PICTURE_255.png,PENNY,5ecff9937fd043096b2c1984,2020-06-30_14h41.11.110,proactive,2020.1.2,Win32,60,5efb791ed4cb570da489e737,5efb87214baea00fc3eee071,4,,,,,,shovel,,,,,,,,,,,2,2,0,14,14,19,1,,,,,,,,,,,,,,,,,,,,,,,,,,,,,,,,,,,,,,,,,,,,,,,,,,,,,,,,,,,,,,,,,,,,,,
,,SPEECH,4.277185,1,,,,,,stimuli/images/PICTURE_314.png,SPEECH,5ecff9937fd043096b2c1984,2020-06-30_14h41.11.110,proactive,2020.1.2,Win32,60,5efb791ed4cb570da489e737,5efb87214baea00fc3eee071,4,,,,,,perfume,,,,,,,,,,,4,2,0,15,15,35,1,,,,,,,,,,,,,,,,,,,,,,,,,,,,,,,,,,,,,,,,,,,,,,,,,,,,,,,,,,,,,,,,,,,,,,
,,?,0.00179,0,,,,,,stimuli/images/PICTURE_297.png,BODY,5ecff9937fd043096b2c1984,2020-06-30_14h41.11.110,proactive,2020.1.2,Win32,60,5efb791ed4cb570da489e737,5efb87214baea00fc3eee071,4,,,,,,aeroplane,,,,,,,,,,,6,2,0,16,16,51,1,,,,,,,,,,,,,,,,,,,,,,,,,,,,,,,,,,,,,,,,,,,,,,,,,,,,,,,,,,,,,,,,,,,,,,
,,?,0.00146,0,,,,,,stimuli/images/PICTURE_177.png,HOUSE,5ecff9937fd043096b2c1984,2020-06-30_14h41.11.110,proactive,2020.1.2,Win32,60,5efb791ed4cb570da489e737,5efb87214baea00fc3eee071,4,,,,,,mushroom,,,,,,,,,,,3,2,0,17,17,25,1,,,,,,,,,,,,,,,,,,,,,,,,,,,,,,,,,,,,,,,,,,,,,,,,,,,,,,,,,,,,,,,,,,,,,,
,,?,0.002185,0,,,,,,stimuli/images/PICTURE_452.png,COPS,5ecff9937fd043096b2c1984,2020-06-30_14h41.11.110,proactive,2020.1.2,Win32,60,5efb791ed4cb570da489e737,5efb87214baea00fc3eee071,4,,,,,,watch,,,,,,,,,,,1,2,0,18,18,0,1,,,,,,,,,,,,,,,,,,,,,,,,,,,,,,,,,,,,,,,,,,,,,,,,,,,,,,,,,,,,,,,,,,,,,,
,,?,0.0014,0,,,,,,stimuli/images/PICTURE_57.png,CASINO,5ecff9937fd043096b2c1984,2020-06-30_14h41.11.110,proactive,2020.1.2,Win32,60,5efb791ed4cb570da489e737,5efb87214baea00fc3eee071,4,,,,,,stamp,,,,,,,,,,,2,2,0,19,19,12,1,,,,,,,,,,,,,,,,,,,,,,,,,,,,,,,,,,,,,,,,,,,,,,,,,,,,,,,,,,,,,,,,,,,,,,
,,?,0.001435,0,,,,,,stimuli/images/PICTURE_655.png,SALE,5ecff9937fd043096b2c1984,2020-06-30_14h41.11.110,proactive,2020.1.2,Win32,60,5efb791ed4cb570da489e737,5efb87214baea00fc3eee071,4,,,,,,megaphone,,,,,,,,,,,6,2,0,20,20,57,1,,,,,,,,,,,,,,,,,,,,,,,,,,,,,,,,,,,,,,,,,,,,,,,,,,,,,,,,,,,,,,,,,,,,,,
,,?,0.004675,0,,,,,,stimuli/images/PICTURE_356.png,CANDY,5ecff9937fd043096b2c1984,2020-06-30_14h41.11.110,proactive,2020.1.2,Win32,60,5efb791ed4cb570da489e737,5efb87214baea00fc3eee071,4,,,,,,pawn,,,,,,,,,,,5,2,0,21,21,46,1,,,,,,,,,,,,,,,,,,,,,,,,,,,,,,,,,,,,,,,,,,,,,,,,,,,,,,,,,,,,,,,,,,,,,,
,,?,0.001425,0,,,,,,stimuli/images/PICTURE_403.png,FAMILY,5ecff9937fd043096b2c1984,2020-06-30_14h41.11.110,proactive,2020.1.2,Win32,60,5efb791ed4cb570da489e737,5efb87214baea00fc3eee071,4,,,,,,cathedral,,,,,,,,,,,1,2,0,22,22,9,1,,,,,,,,,,,,,,,,,,,,,,,,,,,,,,,,,,,,,,,,,,,,,,,,,,,,,,,,,,,,,,,,,,,,,,
,,?,0.001825,0,,,,,,stimuli/images/PICTURE_667.png,GLASS,5ecff9937fd043096b2c1984,2020-06-30_14h41.11.110,proactive,2020.1.2,Win32,60,5efb791ed4cb570da489e737,5efb87214baea00fc3eee071,4,,,,,,daisy,,,,,,,,,,,3,2,0,23,23,27,1,,,,,,,,,,,,,,,,,,,,,,,,,,,,,,,,,,,,,,,,,,,,,,,,,,,,,,,,,,,,,,,,,,,,,,
,,?,0.00139,0,,,,,,stimuli/images/PICTURE_68.png,KIND,5ecff9937fd043096b2c1984,2020-06-30_14h41.11.110,proactive,2020.1.2,Win32,60,5efb791ed4cb570da489e737,5efb87214baea00fc3eee071,4,,,,,,candle,,,,,,,,,,,3,2,0,24,24,23,1,,,,,,,,,,,,,,,,,,,,,,,,,,,,,,,,,,,,,,,,,,,,,,,,,,,,,,,,,,,,,,,,,,,,,,
,,?,0.001395,0,,,,,,stimuli/images/PICTURE_311.png,FLESH,5ecff9937fd043096b2c1984,2020-06-30_14h41.11.110,proactive,2020.1.2,Win32,60,5efb791ed4cb570da489e737,5efb87214baea00fc3eee071,4,,,,,,razor,,,,,,,,,,,1,2,0,25,25,3,1,,,,,,,,,,,,,,,,,,,,,,,,,,,,,,,,,,,,,,,,,,,,,,,,,,,,,,,,,,,,,,,,,,,,,,
,,?,0.00137,0,,,,,,stimuli/images/PICTURE_708.png,VALLEY,5ecff9937fd043096b2c1984,2020-06-30_14h41.11.110,proactive,2020.1.2,Win32,60,5efb791ed4cb570da489e737,5efb87214baea00fc3eee071,4,,,,,,monkey,,,,,,,,,,,5,2,0,26,26,45,1,,,,,,,,,,,,,,,,,,,,,,,,,,,,,,,,,,,,,,,,,,,,,,,,,,,,,,,,,,,,,,,,,,,,,,
,,?,0.001475,0,,,,,,stimuli/images/PICTURE_470.png,MOMENT,5ecff9937fd043096b2c1984,2020-06-30_14h41.11.110,proactive,2020.1.2,Win32,60,5efb791ed4cb570da489e737,5efb87214baea00fc3eee071,4,,,,,,motorbike,,,,,,,,,,,5,2,0,27,27,40,1,,,,,,,,,,,,,,,,,,,,,,,,,,,,,,,,,,,,,,,,,,,,,,,,,,,,,,,,,,,,,,,,,,,,,,
,,?,0.00139,0,,,,,,stimuli/images/PICTURE_654.png,COPS,5ecff9937fd043096b2c1984,2020-06-30_14h41.11.110,proactive,2020.1.2,Win32,60,5efb791ed4cb570da489e737,5efb87214baea00fc3eee071,4,,,,,,pencil,,,,,,,,,,,2,2,0,28,28,10,1,,,,,,,,,,,,,,,,,,,,,,,,,,,,,,,,,,,,,,,,,,,,,,,,,,,,,,,,,,,,,,,,,,,,,,
,,AREA,2.27591,1,,,,,,stimuli/images/PICTURE_2.png,AREA,5ecff9937fd043096b2c1984,2020-06-30_14h41.11.110,proactive,2020.1.2,Win32,60,5efb791ed4cb570da489e737,5efb87214baea00fc3eee071,4,,,,,,tyre,,,,,,,,,,,4,2,0,29,29,32,1,,,,,,,,,,,,,,,,,,,,,,,,,,,,,,,,,,,,,,,,,,,,,,,,,,,,,,,,,,,,,,,,,,,,,,
