consent_key.keys,consent_key.rt,recalled,recalled_rt,recall_acc,example_recall.thisRepN,example_recall.thisTrialN,example_recall.thisN,example_recall.thisIndex,example_recall.ran,file,word,participant,date,expName,psychopyVersion,OS,frameRate,STUDY_ID,SESSION_ID,list,prac_learn_study_loop.thisRepN,prac_learn_study_loop.thisTrialN,prac_learn_study_loop.thisN,prac_learn_study_loop.thisIndex,prac_learn_study_loop.ran,image,prac_learn_test_loop.thisRepN,prac_learn_test_loop.thisTrialN,prac_learn_test_loop.thisN,prac_learn_test_loop.thisIndex,prac_learn_test_loop.ran,learn_study_loop.thisRepN,learn_study_loop.thisTrialN,learn_study_loop.thisN,learn_study_loop.thisIndex,learn_study_loop.ran,list_no,block_no,learn_test_loop.thisRepN,learn_test_loop.thisTrialN,learn_test_loop.thisN,learn_test_loop.thisIndex,learn_test_loop.ran,learn_blocks.thisRepN,learn_blocks.thisTrialN,learn_blocks.thisN,learn_blocks.thisIndex,learn_blocks.ran,block_csv,key_resp_13.keys,key_resp_13.rt,learn_blocks_loop.thisRepN,learn_blocks_loop.thisTrialN,learn_blocks_loop.thisN,learn_blocks_loop.thisIndex,learn_blocks_loop.ran,final_learn_test.thisRepN,final_learn_test.thisTrialN,final_learn_test.thisN,final_learn_test.thisIndex,final_learn_test.ran,prac_wm_test_loop.thisRepN,prac_wm_test_loop.thisTrialN,prac_wm_test_loop.thisN,prac_wm_test_loop.thisIndex,prac_wm_test_loop.ran,wm_recalled1,wm_recall_rt1,wm_probed1,wm_recall_acc1,wm_recalled2,wm_recall_rt2,wm_probed2,wm_recall_acc2,wm_recalled3,wm_recall_rt3,wm_probed3,wm_recall_acc3,wm_recalled4,wm_recall_rt4,wm_probed4,wm_recall_acc4,prac_wm_trial_loop.thisRepN,prac_wm_trial_loop.thisTrialN,prac_wm_trial_loop.thisN,prac_wm_trial_loop.thisIndex,prac_wm_trial_loop.ran,word1,image1,file1,item_type1,word2,image2,file2,item_type2,word4,image4,file4,item_type4,word3,image3,file3,item_type3,wm_test_loop.thisRepN,wm_test_loop.thisTrialN,wm_test_loop.thisN,wm_test_loop.thisIndex,wm_test_loop.ran,wm_trial_loop.thisRepN,wm_trial_loop.thisTrialN,wm_trial_loop.thisN,wm_trial_loop.thisIndex,wm_trial_loop.ran
y,4.64645,BATHTUB,4.237915,0,0,0,0,0,1,stimuli/images/PICTURE_747.png,TOUGH,5ed2bf022955ea23fb3c964c,2020-06-30_14h40.52.376,proactive,2020.1.2,Win32,60,5efb791ed4cb570da489e737,5efb8712acf56b109b772ba4,5,,,,,,,,,,,,,,,,,,,,,,,,,,,,,,,,,,,,,,,,,,,,,,,,,,,,,,,,,,,,,,,,,,,,,,,,,,,,,,,,,,,,,,,,,,,,,
,,,,,,,,,,stimuli/images/PICTURE_697.png,KILLER,5ed2bf022955ea23fb3c964c,2020-06-30_14h40.52.376,proactive,2020.1.2,Win32,60,5efb791ed4cb570da489e737,5efb8712acf56b109b772ba4,5,0,0,0,4,1,peach,,,,,,,,,,,,,,,,,,,,,,,,,,,,,,,,,,,,,,,,,,,,,,,,,,,,,,,,,,,,,,,,,,,,,,,,,,,,,,,,,,,,,,,
,,,,,,,,,,stimuli/images/PICTURE_727.png,CELL,5ed2bf022955ea23fb3c964c,2020-06-30_14h40.52.376,proactive,2020.1.2,Win32,60,5efb791ed4cb570da489e737,5efb8712acf56b109b772ba4,5,0,1,1,1,1,hose,,,,,,,,,,,,,,,,,,,,,,,,,,,,,,,,,,,,,,,,,,,,,,,,,,,,,,,,,,,,,,,,,,,,,,,,,,,,,,,,,,,,,,,
,,,,,,,,,,stimuli/images/PICTURE_378.png,LOSS,5ed2bf022955ea23fb3c964c,2020-06-30_14h40.52.376,proactive,2020.1.2,Win32,60,5efb791ed4cb570da489e737,5efb8712acf56b109b772ba4,5,0,2,2,2,1,lobster,,,,,,,,,,,,,,,,,,,,,,,,,,,,,,,,,,,,,,,,,,,,,,,,,,,,,,,,,,,,,,,,,,,,,,,,,,,,,,,,,,,,,,,
,,,,,,,,,,stimuli/images/PICTURE_658.png,DEVIL,5ed2bf022955ea23fb3c964c,2020-06-30_14h40.52.376,proactive,2020.1.2,Win32,60,5efb791ed4cb570da489e737,5efb8712acf56b109b772ba4,5,0,3,3,3,1,crow,,,,,,,,,,,,,,,,,,,,,,,,,,,,,,,,,,,,,,,,,,,,,,,,,,,,,,,,,,,,,,,,,,,,,,,,,,,,,,,,,,,,,,,
,,DEVIL,2.02946,1,,,,,,stimuli/images/PICTURE_658.png,DEVIL,5ed2bf022955ea23fb3c964c,2020-06-30_14h40.52.376,proactive,2020.1.2,Win32,60,5efb791ed4cb570da489e737,5efb8712acf56b109b772ba4,5,,,,,,crow,0,0,0,3,1,,,,,,,,,,,,,,,,,,,,,,,,,,,,,,,,,,,,,,,,,,,,,,,,,,,,,,,,,,,,,,,,,,,,,,,,,,,,,,,,,,
,,LOSS,1.449625,1,,,,,,stimuli/images/PICTURE_378.png,LOSS,5ed2bf022955ea23fb3c964c,2020-06-30_14h40.52.376,proactive,2020.1.2,Win32,60,5efb791ed4cb570da489e737,5efb8712acf56b109b772ba4,5,,,,,,lobster,0,1,1,2,1,,,,,,,,,,,,,,,,,,,,,,,,,,,,,,,,,,,,,,,,,,,,,,,,,,,,,,,,,,,,,,,,,,,,,,,,,,,,,,,,,,
,,GENIUS,4.465965,1,,,,,,stimuli/images/PICTURE_269.png,GENIUS,5ed2bf022955ea23fb3c964c,2020-06-30_14h40.52.376,proactive,2020.1.2,Win32,60,5efb791ed4cb570da489e737,5efb8712acf56b109b772ba4,5,,,,,,chameleon,0,2,2,0,1,,,,,,,,,,,,,,,,,,,,,,,,,,,,,,,,,,,,,,,,,,,,,,,,,,,,,,,,,,,,,,,,,,,,,,,,,,,,,,,,,,
,,KILLER,1.43286,1,,,,,,stimuli/images/PICTURE_697.png,KILLER,5ed2bf022955ea23fb3c964c,2020-06-30_14h40.52.376,proactive,2020.1.2,Win32,60,5efb791ed4cb570da489e737,5efb8712acf56b109b772ba4,5,,,,,,peach,0,3,3,4,1,,,,,,,,,,,,,,,,,,,,,,,,,,,,,,,,,,,,,,,,,,,,,,,,,,,,,,,,,,,,,,,,,,,,,,,,,,,,,,,,,,
,,CELL,0.799315,1,,,,,,stimuli/images/PICTURE_727.png,CELL,5ed2bf022955ea23fb3c964c,2020-06-30_14h40.52.376,proactive,2020.1.2,Win32,60,5efb791ed4cb570da489e737,5efb8712acf56b109b772ba4,5,,,,,,hose,0,4,4,1,1,,,,,,,,,,,,,,,,,,,,,,,,,,,,,,,,,,,,,,,,,,,,,,,,,,,,,,,,,,,,,,,,,,,,,,,,,,,,,,,,,,
,,,,,,,,,,stimuli/images/PICTURE_339.png,CLIENT,5ed2bf022955ea23fb3c964c,2020-06-30_14h40.52.376,proactive,2020.1.2,Win32,60,5efb791ed4cb570da489e737,5efb8712acf56b109b772ba4,5,,,,,,backpack,,,,,,0,0,0,11,1,2,1,,,,,,,,,,,,,,,,,,,,,,,,,,,,,,,,,,,,,,,,,,,,,,,,,,,,,,,,,,,,,,,,,,,,,,,,,,,
,,,,,,,,,,stimuli/images/PICTURE_85.png,NATION,5ed2bf022955ea23fb3c964c,2020-06-30_14h40.52.376,proactive,2020.1.2,Win32,60,5efb791ed4cb570da489e737,5efb8712acf56b109b772ba4,5,,,,,,diamond,,,,,,0,1,1,5,1,1,1,,,,,,,,,,,,,,,,,,,,,,,,,,,,,,,,,,,,,,,,,,,,,,,,,,,,,,,,,,,,,,,,,,,,,,,,,,,
,,,,,,,,,,stimuli/images/PICTURE_68.png,ROOF,5ed2bf022955ea23fb3c964c,2020-06-30_14h40.52.376,proactive,2020.1.2,Win32,60,5efb791ed4cb570da489e737,5efb8712acf56b109b772ba4,5,,,,,,candle,,,,,,0,2,2,38,1,4,1,,,,,,,,,,,,,,,,,,,,,,,,,,,,,,,,,,,,,,,,,,,,,,,,,,,,,,,,,,,,,,,,,,,,,,,,,,,
,,,,,,,,,,stimuli/images/PICTURE_469.png,AGENT,5ed2bf022955ea23fb3c964c,2020-06-30_14h40.52.376,proactive,2020.1.2,Win32,60,5efb791ed4cb570da489e737,5efb8712acf56b109b772ba4,5,,,,,,stool,,,,,,0,3,3,16,1,2,1,,,,,,,,,,,,,,,,,,,,,,,,,,,,,,,,,,,,,,,,,,,,,,,,,,,,,,,,,,,,,,,,,,,,,,,,,,,
,,,,,,,,,,stimuli/images/PICTURE_383.png,WRITER,5ed2bf022955ea23fb3c964c,2020-06-30_14h40.52.376,proactive,2020.1.2,Win32,60,5efb791ed4cb570da489e737,5efb8712acf56b109b772ba4,5,,,,,,coin,,,,,,0,4,4,28,1,3,1,,,,,,,,,,,,,,,,,,,,,,,,,,,,,,,,,,,,,,,,,,,,,,,,,,,,,,,,,,,,,,,,,,,,,,,,,,,
,,,,,,,,,,stimuli/images/PICTURE_108.png,POLICY,5ed2bf022955ea23fb3c964c,2020-06-30_14h40.52.376,proactive,2020.1.2,Win32,60,5efb791ed4cb570da489e737,5efb8712acf56b109b772ba4,5,,,,,,calendar,,,,,,0,5,5,22,1,3,1,,,,,,,,,,,,,,,,,,,,,,,,,,,,,,,,,,,,,,,,,,,,,,,,,,,,,,,,,,,,,,,,,,,,,,,,,,,
,,,,,,,,,,stimuli/images/PICTURE_340.png,LETTER,5ed2bf022955ea23fb3c964c,2020-06-30_14h40.52.376,proactive,2020.1.2,Win32,60,5efb791ed4cb570da489e737,5efb8712acf56b109b772ba4,5,,,,,,mirror,,,,,,0,6,6,24,1,3,1,,,,,,,,,,,,,,,,,,,,,,,,,,,,,,,,,,,,,,,,,,,,,,,,,,,,,,,,,,,,,,,,,,,,,,,,,,,
,,,,,,,,,,stimuli/images/PICTURE_744.png,WEAPON,5ed2bf022955ea23fb3c964c,2020-06-30_14h40.52.376,proactive,2020.1.2,Win32,60,5efb791ed4cb570da489e737,5efb8712acf56b109b772ba4,5,,,,,,ring,,,,,,0,7,7,50,1,6,1,,,,,,,,,,,,,,,,,,,,,,,,,,,,,,,,,,,,,,,,,,,,,,,,,,,,,,,,,,,,,,,,,,,,,,,,,,,
,,,,,,,,,,stimuli/images/PICTURE_327.png,CASINO,5ed2bf022955ea23fb3c964c,2020-06-30_14h40.52.376,proactive,2020.1.2,Win32,60,5efb791ed4cb570da489e737,5efb8712acf56b109b772ba4,5,,,,,,helmet,,,,,,0,8,8,20,1,3,1,,,,,,,,,,,,,,,,,,,,,,,,,,,,,,,,,,,,,,,,,,,,,,,,,,,,,,,,,,,,,,,,,,,,,,,,,,,
,,,,,,,,,,stimuli/images/PICTURE_285.png,LIFE,5ed2bf022955ea23fb3c964c,2020-06-30_14h40.52.376,proactive,2020.1.2,Win32,60,5efb791ed4cb570da489e737,5efb8712acf56b109b772ba4,5,,,,,,carrot,,,,,,0,9,9,33,1,4,1,,,,,,,,,,,,,,,,,,,,,,,,,,,,,,,,,,,,,,,,,,,,,,,,,,,,,,,,,,,,,,,,,,,,,,,,,,,
,,,,,,,,,,stimuli/images/PICTURE_750.png,HOTEL,5ed2bf022955ea23fb3c964c,2020-06-30_14h40.52.376,proactive,2020.1.2,Win32,60,5efb791ed4cb570da489e737,5efb8712acf56b109b772ba4,5,,,,,,kettle,,,,,,0,10,10,27,1,3,1,,,,,,,,,,,,,,,,,,,,,,,,,,,,,,,,,,,,,,,,,,,,,,,,,,,,,,,,,,,,,,,,,,,,,,,,,,,
,,,,,,,,,,stimuli/images/PICTURE_654.png,MONTH,5ed2bf022955ea23fb3c964c,2020-06-30_14h40.52.376,proactive,2020.1.2,Win32,60,5efb791ed4cb570da489e737,5efb8712acf56b109b772ba4,5,,,,,,pencil,,,,,,0,11,11,29,1,3,1,,,,,,,,,,,,,,,,,,,,,,,,,,,,,,,,,,,,,,,,,,,,,,,,,,,,,,,,,,,,,,,,,,,,,,,,,,,
,,,,,,,,,,stimuli/images/PICTURE_403.png,WRITER,5ed2bf022955ea23fb3c964c,2020-06-30_14h40.52.376,proactive,2020.1.2,Win32,60,5efb791ed4cb570da489e737,5efb8712acf56b109b772ba4,5,,,,,,cathedral,,,,,,0,12,12,31,1,4,1,,,,,,,,,,,,,,,,,,,,,,,,,,,,,,,,,,,,,,,,,,,,,,,,,,,,,,,,,,,,,,,,,,,,,,,,,,,
,,,,,,,,,,stimuli/images/PICTURE_203.png,NIGHT,5ed2bf022955ea23fb3c964c,2020-06-30_14h40.52.376,proactive,2020.1.2,Win32,60,5efb791ed4cb570da489e737,5efb8712acf56b109b772ba4,5,,,,,,cap,,,,,,0,13,13,2,1,1,1,,,,,,,,,,,,,,,,,,,,,,,,,,,,,,,,,,,,,,,,,,,,,,,,,,,,,,,,,,,,,,,,,,,,,,,,,,,
,,,,,,,,,,stimuli/images/PICTURE_95.png,BOYS,5ed2bf022955ea23fb3c964c,2020-06-30_14h40.52.376,proactive,2020.1.2,Win32,60,5efb791ed4cb570da489e737,5efb8712acf56b109b772ba4,5,,,,,,suitcase,,,,,,0,14,14,1,1,1,1,,,,,,,,,,,,,,,,,,,,,,,,,,,,,,,,,,,,,,,,,,,,,,,,,,,,,,,,,,,,,,,,,,,,,,,,,,,
,,,,,,,,,,stimuli/images/PICTURE_504.png,YEAR,5ed2bf022955ea23fb3c964c,2020-06-30_14h40.52.376,proactive,2020.1.2,Win32,60,5efb791ed4cb570da489e737,5efb8712acf56b109b772ba4,5,,,,,,wheel,,,,,,0,15,15,13,1,2,1,,,,,,,,,,,,,,,,,,,,,,,,,,,,,,,,,,,,,,,,,,,,,,,,,,,,,,,,,,,,,,,,,,,,,,,,,,,
,,,,,,,,,,stimuli/images/PICTURE_504.png,COPS,5ed2bf022955ea23fb3c964c,2020-06-30_14h40.52.376,proactive,2020.1.2,Win32,60,5efb791ed4cb570da489e737,5efb8712acf56b109b772ba4,5,,,,,,wheel,,,,,,0,16,16,52,1,6,1,,,,,,,,,,,,,,,,,,,,,,,,,,,,,,,,,,,,,,,,,,,,,,,,,,,,,,,,,,,,,,,,,,,,,,,,,,,
,,,,,,,,,,stimuli/images/PICTURE_380.png,HONEY,5ed2bf022955ea23fb3c964c,2020-06-30_14h40.52.376,proactive,2020.1.2,Win32,60,5efb791ed4cb570da489e737,5efb8712acf56b109b772ba4,5,,,,,,gorilla,,,,,,0,17,17,19,1,2,1,,,,,,,,,,,,,,,,,,,,,,,,,,,,,,,,,,,,,,,,,,,,,,,,,,,,,,,,,,,,,,,,,,,,,,,,,,,
,,,,,,,,,,stimuli/images/PICTURE_108.png,FLIGHT,5ed2bf022955ea23fb3c964c,2020-06-30_14h40.52.376,proactive,2020.1.2,Win32,60,5efb791ed4cb570da489e737,5efb8712acf56b109b772ba4,5,,,,,,calendar,,,,,,0,18,18,59,1,6,1,,,,,,,,,,,,,,,,,,,,,,,,,,,,,,,,,,,,,,,,,,,,,,,,,,,,,,,,,,,,,,,,,,,,,,,,,,,
,,,,,,,,,,stimuli/images/PICTURE_677.png,APPLE,5ed2bf022955ea23fb3c964c,2020-06-30_14h40.52.376,proactive,2020.1.2,Win32,60,5efb791ed4cb570da489e737,5efb8712acf56b109b772ba4,5,,,,,,map,,,,,,0,19,19,43,1,5,1,,,,,,,,,,,,,,,,,,,,,,,,,,,,,,,,,,,,,,,,,,,,,,,,,,,,,,,,,,,,,,,,,,,,,,,,,,,
,,,,,,,,,,stimuli/images/PICTURE_233.png,LOTS,5ed2bf022955ea23fb3c964c,2020-06-30_14h40.52.376,proactive,2020.1.2,Win32,60,5efb791ed4cb570da489e737,5efb8712acf56b109b772ba4,5,,,,,,salt,,,,,,0,20,20,42,1,5,1,,,,,,,,,,,,,,,,,,,,,,,,,,,,,,,,,,,,,,,,,,,,,,,,,,,,,,,,,,,,,,,,,,,,,,,,,,,
,,,,,,,,,,stimuli/images/PICTURE_487.png,GIRL,5ed2bf022955ea23fb3c964c,2020-06-30_14h40.52.376,proactive,2020.1.2,Win32,60,5efb791ed4cb570da489e737,5efb8712acf56b109b772ba4,5,,,,,,basket,,,,,,0,21,21,45,1,5,1,,,,,,,,,,,,,,,,,,,,,,,,,,,,,,,,,,,,,,,,,,,,,,,,,,,,,,,,,,,,,,,,,,,,,,,,,,,
,,,,,,,,,,stimuli/images/PICTURE_327.png,SERIES,5ed2bf022955ea23fb3c964c,2020-06-30_14h40.52.376,proactive,2020.1.2,Win32,60,5efb791ed4cb570da489e737,5efb8712acf56b109b772ba4,5,,,,,,helmet,,,,,,0,22,22,3,1,1,1,,,,,,,,,,,,,,,,,,,,,,,,,,,,,,,,,,,,,,,,,,,,,,,,,,,,,,,,,,,,,,,,,,,,,,,,,,,
,,,,,,,,,,stimuli/images/PICTURE_383.png,SERIES,5ed2bf022955ea23fb3c964c,2020-06-30_14h40.52.376,proactive,2020.1.2,Win32,60,5efb791ed4cb570da489e737,5efb8712acf56b109b772ba4,5,,,,,,coin,,,,,,0,23,23,46,1,5,1,,,,,,,,,,,,,,,,,,,,,,,,,,,,,,,,,,,,,,,,,,,,,,,,,,,,,,,,,,,,,,,,,,,,,,,,,,,
,,,,,,,,,,stimuli/images/PICTURE_68.png,MILE,5ed2bf022955ea23fb3c964c,2020-06-30_14h40.52.376,proactive,2020.1.2,Win32,60,5efb791ed4cb570da489e737,5efb8712acf56b109b772ba4,5,,,,,,candle,,,,,,0,24,24,51,1,6,1,,,,,,,,,,,,,,,,,,,,,,,,,,,,,,,,,,,,,,,,,,,,,,,,,,,,,,,,,,,,,,,,,,,,,,,,,,,
,,,,,,,,,,stimuli/images/PICTURE_667.png,RIVER,5ed2bf022955ea23fb3c964c,2020-06-30_14h40.52.376,proactive,2020.1.2,Win32,60,5efb791ed4cb570da489e737,5efb8712acf56b109b772ba4,5,,,,,,daisy,,,,,,0,25,25,10,1,2,1,,,,,,,,,,,,,,,,,,,,,,,,,,,,,,,,,,,,,,,,,,,,,,,,,,,,,,,,,,,,,,,,,,,,,,,,,,,
,,,,,,,,,,stimuli/images/PICTURE_491.png,GLASS,5ed2bf022955ea23fb3c964c,2020-06-30_14h40.52.376,proactive,2020.1.2,Win32,60,5efb791ed4cb570da489e737,5efb8712acf56b109b772ba4,5,,,,,,rug,,,,,,0,26,26,14,1,2,1,,,,,,,,,,,,,,,,,,,,,,,,,,,,,,,,,,,,,,,,,,,,,,,,,,,,,,,,,,,,,,,,,,,,,,,,,,,
,,,,,,,,,,stimuli/images/PICTURE_85.png,TOILET,5ed2bf022955ea23fb3c964c,2020-06-30_14h40.52.376,proactive,2020.1.2,Win32,60,5efb791ed4cb570da489e737,5efb8712acf56b109b772ba4,5,,,,,,diamond,,,,,,0,27,27,48,1,5,1,,,,,,,,,,,,,,,,,,,,,,,,,,,,,,,,,,,,,,,,,,,,,,,,,,,,,,,,,,,,,,,,,,,,,,,,,,,
,,,,,,,,,,stimuli/images/PICTURE_296.png,LOTS,5ed2bf022955ea23fb3c964c,2020-06-30_14h40.52.376,proactive,2020.1.2,Win32,60,5efb791ed4cb570da489e737,5efb8712acf56b109b772ba4,5,,,,,,bolt,,,,,,0,28,28,9,1,1,1,,,,,,,,,,,,,,,,,,,,,,,,,,,,,,,,,,,,,,,,,,,,,,,,,,,,,,,,,,,,,,,,,,,,,,,,,,,
,,,,,,,,,,stimuli/images/PICTURE_504.png,ARTIST,5ed2bf022955ea23fb3c964c,2020-06-30_14h40.52.376,proactive,2020.1.2,Win32,60,5efb791ed4cb570da489e737,5efb8712acf56b109b772ba4,5,,,,,,wheel,,,,,,0,29,29,49,1,5,1,,,,,,,,,,,,,,,,,,,,,,,,,,,,,,,,,,,,,,,,,,,,,,,,,,,,,,,,,,,,,,,,,,,,,,,,,,,
,,,,,,,,,,stimuli/images/PICTURE_42.png,BOYS,5ed2bf022955ea23fb3c964c,2020-06-30_14h40.52.376,proactive,2020.1.2,Win32,60,5efb791ed4cb570da489e737,5efb8712acf56b109b772ba4,5,,,,,,pear,,,,,,0,30,30,55,1,6,1,,,,,,,,,,,,,,,,,,,,,,,,,,,,,,,,,,,,,,,,,,,,,,,,,,,,,,,,,,,,,,,,,,,,,,,,,,,
,,,,,,,,,,stimuli/images/PICTURE_203.png,GODS,5ed2bf022955ea23fb3c964c,2020-06-30_14h40.52.376,proactive,2020.1.2,Win32,60,5efb791ed4cb570da489e737,5efb8712acf56b109b772ba4,5,,,,,,cap,,,,,,0,31,31,30,1,4,1,,,,,,,,,,,,,,,,,,,,,,,,,,,,,,,,,,,,,,,,,,,,,,,,,,,,,,,,,,,,,,,,,,,,,,,,,,,
,,,,,,,,,,stimuli/images/PICTURE_405.png,YEAR,5ed2bf022955ea23fb3c964c,2020-06-30_14h40.52.376,proactive,2020.1.2,Win32,60,5efb791ed4cb570da489e737,5efb8712acf56b109b772ba4,5,,,,,,anchor,,,,,,0,32,32,34,1,4,1,,,,,,,,,,,,,,,,,,,,,,,,,,,,,,,,,,,,,,,,,,,,,,,,,,,,,,,,,,,,,,,,,,,,,,,,,,,
,,,,,,,,,,stimuli/images/PICTURE_95.png,MILLER,5ed2bf022955ea23fb3c964c,2020-06-30_14h40.52.376,proactive,2020.1.2,Win32,60,5efb791ed4cb570da489e737,5efb8712acf56b109b772ba4,5,,,,,,suitcase,,,,,,0,33,33,56,1,6,1,,,,,,,,,,,,,,,,,,,,,,,,,,,,,,,,,,,,,,,,,,,,,,,,,,,,,,,,,,,,,,,,,,,,,,,,,,,
,,,,,,,,,,stimuli/images/PICTURE_297.png,RIVER,5ed2bf022955ea23fb3c964c,2020-06-30_14h40.52.376,proactive,2020.1.2,Win32,60,5efb791ed4cb570da489e737,5efb8712acf56b109b772ba4,5,,,,,,aeroplane,,,,,,0,34,34,39,1,4,1,,,,,,,,,,,,,,,,,,,,,,,,,,,,,,,,,,,,,,,,,,,,,,,,,,,,,,,,,,,,,,,,,,,,,,,,,,,
,,,,,,,,,,stimuli/images/PICTURE_449.png,DUDE,5ed2bf022955ea23fb3c964c,2020-06-30_14h40.52.376,proactive,2020.1.2,Win32,60,5efb791ed4cb570da489e737,5efb8712acf56b109b772ba4,5,,,,,,bench,,,,,,0,35,35,17,1,2,1,,,,,,,,,,,,,,,,,,,,,,,,,,,,,,,,,,,,,,,,,,,,,,,,,,,,,,,,,,,,,,,,,,,,,,,,,,,
,,,,,,,,,,stimuli/images/PICTURE_32.png,KIND,5ed2bf022955ea23fb3c964c,2020-06-30_14h40.52.376,proactive,2020.1.2,Win32,60,5efb791ed4cb570da489e737,5efb8712acf56b109b772ba4,5,,,,,,crown,,,,,,0,36,36,35,1,4,1,,,,,,,,,,,,,,,,,,,,,,,,,,,,,,,,,,,,,,,,,,,,,,,,,,,,,,,,,,,,,,,,,,,,,,,,,,,
,,,,,,,,,,stimuli/images/PICTURE_32.png,PILLS,5ed2bf022955ea23fb3c964c,2020-06-30_14h40.52.376,proactive,2020.1.2,Win32,60,5efb791ed4cb570da489e737,5efb8712acf56b109b772ba4,5,,,,,,crown,,,,,,0,37,37,18,1,2,1,,,,,,,,,,,,,,,,,,,,,,,,,,,,,,,,,,,,,,,,,,,,,,,,,,,,,,,,,,,,,,,,,,,,,,,,,,,
,,,,,,,,,,stimuli/images/PICTURE_2.png,FLIGHT,5ed2bf022955ea23fb3c964c,2020-06-30_14h40.52.376,proactive,2020.1.2,Win32,60,5efb791ed4cb570da489e737,5efb8712acf56b109b772ba4,5,,,,,,tyre,,,,,,0,38,38,15,1,2,1,,,,,,,,,,,,,,,,,,,,,,,,,,,,,,,,,,,,,,,,,,,,,,,,,,,,,,,,,,,,,,,,,,,,,,,,,,,
,,,,,,,,,,stimuli/images/PICTURE_491.png,RIVER,5ed2bf022955ea23fb3c964c,2020-06-30_14h40.52.376,proactive,2020.1.2,Win32,60,5efb791ed4cb570da489e737,5efb8712acf56b109b772ba4,5,,,,,,rug,,,,,,0,39,39,6,1,1,1,,,,,,,,,,,,,,,,,,,,,,,,,,,,,,,,,,,,,,,,,,,,,,,,,,,,,,,,,,,,,,,,,,,,,,,,,,,
,,,,,,,,,,stimuli/images/PICTURE_685.png,PENNY,5ed2bf022955ea23fb3c964c,2020-06-30_14h40.52.376,proactive,2020.1.2,Win32,60,5efb791ed4cb570da489e737,5efb8712acf56b109b772ba4,5,,,,,,goose,,,,,,0,40,40,4,1,1,1,,,,,,,,,,,,,,,,,,,,,,,,,,,,,,,,,,,,,,,,,,,,,,,,,,,,,,,,,,,,,,,,,,,,,,,,,,,
,,,,,,,,,,stimuli/images/PICTURE_340.png,VALLEY,5ed2bf022955ea23fb3c964c,2020-06-30_14h40.52.376,proactive,2020.1.2,Win32,60,5efb791ed4cb570da489e737,5efb8712acf56b109b772ba4,5,,,,,,mirror,,,,,,0,41,41,54,1,6,1,,,,,,,,,,,,,,,,,,,,,,,,,,,,,,,,,,,,,,,,,,,,,,,,,,,,,,,,,,,,,,,,,,,,,,,,,,,
,,,,,,,,,,stimuli/images/PICTURE_177.png,WRITER,5ed2bf022955ea23fb3c964c,2020-06-30_14h40.52.376,proactive,2020.1.2,Win32,60,5efb791ed4cb570da489e737,5efb8712acf56b109b772ba4,5,,,,,,mushroom,,,,,,0,42,42,41,1,5,1,,,,,,,,,,,,,,,,,,,,,,,,,,,,,,,,,,,,,,,,,,,,,,,,,,,,,,,,,,,,,,,,,,,,,,,,,,,
,,,,,,,,,,stimuli/images/PICTURE_147.png,WOMEN,5ed2bf022955ea23fb3c964c,2020-06-30_14h40.52.376,proactive,2020.1.2,Win32,60,5efb791ed4cb570da489e737,5efb8712acf56b109b772ba4,5,,,,,,hanger,,,,,,0,43,43,7,1,1,1,,,,,,,,,,,,,,,,,,,,,,,,,,,,,,,,,,,,,,,,,,,,,,,,,,,,,,,,,,,,,,,,,,,,,,,,,,,
,,,,,,,,,,stimuli/images/PICTURE_655.png,TOILET,5ed2bf022955ea23fb3c964c,2020-06-30_14h40.52.376,proactive,2020.1.2,Win32,60,5efb791ed4cb570da489e737,5efb8712acf56b109b772ba4,5,,,,,,megaphone,,,,,,0,44,44,12,1,2,1,,,,,,,,,,,,,,,,,,,,,,,,,,,,,,,,,,,,,,,,,,,,,,,,,,,,,,,,,,,,,,,,,,,,,,,,,,,
,,,,,,,,,,stimuli/images/PICTURE_405.png,PLENTY,5ed2bf022955ea23fb3c964c,2020-06-30_14h40.52.376,proactive,2020.1.2,Win32,60,5efb791ed4cb570da489e737,5efb8712acf56b109b772ba4,5,,,,,,anchor,,,,,,0,45,45,23,1,3,1,,,,,,,,,,,,,,,,,,,,,,,,,,,,,,,,,,,,,,,,,,,,,,,,,,,,,,,,,,,,,,,,,,,,,,,,,,,
,,,,,,,,,,stimuli/images/PICTURE_33.png,FRIEND,5ed2bf022955ea23fb3c964c,2020-06-30_14h40.52.376,proactive,2020.1.2,Win32,60,5efb791ed4cb570da489e737,5efb8712acf56b109b772ba4,5,,,,,,frame,,,,,,0,46,46,8,1,1,1,,,,,,,,,,,,,,,,,,,,,,,,,,,,,,,,,,,,,,,,,,,,,,,,,,,,,,,,,,,,,,,,,,,,,,,,,,,
,,,,,,,,,,stimuli/images/PICTURE_403.png,RIVER,5ed2bf022955ea23fb3c964c,2020-06-30_14h40.52.376,proactive,2020.1.2,Win32,60,5efb791ed4cb570da489e737,5efb8712acf56b109b772ba4,5,,,,,,cathedral,,,,,,0,47,47,40,1,5,1,,,,,,,,,,,,,,,,,,,,,,,,,,,,,,,,,,,,,,,,,,,,,,,,,,,,,,,,,,,,,,,,,,,,,,,,,,,
,,,,,,,,,,stimuli/images/PICTURE_708.png,RECORD,5ed2bf022955ea23fb3c964c,2020-06-30_14h40.52.376,proactive,2020.1.2,Win32,60,5efb791ed4cb570da489e737,5efb8712acf56b109b772ba4,5,,,,,,monkey,,,,,,0,48,48,58,1,6,1,,,,,,,,,,,,,,,,,,,,,,,,,,,,,,,,,,,,,,,,,,,,,,,,,,,,,,,,,,,,,,,,,,,,,,,,,,,
,,,,,,,,,,stimuli/images/PICTURE_296.png,LIFE,5ed2bf022955ea23fb3c964c,2020-06-30_14h40.52.376,proactive,2020.1.2,Win32,60,5efb791ed4cb570da489e737,5efb8712acf56b109b772ba4,5,,,,,,bolt,,,,,,0,49,49,57,1,6,1,,,,,,,,,,,,,,,,,,,,,,,,,,,,,,,,,,,,,,,,,,,,,,,,,,,,,,,,,,,,,,,,,,,,,,,,,,,
,,,,,,,,,,stimuli/images/PICTURE_308.png,FAMILY,5ed2bf022955ea23fb3c964c,2020-06-30_14h40.52.376,proactive,2020.1.2,Win32,60,5efb791ed4cb570da489e737,5efb8712acf56b109b772ba4,5,,,,,,dice,,,,,,0,50,50,36,1,4,1,,,,,,,,,,,,,,,,,,,,,,,,,,,,,,,,,,,,,,,,,,,,,,,,,,,,,,,,,,,,,,,,,,,,,,,,,,,
,,,,,,,,,,stimuli/images/PICTURE_564.png,BATH,5ed2bf022955ea23fb3c964c,2020-06-30_14h40.52.376,proactive,2020.1.2,Win32,60,5efb791ed4cb570da489e737,5efb8712acf56b109b772ba4,5,,,,,,spoon,,,,,,0,51,51,26,1,3,1,,,,,,,,,,,,,,,,,,,,,,,,,,,,,,,,,,,,,,,,,,,,,,,,,,,,,,,,,,,,,,,,,,,,,,,,,,,
,,,,,,,,,,stimuli/images/PICTURE_57.png,MOMENT,5ed2bf022955ea23fb3c964c,2020-06-30_14h40.52.376,proactive,2020.1.2,Win32,60,5efb791ed4cb570da489e737,5efb8712acf56b109b772ba4,5,,,,,,stamp,,,,,,0,52,52,37,1,4,1,,,,,,,,,,,,,,,,,,,,,,,,,,,,,,,,,,,,,,,,,,,,,,,,,,,,,,,,,,,,,,,,,,,,,,,,,,,
,,,,,,,,,,stimuli/images/PICTURE_380.png,CANDY,5ed2bf022955ea23fb3c964c,2020-06-30_14h40.52.376,proactive,2020.1.2,Win32,60,5efb791ed4cb570da489e737,5efb8712acf56b109b772ba4,5,,,,,,gorilla,,,,,,0,53,53,0,1,1,1,,,,,,,,,,,,,,,,,,,,,,,,,,,,,,,,,,,,,,,,,,,,,,,,,,,,,,,,,,,,,,,,,,,,,,,,,,,
,,,,,,,,,,stimuli/images/PICTURE_95.png,HONEY,5ed2bf022955ea23fb3c964c,2020-06-30_14h40.52.376,proactive,2020.1.2,Win32,60,5efb791ed4cb570da489e737,5efb8712acf56b109b772ba4,5,,,,,,suitcase,,,,,,0,54,54,44,1,5,1,,,,,,,,,,,,,,,,,,,,,,,,,,,,,,,,,,,,,,,,,,,,,,,,,,,,,,,,,,,,,,,,,,,,,,,,,,,
,,,,,,,,,,stimuli/images/PICTURE_403.png,TOILET,5ed2bf022955ea23fb3c964c,2020-06-30_14h40.52.376,proactive,2020.1.2,Win32,60,5efb791ed4cb570da489e737,5efb8712acf56b109b772ba4,5,,,,,,cathedral,,,,,,0,55,55,25,1,3,1,,,,,,,,,,,,,,,,,,,,,,,,,,,,,,,,,,,,,,,,,,,,,,,,,,,,,,,,,,,,,,,,,,,,,,,,,,,
,,,,,,,,,,stimuli/images/PICTURE_467.png,POLICY,5ed2bf022955ea23fb3c964c,2020-06-30_14h40.52.376,proactive,2020.1.2,Win32,60,5efb791ed4cb570da489e737,5efb8712acf56b109b772ba4,5,,,,,,peg,,,,,,0,56,56,53,1,6,1,,,,,,,,,,,,,,,,,,,,,,,,,,,,,,,,,,,,,,,,,,,,,,,,,,,,,,,,,,,,,,,,,,,,,,,,,,,
,,,,,,,,,,stimuli/images/PICTURE_208.png,SYSTEM,5ed2bf022955ea23fb3c964c,2020-06-30_14h40.52.376,proactive,2020.1.2,Win32,60,5efb791ed4cb570da489e737,5efb8712acf56b109b772ba4,5,,,,,,microphone,,,,,,0,57,57,32,1,4,1,,,,,,,,,,,,,,,,,,,,,,,,,,,,,,,,,,,,,,,,,,,,,,,,,,,,,,,,,,,,,,,,,,,,,,,,,,,
,,,,,,,,,,stimuli/images/PICTURE_147.png,YEAR,5ed2bf022955ea23fb3c964c,2020-06-30_14h40.52.376,proactive,2020.1.2,Win32,60,5efb791ed4cb570da489e737,5efb8712acf56b109b772ba4,5,,,,,,hanger,,,,,,0,58,58,21,1,3,1,,,,,,,,,,,,,,,,,,,,,,,,,,,,,,,,,,,,,,,,,,,,,,,,,,,,,,,,,,,,,,,,,,,,,,,,,,,
,,?,0.00087,0,,,,,,stimuli/images/PICTURE_296.png,LOTS,5ed2bf022955ea23fb3c964c,2020-06-30_14h40.52.376,proactive,2020.1.2,Win32,60,5efb791ed4cb570da489e737,5efb8712acf56b109b772ba4,5,,,,,,bolt,,,,,,,,,,,1,1,0,0,0,9,1,,,,,,,,,,,,,,,,,,,,,,,,,,,,,,,,,,,,,,,,,,,,,,,,,,,,,,,,,,,,,,,,,,,,,,
,,?,0.00065,0,,,,,,stimuli/images/PICTURE_95.png,BOYS,5ed2bf022955ea23fb3c964c,2020-06-30_14h40.52.376,proactive,2020.1.2,Win32,60,5efb791ed4cb570da489e737,5efb8712acf56b109b772ba4,5,,,,,,suitcase,,,,,,,,,,,1,1,0,1,1,1,1,,,,,,,,,,,,,,,,,,,,,,,,,,,,,,,,,,,,,,,,,,,,,,,,,,,,,,,,,,,,,,,,,,,,,,
,,LOTS,2.90543,1,,,,,,stimuli/images/PICTURE_233.png,LOTS,5ed2bf022955ea23fb3c964c,2020-06-30_14h40.52.376,proactive,2020.1.2,Win32,60,5efb791ed4cb570da489e737,5efb8712acf56b109b772ba4,5,,,,,,salt,,,,,,,,,,,5,1,0,2,2,42,1,,,,,,,,,,,,,,,,,,,,,,,,,,,,,,,,,,,,,,,,,,,,,,,,,,,,,,,,,,,,,,,,,,,,,,
,,?,0.000945,0,,,,,,stimuli/images/PICTURE_339.png,CLIENT,5ed2bf022955ea23fb3c964c,2020-06-30_14h40.52.376,proactive,2020.1.2,Win32,60,5efb791ed4cb570da489e737,5efb8712acf56b109b772ba4,5,,,,,,backpack,,,,,,,,,,,2,1,0,3,3,11,1,,,,,,,,,,,,,,,,,,,,,,,,,,,,,,,,,,,,,,,,,,,,,,,,,,,,,,,,,,,,,,,,,,,,,,
,,?,0.00109,0,,,,,,stimuli/images/PICTURE_285.png,LIFE,5ed2bf022955ea23fb3c964c,2020-06-30_14h40.52.376,proactive,2020.1.2,Win32,60,5efb791ed4cb570da489e737,5efb8712acf56b109b772ba4,5,,,,,,carrot,,,,,,,,,,,4,1,0,4,4,33,1,,,,,,,,,,,,,,,,,,,,,,,,,,,,,,,,,,,,,,,,,,,,,,,,,,,,,,,,,,,,,,,,,,,,,,
,,L,7.47709,0,,,,,,stimuli/images/PICTURE_177.png,WRITER,5ed2bf022955ea23fb3c964c,2020-06-30_14h40.52.376,proactive,2020.1.2,Win32,60,5efb791ed4cb570da489e737,5efb8712acf56b109b772ba4,5,,,,,,mushroom,,,,,,,,,,,5,1,0,5,5,41,1,,,,,,,,,,,,,,,,,,,,,,,,,,,,,,,,,,,,,,,,,,,,,,,,,,,,,,,,,,,,,,,,,,,,,,
,,APPLE,4.21576,0,,,,,,stimuli/images/PICTURE_487.png,GIRL,5ed2bf022955ea23fb3c964c,2020-06-30_14h40.52.376,proactive,2020.1.2,Win32,60,5efb791ed4cb570da489e737,5efb8712acf56b109b772ba4,5,,,,,,basket,,,,,,,,,,,5,1,0,6,6,45,1,,,,,,,,,,,,,,,,,,,,,,,,,,,,,,,,,,,,,,,,,,,,,,,,,,,,,,,,,,,,,,,,,,,,,,
,,?,0.00096,0,,,,,,stimuli/images/PICTURE_744.png,WEAPON,5ed2bf022955ea23fb3c964c,2020-06-30_14h40.52.376,proactive,2020.1.2,Win32,60,5efb791ed4cb570da489e737,5efb8712acf56b109b772ba4,5,,,,,,ring,,,,,,,,,,,6,1,0,7,7,50,1,,,,,,,,,,,,,,,,,,,,,,,,,,,,,,,,,,,,,,,,,,,,,,,,,,,,,,,,,,,,,,,,,,,,,,
,,?,0.002165,0,,,,,,stimuli/images/PICTURE_33.png,FRIEND,5ed2bf022955ea23fb3c964c,2020-06-30_14h40.52.376,proactive,2020.1.2,Win32,60,5efb791ed4cb570da489e737,5efb8712acf56b109b772ba4,5,,,,,,frame,,,,,,,,,,,1,1,0,8,8,8,1,,,,,,,,,,,,,,,,,,,,,,,,,,,,,,,,,,,,,,,,,,,,,,,,,,,,,,,,,,,,,,,,,,,,,,
,,?,0.00057,0,,,,,,stimuli/images/PICTURE_383.png,WRITER,5ed2bf022955ea23fb3c964c,2020-06-30_14h40.52.376,proactive,2020.1.2,Win32,60,5efb791ed4cb570da489e737,5efb8712acf56b109b772ba4,5,,,,,,coin,,,,,,,,,,,3,1,0,9,9,28,1,,,,,,,,,,,,,,,,,,,,,,,,,,,,,,,,,,,,,,,,,,,,,,,,,,,,,,,,,,,,,,,,,,,,,,
,,?,0.00058,0,,,,,,stimuli/images/PICTURE_491.png,RIVER,5ed2bf022955ea23fb3c964c,2020-06-30_14h40.52.376,proactive,2020.1.2,Win32,60,5efb791ed4cb570da489e737,5efb8712acf56b109b772ba4,5,,,,,,rug,,,,,,,,,,,1,1,0,10,10,6,1,,,,,,,,,,,,,,,,,,,,,,,,,,,,,,,,,,,,,,,,,,,,,,,,,,,,,,,,,,,,,,,,,,,,,,
,,?,0.00052,0,,,,,,stimuli/images/PICTURE_449.png,DUDE,5ed2bf022955ea23fb3c964c,2020-06-30_14h40.52.376,proactive,2020.1.2,Win32,60,5efb791ed4cb570da489e737,5efb8712acf56b109b772ba4,5,,,,,,bench,,,,,,,,,,,2,1,0,11,11,17,1,,,,,,,,,,,,,,,,,,,,,,,,,,,,,,,,,,,,,,,,,,,,,,,,,,,,,,,,,,,,,,,,,,,,,,
,,?,0.000905,0,,,,,,stimuli/images/PICTURE_68.png,MILE,5ed2bf022955ea23fb3c964c,2020-06-30_14h40.52.376,proactive,2020.1.2,Win32,60,5efb791ed4cb570da489e737,5efb8712acf56b109b772ba4,5,,,,,,candle,,,,,,,,,,,6,1,0,12,12,51,1,,,,,,,,,,,,,,,,,,,,,,,,,,,,,,,,,,,,,,,,,,,,,,,,,,,,,,,,,,,,,,,,,,,,,,
,,?,0.000615,0,,,,,,stimuli/images/PICTURE_380.png,HONEY,5ed2bf022955ea23fb3c964c,2020-06-30_14h40.52.376,proactive,2020.1.2,Win32,60,5efb791ed4cb570da489e737,5efb8712acf56b109b772ba4,5,,,,,,gorilla,,,,,,,,,,,2,1,0,13,13,19,1,,,,,,,,,,,,,,,,,,,,,,,,,,,,,,,,,,,,,,,,,,,,,,,,,,,,,,,,,,,,,,,,,,,,,,
,,?,0.000545,0,,,,,,stimuli/images/PICTURE_57.png,MOMENT,5ed2bf022955ea23fb3c964c,2020-06-30_14h40.52.376,proactive,2020.1.2,Win32,60,5efb791ed4cb570da489e737,5efb8712acf56b109b772ba4,5,,,,,,stamp,,,,,,,,,,,4,1,0,14,14,37,1,,,,,,,,,,,,,,,,,,,,,,,,,,,,,,,,,,,,,,,,,,,,,,,,,,,,,,,,,,,,,,,,,,,,,,
,,?,0.00102,0,,,,,,stimuli/images/PICTURE_203.png,GODS,5ed2bf022955ea23fb3c964c,2020-06-30_14h40.52.376,proactive,2020.1.2,Win32,60,5efb791ed4cb570da489e737,5efb8712acf56b109b772ba4,5,,,,,,cap,,,,,,,,,,,4,1,0,15,15,30,1,,,,,,,,,,,,,,,,,,,,,,,,,,,,,,,,,,,,,,,,,,,,,,,,,,,,,,,,,,,,,,,,,,,,,,
,,SELL,1.698145,0,,,,,,stimuli/images/PICTURE_504.png,ARTIST,5ed2bf022955ea23fb3c964c,2020-06-30_14h40.52.376,proactive,2020.1.2,Win32,60,5efb791ed4cb570da489e737,5efb8712acf56b109b772ba4,5,,,,,,wheel,,,,,,,,,,,5,1,0,16,16,49,1,,,,,,,,,,,,,,,,,,,,,,,,,,,,,,,,,,,,,,,,,,,,,,,,,,,,,,,,,,,,,,,,,,,,,,
,,?,0.00078,0,,,,,,stimuli/images/PICTURE_95.png,MILLER,5ed2bf022955ea23fb3c964c,2020-06-30_14h40.52.376,proactive,2020.1.2,Win32,60,5efb791ed4cb570da489e737,5efb8712acf56b109b772ba4,5,,,,,,suitcase,,,,,,,,,,,6,1,0,17,17,56,1,,,,,,,,,,,,,,,,,,,,,,,,,,,,,,,,,,,,,,,,,,,,,,,,,,,,,,,,,,,,,,,,,,,,,,
,,?,0.00065,0,,,,,,stimuli/images/PICTURE_405.png,PLENTY,5ed2bf022955ea23fb3c964c,2020-06-30_14h40.52.376,proactive,2020.1.2,Win32,60,5efb791ed4cb570da489e737,5efb8712acf56b109b772ba4,5,,,,,,anchor,,,,,,,,,,,3,1,0,18,18,23,1,,,,,,,,,,,,,,,,,,,,,,,,,,,,,,,,,,,,,,,,,,,,,,,,,,,,,,,,,,,,,,,,,,,,,,
,,?,0.00057,0,,,,,,stimuli/images/PICTURE_32.png,PILLS,5ed2bf022955ea23fb3c964c,2020-06-30_14h40.52.376,proactive,2020.1.2,Win32,60,5efb791ed4cb570da489e737,5efb8712acf56b109b772ba4,5,,,,,,crown,,,,,,,,,,,2,1,0,19,19,18,1,,,,,,,,,,,,,,,,,,,,,,,,,,,,,,,,,,,,,,,,,,,,,,,,,,,,,,,,,,,,,,,,,,,,,,
,,RIVER,1.42785,1,,,,,,stimuli/images/PICTURE_403.png,RIVER,5ed2bf022955ea23fb3c964c,2020-06-30_14h40.52.376,proactive,2020.1.2,Win32,60,5efb791ed4cb570da489e737,5efb8712acf56b109b772ba4,5,,,,,,cathedral,,,,,,,,,,,5,1,0,20,20,40,1,,,,,,,,,,,,,,,,,,,,,,,,,,,,,,,,,,,,,,,,,,,,,,,,,,,,,,,,,,,,,,,,,,,,,,
,,?,0.00087,0,,,,,,stimuli/images/PICTURE_467.png,POLICY,5ed2bf022955ea23fb3c964c,2020-06-30_14h40.52.376,proactive,2020.1.2,Win32,60,5efb791ed4cb570da489e737,5efb8712acf56b109b772ba4,5,,,,,,peg,,,,,,,,,,,6,1,0,21,21,53,1,,,,,,,,,,,,,,,,,,,,,,,,,,,,,,,,,,,,,,,,,,,,,,,,,,,,,,,,,,,,,,,,,,,,,,
,,TOILET,1.380535,1,,,,,,stimuli/images/PICTURE_85.png,TOILET,5ed2bf022955ea23fb3c964c,2020-06-30_14h40.52.376,proactive,2020.1.2,Win32,60,5efb791ed4cb570da489e737,5efb8712acf56b109b772ba4,5,,,,,,diamond,,,,,,,,,,,5,1,0,22,22,48,1,,,,,,,,,,,,,,,,,,,,,,,,,,,,,,,,,,,,,,,,,,,,,,,,,,,,,,,,,,,,,,,,,,,,,,
,,SALE,1.482675,1,,,,,,stimuli/images/PICTURE_675.png,SALE,5ed2bf022955ea23fb3c964c,2020-06-30_14h40.52.376,proactive,2020.1.2,Win32,60,5efb791ed4cb570da489e737,5efb8712acf56b109b772ba4,5,,,,,,windmill,,,,,,,,,,,5,1,0,23,23,47,1,,,,,,,,,,,,,,,,,,,,,,,,,,,,,,,,,,,,,,,,,,,,,,,,,,,,,,,,,,,,,,,,,,,,,,
,,?,0.000745,0,,,,,,stimuli/images/PICTURE_308.png,FAMILY,5ed2bf022955ea23fb3c964c,2020-06-30_14h40.52.376,proactive,2020.1.2,Win32,60,5efb791ed4cb570da489e737,5efb8712acf56b109b772ba4,5,,,,,,dice,,,,,,,,,,,4,1,0,24,24,36,1,,,,,,,,,,,,,,,,,,,,,,,,,,,,,,,,,,,,,,,,,,,,,,,,,,,,,,,,,,,,,,,,,,,,,,
,,?,0.000555,0,,,,,,stimuli/images/PICTURE_327.png,CASINO,5ed2bf022955ea23fb3c964c,2020-06-30_14h40.52.376,proactive,2020.1.2,Win32,60,5efb791ed4cb570da489e737,5efb8712acf56b109b772ba4,5,,,,,,helmet,,,,,,,,,,,3,1,0,25,25,20,1,,,,,,,,,,,,,,,,,,,,,,,,,,,,,,,,,,,,,,,,,,,,,,,,,,,,,,,,,,,,,,,,,,,,,,
,,?,0.00051,0,,,,,,stimuli/images/PICTURE_403.png,TOILET,5ed2bf022955ea23fb3c964c,2020-06-30_14h40.52.376,proactive,2020.1.2,Win32,60,5efb791ed4cb570da489e737,5efb8712acf56b109b772ba4,5,,,,,,cathedral,,,,,,,,,,,3,1,0,26,26,25,1,,,,,,,,,,,,,,,,,,,,,,,,,,,,,,,,,,,,,,,,,,,,,,,,,,,,,,,,,,,,,,,,,,,,,,
,,?,0.00051,0,,,,,,stimuli/images/PICTURE_685.png,PENNY,5ed2bf022955ea23fb3c964c,2020-06-30_14h40.52.376,proactive,2020.1.2,Win32,60,5efb791ed4cb570da489e737,5efb8712acf56b109b772ba4,5,,,,,,goose,,,,,,,,,,,1,1,0,27,27,4,1,,,,,,,,,,,,,,,,,,,,,,,,,,,,,,,,,,,,,,,,,,,,,,,,,,,,,,,,,,,,,,,,,,,,,,
,,?,0.00052,0,,,,,,stimuli/images/PICTURE_469.png,AGENT,5ed2bf022955ea23fb3c964c,2020-06-30_14h40.52.376,proactive,2020.1.2,Win32,60,5efb791ed4cb570da489e737,5efb8712acf56b109b772ba4,5,,,,,,stool,,,,,,,,,,,2,1,0,28,28,16,1,,,,,,,,,,,,,,,,,,,,,,,,,,,,,,,,,,,,,,,,,,,,,,,,,,,,,,,,,,,,,,,,,,,,,,
,,?,0.0005,0,,,,,,stimuli/images/PICTURE_68.png,ROOF,5ed2bf022955ea23fb3c964c,2020-06-30_14h40.52.376,proactive,2020.1.2,Win32,60,5efb791ed4cb570da489e737,5efb8712acf56b109b772ba4,5,,,,,,candle,,,,,,,,,,,4,1,0,29,29,38,1,,,,,,,,,,,,,,,,,,,,,,,,,,,,,,,,,,,,,,,,,,,,,,,,,,,,,,,,,,,,,,,,,,,,,,
,,?,0.00051,0,,,,,,stimuli/images/PICTURE_147.png,WOMEN,5ed2bf022955ea23fb3c964c,2020-06-30_14h40.52.376,proactive,2020.1.2,Win32,60,5efb791ed4cb570da489e737,5efb8712acf56b109b772ba4,5,,,,,,hanger,,,,,,,,,,,1,1,0,30,30,7,1,,,,,,,,,,,,,,,,,,,,,,,,,,,,,,,,,,,,,,,,,,,,,,,,,,,,,,,,,,,,,,,,,,,,,,
,,?,0.001005,0,,,,,,stimuli/images/PICTURE_380.png,CANDY,5ed2bf022955ea23fb3c964c,2020-06-30_14h40.52.376,proactive,2020.1.2,Win32,60,5efb791ed4cb570da489e737,5efb8712acf56b109b772ba4,5,,,,,,gorilla,,,,,,,,,,,1,1,0,31,31,0,1,,,,,,,,,,,,,,,,,,,,,,,,,,,,,,,,,,,,,,,,,,,,,,,,,,,,,,,,,,,,,,,,,,,,,,
,,?,0.00097,0,,,,,,stimuli/images/PICTURE_340.png,VALLEY,5ed2bf022955ea23fb3c964c,2020-06-30_14h40.52.376,proactive,2020.1.2,Win32,60,5efb791ed4cb570da489e737,5efb8712acf56b109b772ba4,5,,,,,,mirror,,,,,,,,,,,6,1,0,32,32,54,1,,,,,,,,,,,,,,,,,,,,,,,,,,,,,,,,,,,,,,,,,,,,,,,,,,,,,,,,,,,,,,,,,,,,,,
,,?,0.00111,0,,,,,,stimuli/images/PICTURE_564.png,BATH,5ed2bf022955ea23fb3c964c,2020-06-30_14h40.52.376,proactive,2020.1.2,Win32,60,5efb791ed4cb570da489e737,5efb8712acf56b109b772ba4,5,,,,,,spoon,,,,,,,,,,,3,1,0,33,33,26,1,,,,,,,,,,,,,,,,,,,,,,,,,,,,,,,,,,,,,,,,,,,,,,,,,,,,,,,,,,,,,,,,,,,,,,
,,?,0.000715,0,,,,,,stimuli/images/PICTURE_504.png,YEAR,5ed2bf022955ea23fb3c964c,2020-06-30_14h40.52.376,proactive,2020.1.2,Win32,60,5efb791ed4cb570da489e737,5efb8712acf56b109b772ba4,5,,,,,,wheel,,,,,,,,,,,2,1,0,34,34,13,1,,,,,,,,,,,,,,,,,,,,,,,,,,,,,,,,,,,,,,,,,,,,,,,,,,,,,,,,,,,,,,,,,,,,,,
,,?,0.000585,0,,,,,,stimuli/images/PICTURE_750.png,HOTEL,5ed2bf022955ea23fb3c964c,2020-06-30_14h40.52.376,proactive,2020.1.2,Win32,60,5efb791ed4cb570da489e737,5efb8712acf56b109b772ba4,5,,,,,,kettle,,,,,,,,,,,3,1,0,35,35,27,1,,,,,,,,,,,,,,,,,,,,,,,,,,,,,,,,,,,,,,,,,,,,,,,,,,,,,,,,,,,,,,,,,,,,,,
,,?,0.00053,0,,,,,,stimuli/images/PICTURE_405.png,YEAR,5ed2bf022955ea23fb3c964c,2020-06-30_14h40.52.376,proactive,2020.1.2,Win32,60,5efb791ed4cb570da489e737,5efb8712acf56b109b772ba4,5,,,,,,anchor,,,,,,,,,,,4,1,0,36,36,34,1,,,,,,,,,,,,,,,,,,,,,,,,,,,,,,,,,,,,,,,,,,,,,,,,,,,,,,,,,,,,,,,,,,,,,,
,,WATER,3.5228,0,,,,,,stimuli/images/PICTURE_95.png,HONEY,5ed2bf022955ea23fb3c964c,2020-06-30_14h40.52.376,proactive,2020.1.2,Win32,60,5efb791ed4cb570da489e737,5efb8712acf56b109b772ba4,5,,,,,,suitcase,,,,,,,,,,,5,1,0,37,37,44,1,,,,,,,,,,,,,,,,,,,,,,,,,,,,,,,,,,,,,,,,,,,,,,,,,,,,,,,,,,,,,,,,,,,,,,
,,?,0.000745,0,,,,,,stimuli/images/PICTURE_208.png,SYSTEM,5ed2bf022955ea23fb3c964c,2020-06-30_14h40.52.376,proactive,2020.1.2,Win32,60,5efb791ed4cb570da489e737,5efb8712acf56b109b772ba4,5,,,,,,microphone,,,,,,,,,,,4,1,0,38,38,32,1,,,,,,,,,,,,,,,,,,,,,,,,,,,,,,,,,,,,,,,,,,,,,,,,,,,,,,,,,,,,,,,,,,,,,,
,,?,0.00049,0,,,,,,stimuli/images/PICTURE_340.png,LETTER,5ed2bf022955ea23fb3c964c,2020-06-30_14h40.52.376,proactive,2020.1.2,Win32,60,5efb791ed4cb570da489e737,5efb8712acf56b109b772ba4,5,,,,,,mirror,,,,,,,,,,,3,1,0,39,39,24,1,,,,,,,,,,,,,,,,,,,,,,,,,,,,,,,,,,,,,,,,,,,,,,,,,,,,,,,,,,,,,,,,,,,,,,
,,?,0.000545,0,,,,,,stimuli/images/PICTURE_667.png,RIVER,5ed2bf022955ea23fb3c964c,2020-06-30_14h40.52.376,proactive,2020.1.2,Win32,60,5efb791ed4cb570da489e737,5efb8712acf56b109b772ba4,5,,,,,,daisy,,,,,,,,,,,2,1,0,40,40,10,1,,,,,,,,,,,,,,,,,,,,,,,,,,,,,,,,,,,,,,,,,,,,,,,,,,,,,,,,,,,,,,,,,,,,,,
,,?,0.000525,0,,,,,,stimuli/images/PICTURE_203.png,NIGHT,5ed2bf022955ea23fb3c964c,2020-06-30_14h40.52.376,proactive,2020.1.2,Win32,60,5efb791ed4cb570da489e737,5efb8712acf56b109b772ba4,5,,,,,,cap,,,,,,,,,,,1,1,0,41,41,2,1,,,,,,,,,,,,,,,,,,,,,,,,,,,,,,,,,,,,,,,,,,,,,,,,,,,,,,,,,,,,,,,,,,,,,,
,,?,0.000525,0,,,,,,stimuli/images/PICTURE_42.png,BOYS,5ed2bf022955ea23fb3c964c,2020-06-30_14h40.52.376,proactive,2020.1.2,Win32,60,5efb791ed4cb570da489e737,5efb8712acf56b109b772ba4,5,,,,,,pear,,,,,,,,,,,6,1,0,42,42,55,1,,,,,,,,,,,,,,,,,,,,,,,,,,,,,,,,,,,,,,,,,,,,,,,,,,,,,,,,,,,,,,,,,,,,,,
,,?,0.00049,0,,,,,,stimuli/images/PICTURE_108.png,FLIGHT,5ed2bf022955ea23fb3c964c,2020-06-30_14h40.52.376,proactive,2020.1.2,Win32,60,5efb791ed4cb570da489e737,5efb8712acf56b109b772ba4,5,,,,,,calendar,,,,,,,,,,,6,1,0,43,43,59,1,,,,,,,,,,,,,,,,,,,,,,,,,,,,,,,,,,,,,,,,,,,,,,,,,,,,,,,,,,,,,,,,,,,,,,
,,?,0.000985,0,,,,,,stimuli/images/PICTURE_708.png,RECORD,5ed2bf022955ea23fb3c964c,2020-06-30_14h40.52.376,proactive,2020.1.2,Win32,60,5efb791ed4cb570da489e737,5efb8712acf56b109b772ba4,5,,,,,,monkey,,,,,,,,,,,6,1,0,44,44,58,1,,,,,,,,,,,,,,,,,,,,,,,,,,,,,,,,,,,,,,,,,,,,,,,,,,,,,,,,,,,,,,,,,,,,,,
,,?,0.000745,0,,,,,,stimuli/images/PICTURE_504.png,COPS,5ed2bf022955ea23fb3c964c,2020-06-30_14h40.52.376,proactive,2020.1.2,Win32,60,5efb791ed4cb570da489e737,5efb8712acf56b109b772ba4,5,,,,,,wheel,,,,,,,,,,,6,1,0,45,45,52,1,,,,,,,,,,,,,,,,,,,,,,,,,,,,,,,,,,,,,,,,,,,,,,,,,,,,,,,,,,,,,,,,,,,,,,
,,?,0.000565,0,,,,,,stimuli/images/PICTURE_654.png,MONTH,5ed2bf022955ea23fb3c964c,2020-06-30_14h40.52.376,proactive,2020.1.2,Win32,60,5efb791ed4cb570da489e737,5efb8712acf56b109b772ba4,5,,,,,,pencil,,,,,,,,,,,3,1,0,46,46,29,1,,,,,,,,,,,,,,,,,,,,,,,,,,,,,,,,,,,,,,,,,,,,,,,,,,,,,,,,,,,,,,,,,,,,,,
,,?,0.000795,0,,,,,,stimuli/images/PICTURE_147.png,YEAR,5ed2bf022955ea23fb3c964c,2020-06-30_14h40.52.376,proactive,2020.1.2,Win32,60,5efb791ed4cb570da489e737,5efb8712acf56b109b772ba4,5,,,,,,hanger,,,,,,,,,,,3,1,0,47,47,21,1,,,,,,,,,,,,,,,,,,,,,,,,,,,,,,,,,,,,,,,,,,,,,,,,,,,,,,,,,,,,,,,,,,,,,,
,,?,0.00128,0,,,,,,stimuli/images/PICTURE_296.png,LIFE,5ed2bf022955ea23fb3c964c,2020-06-30_14h40.52.376,proactive,2020.1.2,Win32,60,5efb791ed4cb570da489e737,5efb8712acf56b109b772ba4,5,,,,,,bolt,,,,,,,,,,,6,1,0,48,48,57,1,,,,,,,,,,,,,,,,,,,,,,,,,,,,,,,,,,,,,,,,,,,,,,,,,,,,,,,,,,,,,,,,,,,,,,
,,?,0.00081,0,,,,,,stimuli/images/PICTURE_85.png,NATION,5ed2bf022955ea23fb3c964c,2020-06-30_14h40.52.376,proactive,2020.1.2,Win32,60,5efb791ed4cb570da489e737,5efb8712acf56b109b772ba4,5,,,,,,diamond,,,,,,,,,,,1,1,0,49,49,5,1,,,,,,,,,,,,,,,,,,,,,,,,,,,,,,,,,,,,,,,,,,,,,,,,,,,,,,,,,,,,,,,,,,,,,,
,,?,0.00094,0,,,,,,stimuli/images/PICTURE_2.png,FLIGHT,5ed2bf022955ea23fb3c964c,2020-06-30_14h40.52.376,proactive,2020.1.2,Win32,60,5efb791ed4cb570da489e737,5efb8712acf56b109b772ba4,5,,,,,,tyre,,,,,,,,,,,2,1,0,50,50,15,1,,,,,,,,,,,,,,,,,,,,,,,,,,,,,,,,,,,,,,,,,,,,,,,,,,,,,,,,,,,,,,,,,,,,,,
,,APPLE,1.359865,1,,,,,,stimuli/images/PICTURE_677.png,APPLE,5ed2bf022955ea23fb3c964c,2020-06-30_14h40.52.376,proactive,2020.1.2,Win32,60,5efb791ed4cb570da489e737,5efb8712acf56b109b772ba4,5,,,,,,map,,,,,,,,,,,5,1,0,51,51,43,1,,,,,,,,,,,,,,,,,,,,,,,,,,,,,,,,,,,,,,,,,,,,,,,,,,,,,,,,,,,,,,,,,,,,,,
,,?,0.00088,0,,,,,,stimuli/images/PICTURE_655.png,TOILET,5ed2bf022955ea23fb3c964c,2020-06-30_14h40.52.376,proactive,2020.1.2,Win32,60,5efb791ed4cb570da489e737,5efb8712acf56b109b772ba4,5,,,,,,megaphone,,,,,,,,,,,2,1,0,52,52,12,1,,,,,,,,,,,,,,,,,,,,,,,,,,,,,,,,,,,,,,,,,,,,,,,,,,,,,,,,,,,,,,,,,,,,,,
,,?,0.000735,0,,,,,,stimuli/images/PICTURE_403.png,WRITER,5ed2bf022955ea23fb3c964c,2020-06-30_14h40.52.376,proactive,2020.1.2,Win32,60,5efb791ed4cb570da489e737,5efb8712acf56b109b772ba4,5,,,,,,cathedral,,,,,,,,,,,4,1,0,53,53,31,1,,,,,,,,,,,,,,,,,,,,,,,,,,,,,,,,,,,,,,,,,,,,,,,,,,,,,,,,,,,,,,,,,,,,,,
,,?,0.000745,0,,,,,,stimuli/images/PICTURE_491.png,GLASS,5ed2bf022955ea23fb3c964c,2020-06-30_14h40.52.376,proactive,2020.1.2,Win32,60,5efb791ed4cb570da489e737,5efb8712acf56b109b772ba4,5,,,,,,rug,,,,,,,,,,,2,1,0,54,54,14,1,,,,,,,,,,,,,,,,,,,,,,,,,,,,,,,,,,,,,,,,,,,,,,,,,,,,,,,,,,,,,,,,,,,,,,
,,?,0.000695,0,,,,,,stimuli/images/PICTURE_297.png,RIVER,5ed2bf022955ea23fb3c964c,2020-06-30_14h40.52.376,proactive,2020.1.2,Win32,60,5efb791ed4cb570da489e737,5efb8712acf56b109b772ba4,5,,,,,,aeroplane,,,,,,,,,,,4,1,0,55,55,39,1,,,,,,,,,,,,,,,,,,,,,,,,,,,,,,,,,,,,,,,,,,,,,,,,,,,,,,,,,,,,,,,,,,,,,,
,,?,0.000665,0,,,,,,stimuli/images/PICTURE_32.png,KIND,5ed2bf022955ea23fb3c964c,2020-06-30_14h40.52.376,proactive,2020.1.2,Win32,60,5efb791ed4cb570da489e737,5efb8712acf56b109b772ba4,5,,,,,,crown,,,,,,,,,,,4,1,0,56,56,35,1,,,,,,,,,,,,,,,,,,,,,,,,,,,,,,,,,,,,,,,,,,,,,,,,,,,,,,,,,,,,,,,,,,,,,,
,,?,0.000795,0,,,,,,stimuli/images/PICTURE_327.png,SERIES,5ed2bf022955ea23fb3c964c,2020-06-30_14h40.52.376,proactive,2020.1.2,Win32,60,5efb791ed4cb570da489e737,5efb8712acf56b109b772ba4,5,,,,,,helmet,,,,,,,,,,,1,1,0,57,57,3,1,,,,,,,,,,,,,,,,,,,,,,,,,,,,,,,,,,,,,,,,,,,,,,,,,,,,,,,,,,,,,,,,,,,,,,
,,SERIES,3.93837,1,,,,,,stimuli/images/PICTURE_383.png,SERIES,5ed2bf022955ea23fb3c964c,2020-06-30_14h40.52.376,proactive,2020.1.2,Win32,60,5efb791ed4cb570da489e737,5efb8712acf56b109b772ba4,5,,,,,,coin,,,,,,,,,,,5,1,0,58,58,46,1,,,,,,,,,,,,,,,,,,,,,,,,,,,,,,,,,,,,,,,,,,,,,,,,,,,,,,,,,,,,,,,,,,,,,,
,,?,0.00101,0,,,,,,stimuli/images/PICTURE_108.png,POLICY,5ed2bf022955ea23fb3c964c,2020-06-30_14h40.52.376,proactive,2020.1.2,Win32,60,5efb791ed4cb570da489e737,5efb8712acf56b109b772ba4,5,,,,,,calendar,,,,,,,,,,,3,1,0,59,59,22,1,,,,,,,,,,,,,,,,,,,,,,,,,,,,,,,,,,,,,,,,,,,,,,,,,,,,,,,,,,,,,,,,,,,,,,
,,,,,,,,,,,,5ed2bf022955ea23fb3c964c,2020-06-30_14h40.52.376,proactive,2020.1.2,Win32,60,5efb791ed4cb570da489e737,5efb8712acf56b109b772ba4,5,,,,,,,,,,,,,,,,,,,,,,,,0,0,0,1,1,stimuli/learn-block2.csv,,,,,,,,,,,,,,,,,,,,,,,,,,,,,,,,,,,,,,,,,,,,,,,,,,,,,,,,,,,,,,,,
,,,,,,,,,,stimuli/images/PICTURE_405.png,JUNGLE,5ed2bf022955ea23fb3c964c,2020-06-30_14h40.52.376,proactive,2020.1.2,Win32,60,5efb791ed4cb570da489e737,5efb8712acf56b109b772ba4,5,,,,,,anchor,,,,,,0,0,0,58,1,6,2,,,,,,,,,,,,,,,,,,,,,,,,,,,,,,,,,,,,,,,,,,,,,,,,,,,,,,,,,,,,,,,,,,,,,,,,,,,
,,,,,,,,,,stimuli/images/PICTURE_692.png,DUDE,5ed2bf022955ea23fb3c964c,2020-06-30_14h40.52.376,proactive,2020.1.2,Win32,60,5efb791ed4cb570da489e737,5efb8712acf56b109b772ba4,5,,,,,,cherry,,,,,,0,1,1,47,1,5,2,,,,,,,,,,,,,,,,,,,,,,,,,,,,,,,,,,,,,,,,,,,,,,,,,,,,,,,,,,,,,,,,,,,,,,,,,,,
,,,,,,,,,,stimuli/images/PICTURE_314.png,SPEECH,5ed2bf022955ea23fb3c964c,2020-06-30_14h40.52.376,proactive,2020.1.2,Win32,60,5efb791ed4cb570da489e737,5efb8712acf56b109b772ba4,5,,,,,,perfume,,,,,,0,2,2,35,1,4,2,,,,,,,,,,,,,,,,,,,,,,,,,,,,,,,,,,,,,,,,,,,,,,,,,,,,,,,,,,,,,,,,,,,,,,,,,,,
,,,,,,,,,,stimuli/images/PICTURE_677.png,FAMILY,5ed2bf022955ea23fb3c964c,2020-06-30_14h40.52.376,proactive,2020.1.2,Win32,60,5efb791ed4cb570da489e737,5efb8712acf56b109b772ba4,5,,,,,,map,,,,,,0,3,3,53,1,6,2,,,,,,,,,,,,,,,,,,,,,,,,,,,,,,,,,,,,,,,,,,,,,,,,,,,,,,,,,,,,,,,,,,,,,,,,,,,
,,,,,,,,,,stimuli/images/PICTURE_177.png,HOUSE,5ed2bf022955ea23fb3c964c,2020-06-30_14h40.52.376,proactive,2020.1.2,Win32,60,5efb791ed4cb570da489e737,5efb8712acf56b109b772ba4,5,,,,,,mushroom,,,,,,0,4,4,25,1,3,2,,,,,,,,,,,,,,,,,,,,,,,,,,,,,,,,,,,,,,,,,,,,,,,,,,,,,,,,,,,,,,,,,,,,,,,,,,,
,,,,,,,,,,stimuli/images/PICTURE_654.png,YEAR,5ed2bf022955ea23fb3c964c,2020-06-30_14h40.52.376,proactive,2020.1.2,Win32,60,5efb791ed4cb570da489e737,5efb8712acf56b109b772ba4,5,,,,,,pencil,,,,,,0,5,5,41,1,5,2,,,,,,,,,,,,,,,,,,,,,,,,,,,,,,,,,,,,,,,,,,,,,,,,,,,,,,,,,,,,,,,,,,,,,,,,,,,
,,,,,,,,,,stimuli/images/PICTURE_311.png,FLESH,5ed2bf022955ea23fb3c964c,2020-06-30_14h40.52.376,proactive,2020.1.2,Win32,60,5efb791ed4cb570da489e737,5efb8712acf56b109b772ba4,5,,,,,,razor,,,,,,0,6,6,3,1,1,2,,,,,,,,,,,,,,,,,,,,,,,,,,,,,,,,,,,,,,,,,,,,,,,,,,,,,,,,,,,,,,,,,,,,,,,,,,,
,,,,,,,,,,stimuli/images/PICTURE_452.png,COPS,5ed2bf022955ea23fb3c964c,2020-06-30_14h40.52.376,proactive,2020.1.2,Win32,60,5efb791ed4cb570da489e737,5efb8712acf56b109b772ba4,5,,,,,,watch,,,,,,0,7,7,0,1,1,2,,,,,,,,,,,,,,,,,,,,,,,,,,,,,,,,,,,,,,,,,,,,,,,,,,,,,,,,,,,,,,,,,,,,,,,,,,,
,,,,,,,,,,stimuli/images/PICTURE_708.png,VALLEY,5ed2bf022955ea23fb3c964c,2020-06-30_14h40.52.376,proactive,2020.1.2,Win32,60,5efb791ed4cb570da489e737,5efb8712acf56b109b772ba4,5,,,,,,monkey,,,,,,0,8,8,45,1,5,2,,,,,,,,,,,,,,,,,,,,,,,,,,,,,,,,,,,,,,,,,,,,,,,,,,,,,,,,,,,,,,,,,,,,,,,,,,,
,,,,,,,,,,stimuli/images/PICTURE_57.png,NATION,5ed2bf022955ea23fb3c964c,2020-06-30_14h40.52.376,proactive,2020.1.2,Win32,60,5efb791ed4cb570da489e737,5efb8712acf56b109b772ba4,5,,,,,,stamp,,,,,,0,9,9,21,1,3,2,,,,,,,,,,,,,,,,,,,,,,,,,,,,,,,,,,,,,,,,,,,,,,,,,,,,,,,,,,,,,,,,,,,,,,,,,,,
,,,,,,,,,,stimuli/images/PICTURE_509.png,SHOTS,5ed2bf022955ea23fb3c964c,2020-06-30_14h40.52.376,proactive,2020.1.2,Win32,60,5efb791ed4cb570da489e737,5efb8712acf56b109b772ba4,5,,,,,,telephone,,,,,,0,10,10,7,1,1,2,,,,,,,,,,,,,,,,,,,,,,,,,,,,,,,,,,,,,,,,,,,,,,,,,,,,,,,,,,,,,,,,,,,,,,,,,,,
,,,,,,,,,,stimuli/images/PICTURE_405.png,HOUSE,5ed2bf022955ea23fb3c964c,2020-06-30_14h40.52.376,proactive,2020.1.2,Win32,60,5efb791ed4cb570da489e737,5efb8712acf56b109b772ba4,5,,,,,,anchor,,,,,,0,11,11,2,1,1,2,,,,,,,,,,,,,,,,,,,,,,,,,,,,,,,,,,,,,,,,,,,,,,,,,,,,,,,,,,,,,,,,,,,,,,,,,,,
,,,,,,,,,,stimuli/images/PICTURE_255.png,PENNY,5ed2bf022955ea23fb3c964c,2020-06-30_14h40.52.376,proactive,2020.1.2,Win32,60,5efb791ed4cb570da489e737,5efb8712acf56b109b772ba4,5,,,,,,shovel,,,,,,0,12,12,19,1,2,2,,,,,,,,,,,,,,,,,,,,,,,,,,,,,,,,,,,,,,,,,,,,,,,,,,,,,,,,,,,,,,,,,,,,,,,,,,,
,,,,,,,,,,stimuli/images/PICTURE_356.png,CANDY,5ed2bf022955ea23fb3c964c,2020-06-30_14h40.52.376,proactive,2020.1.2,Win32,60,5efb791ed4cb570da489e737,5efb8712acf56b109b772ba4,5,,,,,,pawn,,,,,,0,13,13,46,1,5,2,,,,,,,,,,,,,,,,,,,,,,,,,,,,,,,,,,,,,,,,,,,,,,,,,,,,,,,,,,,,,,,,,,,,,,,,,,,
,,,,,,,,,,stimuli/images/PICTURE_564.png,PLENTY,5ed2bf022955ea23fb3c964c,2020-06-30_14h40.52.376,proactive,2020.1.2,Win32,60,5efb791ed4cb570da489e737,5efb8712acf56b109b772ba4,5,,,,,,spoon,,,,,,0,14,14,11,1,2,2,,,,,,,,,,,,,,,,,,,,,,,,,,,,,,,,,,,,,,,,,,,,,,,,,,,,,,,,,,,,,,,,,,,,,,,,,,,
,,,,,,,,,,stimuli/images/PICTURE_750.png,POLICY,5ed2bf022955ea23fb3c964c,2020-06-30_14h40.52.376,proactive,2020.1.2,Win32,60,5efb791ed4cb570da489e737,5efb8712acf56b109b772ba4,5,,,,,,kettle,,,,,,0,15,15,44,1,5,2,,,,,,,,,,,,,,,,,,,,,,,,,,,,,,,,,,,,,,,,,,,,,,,,,,,,,,,,,,,,,,,,,,,,,,,,,,,
,,,,,,,,,,stimuli/images/PICTURE_487.png,ROOF,5ed2bf022955ea23fb3c964c,2020-06-30_14h40.52.376,proactive,2020.1.2,Win32,60,5efb791ed4cb570da489e737,5efb8712acf56b109b772ba4,5,,,,,,basket,,,,,,0,16,16,50,1,6,2,,,,,,,,,,,,,,,,,,,,,,,,,,,,,,,,,,,,,,,,,,,,,,,,,,,,,,,,,,,,,,,,,,,,,,,,,,,
,,,,,,,,,,stimuli/images/PICTURE_141.png,CLIENT,5ed2bf022955ea23fb3c964c,2020-06-30_14h40.52.376,proactive,2020.1.2,Win32,60,5efb791ed4cb570da489e737,5efb8712acf56b109b772ba4,5,,,,,,sunflower,,,,,,0,17,17,30,1,4,2,,,,,,,,,,,,,,,,,,,,,,,,,,,,,,,,,,,,,,,,,,,,,,,,,,,,,,,,,,,,,,,,,,,,,,,,,,,
,,,,,,,,,,stimuli/images/PICTURE_123.png,SALE,5ed2bf022955ea23fb3c964c,2020-06-30_14h40.52.376,proactive,2020.1.2,Win32,60,5efb791ed4cb570da489e737,5efb8712acf56b109b772ba4,5,,,,,,dart,,,,,,0,18,18,8,1,1,2,,,,,,,,,,,,,,,,,,,,,,,,,,,,,,,,,,,,,,,,,,,,,,,,,,,,,,,,,,,,,,,,,,,,,,,,,,,
,,,,,,,,,,stimuli/images/PICTURE_470.png,MOMENT,5ed2bf022955ea23fb3c964c,2020-06-30_14h40.52.376,proactive,2020.1.2,Win32,60,5efb791ed4cb570da489e737,5efb8712acf56b109b772ba4,5,,,,,,motorbike,,,,,,0,19,19,40,1,5,2,,,,,,,,,,,,,,,,,,,,,,,,,,,,,,,,,,,,,,,,,,,,,,,,,,,,,,,,,,,,,,,,,,,,,,,,,,,
,,,,,,,,,,stimuli/images/PICTURE_491.png,SERIES,5ed2bf022955ea23fb3c964c,2020-06-30_14h40.52.376,proactive,2020.1.2,Win32,60,5efb791ed4cb570da489e737,5efb8712acf56b109b772ba4,5,,,,,,rug,,,,,,0,20,20,39,1,4,2,,,,,,,,,,,,,,,,,,,,,,,,,,,,,,,,,,,,,,,,,,,,,,,,,,,,,,,,,,,,,,,,,,,,,,,,,,,
,,,,,,,,,,stimuli/images/PICTURE_509.png,APPLE,5ed2bf022955ea23fb3c964c,2020-06-30_14h40.52.376,proactive,2020.1.2,Win32,60,5efb791ed4cb570da489e737,5efb8712acf56b109b772ba4,5,,,,,,telephone,,,,,,0,21,21,38,1,4,2,,,,,,,,,,,,,,,,,,,,,,,,,,,,,,,,,,,,,,,,,,,,,,,,,,,,,,,,,,,,,,,,,,,,,,,,,,,
,,,,,,,,,,stimuli/images/PICTURE_33.png,COPS,5ed2bf022955ea23fb3c964c,2020-06-30_14h40.52.376,proactive,2020.1.2,Win32,60,5efb791ed4cb570da489e737,5efb8712acf56b109b772ba4,5,,,,,,frame,,,,,,0,22,22,29,1,3,2,,,,,,,,,,,,,,,,,,,,,,,,,,,,,,,,,,,,,,,,,,,,,,,,,,,,,,,,,,,,,,,,,,,,,,,,,,,
,,,,,,,,,,stimuli/images/PICTURE_2.png,YARD,5ed2bf022955ea23fb3c964c,2020-06-30_14h40.52.376,proactive,2020.1.2,Win32,60,5efb791ed4cb570da489e737,5efb8712acf56b109b772ba4,5,,,,,,tyre,,,,,,0,23,23,55,1,6,2,,,,,,,,,,,,,,,,,,,,,,,,,,,,,,,,,,,,,,,,,,,,,,,,,,,,,,,,,,,,,,,,,,,,,,,,,,,
,,,,,,,,,,stimuli/images/PICTURE_327.png,LEADER,5ed2bf022955ea23fb3c964c,2020-06-30_14h40.52.376,proactive,2020.1.2,Win32,60,5efb791ed4cb570da489e737,5efb8712acf56b109b772ba4,5,,,,,,helmet,,,,,,0,24,24,17,1,2,2,,,,,,,,,,,,,,,,,,,,,,,,,,,,,,,,,,,,,,,,,,,,,,,,,,,,,,,,,,,,,,,,,,,,,,,,,,,
,,,,,,,,,,stimuli/images/PICTURE_405.png,JUNGLE,5ed2bf022955ea23fb3c964c,2020-06-30_14h40.52.376,proactive,2020.1.2,Win32,60,5efb791ed4cb570da489e737,5efb8712acf56b109b772ba4,5,,,,,,anchor,,,,,,0,25,25,13,1,2,2,,,,,,,,,,,,,,,,,,,,,,,,,,,,,,,,,,,,,,,,,,,,,,,,,,,,,,,,,,,,,,,,,,,,,,,,,,,
,,,,,,,,,,stimuli/images/PICTURE_667.png,GLASS,5ed2bf022955ea23fb3c964c,2020-06-30_14h40.52.376,proactive,2020.1.2,Win32,60,5efb791ed4cb570da489e737,5efb8712acf56b109b772ba4,5,,,,,,daisy,,,,,,0,26,26,27,1,3,2,,,,,,,,,,,,,,,,,,,,,,,,,,,,,,,,,,,,,,,,,,,,,,,,,,,,,,,,,,,,,,,,,,,,,,,,,,,
,,,,,,,,,,stimuli/images/PICTURE_93.png,GIRL,5ed2bf022955ea23fb3c964c,2020-06-30_14h40.52.376,proactive,2020.1.2,Win32,60,5efb791ed4cb570da489e737,5efb8712acf56b109b772ba4,5,,,,,,skateboard,,,,,,0,27,27,31,1,4,2,,,,,,,,,,,,,,,,,,,,,,,,,,,,,,,,,,,,,,,,,,,,,,,,,,,,,,,,,,,,,,,,,,,,,,,,,,,
,,,,,,,,,,stimuli/images/PICTURE_677.png,PHOTO,5ed2bf022955ea23fb3c964c,2020-06-30_14h40.52.376,proactive,2020.1.2,Win32,60,5efb791ed4cb570da489e737,5efb8712acf56b109b772ba4,5,,,,,,map,,,,,,0,28,28,14,1,2,2,,,,,,,,,,,,,,,,,,,,,,,,,,,,,,,,,,,,,,,,,,,,,,,,,,,,,,,,,,,,,,,,,,,,,,,,,,,
,,,,,,,,,,stimuli/images/PICTURE_2.png,AREA,5ed2bf022955ea23fb3c964c,2020-06-30_14h40.52.376,proactive,2020.1.2,Win32,60,5efb791ed4cb570da489e737,5efb8712acf56b109b772ba4,5,,,,,,tyre,,,,,,0,29,29,32,1,4,2,,,,,,,,,,,,,,,,,,,,,,,,,,,,,,,,,,,,,,,,,,,,,,,,,,,,,,,,,,,,,,,,,,,,,,,,,,,
,,,,,,,,,,stimuli/images/PICTURE_160.png,HOTEL,5ed2bf022955ea23fb3c964c,2020-06-30_14h40.52.376,proactive,2020.1.2,Win32,60,5efb791ed4cb570da489e737,5efb8712acf56b109b772ba4,5,,,,,,wheelbarrow,,,,,,0,30,30,16,1,2,2,,,,,,,,,,,,,,,,,,,,,,,,,,,,,,,,,,,,,,,,,,,,,,,,,,,,,,,,,,,,,,,,,,,,,,,,,,,
,,,,,,,,,,stimuli/images/PICTURE_285.png,WRITER,5ed2bf022955ea23fb3c964c,2020-06-30_14h40.52.376,proactive,2020.1.2,Win32,60,5efb791ed4cb570da489e737,5efb8712acf56b109b772ba4,5,,,,,,carrot,,,,,,0,31,31,6,1,1,2,,,,,,,,,,,,,,,,,,,,,,,,,,,,,,,,,,,,,,,,,,,,,,,,,,,,,,,,,,,,,,,,,,,,,,,,,,,
,,,,,,,,,,stimuli/images/PICTURE_18.png,RIVER,5ed2bf022955ea23fb3c964c,2020-06-30_14h40.52.376,proactive,2020.1.2,Win32,60,5efb791ed4cb570da489e737,5efb8712acf56b109b772ba4,5,,,,,,planet,,,,,,0,32,32,22,1,3,2,,,,,,,,,,,,,,,,,,,,,,,,,,,,,,,,,,,,,,,,,,,,,,,,,,,,,,,,,,,,,,,,,,,,,,,,,,,
,,,,,,,,,,stimuli/images/PICTURE_348.png,TOILET,5ed2bf022955ea23fb3c964c,2020-06-30_14h40.52.376,proactive,2020.1.2,Win32,60,5efb791ed4cb570da489e737,5efb8712acf56b109b772ba4,5,,,,,,pepper,,,,,,0,33,33,4,1,1,2,,,,,,,,,,,,,,,,,,,,,,,,,,,,,,,,,,,,,,,,,,,,,,,,,,,,,,,,,,,,,,,,,,,,,,,,,,,
,,,,,,,,,,stimuli/images/PICTURE_348.png,DUDE,5ed2bf022955ea23fb3c964c,2020-06-30_14h40.52.376,proactive,2020.1.2,Win32,60,5efb791ed4cb570da489e737,5efb8712acf56b109b772ba4,5,,,,,,pepper,,,,,,0,34,34,59,1,6,2,,,,,,,,,,,,,,,,,,,,,,,,,,,,,,,,,,,,,,,,,,,,,,,,,,,,,,,,,,,,,,,,,,,,,,,,,,,
,,,,,,,,,,stimuli/images/PICTURE_215.png,FOOD,5ed2bf022955ea23fb3c964c,2020-06-30_14h40.52.376,proactive,2020.1.2,Win32,60,5efb791ed4cb570da489e737,5efb8712acf56b109b772ba4,5,,,,,,boot,,,,,,0,35,35,5,1,1,2,,,,,,,,,,,,,,,,,,,,,,,,,,,,,,,,,,,,,,,,,,,,,,,,,,,,,,,,,,,,,,,,,,,,,,,,,,,
,,,,,,,,,,stimuli/images/PICTURE_285.png,PRINCE,5ed2bf022955ea23fb3c964c,2020-06-30_14h40.52.376,proactive,2020.1.2,Win32,60,5efb791ed4cb570da489e737,5efb8712acf56b109b772ba4,5,,,,,,carrot,,,,,,0,36,36,20,1,3,2,,,,,,,,,,,,,,,,,,,,,,,,,,,,,,,,,,,,,,,,,,,,,,,,,,,,,,,,,,,,,,,,,,,,,,,,,,,
,,,,,,,,,,stimuli/images/PICTURE_504.png,HOUSE,5ed2bf022955ea23fb3c964c,2020-06-30_14h40.52.376,proactive,2020.1.2,Win32,60,5efb791ed4cb570da489e737,5efb8712acf56b109b772ba4,5,,,,,,wheel,,,,,,0,37,37,36,1,4,2,,,,,,,,,,,,,,,,,,,,,,,,,,,,,,,,,,,,,,,,,,,,,,,,,,,,,,,,,,,,,,,,,,,,,,,,,,,
,,,,,,,,,,stimuli/images/PICTURE_296.png,CLOCK,5ed2bf022955ea23fb3c964c,2020-06-30_14h40.52.376,proactive,2020.1.2,Win32,60,5efb791ed4cb570da489e737,5efb8712acf56b109b772ba4,5,,,,,,bolt,,,,,,0,38,38,18,1,2,2,,,,,,,,,,,,,,,,,,,,,,,,,,,,,,,,,,,,,,,,,,,,,,,,,,,,,,,,,,,,,,,,,,,,,,,,,,,
,,,,,,,,,,stimuli/images/PICTURE_311.png,TOILET,5ed2bf022955ea23fb3c964c,2020-06-30_14h40.52.376,proactive,2020.1.2,Win32,60,5efb791ed4cb570da489e737,5efb8712acf56b109b772ba4,5,,,,,,razor,,,,,,0,39,39,54,1,6,2,,,,,,,,,,,,,,,,,,,,,,,,,,,,,,,,,,,,,,,,,,,,,,,,,,,,,,,,,,,,,,,,,,,,,,,,,,,
,,,,,,,,,,stimuli/images/PICTURE_32.png,LETTER,5ed2bf022955ea23fb3c964c,2020-06-30_14h40.52.376,proactive,2020.1.2,Win32,60,5efb791ed4cb570da489e737,5efb8712acf56b109b772ba4,5,,,,,,crown,,,,,,0,40,40,56,1,6,2,,,,,,,,,,,,,,,,,,,,,,,,,,,,,,,,,,,,,,,,,,,,,,,,,,,,,,,,,,,,,,,,,,,,,,,,,,,
,,,,,,,,,,stimuli/images/PICTURE_403.png,FAMILY,5ed2bf022955ea23fb3c964c,2020-06-30_14h40.52.376,proactive,2020.1.2,Win32,60,5efb791ed4cb570da489e737,5efb8712acf56b109b772ba4,5,,,,,,cathedral,,,,,,0,41,41,9,1,1,2,,,,,,,,,,,,,,,,,,,,,,,,,,,,,,,,,,,,,,,,,,,,,,,,,,,,,,,,,,,,,,,,,,,,,,,,,,,
,,,,,,,,,,stimuli/images/PICTURE_95.png,NIGHT,5ed2bf022955ea23fb3c964c,2020-06-30_14h40.52.376,proactive,2020.1.2,Win32,60,5efb791ed4cb570da489e737,5efb8712acf56b109b772ba4,5,,,,,,suitcase,,,,,,0,42,42,37,1,4,2,,,,,,,,,,,,,,,,,,,,,,,,,,,,,,,,,,,,,,,,,,,,,,,,,,,,,,,,,,,,,,,,,,,,,,,,,,,
,,,,,,,,,,stimuli/images/PICTURE_509.png,BATH,5ed2bf022955ea23fb3c964c,2020-06-30_14h40.52.376,proactive,2020.1.2,Win32,60,5efb791ed4cb570da489e737,5efb8712acf56b109b772ba4,5,,,,,,telephone,,,,,,0,43,43,15,1,2,2,,,,,,,,,,,,,,,,,,,,,,,,,,,,,,,,,,,,,,,,,,,,,,,,,,,,,,,,,,,,,,,,,,,,,,,,,,,
,,,,,,,,,,stimuli/images/PICTURE_68.png,KIND,5ed2bf022955ea23fb3c964c,2020-06-30_14h40.52.376,proactive,2020.1.2,Win32,60,5efb791ed4cb570da489e737,5efb8712acf56b109b772ba4,5,,,,,,candle,,,,,,0,44,44,23,1,3,2,,,,,,,,,,,,,,,,,,,,,,,,,,,,,,,,,,,,,,,,,,,,,,,,,,,,,,,,,,,,,,,,,,,,,,,,,,,
,,,,,,,,,,stimuli/images/PICTURE_215.png,BOYS,5ed2bf022955ea23fb3c964c,2020-06-30_14h40.52.376,proactive,2020.1.2,Win32,60,5efb791ed4cb570da489e737,5efb8712acf56b109b772ba4,5,,,,,,boot,,,,,,0,45,45,24,1,3,2,,,,,,,,,,,,,,,,,,,,,,,,,,,,,,,,,,,,,,,,,,,,,,,,,,,,,,,,,,,,,,,,,,,,,,,,,,,
,,,,,,,,,,stimuli/images/PICTURE_470.png,BEAUTY,5ed2bf022955ea23fb3c964c,2020-06-30_14h40.52.376,proactive,2020.1.2,Win32,60,5efb791ed4cb570da489e737,5efb8712acf56b109b772ba4,5,,,,,,motorbike,,,,,,0,46,46,26,1,3,2,,,,,,,,,,,,,,,,,,,,,,,,,,,,,,,,,,,,,,,,,,,,,,,,,,,,,,,,,,,,,,,,,,,,,,,,,,,
,,,,,,,,,,stimuli/images/PICTURE_453.png,FAMILY,5ed2bf022955ea23fb3c964c,2020-06-30_14h40.52.376,proactive,2020.1.2,Win32,60,5efb791ed4cb570da489e737,5efb8712acf56b109b772ba4,5,,,,,,scissors,,,,,,0,47,47,48,1,5,2,,,,,,,,,,,,,,,,,,,,,,,,,,,,,,,,,,,,,,,,,,,,,,,,,,,,,,,,,,,,,,,,,,,,,,,,,,,
,,,,,,,,,,stimuli/images/PICTURE_655.png,SALE,5ed2bf022955ea23fb3c964c,2020-06-30_14h40.52.376,proactive,2020.1.2,Win32,60,5efb791ed4cb570da489e737,5efb8712acf56b109b772ba4,5,,,,,,megaphone,,,,,,0,48,48,57,1,6,2,,,,,,,,,,,,,,,,,,,,,,,,,,,,,,,,,,,,,,,,,,,,,,,,,,,,,,,,,,,,,,,,,,,,,,,,,,,
,,,,,,,,,,stimuli/images/PICTURE_208.png,SPIRIT,5ed2bf022955ea23fb3c964c,2020-06-30_14h40.52.376,proactive,2020.1.2,Win32,60,5efb791ed4cb570da489e737,5efb8712acf56b109b772ba4,5,,,,,,microphone,,,,,,0,49,49,28,1,3,2,,,,,,,,,,,,,,,,,,,,,,,,,,,,,,,,,,,,,,,,,,,,,,,,,,,,,,,,,,,,,,,,,,,,,,,,,,,
,,,,,,,,,,stimuli/images/PICTURE_57.png,CANDY,5ed2bf022955ea23fb3c964c,2020-06-30_14h40.52.376,proactive,2020.1.2,Win32,60,5efb791ed4cb570da489e737,5efb8712acf56b109b772ba4,5,,,,,,stamp,,,,,,0,50,50,52,1,6,2,,,,,,,,,,,,,,,,,,,,,,,,,,,,,,,,,,,,,,,,,,,,,,,,,,,,,,,,,,,,,,,,,,,,,,,,,,,
,,,,,,,,,,stimuli/images/PICTURE_487.png,POLICY,5ed2bf022955ea23fb3c964c,2020-06-30_14h40.52.376,proactive,2020.1.2,Win32,60,5efb791ed4cb570da489e737,5efb8712acf56b109b772ba4,5,,,,,,basket,,,,,,0,51,51,34,1,4,2,,,,,,,,,,,,,,,,,,,,,,,,,,,,,,,,,,,,,,,,,,,,,,,,,,,,,,,,,,,,,,,,,,,,,,,,,,,
,,,,,,,,,,stimuli/images/PICTURE_57.png,CASINO,5ed2bf022955ea23fb3c964c,2020-06-30_14h40.52.376,proactive,2020.1.2,Win32,60,5efb791ed4cb570da489e737,5efb8712acf56b109b772ba4,5,,,,,,stamp,,,,,,0,52,52,12,1,2,2,,,,,,,,,,,,,,,,,,,,,,,,,,,,,,,,,,,,,,,,,,,,,,,,,,,,,,,,,,,,,,,,,,,,,,,,,,,
,,,,,,,,,,stimuli/images/PICTURE_654.png,COPS,5ed2bf022955ea23fb3c964c,2020-06-30_14h40.52.376,proactive,2020.1.2,Win32,60,5efb791ed4cb570da489e737,5efb8712acf56b109b772ba4,5,,,,,,pencil,,,,,,0,53,53,10,1,2,2,,,,,,,,,,,,,,,,,,,,,,,,,,,,,,,,,,,,,,,,,,,,,,,,,,,,,,,,,,,,,,,,,,,,,,,,,,,
,,,,,,,,,,stimuli/images/PICTURE_509.png,MILLER,5ed2bf022955ea23fb3c964c,2020-06-30_14h40.52.376,proactive,2020.1.2,Win32,60,5efb791ed4cb570da489e737,5efb8712acf56b109b772ba4,5,,,,,,telephone,,,,,,0,54,54,49,1,5,2,,,,,,,,,,,,,,,,,,,,,,,,,,,,,,,,,,,,,,,,,,,,,,,,,,,,,,,,,,,,,,,,,,,,,,,,,,,
,,,,,,,,,,stimuli/images/PICTURE_2.png,JUNGLE,5ed2bf022955ea23fb3c964c,2020-06-30_14h40.52.376,proactive,2020.1.2,Win32,60,5efb791ed4cb570da489e737,5efb8712acf56b109b772ba4,5,,,,,,tyre,,,,,,0,55,55,1,1,1,2,,,,,,,,,,,,,,,,,,,,,,,,,,,,,,,,,,,,,,,,,,,,,,,,,,,,,,,,,,,,,,,,,,,,,,,,,,,
,,,,,,,,,,stimuli/images/PICTURE_147.png,LEADER,5ed2bf022955ea23fb3c964c,2020-06-30_14h40.52.376,proactive,2020.1.2,Win32,60,5efb791ed4cb570da489e737,5efb8712acf56b109b772ba4,5,,,,,,hanger,,,,,,0,56,56,33,1,4,2,,,,,,,,,,,,,,,,,,,,,,,,,,,,,,,,,,,,,,,,,,,,,,,,,,,,,,,,,,,,,,,,,,,,,,,,,,,
,,,,,,,,,,stimuli/images/PICTURE_297.png,BODY,5ed2bf022955ea23fb3c964c,2020-06-30_14h40.52.376,proactive,2020.1.2,Win32,60,5efb791ed4cb570da489e737,5efb8712acf56b109b772ba4,5,,,,,,aeroplane,,,,,,0,57,57,51,1,6,2,,,,,,,,,,,,,,,,,,,,,,,,,,,,,,,,,,,,,,,,,,,,,,,,,,,,,,,,,,,,,,,,,,,,,,,,,,,
,,,,,,,,,,stimuli/images/PICTURE_215.png,LEADER,5ed2bf022955ea23fb3c964c,2020-06-30_14h40.52.376,proactive,2020.1.2,Win32,60,5efb791ed4cb570da489e737,5efb8712acf56b109b772ba4,5,,,,,,boot,,,,,,0,58,58,43,1,5,2,,,,,,,,,,,,,,,,,,,,,,,,,,,,,,,,,,,,,,,,,,,,,,,,,,,,,,,,,,,,,,,,,,,,,,,,,,,
,,?,0.001065,0,,,,,,stimuli/images/PICTURE_311.png,TOILET,5ed2bf022955ea23fb3c964c,2020-06-30_14h40.52.376,proactive,2020.1.2,Win32,60,5efb791ed4cb570da489e737,5efb8712acf56b109b772ba4,5,,,,,,razor,,,,,,,,,,,6,2,0,0,0,54,1,,,,,,,,,,,,,,,,,,,,,,,,,,,,,,,,,,,,,,,,,,,,,,,,,,,,,,,,,,,,,,,,,,,,,,
,,?,0.00054,0,,,,,,stimuli/images/PICTURE_32.png,LETTER,5ed2bf022955ea23fb3c964c,2020-06-30_14h40.52.376,proactive,2020.1.2,Win32,60,5efb791ed4cb570da489e737,5efb8712acf56b109b772ba4,5,,,,,,crown,,,,,,,,,,,6,2,0,1,1,56,1,,,,,,,,,,,,,,,,,,,,,,,,,,,,,,,,,,,,,,,,,,,,,,,,,,,,,,,,,,,,,,,,,,,,,,
,,?,0.000495,0,,,,,,stimuli/images/PICTURE_57.png,NATION,5ed2bf022955ea23fb3c964c,2020-06-30_14h40.52.376,proactive,2020.1.2,Win32,60,5efb791ed4cb570da489e737,5efb8712acf56b109b772ba4,5,,,,,,stamp,,,,,,,,,,,3,2,0,2,2,21,1,,,,,,,,,,,,,,,,,,,,,,,,,,,,,,,,,,,,,,,,,,,,,,,,,,,,,,,,,,,,,,,,,,,,,,
,,?,0.00057,0,,,,,,stimuli/images/PICTURE_33.png,COPS,5ed2bf022955ea23fb3c964c,2020-06-30_14h40.52.376,proactive,2020.1.2,Win32,60,5efb791ed4cb570da489e737,5efb8712acf56b109b772ba4,5,,,,,,frame,,,,,,,,,,,3,2,0,3,3,29,1,,,,,,,,,,,,,,,,,,,,,,,,,,,,,,,,,,,,,,,,,,,,,,,,,,,,,,,,,,,,,,,,,,,,,,
,,?,0.00057,0,,,,,,stimuli/images/PICTURE_327.png,LEADER,5ed2bf022955ea23fb3c964c,2020-06-30_14h40.52.376,proactive,2020.1.2,Win32,60,5efb791ed4cb570da489e737,5efb8712acf56b109b772ba4,5,,,,,,helmet,,,,,,,,,,,2,2,0,4,4,17,1,,,,,,,,,,,,,,,,,,,,,,,,,,,,,,,,,,,,,,,,,,,,,,,,,,,,,,,,,,,,,,,,,,,,,,
,,?,0.00049,0,,,,,,stimuli/images/PICTURE_564.png,PLENTY,5ed2bf022955ea23fb3c964c,2020-06-30_14h40.52.376,proactive,2020.1.2,Win32,60,5efb791ed4cb570da489e737,5efb8712acf56b109b772ba4,5,,,,,,spoon,,,,,,,,,,,2,2,0,5,5,11,1,,,,,,,,,,,,,,,,,,,,,,,,,,,,,,,,,,,,,,,,,,,,,,,,,,,,,,,,,,,,,,,,,,,,,,
,,VALLEY,4.36484,1,,,,,,stimuli/images/PICTURE_708.png,VALLEY,5ed2bf022955ea23fb3c964c,2020-06-30_14h40.52.376,proactive,2020.1.2,Win32,60,5efb791ed4cb570da489e737,5efb8712acf56b109b772ba4,5,,,,,,monkey,,,,,,,,,,,5,2,0,6,6,45,1,,,,,,,,,,,,,,,,,,,,,,,,,,,,,,,,,,,,,,,,,,,,,,,,,,,,,,,,,,,,,,,,,,,,,,
,,YEAR,1.84943,1,,,,,,stimuli/images/PICTURE_654.png,YEAR,5ed2bf022955ea23fb3c964c,2020-06-30_14h40.52.376,proactive,2020.1.2,Win32,60,5efb791ed4cb570da489e737,5efb8712acf56b109b772ba4,5,,,,,,pencil,,,,,,,,,,,5,2,0,7,7,41,1,,,,,,,,,,,,,,,,,,,,,,,,,,,,,,,,,,,,,,,,,,,,,,,,,,,,,,,,,,,,,,,,,,,,,,
,,?,0.001045,0,,,,,,stimuli/images/PICTURE_285.png,PRINCE,5ed2bf022955ea23fb3c964c,2020-06-30_14h40.52.376,proactive,2020.1.2,Win32,60,5efb791ed4cb570da489e737,5efb8712acf56b109b772ba4,5,,,,,,carrot,,,,,,,,,,,3,2,0,8,8,20,1,,,,,,,,,,,,,,,,,,,,,,,,,,,,,,,,,,,,,,,,,,,,,,,,,,,,,,,,,,,,,,,,,,,,,,
,,?,0.0006,0,,,,,,stimuli/images/PICTURE_487.png,POLICY,5ed2bf022955ea23fb3c964c,2020-06-30_14h40.52.376,proactive,2020.1.2,Win32,60,5efb791ed4cb570da489e737,5efb8712acf56b109b772ba4,5,,,,,,basket,,,,,,,,,,,4,2,0,9,9,34,1,,,,,,,,,,,,,,,,,,,,,,,,,,,,,,,,,,,,,,,,,,,,,,,,,,,,,,,,,,,,,,,,,,,,,,
,,DUDE,1.97897,1,,,,,,stimuli/images/PICTURE_692.png,DUDE,5ed2bf022955ea23fb3c964c,2020-06-30_14h40.52.376,proactive,2020.1.2,Win32,60,5efb791ed4cb570da489e737,5efb8712acf56b109b772ba4,5,,,,,,cherry,,,,,,,,,,,5,2,0,10,10,47,1,,,,,,,,,,,,,,,,,,,,,,,,,,,,,,,,,,,,,,,,,,,,,,,,,,,,,,,,,,,,,,,,,,,,,,
,,?,0.000705,0,,,,,,stimuli/images/PICTURE_68.png,KIND,5ed2bf022955ea23fb3c964c,2020-06-30_14h40.52.376,proactive,2020.1.2,Win32,60,5efb791ed4cb570da489e737,5efb8712acf56b109b772ba4,5,,,,,,candle,,,,,,,,,,,3,2,0,11,11,23,1,,,,,,,,,,,,,,,,,,,,,,,,,,,,,,,,,,,,,,,,,,,,,,,,,,,,,,,,,,,,,,,,,,,,,,
,,?,0.000475,0,,,,,,stimuli/images/PICTURE_255.png,PENNY,5ed2bf022955ea23fb3c964c,2020-06-30_14h40.52.376,proactive,2020.1.2,Win32,60,5efb791ed4cb570da489e737,5efb8712acf56b109b772ba4,5,,,,,,shovel,,,,,,,,,,,2,2,0,12,12,19,1,,,,,,,,,,,,,,,,,,,,,,,,,,,,,,,,,,,,,,,,,,,,,,,,,,,,,,,,,,,,,,,,,,,,,,
,,?,0.00048,0,,,,,,stimuli/images/PICTURE_123.png,SALE,5ed2bf022955ea23fb3c964c,2020-06-30_14h40.52.376,proactive,2020.1.2,Win32,60,5efb791ed4cb570da489e737,5efb8712acf56b109b772ba4,5,,,,,,dart,,,,,,,,,,,1,2,0,13,13,8,1,,,,,,,,,,,,,,,,,,,,,,,,,,,,,,,,,,,,,,,,,,,,,,,,,,,,,,,,,,,,,,,,,,,,,,
,,?,0.00067,0,,,,,,stimuli/images/PICTURE_348.png,DUDE,5ed2bf022955ea23fb3c964c,2020-06-30_14h40.52.376,proactive,2020.1.2,Win32,60,5efb791ed4cb570da489e737,5efb8712acf56b109b772ba4,5,,,,,,pepper,,,,,,,,,,,6,2,0,14,14,59,1,,,,,,,,,,,,,,,,,,,,,,,,,,,,,,,,,,,,,,,,,,,,,,,,,,,,,,,,,,,,,,,,,,,,,,
,,?,0.000495,0,,,,,,stimuli/images/PICTURE_93.png,GIRL,5ed2bf022955ea23fb3c964c,2020-06-30_14h40.52.376,proactive,2020.1.2,Win32,60,5efb791ed4cb570da489e737,5efb8712acf56b109b772ba4,5,,,,,,skateboard,,,,,,,,,,,4,2,0,15,15,31,1,,,,,,,,,,,,,,,,,,,,,,,,,,,,,,,,,,,,,,,,,,,,,,,,,,,,,,,,,,,,,,,,,,,,,,
,,?,0.000505,0,,,,,,stimuli/images/PICTURE_667.png,GLASS,5ed2bf022955ea23fb3c964c,2020-06-30_14h40.52.376,proactive,2020.1.2,Win32,60,5efb791ed4cb570da489e737,5efb8712acf56b109b772ba4,5,,,,,,daisy,,,,,,,,,,,3,2,0,16,16,27,1,,,,,,,,,,,,,,,,,,,,,,,,,,,,,,,,,,,,,,,,,,,,,,,,,,,,,,,,,,,,,,,,,,,,,,
,,MOMENT,4.140735,1,,,,,,stimuli/images/PICTURE_470.png,MOMENT,5ed2bf022955ea23fb3c964c,2020-06-30_14h40.52.376,proactive,2020.1.2,Win32,60,5efb791ed4cb570da489e737,5efb8712acf56b109b772ba4,5,,,,,,motorbike,,,,,,,,,,,5,2,0,17,17,40,1,,,,,,,,,,,,,,,,,,,,,,,,,,,,,,,,,,,,,,,,,,,,,,,,,,,,,,,,,,,,,,,,,,,,,,
,,?,0.00092,0,,,,,,stimuli/images/PICTURE_405.png,JUNGLE,5ed2bf022955ea23fb3c964c,2020-06-30_14h40.52.376,proactive,2020.1.2,Win32,60,5efb791ed4cb570da489e737,5efb8712acf56b109b772ba4,5,,,,,,anchor,,,,,,,,,,,6,2,0,18,18,58,1,,,,,,,,,,,,,,,,,,,,,,,,,,,,,,,,,,,,,,,,,,,,,,,,,,,,,,,,,,,,,,,,,,,,,,
,,?,0.000475,0,,,,,,stimuli/images/PICTURE_314.png,SPEECH,5ed2bf022955ea23fb3c964c,2020-06-30_14h40.52.376,proactive,2020.1.2,Win32,60,5efb791ed4cb570da489e737,5efb8712acf56b109b772ba4,5,,,,,,perfume,,,,,,,,,,,4,2,0,19,19,35,1,,,,,,,,,,,,,,,,,,,,,,,,,,,,,,,,,,,,,,,,,,,,,,,,,,,,,,,,,,,,,,,,,,,,,,
,,?,0.00318,0,,,,,,stimuli/images/PICTURE_655.png,SALE,5ed2bf022955ea23fb3c964c,2020-06-30_14h40.52.376,proactive,2020.1.2,Win32,60,5efb791ed4cb570da489e737,5efb8712acf56b109b772ba4,5,,,,,,megaphone,,,,,,,,,,,6,2,0,20,20,57,1,,,,,,,,,,,,,,,,,,,,,,,,,,,,,,,,,,,,,,,,,,,,,,,,,,,,,,,,,,,,,,,,,,,,,,
,,?,0.0006,0,,,,,,stimuli/images/PICTURE_403.png,FAMILY,5ed2bf022955ea23fb3c964c,2020-06-30_14h40.52.376,proactive,2020.1.2,Win32,60,5efb791ed4cb570da489e737,5efb8712acf56b109b772ba4,5,,,,,,cathedral,,,,,,,,,,,1,2,0,21,21,9,1,,,,,,,,,,,,,,,,,,,,,,,,,,,,,,,,,,,,,,,,,,,,,,,,,,,,,,,,,,,,,,,,,,,,,,
,,CLOCK,2.722015,0,,,,,,stimuli/images/PICTURE_215.png,LEADER,5ed2bf022955ea23fb3c964c,2020-06-30_14h40.52.376,proactive,2020.1.2,Win32,60,5efb791ed4cb570da489e737,5efb8712acf56b109b772ba4,5,,,,,,boot,,,,,,,,,,,5,2,0,22,22,43,1,,,,,,,,,,,,,,,,,,,,,,,,,,,,,,,,,,,,,,,,,,,,,,,,,,,,,,,,,,,,,,,,,,,,,,
,,?,0.00078,0,,,,,,stimuli/images/PICTURE_297.png,BODY,5ed2bf022955ea23fb3c964c,2020-06-30_14h40.52.376,proactive,2020.1.2,Win32,60,5efb791ed4cb570da489e737,5efb8712acf56b109b772ba4,5,,,,,,aeroplane,,,,,,,,,,,6,2,0,23,23,51,1,,,,,,,,,,,,,,,,,,,,,,,,,,,,,,,,,,,,,,,,,,,,,,,,,,,,,,,,,,,,,,,,,,,,,,
,,FAMILY,2.49723,1,,,,,,stimuli/images/PICTURE_453.png,FAMILY,5ed2bf022955ea23fb3c964c,2020-06-30_14h40.52.376,proactive,2020.1.2,Win32,60,5efb791ed4cb570da489e737,5efb8712acf56b109b772ba4,5,,,,,,scissors,,,,,,,,,,,5,2,0,24,24,48,1,,,,,,,,,,,,,,,,,,,,,,,,,,,,,,,,,,,,,,,,,,,,,,,,,,,,,,,,,,,,,,,,,,,,,,
,,?,0.000735,0,,,,,,stimuli/images/PICTURE_208.png,SPIRIT,5ed2bf022955ea23fb3c964c,2020-06-30_14h40.52.376,proactive,2020.1.2,Win32,60,5efb791ed4cb570da489e737,5efb8712acf56b109b772ba4,5,,,,,,microphone,,,,,,,,,,,3,2,0,25,25,28,1,,,,,,,,,,,,,,,,,,,,,,,,,,,,,,,,,,,,,,,,,,,,,,,,,,,,,,,,,,,,,,,,,,,,,,
,,?,0.000565,0,,,,,,stimuli/images/PICTURE_215.png,BOYS,5ed2bf022955ea23fb3c964c,2020-06-30_14h40.52.376,proactive,2020.1.2,Win32,60,5efb791ed4cb570da489e737,5efb8712acf56b109b772ba4,5,,,,,,boot,,,,,,,,,,,3,2,0,26,26,24,1,,,,,,,,,,,,,,,,,,,,,,,,,,,,,,,,,,,,,,,,,,,,,,,,,,,,,,,,,,,,,,,,,,,,,,
,,POLICY,2.962875,1,,,,,,stimuli/images/PICTURE_750.png,POLICY,5ed2bf022955ea23fb3c964c,2020-06-30_14h40.52.376,proactive,2020.1.2,Win32,60,5efb791ed4cb570da489e737,5efb8712acf56b109b772ba4,5,,,,,,kettle,,,,,,,,,,,5,2,0,27,27,44,1,,,,,,,,,,,,,,,,,,,,,,,,,,,,,,,,,,,,,,,,,,,,,,,,,,,,,,,,,,,,,,,,,,,,,,
,,?,0.000725,0,,,,,,stimuli/images/PICTURE_405.png,JUNGLE,5ed2bf022955ea23fb3c964c,2020-06-30_14h40.52.376,proactive,2020.1.2,Win32,60,5efb791ed4cb570da489e737,5efb8712acf56b109b772ba4,5,,,,,,anchor,,,,,,,,,,,2,2,0,28,28,13,1,,,,,,,,,,,,,,,,,,,,,,,,,,,,,,,,,,,,,,,,,,,,,,,,,,,,,,,,,,,,,,,,,,,,,,
,,?,0.000895,0,,,,,,stimuli/images/PICTURE_215.png,FOOD,5ed2bf022955ea23fb3c964c,2020-06-30_14h40.52.376,proactive,2020.1.2,Win32,60,5efb791ed4cb570da489e737,5efb8712acf56b109b772ba4,5,,,,,,boot,,,,,,,,,,,1,2,0,29,29,5,1,,,,,,,,,,,,,,,,,,,,,,,,,,,,,,,,,,,,,,,,,,,,,,,,,,,,,,,,,,,,,,,,,,,,,,
,,?,0.00048,0,,,,,,stimuli/images/PICTURE_311.png,FLESH,5ed2bf022955ea23fb3c964c,2020-06-30_14h40.52.376,proactive,2020.1.2,Win32,60,5efb791ed4cb570da489e737,5efb8712acf56b109b772ba4,5,,,,,,razor,,,,,,,,,,,1,2,0,30,30,3,1,,,,,,,,,,,,,,,,,,,,,,,,,,,,,,,,,,,,,,,,,,,,,,,,,,,,,,,,,,,,,,,,,,,,,,
,,?,0.00046,0,,,,,,stimuli/images/PICTURE_57.png,CASINO,5ed2bf022955ea23fb3c964c,2020-06-30_14h40.52.376,proactive,2020.1.2,Win32,60,5efb791ed4cb570da489e737,5efb8712acf56b109b772ba4,5,,,,,,stamp,,,,,,,,,,,2,2,0,31,31,12,1,,,,,,,,,,,,,,,,,,,,,,,,,,,,,,,,,,,,,,,,,,,,,,,,,,,,,,,,,,,,,,,,,,,,,,
,,?,0.000775,0,,,,,,stimuli/images/PICTURE_509.png,APPLE,5ed2bf022955ea23fb3c964c,2020-06-30_14h40.52.376,proactive,2020.1.2,Win32,60,5efb791ed4cb570da489e737,5efb8712acf56b109b772ba4,5,,,,,,telephone,,,,,,,,,,,4,2,0,32,32,38,1,,,,,,,,,,,,,,,,,,,,,,,,,,,,,,,,,,,,,,,,,,,,,,,,,,,,,,,,,,,,,,,,,,,,,,
,,?,0.00054,0,,,,,,stimuli/images/PICTURE_348.png,TOILET,5ed2bf022955ea23fb3c964c,2020-06-30_14h40.52.376,proactive,2020.1.2,Win32,60,5efb791ed4cb570da489e737,5efb8712acf56b109b772ba4,5,,,,,,pepper,,,,,,,,,,,1,2,0,33,33,4,1,,,,,,,,,,,,,,,,,,,,,,,,,,,,,,,,,,,,,,,,,,,,,,,,,,,,,,,,,,,,,,,,,,,,,,
,,?,0.000465,0,,,,,,stimuli/images/PICTURE_470.png,BEAUTY,5ed2bf022955ea23fb3c964c,2020-06-30_14h40.52.376,proactive,2020.1.2,Win32,60,5efb791ed4cb570da489e737,5efb8712acf56b109b772ba4,5,,,,,,motorbike,,,,,,,,,,,3,2,0,34,34,26,1,,,,,,,,,,,,,,,,,,,,,,,,,,,,,,,,,,,,,,,,,,,,,,,,,,,,,,,,,,,,,,,,,,,,,,
,,?,0.000445,0,,,,,,stimuli/images/PICTURE_677.png,PHOTO,5ed2bf022955ea23fb3c964c,2020-06-30_14h40.52.376,proactive,2020.1.2,Win32,60,5efb791ed4cb570da489e737,5efb8712acf56b109b772ba4,5,,,,,,map,,,,,,,,,,,2,2,0,35,35,14,1,,,,,,,,,,,,,,,,,,,,,,,,,,,,,,,,,,,,,,,,,,,,,,,,,,,,,,,,,,,,,,,,,,,,,,
,,?,0.000455,0,,,,,,stimuli/images/PICTURE_405.png,HOUSE,5ed2bf022955ea23fb3c964c,2020-06-30_14h40.52.376,proactive,2020.1.2,Win32,60,5efb791ed4cb570da489e737,5efb8712acf56b109b772ba4,5,,,,,,anchor,,,,,,,,,,,1,2,0,36,36,2,1,,,,,,,,,,,,,,,,,,,,,,,,,,,,,,,,,,,,,,,,,,,,,,,,,,,,,,,,,,,,,,,,,,,,,,
,,?,0.00059,0,,,,,,stimuli/images/PICTURE_160.png,HOTEL,5ed2bf022955ea23fb3c964c,2020-06-30_14h40.52.376,proactive,2020.1.2,Win32,60,5efb791ed4cb570da489e737,5efb8712acf56b109b772ba4,5,,,,,,wheelbarrow,,,,,,,,,,,2,2,0,37,37,16,1,,,,,,,,,,,,,,,,,,,,,,,,,,,,,,,,,,,,,,,,,,,,,,,,,,,,,,,,,,,,,,,,,,,,,,
,,?,0.00045,0,,,,,,stimuli/images/PICTURE_95.png,NIGHT,5ed2bf022955ea23fb3c964c,2020-06-30_14h40.52.376,proactive,2020.1.2,Win32,60,5efb791ed4cb570da489e737,5efb8712acf56b109b772ba4,5,,,,,,suitcase,,,,,,,,,,,4,2,0,38,38,37,1,,,,,,,,,,,,,,,,,,,,,,,,,,,,,,,,,,,,,,,,,,,,,,,,,,,,,,,,,,,,,,,,,,,,,,
,,?,0.00084,0,,,,,,stimuli/images/PICTURE_491.png,SERIES,5ed2bf022955ea23fb3c964c,2020-06-30_14h40.52.376,proactive,2020.1.2,Win32,60,5efb791ed4cb570da489e737,5efb8712acf56b109b772ba4,5,,,,,,rug,,,,,,,,,,,4,2,0,39,39,39,1,,,,,,,,,,,,,,,,,,,,,,,,,,,,,,,,,,,,,,,,,,,,,,,,,,,,,,,,,,,,,,,,,,,,,,
,,CANDY,3.148565,1,,,,,,stimuli/images/PICTURE_356.png,CANDY,5ed2bf022955ea23fb3c964c,2020-06-30_14h40.52.376,proactive,2020.1.2,Win32,60,5efb791ed4cb570da489e737,5efb8712acf56b109b772ba4,5,,,,,,pawn,,,,,,,,,,,5,2,0,40,40,46,1,,,,,,,,,,,,,,,,,,,,,,,,,,,,,,,,,,,,,,,,,,,,,,,,,,,,,,,,,,,,,,,,,,,,,,
,,?,0.00077,0,,,,,,stimuli/images/PICTURE_509.png,SHOTS,5ed2bf022955ea23fb3c964c,2020-06-30_14h40.52.376,proactive,2020.1.2,Win32,60,5efb791ed4cb570da489e737,5efb8712acf56b109b772ba4,5,,,,,,telephone,,,,,,,,,,,1,2,0,41,41,7,1,,,,,,,,,,,,,,,,,,,,,,,,,,,,,,,,,,,,,,,,,,,,,,,,,,,,,,,,,,,,,,,,,,,,,,
,,?,0.000475,0,,,,,,stimuli/images/PICTURE_2.png,YARD,5ed2bf022955ea23fb3c964c,2020-06-30_14h40.52.376,proactive,2020.1.2,Win32,60,5efb791ed4cb570da489e737,5efb8712acf56b109b772ba4,5,,,,,,tyre,,,,,,,,,,,6,2,0,42,42,55,1,,,,,,,,,,,,,,,,,,,,,,,,,,,,,,,,,,,,,,,,,,,,,,,,,,,,,,,,,,,,,,,,,,,,,,
,,?,0.000475,0,,,,,,stimuli/images/PICTURE_296.png,CLOCK,5ed2bf022955ea23fb3c964c,2020-06-30_14h40.52.376,proactive,2020.1.2,Win32,60,5efb791ed4cb570da489e737,5efb8712acf56b109b772ba4,5,,,,,,bolt,,,,,,,,,,,2,2,0,43,43,18,1,,,,,,,,,,,,,,,,,,,,,,,,,,,,,,,,,,,,,,,,,,,,,,,,,,,,,,,,,,,,,,,,,,,,,,
,,?,0.000485,0,,,,,,stimuli/images/PICTURE_677.png,FAMILY,5ed2bf022955ea23fb3c964c,2020-06-30_14h40.52.376,proactive,2020.1.2,Win32,60,5efb791ed4cb570da489e737,5efb8712acf56b109b772ba4,5,,,,,,map,,,,,,,,,,,6,2,0,44,44,53,1,,,,,,,,,,,,,,,,,,,,,,,,,,,,,,,,,,,,,,,,,,,,,,,,,,,,,,,,,,,,,,,,,,,,,,
,,?,0.000455,0,,,,,,stimuli/images/PICTURE_504.png,HOUSE,5ed2bf022955ea23fb3c964c,2020-06-30_14h40.52.376,proactive,2020.1.2,Win32,60,5efb791ed4cb570da489e737,5efb8712acf56b109b772ba4,5,,,,,,wheel,,,,,,,,,,,4,2,0,45,45,36,1,,,,,,,,,,,,,,,,,,,,,,,,,,,,,,,,,,,,,,,,,,,,,,,,,,,,,,,,,,,,,,,,,,,,,,
,,?,0.00059,0,,,,,,stimuli/images/PICTURE_18.png,RIVER,5ed2bf022955ea23fb3c964c,2020-06-30_14h40.52.376,proactive,2020.1.2,Win32,60,5efb791ed4cb570da489e737,5efb8712acf56b109b772ba4,5,,,,,,planet,,,,,,,,,,,3,2,0,46,46,22,1,,,,,,,,,,,,,,,,,,,,,,,,,,,,,,,,,,,,,,,,,,,,,,,,,,,,,,,,,,,,,,,,,,,,,,
,,MILLER,2.79146,1,,,,,,stimuli/images/PICTURE_509.png,MILLER,5ed2bf022955ea23fb3c964c,2020-06-30_14h40.52.376,proactive,2020.1.2,Win32,60,5efb791ed4cb570da489e737,5efb8712acf56b109b772ba4,5,,,,,,telephone,,,,,,,,,,,5,2,0,47,47,49,1,,,,,,,,,,,,,,,,,,,,,,,,,,,,,,,,,,,,,,,,,,,,,,,,,,,,,,,,,,,,,,,,,,,,,,
,,?,0.000695,0,,,,,,stimuli/images/PICTURE_285.png,WRITER,5ed2bf022955ea23fb3c964c,2020-06-30_14h40.52.376,proactive,2020.1.2,Win32,60,5efb791ed4cb570da489e737,5efb8712acf56b109b772ba4,5,,,,,,carrot,,,,,,,,,,,1,2,0,48,48,6,1,,,,,,,,,,,,,,,,,,,,,,,,,,,,,,,,,,,,,,,,,,,,,,,,,,,,,,,,,,,,,,,,,,,,,,
,,?,0.000485,0,,,,,,stimuli/images/PICTURE_2.png,AREA,5ed2bf022955ea23fb3c964c,2020-06-30_14h40.52.376,proactive,2020.1.2,Win32,60,5efb791ed4cb570da489e737,5efb8712acf56b109b772ba4,5,,,,,,tyre,,,,,,,,,,,4,2,0,49,49,32,1,,,,,,,,,,,,,,,,,,,,,,,,,,,,,,,,,,,,,,,,,,,,,,,,,,,,,,,,,,,,,,,,,,,,,,
,,?,0.000475,0,,,,,,stimuli/images/PICTURE_509.png,BATH,5ed2bf022955ea23fb3c964c,2020-06-30_14h40.52.376,proactive,2020.1.2,Win32,60,5efb791ed4cb570da489e737,5efb8712acf56b109b772ba4,5,,,,,,telephone,,,,,,,,,,,2,2,0,50,50,15,1,,,,,,,,,,,,,,,,,,,,,,,,,,,,,,,,,,,,,,,,,,,,,,,,,,,,,,,,,,,,,,,,,,,,,,
,,?,0.000445,0,,,,,,stimuli/images/PICTURE_2.png,JUNGLE,5ed2bf022955ea23fb3c964c,2020-06-30_14h40.52.376,proactive,2020.1.2,Win32,60,5efb791ed4cb570da489e737,5efb8712acf56b109b772ba4,5,,,,,,tyre,,,,,,,,,,,1,2,0,51,51,1,1,,,,,,,,,,,,,,,,,,,,,,,,,,,,,,,,,,,,,,,,,,,,,,,,,,,,,,,,,,,,,,,,,,,,,,
,,?,0.000585,0,,,,,,stimuli/images/PICTURE_654.png,COPS,5ed2bf022955ea23fb3c964c,2020-06-30_14h40.52.376,proactive,2020.1.2,Win32,60,5efb791ed4cb570da489e737,5efb8712acf56b109b772ba4,5,,,,,,pencil,,,,,,,,,,,2,2,0,52,52,10,1,,,,,,,,,,,,,,,,,,,,,,,,,,,,,,,,,,,,,,,,,,,,,,,,,,,,,,,,,,,,,,,,,,,,,,
,,?,0.00259,0,,,,,,stimuli/images/PICTURE_177.png,HOUSE,5ed2bf022955ea23fb3c964c,2020-06-30_14h40.52.376,proactive,2020.1.2,Win32,60,5efb791ed4cb570da489e737,5efb8712acf56b109b772ba4,5,,,,,,mushroom,,,,,,,,,,,3,2,0,53,53,25,1,,,,,,,,,,,,,,,,,,,,,,,,,,,,,,,,,,,,,,,,,,,,,,,,,,,,,,,,,,,,,,,,,,,,,,
,,?,0.000475,0,,,,,,stimuli/images/PICTURE_147.png,LEADER,5ed2bf022955ea23fb3c964c,2020-06-30_14h40.52.376,proactive,2020.1.2,Win32,60,5efb791ed4cb570da489e737,5efb8712acf56b109b772ba4,5,,,,,,hanger,,,,,,,,,,,4,2,0,54,54,33,1,,,,,,,,,,,,,,,,,,,,,,,,,,,,,,,,,,,,,,,,,,,,,,,,,,,,,,,,,,,,,,,,,,,,,,
,,?,0.000565,0,,,,,,stimuli/images/PICTURE_487.png,ROOF,5ed2bf022955ea23fb3c964c,2020-06-30_14h40.52.376,proactive,2020.1.2,Win32,60,5efb791ed4cb570da489e737,5efb8712acf56b109b772ba4,5,,,,,,basket,,,,,,,,,,,6,2,0,55,55,50,1,,,,,,,,,,,,,,,,,,,,,,,,,,,,,,,,,,,,,,,,,,,,,,,,,,,,,,,,,,,,,,,,,,,,,,
,,?,0.000465,0,,,,,,stimuli/images/PICTURE_452.png,COPS,5ed2bf022955ea23fb3c964c,2020-06-30_14h40.52.376,proactive,2020.1.2,Win32,60,5efb791ed4cb570da489e737,5efb8712acf56b109b772ba4,5,,,,,,watch,,,,,,,,,,,1,2,0,56,56,0,1,,,,,,,,,,,,,,,,,,,,,,,,,,,,,,,,,,,,,,,,,,,,,,,,,,,,,,,,,,,,,,,,,,,,,,
,,?,0.00048,0,,,,,,stimuli/images/PICTURE_141.png,CLIENT,5ed2bf022955ea23fb3c964c,2020-06-30_14h40.52.376,proactive,2020.1.2,Win32,60,5efb791ed4cb570da489e737,5efb8712acf56b109b772ba4,5,,,,,,sunflower,,,,,,,,,,,4,2,0,57,57,30,1,,,,,,,,,,,,,,,,,,,,,,,,,,,,,,,,,,,,,,,,,,,,,,,,,,,,,,,,,,,,,,,,,,,,,,
,,?,0.001405,0,,,,,,stimuli/images/PICTURE_57.png,CANDY,5ed2bf022955ea23fb3c964c,2020-06-30_14h40.52.376,proactive,2020.1.2,Win32,60,5efb791ed4cb570da489e737,5efb8712acf56b109b772ba4,5,,,,,,stamp,,,,,,,,,,,6,2,0,58,58,52,1,,,,,,,,,,,,,,,,,,,,,,,,,,,,,,,,,,,,,,,,,,,,,,,,,,,,,,,,,,,,,,,,,,,,,,
,,CLOCK,2.46469,1,,,,,,stimuli/images/PICTURE_688.png,CLOCK,5ed2bf022955ea23fb3c964c,2020-06-30_14h40.52.376,proactive,2020.1.2,Win32,60,5efb791ed4cb570da489e737,5efb8712acf56b109b772ba4,5,,,,,,runner,,,,,,,,,,,5,2,0,59,59,42,1,,,,,,,,,,,,,,,,,,,,,,,,,,,,,,,,,,,,,,,,,,,,,,,,,,,,,,,,,,,,,,,,,,,,,,
,,,,,,,,,,,,5ed2bf022955ea23fb3c964c,2020-06-30_14h40.52.376,proactive,2020.1.2,Win32,60,5efb791ed4cb570da489e737,5efb8712acf56b109b772ba4,5,,,,,,,,,,,,,,,,,,,,,,,,0,1,1,2,1,stimuli/learn-block3.csv,,,,,,,,,,,,,,,,,,,,,,,,,,,,,,,,,,,,,,,,,,,,,,,,,,,,,,,,,,,,,,,,
,,,,,,,,,,stimuli/images/PICTURE_744.png,SYSTEM,5ed2bf022955ea23fb3c964c,2020-06-30_14h40.52.376,proactive,2020.1.2,Win32,60,5efb791ed4cb570da489e737,5efb8712acf56b109b772ba4,5,,,,,,ring,,,,,,0,0,0,43,1,5,0,,,,,,,,,,,,,,,,,,,,,,,,,,,,,,,,,,,,,,,,,,,,,,,,,,,,,,,,,,,,,,,,,,,,,,,,,,,
,,,,,,,,,,stimuli/images/PICTURE_285.png,ADVICE,5ed2bf022955ea23fb3c964c,2020-06-30_14h40.52.376,proactive,2020.1.2,Win32,60,5efb791ed4cb570da489e737,5efb8712acf56b109b772ba4,5,,,,,,carrot,,,,,,0,1,1,12,1,2,0,,,,,,,,,,,,,,,,,,,,,,,,,,,,,,,,,,,,,,,,,,,,,,,,,,,,,,,,,,,,,,,,,,,,,,,,,,,
,,,,,,,,,,stimuli/images/PICTURE_469.png,LETTER,5ed2bf022955ea23fb3c964c,2020-06-30_14h40.52.376,proactive,2020.1.2,Win32,60,5efb791ed4cb570da489e737,5efb8712acf56b109b772ba4,5,,,,,,stool,,,,,,0,2,2,42,1,5,0,,,,,,,,,,,,,,,,,,,,,,,,,,,,,,,,,,,,,,,,,,,,,,,,,,,,,,,,,,,,,,,,,,,,,,,,,,,
,,,,,,,,,,stimuli/images/PICTURE_692.png,MONTH,5ed2bf022955ea23fb3c964c,2020-06-30_14h40.52.376,proactive,2020.1.2,Win32,60,5efb791ed4cb570da489e737,5efb8712acf56b109b772ba4,5,,,,,,cherry,,,,,,0,3,3,16,1,2,0,,,,,,,,,,,,,,,,,,,,,,,,,,,,,,,,,,,,,,,,,,,,,,,,,,,,,,,,,,,,,,,,,,,,,,,,,,,
,,,,,,,,,,stimuli/images/PICTURE_491.png,ROOF,5ed2bf022955ea23fb3c964c,2020-06-30_14h40.52.376,proactive,2020.1.2,Win32,60,5efb791ed4cb570da489e737,5efb8712acf56b109b772ba4,5,,,,,,rug,,,,,,0,4,4,24,1,3,0,,,,,,,,,,,,,,,,,,,,,,,,,,,,,,,,,,,,,,,,,,,,,,,,,,,,,,,,,,,,,,,,,,,,,,,,,,,
,,,,,,,,,,stimuli/images/PICTURE_311.png,FRIEND,5ed2bf022955ea23fb3c964c,2020-06-30_14h40.52.376,proactive,2020.1.2,Win32,60,5efb791ed4cb570da489e737,5efb8712acf56b109b772ba4,5,,,,,,razor,,,,,,0,5,5,34,1,4,0,,,,,,,,,,,,,,,,,,,,,,,,,,,,,,,,,,,,,,,,,,,,,,,,,,,,,,,,,,,,,,,,,,,,,,,,,,,
,,,,,,,,,,stimuli/images/PICTURE_667.png,BATH,5ed2bf022955ea23fb3c964c,2020-06-30_14h40.52.376,proactive,2020.1.2,Win32,60,5efb791ed4cb570da489e737,5efb8712acf56b109b772ba4,5,,,,,,daisy,,,,,,0,6,6,4,1,1,0,,,,,,,,,,,,,,,,,,,,,,,,,,,,,,,,,,,,,,,,,,,,,,,,,,,,,,,,,,,,,,,,,,,,,,,,,,,
,,,,,,,,,,stimuli/images/PICTURE_708.png,YARD,5ed2bf022955ea23fb3c964c,2020-06-30_14h40.52.376,proactive,2020.1.2,Win32,60,5efb791ed4cb570da489e737,5efb8712acf56b109b772ba4,5,,,,,,monkey,,,,,,0,7,7,29,1,3,0,,,,,,,,,,,,,,,,,,,,,,,,,,,,,,,,,,,,,,,,,,,,,,,,,,,,,,,,,,,,,,,,,,,,,,,,,,,
,,,,,,,,,,stimuli/images/PICTURE_380.png,DEATH,5ed2bf022955ea23fb3c964c,2020-06-30_14h40.52.376,proactive,2020.1.2,Win32,60,5efb791ed4cb570da489e737,5efb8712acf56b109b772ba4,5,,,,,,gorilla,,,,,,0,8,8,49,1,5,0,,,,,,,,,,,,,,,,,,,,,,,,,,,,,,,,,,,,,,,,,,,,,,,,,,,,,,,,,,,,,,,,,,,,,,,,,,,
,,,,,,,,,,stimuli/images/PICTURE_491.png,WRITER,5ed2bf022955ea23fb3c964c,2020-06-30_14h40.52.376,proactive,2020.1.2,Win32,60,5efb791ed4cb570da489e737,5efb8712acf56b109b772ba4,5,,,,,,rug,,,,,,0,9,9,57,1,6,0,,,,,,,,,,,,,,,,,,,,,,,,,,,,,,,,,,,,,,,,,,,,,,,,,,,,,,,,,,,,,,,,,,,,,,,,,,,
,,,,,,,,,,stimuli/images/PICTURE_160.png,FEET,5ed2bf022955ea23fb3c964c,2020-06-30_14h40.52.376,proactive,2020.1.2,Win32,60,5efb791ed4cb570da489e737,5efb8712acf56b109b772ba4,5,,,,,,wheelbarrow,,,,,,0,10,10,58,1,6,0,,,,,,,,,,,,,,,,,,,,,,,,,,,,,,,,,,,,,,,,,,,,,,,,,,,,,,,,,,,,,,,,,,,,,,,,,,,
,,,,,,,,,,stimuli/images/PICTURE_675.png,WEAPON,5ed2bf022955ea23fb3c964c,2020-06-30_14h40.52.376,proactive,2020.1.2,Win32,60,5efb791ed4cb570da489e737,5efb8712acf56b109b772ba4,5,,,,,,windmill,,,,,,0,11,11,32,1,4,0,,,,,,,,,,,,,,,,,,,,,,,,,,,,,,,,,,,,,,,,,,,,,,,,,,,,,,,,,,,,,,,,,,,,,,,,,,,
,,,,,,,,,,stimuli/images/PICTURE_708.png,PENNY,5ed2bf022955ea23fb3c964c,2020-06-30_14h40.52.376,proactive,2020.1.2,Win32,60,5efb791ed4cb570da489e737,5efb8712acf56b109b772ba4,5,,,,,,monkey,,,,,,0,12,12,31,1,4,0,,,,,,,,,,,,,,,,,,,,,,,,,,,,,,,,,,,,,,,,,,,,,,,,,,,,,,,,,,,,,,,,,,,,,,,,,,,
,,,,,,,,,,stimuli/images/PICTURE_314.png,SAKE,5ed2bf022955ea23fb3c964c,2020-06-30_14h40.52.376,proactive,2020.1.2,Win32,60,5efb791ed4cb570da489e737,5efb8712acf56b109b772ba4,5,,,,,,perfume,,,,,,0,13,13,7,1,1,0,,,,,,,,,,,,,,,,,,,,,,,,,,,,,,,,,,,,,,,,,,,,,,,,,,,,,,,,,,,,,,,,,,,,,,,,,,,
,,,,,,,,,,stimuli/images/PICTURE_314.png,GODS,5ed2bf022955ea23fb3c964c,2020-06-30_14h40.52.376,proactive,2020.1.2,Win32,60,5efb791ed4cb570da489e737,5efb8712acf56b109b772ba4,5,,,,,,perfume,,,,,,0,14,14,11,1,2,0,,,,,,,,,,,,,,,,,,,,,,,,,,,,,,,,,,,,,,,,,,,,,,,,,,,,,,,,,,,,,,,,,,,,,,,,,,,
,,,,,,,,,,stimuli/images/PICTURE_311.png,BEAUTY,5ed2bf022955ea23fb3c964c,2020-06-30_14h40.52.376,proactive,2020.1.2,Win32,60,5efb791ed4cb570da489e737,5efb8712acf56b109b772ba4,5,,,,,,razor,,,,,,0,15,15,13,1,2,0,,,,,,,,,,,,,,,,,,,,,,,,,,,,,,,,,,,,,,,,,,,,,,,,,,,,,,,,,,,,,,,,,,,,,,,,,,,
,,,,,,,,,,stimuli/images/PICTURE_488.png,STYLE,5ed2bf022955ea23fb3c964c,2020-06-30_14h40.52.376,proactive,2020.1.2,Win32,60,5efb791ed4cb570da489e737,5efb8712acf56b109b772ba4,5,,,,,,sun,,,,,,0,16,16,33,1,4,0,,,,,,,,,,,,,,,,,,,,,,,,,,,,,,,,,,,,,,,,,,,,,,,,,,,,,,,,,,,,,,,,,,,,,,,,,,,
,,,,,,,,,,stimuli/images/PICTURE_85.png,THING,5ed2bf022955ea23fb3c964c,2020-06-30_14h40.52.376,proactive,2020.1.2,Win32,60,5efb791ed4cb570da489e737,5efb8712acf56b109b772ba4,5,,,,,,diamond,,,,,,0,17,17,15,1,2,0,,,,,,,,,,,,,,,,,,,,,,,,,,,,,,,,,,,,,,,,,,,,,,,,,,,,,,,,,,,,,,,,,,,,,,,,,,,
,,,,,,,,,,stimuli/images/PICTURE_453.png,PLENTY,5ed2bf022955ea23fb3c964c,2020-06-30_14h40.52.376,proactive,2020.1.2,Win32,60,5efb791ed4cb570da489e737,5efb8712acf56b109b772ba4,5,,,,,,scissors,,,,,,0,18,18,56,1,6,0,,,,,,,,,,,,,,,,,,,,,,,,,,,,,,,,,,,,,,,,,,,,,,,,,,,,,,,,,,,,,,,,,,,,,,,,,,,
,,,,,,,,,,stimuli/images/PICTURE_160.png,LEADER,5ed2bf022955ea23fb3c964c,2020-06-30_14h40.52.376,proactive,2020.1.2,Win32,60,5efb791ed4cb570da489e737,5efb8712acf56b109b772ba4,5,,,,,,wheelbarrow,,,,,,0,19,19,3,1,1,0,,,,,,,,,,,,,,,,,,,,,,,,,,,,,,,,,,,,,,,,,,,,,,,,,,,,,,,,,,,,,,,,,,,,,,,,,,,
,,,,,,,,,,stimuli/images/PICTURE_487.png,FLIGHT,5ed2bf022955ea23fb3c964c,2020-06-30_14h40.52.376,proactive,2020.1.2,Win32,60,5efb791ed4cb570da489e737,5efb8712acf56b109b772ba4,5,,,,,,basket,,,,,,0,20,20,9,1,1,0,,,,,,,,,,,,,,,,,,,,,,,,,,,,,,,,,,,,,,,,,,,,,,,,,,,,,,,,,,,,,,,,,,,,,,,,,,,
,,,,,,,,,,stimuli/images/PICTURE_308.png,KIND,5ed2bf022955ea23fb3c964c,2020-06-30_14h40.52.376,proactive,2020.1.2,Win32,60,5efb791ed4cb570da489e737,5efb8712acf56b109b772ba4,5,,,,,,dice,,,,,,0,21,21,54,1,6,0,,,,,,,,,,,,,,,,,,,,,,,,,,,,,,,,,,,,,,,,,,,,,,,,,,,,,,,,,,,,,,,,,,,,,,,,,,,
,,,,,,,,,,stimuli/images/PICTURE_504.png,BODY,5ed2bf022955ea23fb3c964c,2020-06-30_14h40.52.376,proactive,2020.1.2,Win32,60,5efb791ed4cb570da489e737,5efb8712acf56b109b772ba4,5,,,,,,wheel,,,,,,0,22,22,8,1,1,0,,,,,,,,,,,,,,,,,,,,,,,,,,,,,,,,,,,,,,,,,,,,,,,,,,,,,,,,,,,,,,,,,,,,,,,,,,,
,,,,,,,,,,stimuli/images/PICTURE_356.png,DANGER,5ed2bf022955ea23fb3c964c,2020-06-30_14h40.52.376,proactive,2020.1.2,Win32,60,5efb791ed4cb570da489e737,5efb8712acf56b109b772ba4,5,,,,,,pawn,,,,,,0,23,23,55,1,6,0,,,,,,,,,,,,,,,,,,,,,,,,,,,,,,,,,,,,,,,,,,,,,,,,,,,,,,,,,,,,,,,,,,,,,,,,,,,
,,,,,,,,,,stimuli/images/PICTURE_348.png,SPEECH,5ed2bf022955ea23fb3c964c,2020-06-30_14h40.52.376,proactive,2020.1.2,Win32,60,5efb791ed4cb570da489e737,5efb8712acf56b109b772ba4,5,,,,,,pepper,,,,,,0,24,24,20,1,3,0,,,,,,,,,,,,,,,,,,,,,,,,,,,,,,,,,,,,,,,,,,,,,,,,,,,,,,,,,,,,,,,,,,,,,,,,,,,
,,,,,,,,,,stimuli/images/PICTURE_233.png,WOMEN,5ed2bf022955ea23fb3c964c,2020-06-30_14h40.52.376,proactive,2020.1.2,Win32,60,5efb791ed4cb570da489e737,5efb8712acf56b109b772ba4,5,,,,,,salt,,,,,,0,25,25,38,1,4,0,,,,,,,,,,,,,,,,,,,,,,,,,,,,,,,,,,,,,,,,,,,,,,,,,,,,,,,,,,,,,,,,,,,,,,,,,,,
,,,,,,,,,,stimuli/images/PICTURE_208.png,MONTH,5ed2bf022955ea23fb3c964c,2020-06-30_14h40.52.376,proactive,2020.1.2,Win32,60,5efb791ed4cb570da489e737,5efb8712acf56b109b772ba4,5,,,,,,microphone,,,,,,0,26,26,53,1,6,0,,,,,,,,,,,,,,,,,,,,,,,,,,,,,,,,,,,,,,,,,,,,,,,,,,,,,,,,,,,,,,,,,,,,,,,,,,,
,,,,,,,,,,stimuli/images/PICTURE_147.png,MOMENT,5ed2bf022955ea23fb3c964c,2020-06-30_14h40.52.376,proactive,2020.1.2,Win32,60,5efb791ed4cb570da489e737,5efb8712acf56b109b772ba4,5,,,,,,hanger,,,,,,0,27,27,51,1,6,0,,,,,,,,,,,,,,,,,,,,,,,,,,,,,,,,,,,,,,,,,,,,,,,,,,,,,,,,,,,,,,,,,,,,,,,,,,,
,,,,,,,,,,stimuli/images/PICTURE_32.png,JUNGLE,5ed2bf022955ea23fb3c964c,2020-06-30_14h40.52.376,proactive,2020.1.2,Win32,60,5efb791ed4cb570da489e737,5efb8712acf56b109b772ba4,5,,,,,,crown,,,,,,0,28,28,45,1,5,0,,,,,,,,,,,,,,,,,,,,,,,,,,,,,,,,,,,,,,,,,,,,,,,,,,,,,,,,,,,,,,,,,,,,,,,,,,,
,,,,,,,,,,stimuli/images/PICTURE_68.png,MILE,5ed2bf022955ea23fb3c964c,2020-06-30_14h40.52.376,proactive,2020.1.2,Win32,60,5efb791ed4cb570da489e737,5efb8712acf56b109b772ba4,5,,,,,,candle,,,,,,0,29,29,44,1,5,0,,,,,,,,,,,,,,,,,,,,,,,,,,,,,,,,,,,,,,,,,,,,,,,,,,,,,,,,,,,,,,,,,,,,,,,,,,,
,,,,,,,,,,stimuli/images/PICTURE_708.png,CLIENT,5ed2bf022955ea23fb3c964c,2020-06-30_14h40.52.376,proactive,2020.1.2,Win32,60,5efb791ed4cb570da489e737,5efb8712acf56b109b772ba4,5,,,,,,monkey,,,,,,0,30,30,5,1,1,0,,,,,,,,,,,,,,,,,,,,,,,,,,,,,,,,,,,,,,,,,,,,,,,,,,,,,,,,,,,,,,,,,,,,,,,,,,,
,,,,,,,,,,stimuli/images/PICTURE_302.png,FAMILY,5ed2bf022955ea23fb3c964c,2020-06-30_14h40.52.376,proactive,2020.1.2,Win32,60,5efb791ed4cb570da489e737,5efb8712acf56b109b772ba4,5,,,,,,taxi,,,,,,0,31,31,18,1,2,0,,,,,,,,,,,,,,,,,,,,,,,,,,,,,,,,,,,,,,,,,,,,,,,,,,,,,,,,,,,,,,,,,,,,,,,,,,,
,,,,,,,,,,stimuli/images/PICTURE_327.png,BEAUTY,5ed2bf022955ea23fb3c964c,2020-06-30_14h40.52.376,proactive,2020.1.2,Win32,60,5efb791ed4cb570da489e737,5efb8712acf56b109b772ba4,5,,,,,,helmet,,,,,,0,32,32,48,1,5,0,,,,,,,,,,,,,,,,,,,,,,,,,,,,,,,,,,,,,,,,,,,,,,,,,,,,,,,,,,,,,,,,,,,,,,,,,,,
,,,,,,,,,,stimuli/images/PICTURE_470.png,CASINO,5ed2bf022955ea23fb3c964c,2020-06-30_14h40.52.376,proactive,2020.1.2,Win32,60,5efb791ed4cb570da489e737,5efb8712acf56b109b772ba4,5,,,,,,motorbike,,,,,,0,33,33,36,1,4,0,,,,,,,,,,,,,,,,,,,,,,,,,,,,,,,,,,,,,,,,,,,,,,,,,,,,,,,,,,,,,,,,,,,,,,,,,,,
,,,,,,,,,,stimuli/images/PICTURE_95.png,STYLE,5ed2bf022955ea23fb3c964c,2020-06-30_14h40.52.376,proactive,2020.1.2,Win32,60,5efb791ed4cb570da489e737,5efb8712acf56b109b772ba4,5,,,,,,suitcase,,,,,,0,34,34,25,1,3,0,,,,,,,,,,,,,,,,,,,,,,,,,,,,,,,,,,,,,,,,,,,,,,,,,,,,,,,,,,,,,,,,,,,,,,,,,,,
,,,,,,,,,,stimuli/images/PICTURE_380.png,PHOTO,5ed2bf022955ea23fb3c964c,2020-06-30_14h40.52.376,proactive,2020.1.2,Win32,60,5efb791ed4cb570da489e737,5efb8712acf56b109b772ba4,5,,,,,,gorilla,,,,,,0,35,35,52,1,6,0,,,,,,,,,,,,,,,,,,,,,,,,,,,,,,,,,,,,,,,,,,,,,,,,,,,,,,,,,,,,,,,,,,,,,,,,,,,
,,,,,,,,,,stimuli/images/PICTURE_688.png,WOMEN,5ed2bf022955ea23fb3c964c,2020-06-30_14h40.52.376,proactive,2020.1.2,Win32,60,5efb791ed4cb570da489e737,5efb8712acf56b109b772ba4,5,,,,,,runner,,,,,,0,36,36,14,1,2,0,,,,,,,,,,,,,,,,,,,,,,,,,,,,,,,,,,,,,,,,,,,,,,,,,,,,,,,,,,,,,,,,,,,,,,,,,,,
,,,,,,,,,,stimuli/images/PICTURE_208.png,LOTS,5ed2bf022955ea23fb3c964c,2020-06-30_14h40.52.376,proactive,2020.1.2,Win32,60,5efb791ed4cb570da489e737,5efb8712acf56b109b772ba4,5,,,,,,microphone,,,,,,0,37,37,10,1,2,0,,,,,,,,,,,,,,,,,,,,,,,,,,,,,,,,,,,,,,,,,,,,,,,,,,,,,,,,,,,,,,,,,,,,,,,,,,,
,,,,,,,,,,stimuli/images/PICTURE_255.png,AREA,5ed2bf022955ea23fb3c964c,2020-06-30_14h40.52.376,proactive,2020.1.2,Win32,60,5efb791ed4cb570da489e737,5efb8712acf56b109b772ba4,5,,,,,,shovel,,,,,,0,38,38,22,1,3,0,,,,,,,,,,,,,,,,,,,,,,,,,,,,,,,,,,,,,,,,,,,,,,,,,,,,,,,,,,,,,,,,,,,,,,,,,,,
,,,,,,,,,,stimuli/images/PICTURE_123.png,ADVICE,5ed2bf022955ea23fb3c964c,2020-06-30_14h40.52.376,proactive,2020.1.2,Win32,60,5efb791ed4cb570da489e737,5efb8712acf56b109b772ba4,5,,,,,,dart,,,,,,0,39,39,50,1,6,0,,,,,,,,,,,,,,,,,,,,,,,,,,,,,,,,,,,,,,,,,,,,,,,,,,,,,,,,,,,,,,,,,,,,,,,,,,,
,,,,,,,,,,stimuli/images/PICTURE_449.png,THING,5ed2bf022955ea23fb3c964c,2020-06-30_14h40.52.376,proactive,2020.1.2,Win32,60,5efb791ed4cb570da489e737,5efb8712acf56b109b772ba4,5,,,,,,bench,,,,,,0,40,40,59,1,6,0,,,,,,,,,,,,,,,,,,,,,,,,,,,,,,,,,,,,,,,,,,,,,,,,,,,,,,,,,,,,,,,,,,,,,,,,,,,
,,,,,,,,,,stimuli/images/PICTURE_203.png,ARTIST,5ed2bf022955ea23fb3c964c,2020-06-30_14h40.52.376,proactive,2020.1.2,Win32,60,5efb791ed4cb570da489e737,5efb8712acf56b109b772ba4,5,,,,,,cap,,,,,,0,41,41,26,1,3,0,,,,,,,,,,,,,,,,,,,,,,,,,,,,,,,,,,,,,,,,,,,,,,,,,,,,,,,,,,,,,,,,,,,,,,,,,,,
,,,,,,,,,,stimuli/images/PICTURE_308.png,ESTATE,5ed2bf022955ea23fb3c964c,2020-06-30_14h40.52.376,proactive,2020.1.2,Win32,60,5efb791ed4cb570da489e737,5efb8712acf56b109b772ba4,5,,,,,,dice,,,,,,0,42,42,46,1,5,0,,,,,,,,,,,,,,,,,,,,,,,,,,,,,,,,,,,,,,,,,,,,,,,,,,,,,,,,,,,,,,,,,,,,,,,,,,,
,,,,,,,,,,stimuli/images/PICTURE_677.png,MILE,5ed2bf022955ea23fb3c964c,2020-06-30_14h40.52.376,proactive,2020.1.2,Win32,60,5efb791ed4cb570da489e737,5efb8712acf56b109b772ba4,5,,,,,,map,,,,,,0,43,43,30,1,4,0,,,,,,,,,,,,,,,,,,,,,,,,,,,,,,,,,,,,,,,,,,,,,,,,,,,,,,,,,,,,,,,,,,,,,,,,,,,
,,,,,,,,,,stimuli/images/PICTURE_688.png,CASINO,5ed2bf022955ea23fb3c964c,2020-06-30_14h40.52.376,proactive,2020.1.2,Win32,60,5efb791ed4cb570da489e737,5efb8712acf56b109b772ba4,5,,,,,,runner,,,,,,0,44,44,2,1,1,0,,,,,,,,,,,,,,,,,,,,,,,,,,,,,,,,,,,,,,,,,,,,,,,,,,,,,,,,,,,,,,,,,,,,,,,,,,,
,,,,,,,,,,stimuli/images/PICTURE_467.png,DEMON,5ed2bf022955ea23fb3c964c,2020-06-30_14h40.52.376,proactive,2020.1.2,Win32,60,5efb791ed4cb570da489e737,5efb8712acf56b109b772ba4,5,,,,,,peg,,,,,,0,45,45,23,1,3,0,,,,,,,,,,,,,,,,,,,,,,,,,,,,,,,,,,,,,,,,,,,,,,,,,,,,,,,,,,,,,,,,,,,,,,,,,,,
,,,,,,,,,,stimuli/images/PICTURE_177.png,CARS,5ed2bf022955ea23fb3c964c,2020-06-30_14h40.52.376,proactive,2020.1.2,Win32,60,5efb791ed4cb570da489e737,5efb8712acf56b109b772ba4,5,,,,,,mushroom,,,,,,0,46,46,35,1,4,0,,,,,,,,,,,,,,,,,,,,,,,,,,,,,,,,,,,,,,,,,,,,,,,,,,,,,,,,,,,,,,,,,,,,,,,,,,,
,,,,,,,,,,stimuli/images/PICTURE_469.png,ARTIST,5ed2bf022955ea23fb3c964c,2020-06-30_14h40.52.376,proactive,2020.1.2,Win32,60,5efb791ed4cb570da489e737,5efb8712acf56b109b772ba4,5,,,,,,stool,,,,,,0,47,47,6,1,1,0,,,,,,,,,,,,,,,,,,,,,,,,,,,,,,,,,,,,,,,,,,,,,,,,,,,,,,,,,,,,,,,,,,,,,,,,,,,
,,,,,,,,,,stimuli/images/PICTURE_123.png,ADVICE,5ed2bf022955ea23fb3c964c,2020-06-30_14h40.52.376,proactive,2020.1.2,Win32,60,5efb791ed4cb570da489e737,5efb8712acf56b109b772ba4,5,,,,,,dart,,,,,,0,48,48,40,1,5,0,,,,,,,,,,,,,,,,,,,,,,,,,,,,,,,,,,,,,,,,,,,,,,,,,,,,,,,,,,,,,,,,,,,,,,,,,,,
,,,,,,,,,,stimuli/images/PICTURE_248.png,DOZEN,5ed2bf022955ea23fb3c964c,2020-06-30_14h40.52.376,proactive,2020.1.2,Win32,60,5efb791ed4cb570da489e737,5efb8712acf56b109b772ba4,5,,,,,,cart,,,,,,0,49,49,39,1,4,0,,,,,,,,,,,,,,,,,,,,,,,,,,,,,,,,,,,,,,,,,,,,,,,,,,,,,,,,,,,,,,,,,,,,,,,,,,,
,,,,,,,,,,stimuli/images/PICTURE_233.png,IDEAS,5ed2bf022955ea23fb3c964c,2020-06-30_14h40.52.376,proactive,2020.1.2,Win32,60,5efb791ed4cb570da489e737,5efb8712acf56b109b772ba4,5,,,,,,salt,,,,,,0,50,50,28,1,3,0,,,,,,,,,,,,,,,,,,,,,,,,,,,,,,,,,,,,,,,,,,,,,,,,,,,,,,,,,,,,,,,,,,,,,,,,,,,
,,,,,,,,,,stimuli/images/PICTURE_453.png,DUDE,5ed2bf022955ea23fb3c964c,2020-06-30_14h40.52.376,proactive,2020.1.2,Win32,60,5efb791ed4cb570da489e737,5efb8712acf56b109b772ba4,5,,,,,,scissors,,,,,,0,51,51,27,1,3,0,,,,,,,,,,,,,,,,,,,,,,,,,,,,,,,,,,,,,,,,,,,,,,,,,,,,,,,,,,,,,,,,,,,,,,,,,,,
,,,,,,,,,,stimuli/images/PICTURE_151.png,GIRL,5ed2bf022955ea23fb3c964c,2020-06-30_14h40.52.376,proactive,2020.1.2,Win32,60,5efb791ed4cb570da489e737,5efb8712acf56b109b772ba4,5,,,,,,tray,,,,,,0,52,52,19,1,2,0,,,,,,,,,,,,,,,,,,,,,,,,,,,,,,,,,,,,,,,,,,,,,,,,,,,,,,,,,,,,,,,,,,,,,,,,,,,
,,,,,,,,,,stimuli/images/PICTURE_667.png,PLENTY,5ed2bf022955ea23fb3c964c,2020-06-30_14h40.52.376,proactive,2020.1.2,Win32,60,5efb791ed4cb570da489e737,5efb8712acf56b109b772ba4,5,,,,,,daisy,,,,,,0,53,53,41,1,5,0,,,,,,,,,,,,,,,,,,,,,,,,,,,,,,,,,,,,,,,,,,,,,,,,,,,,,,,,,,,,,,,,,,,,,,,,,,,
,,,,,,,,,,stimuli/images/PICTURE_744.png,SAKE,5ed2bf022955ea23fb3c964c,2020-06-30_14h40.52.376,proactive,2020.1.2,Win32,60,5efb791ed4cb570da489e737,5efb8712acf56b109b772ba4,5,,,,,,ring,,,,,,0,54,54,17,1,2,0,,,,,,,,,,,,,,,,,,,,,,,,,,,,,,,,,,,,,,,,,,,,,,,,,,,,,,,,,,,,,,,,,,,,,,,,,,,
,,,,,,,,,,stimuli/images/PICTURE_215.png,PLENTY,5ed2bf022955ea23fb3c964c,2020-06-30_14h40.52.376,proactive,2020.1.2,Win32,60,5efb791ed4cb570da489e737,5efb8712acf56b109b772ba4,5,,,,,,boot,,,,,,0,55,55,37,1,4,0,,,,,,,,,,,,,,,,,,,,,,,,,,,,,,,,,,,,,,,,,,,,,,,,,,,,,,,,,,,,,,,,,,,,,,,,,,,
,,,,,,,,,,stimuli/images/PICTURE_654.png,VALLEY,5ed2bf022955ea23fb3c964c,2020-06-30_14h40.52.376,proactive,2020.1.2,Win32,60,5efb791ed4cb570da489e737,5efb8712acf56b109b772ba4,5,,,,,,pencil,,,,,,0,56,56,1,1,1,0,,,,,,,,,,,,,,,,,,,,,,,,,,,,,,,,,,,,,,,,,,,,,,,,,,,,,,,,,,,,,,,,,,,,,,,,,,,
,,,,,,,,,,stimuli/images/PICTURE_339.png,PLENTY,5ed2bf022955ea23fb3c964c,2020-06-30_14h40.52.376,proactive,2020.1.2,Win32,60,5efb791ed4cb570da489e737,5efb8712acf56b109b772ba4,5,,,,,,backpack,,,,,,0,57,57,0,1,1,0,,,,,,,,,,,,,,,,,,,,,,,,,,,,,,,,,,,,,,,,,,,,,,,,,,,,,,,,,,,,,,,,,,,,,,,,,,,
,,,,,,,,,,stimuli/images/PICTURE_509.png,PHOTO,5ed2bf022955ea23fb3c964c,2020-06-30_14h40.52.376,proactive,2020.1.2,Win32,60,5efb791ed4cb570da489e737,5efb8712acf56b109b772ba4,5,,,,,,telephone,,,,,,0,58,58,21,1,3,0,,,,,,,,,,,,,,,,,,,,,,,,,,,,,,,,,,,,,,,,,,,,,,,,,,,,,,,,,,,,,,,,,,,,,,,,,,,
,,?,0.00092,0,,,,,,stimuli/images/PICTURE_255.png,AREA,5ed2bf022955ea23fb3c964c,2020-06-30_14h40.52.376,proactive,2020.1.2,Win32,60,5efb791ed4cb570da489e737,5efb8712acf56b109b772ba4,5,,,,,,shovel,,,,,,,,,,,3,0,0,0,0,22,1,,,,,,,,,,,,,,,,,,,,,,,,,,,,,,,,,,,,,,,,,,,,,,,,,,,,,,,,,,,,,,,,,,,,,,
,,DEATH,2.421775,1,,,,,,stimuli/images/PICTURE_380.png,DEATH,5ed2bf022955ea23fb3c964c,2020-06-30_14h40.52.376,proactive,2020.1.2,Win32,60,5efb791ed4cb570da489e737,5efb8712acf56b109b772ba4,5,,,,,,gorilla,,,,,,,,,,,5,0,0,1,1,49,1,,,,,,,,,,,,,,,,,,,,,,,,,,,,,,,,,,,,,,,,,,,,,,,,,,,,,,,,,,,,,,,,,,,,,,
,,?,0.000775,0,,,,,,stimuli/images/PICTURE_339.png,PLENTY,5ed2bf022955ea23fb3c964c,2020-06-30_14h40.52.376,proactive,2020.1.2,Win32,60,5efb791ed4cb570da489e737,5efb8712acf56b109b772ba4,5,,,,,,backpack,,,,,,,,,,,1,0,0,2,2,0,1,,,,,,,,,,,,,,,,,,,,,,,,,,,,,,,,,,,,,,,,,,,,,,,,,,,,,,,,,,,,,,,,,,,,,,
,,?,0.000535,0,,,,,,stimuli/images/PICTURE_453.png,DUDE,5ed2bf022955ea23fb3c964c,2020-06-30_14h40.52.376,proactive,2020.1.2,Win32,60,5efb791ed4cb570da489e737,5efb8712acf56b109b772ba4,5,,,,,,scissors,,,,,,,,,,,3,0,0,3,3,27,1,,,,,,,,,,,,,,,,,,,,,,,,,,,,,,,,,,,,,,,,,,,,,,,,,,,,,,,,,,,,,,,,,,,,,,
,,?,0.000495,0,,,,,,stimuli/images/PICTURE_248.png,DOZEN,5ed2bf022955ea23fb3c964c,2020-06-30_14h40.52.376,proactive,2020.1.2,Win32,60,5efb791ed4cb570da489e737,5efb8712acf56b109b772ba4,5,,,,,,cart,,,,,,,,,,,4,0,0,4,4,39,1,,,,,,,,,,,,,,,,,,,,,,,,,,,,,,,,,,,,,,,,,,,,,,,,,,,,,,,,,,,,,,,,,,,,,,
,,?,0.00045,0,,,,,,stimuli/images/PICTURE_233.png,IDEAS,5ed2bf022955ea23fb3c964c,2020-06-30_14h40.52.376,proactive,2020.1.2,Win32,60,5efb791ed4cb570da489e737,5efb8712acf56b109b772ba4,5,,,,,,salt,,,,,,,,,,,3,0,0,5,5,28,1,,,,,,,,,,,,,,,,,,,,,,,,,,,,,,,,,,,,,,,,,,,,,,,,,,,,,,,,,,,,,,,,,,,,,,
,,?,0.00047,0,,,,,,stimuli/images/PICTURE_491.png,ROOF,5ed2bf022955ea23fb3c964c,2020-06-30_14h40.52.376,proactive,2020.1.2,Win32,60,5efb791ed4cb570da489e737,5efb8712acf56b109b772ba4,5,,,,,,rug,,,,,,,,,,,3,0,0,6,6,24,1,,,,,,,,,,,,,,,,,,,,,,,,,,,,,,,,,,,,,,,,,,,,,,,,,,,,,,,,,,,,,,,,,,,,,,
,,?,0.000495,0,,,,,,stimuli/images/PICTURE_208.png,MONTH,5ed2bf022955ea23fb3c964c,2020-06-30_14h40.52.376,proactive,2020.1.2,Win32,60,5efb791ed4cb570da489e737,5efb8712acf56b109b772ba4,5,,,,,,microphone,,,,,,,,,,,6,0,0,7,7,53,1,,,,,,,,,,,,,,,,,,,,,,,,,,,,,,,,,,,,,,,,,,,,,,,,,,,,,,,,,,,,,,,,,,,,,,
,,?,0.000455,0,,,,,,stimuli/images/PICTURE_233.png,WOMEN,5ed2bf022955ea23fb3c964c,2020-06-30_14h40.52.376,proactive,2020.1.2,Win32,60,5efb791ed4cb570da489e737,5efb8712acf56b109b772ba4,5,,,,,,salt,,,,,,,,,,,4,0,0,8,8,38,1,,,,,,,,,,,,,,,,,,,,,,,,,,,,,,,,,,,,,,,,,,,,,,,,,,,,,,,,,,,,,,,,,,,,,,
,,?,0.00047,0,,,,,,stimuli/images/PICTURE_675.png,WEAPON,5ed2bf022955ea23fb3c964c,2020-06-30_14h40.52.376,proactive,2020.1.2,Win32,60,5efb791ed4cb570da489e737,5efb8712acf56b109b772ba4,5,,,,,,windmill,,,,,,,,,,,4,0,0,9,9,32,1,,,,,,,,,,,,,,,,,,,,,,,,,,,,,,,,,,,,,,,,,,,,,,,,,,,,,,,,,,,,,,,,,,,,,,
,,LETTER,2.50536,1,,,,,,stimuli/images/PICTURE_469.png,LETTER,5ed2bf022955ea23fb3c964c,2020-06-30_14h40.52.376,proactive,2020.1.2,Win32,60,5efb791ed4cb570da489e737,5efb8712acf56b109b772ba4,5,,,,,,stool,,,,,,,,,,,5,0,0,10,10,42,1,,,,,,,,,,,,,,,,,,,,,,,,,,,,,,,,,,,,,,,,,,,,,,,,,,,,,,,,,,,,,,,,,,,,,,
,,?,0.001,0,,,,,,stimuli/images/PICTURE_453.png,PLENTY,5ed2bf022955ea23fb3c964c,2020-06-30_14h40.52.376,proactive,2020.1.2,Win32,60,5efb791ed4cb570da489e737,5efb8712acf56b109b772ba4,5,,,,,,scissors,,,,,,,,,,,6,0,0,11,11,56,1,,,,,,,,,,,,,,,,,,,,,,,,,,,,,,,,,,,,,,,,,,,,,,,,,,,,,,,,,,,,,,,,,,,,,,
,,?,0.000485,0,,,,,,stimuli/images/PICTURE_314.png,GODS,5ed2bf022955ea23fb3c964c,2020-06-30_14h40.52.376,proactive,2020.1.2,Win32,60,5efb791ed4cb570da489e737,5efb8712acf56b109b772ba4,5,,,,,,perfume,,,,,,,,,,,2,0,0,12,12,11,1,,,,,,,,,,,,,,,,,,,,,,,,,,,,,,,,,,,,,,,,,,,,,,,,,,,,,,,,,,,,,,,,,,,,,,
,,BEAUTY,2.862805,1,,,,,,stimuli/images/PICTURE_327.png,BEAUTY,5ed2bf022955ea23fb3c964c,2020-06-30_14h40.52.376,proactive,2020.1.2,Win32,60,5efb791ed4cb570da489e737,5efb8712acf56b109b772ba4,5,,,,,,helmet,,,,,,,,,,,5,0,0,13,13,48,1,,,,,,,,,,,,,,,,,,,,,,,,,,,,,,,,,,,,,,,,,,,,,,,,,,,,,,,,,,,,,,,,,,,,,,
,,?,0.00076,0,,,,,,stimuli/images/PICTURE_677.png,MILE,5ed2bf022955ea23fb3c964c,2020-06-30_14h40.52.376,proactive,2020.1.2,Win32,60,5efb791ed4cb570da489e737,5efb8712acf56b109b772ba4,5,,,,,,map,,,,,,,,,,,4,0,0,14,14,30,1,,,,,,,,,,,,,,,,,,,,,,,,,,,,,,,,,,,,,,,,,,,,,,,,,,,,,,,,,,,,,,,,,,,,,,
,,?,0.00046,0,,,,,,stimuli/images/PICTURE_285.png,ADVICE,5ed2bf022955ea23fb3c964c,2020-06-30_14h40.52.376,proactive,2020.1.2,Win32,60,5efb791ed4cb570da489e737,5efb8712acf56b109b772ba4,5,,,,,,carrot,,,,,,,,,,,2,0,0,15,15,12,1,,,,,,,,,,,,,,,,,,,,,,,,,,,,,,,,,,,,,,,,,,,,,,,,,,,,,,,,,,,,,,,,,,,,,,
,,?,0.000485,0,,,,,,stimuli/images/PICTURE_160.png,LEADER,5ed2bf022955ea23fb3c964c,2020-06-30_14h40.52.376,proactive,2020.1.2,Win32,60,5efb791ed4cb570da489e737,5efb8712acf56b109b772ba4,5,,,,,,wheelbarrow,,,,,,,,,,,1,0,0,16,16,3,1,,,,,,,,,,,,,,,,,,,,,,,,,,,,,,,,,,,,,,,,,,,,,,,,,,,,,,,,,,,,,,,,,,,,,,
,,?,0.000445,0,,,,,,stimuli/images/PICTURE_160.png,FEET,5ed2bf022955ea23fb3c964c,2020-06-30_14h40.52.376,proactive,2020.1.2,Win32,60,5efb791ed4cb570da489e737,5efb8712acf56b109b772ba4,5,,,,,,wheelbarrow,,,,,,,,,,,6,0,0,17,17,58,1,,,,,,,,,,,,,,,,,,,,,,,,,,,,,,,,,,,,,,,,,,,,,,,,,,,,,,,,,,,,,,,,,,,,,,
,,?,0.00049,0,,,,,,stimuli/images/PICTURE_488.png,STYLE,5ed2bf022955ea23fb3c964c,2020-06-30_14h40.52.376,proactive,2020.1.2,Win32,60,5efb791ed4cb570da489e737,5efb8712acf56b109b772ba4,5,,,,,,sun,,,,,,,,,,,4,0,0,18,18,33,1,,,,,,,,,,,,,,,,,,,,,,,,,,,,,,,,,,,,,,,,,,,,,,,,,,,,,,,,,,,,,,,,,,,,,,
,,?,0.000465,0,,,,,,stimuli/images/PICTURE_469.png,ARTIST,5ed2bf022955ea23fb3c964c,2020-06-30_14h40.52.376,proactive,2020.1.2,Win32,60,5efb791ed4cb570da489e737,5efb8712acf56b109b772ba4,5,,,,,,stool,,,,,,,,,,,1,0,0,19,19,6,1,,,,,,,,,,,,,,,,,,,,,,,,,,,,,,,,,,,,,,,,,,,,,,,,,,,,,,,,,,,,,,,,,,,,,,
,,?,0.000485,0,,,,,,stimuli/images/PICTURE_708.png,CLIENT,5ed2bf022955ea23fb3c964c,2020-06-30_14h40.52.376,proactive,2020.1.2,Win32,60,5efb791ed4cb570da489e737,5efb8712acf56b109b772ba4,5,,,,,,monkey,,,,,,,,,,,1,0,0,20,20,5,1,,,,,,,,,,,,,,,,,,,,,,,,,,,,,,,,,,,,,,,,,,,,,,,,,,,,,,,,,,,,,,,,,,,,,,
,,ESTATE,2.60691,1,,,,,,stimuli/images/PICTURE_308.png,ESTATE,5ed2bf022955ea23fb3c964c,2020-06-30_14h40.52.376,proactive,2020.1.2,Win32,60,5efb791ed4cb570da489e737,5efb8712acf56b109b772ba4,5,,,,,,dice,,,,,,,,,,,5,0,0,21,21,46,1,,,,,,,,,,,,,,,,,,,,,,,,,,,,,,,,,,,,,,,,,,,,,,,,,,,,,,,,,,,,,,,,,,,,,,
,,?,0.000885,0,,,,,,stimuli/images/PICTURE_487.png,FLIGHT,5ed2bf022955ea23fb3c964c,2020-06-30_14h40.52.376,proactive,2020.1.2,Win32,60,5efb791ed4cb570da489e737,5efb8712acf56b109b772ba4,5,,,,,,basket,,,,,,,,,,,1,0,0,22,22,9,1,,,,,,,,,,,,,,,,,,,,,,,,,,,,,,,,,,,,,,,,,,,,,,,,,,,,,,,,,,,,,,,,,,,,,,
,,?,0.000495,0,,,,,,stimuli/images/PICTURE_467.png,DEMON,5ed2bf022955ea23fb3c964c,2020-06-30_14h40.52.376,proactive,2020.1.2,Win32,60,5efb791ed4cb570da489e737,5efb8712acf56b109b772ba4,5,,,,,,peg,,,,,,,,,,,3,0,0,23,23,23,1,,,,,,,,,,,,,,,,,,,,,,,,,,,,,,,,,,,,,,,,,,,,,,,,,,,,,,,,,,,,,,,,,,,,,,
,,SYSTEM,1.77932,1,,,,,,stimuli/images/PICTURE_744.png,SYSTEM,5ed2bf022955ea23fb3c964c,2020-06-30_14h40.52.376,proactive,2020.1.2,Win32,60,5efb791ed4cb570da489e737,5efb8712acf56b109b772ba4,5,,,,,,ring,,,,,,,,,,,5,0,0,24,24,43,1,,,,,,,,,,,,,,,,,,,,,,,,,,,,,,,,,,,,,,,,,,,,,,,,,,,,,,,,,,,,,,,,,,,,,,
,,?,0.000975,0,,,,,,stimuli/images/PICTURE_688.png,CASINO,5ed2bf022955ea23fb3c964c,2020-06-30_14h40.52.376,proactive,2020.1.2,Win32,60,5efb791ed4cb570da489e737,5efb8712acf56b109b772ba4,5,,,,,,runner,,,,,,,,,,,1,0,0,25,25,2,1,,,,,,,,,,,,,,,,,,,,,,,,,,,,,,,,,,,,,,,,,,,,,,,,,,,,,,,,,,,,,,,,,,,,,,
,,?,0.00058,0,,,,,,stimuli/images/PICTURE_95.png,STYLE,5ed2bf022955ea23fb3c964c,2020-06-30_14h40.52.376,proactive,2020.1.2,Win32,60,5efb791ed4cb570da489e737,5efb8712acf56b109b772ba4,5,,,,,,suitcase,,,,,,,,,,,3,0,0,26,26,25,1,,,,,,,,,,,,,,,,,,,,,,,,,,,,,,,,,,,,,,,,,,,,,,,,,,,,,,,,,,,,,,,,,,,,,,
,,?,0.00046,0,,,,,,stimuli/images/PICTURE_356.png,DANGER,5ed2bf022955ea23fb3c964c,2020-06-30_14h40.52.376,proactive,2020.1.2,Win32,60,5efb791ed4cb570da489e737,5efb8712acf56b109b772ba4,5,,,,,,pawn,,,,,,,,,,,6,0,0,27,27,55,1,,,,,,,,,,,,,,,,,,,,,,,,,,,,,,,,,,,,,,,,,,,,,,,,,,,,,,,,,,,,,,,,,,,,,,
,,?,0.00048,0,,,,,,stimuli/images/PICTURE_688.png,WOMEN,5ed2bf022955ea23fb3c964c,2020-06-30_14h40.52.376,proactive,2020.1.2,Win32,60,5efb791ed4cb570da489e737,5efb8712acf56b109b772ba4,5,,,,,,runner,,,,,,,,,,,2,0,0,28,28,14,1,,,,,,,,,,,,,,,,,,,,,,,,,,,,,,,,,,,,,,,,,,,,,,,,,,,,,,,,,,,,,,,,,,,,,,
,,?,0.000605,0,,,,,,stimuli/images/PICTURE_654.png,VALLEY,5ed2bf022955ea23fb3c964c,2020-06-30_14h40.52.376,proactive,2020.1.2,Win32,60,5efb791ed4cb570da489e737,5efb8712acf56b109b772ba4,5,,,,,,pencil,,,,,,,,,,,1,0,0,29,29,1,1,,,,,,,,,,,,,,,,,,,,,,,,,,,,,,,,,,,,,,,,,,,,,,,,,,,,,,,,,,,,,,,,,,,,,,
