consent_key.keys,consent_key.rt,recalled,recalled_rt,recall_acc,example_recall.thisRepN,example_recall.thisTrialN,example_recall.thisN,example_recall.thisIndex,example_recall.ran,file,word,participant,please enter your date of birth (dd/mm/yyyy),date,expName,psychopyVersion,OS,frameRate,STUDY_ID,SESSION_ID,list,prac_learn_study_loop.thisRepN,prac_learn_study_loop.thisTrialN,prac_learn_study_loop.thisN,prac_learn_study_loop.thisIndex,prac_learn_study_loop.ran,image,prac_learn_test_loop.thisRepN,prac_learn_test_loop.thisTrialN,prac_learn_test_loop.thisN,prac_learn_test_loop.thisIndex,prac_learn_test_loop.ran,learn_study_loop.thisRepN,learn_study_loop.thisTrialN,learn_study_loop.thisN,learn_study_loop.thisIndex,learn_study_loop.ran,list_no,block_no,learn_test_loop.thisRepN,learn_test_loop.thisTrialN,learn_test_loop.thisN,learn_test_loop.thisIndex,learn_test_loop.ran,learn_blocks.thisRepN,learn_blocks.thisTrialN,learn_blocks.thisN,learn_blocks.thisIndex,learn_blocks.ran,block_csv,key_resp_13.keys,key_resp_13.rt,learn_blocks_loop.thisRepN,learn_blocks_loop.thisTrialN,learn_blocks_loop.thisN,learn_blocks_loop.thisIndex,learn_blocks_loop.ran,final_learn_test.thisRepN,final_learn_test.thisTrialN,final_learn_test.thisN,final_learn_test.thisIndex,final_learn_test.ran,prac_wm_test_loop.thisRepN,prac_wm_test_loop.thisTrialN,prac_wm_test_loop.thisN,prac_wm_test_loop.thisIndex,prac_wm_test_loop.ran,wm_recalled1,wm_recall_rt1,wm_probed1,wm_recall_acc1,wm_recalled2,wm_recall_rt2,wm_probed2,wm_recall_acc2,wm_recalled3,wm_recall_rt3,wm_probed3,wm_recall_acc3,wm_recalled4,wm_recall_rt4,wm_probed4,wm_recall_acc4,prac_wm_trial_loop.thisRepN,prac_wm_trial_loop.thisTrialN,prac_wm_trial_loop.thisN,prac_wm_trial_loop.thisIndex,prac_wm_trial_loop.ran,word1,image1,file1,item_type1,word2,image2,file2,item_type2,word4,image4,file4,item_type4,word3,image3,file3,item_type3,wm_test_loop.thisRepN,wm_test_loop.thisTrialN,wm_test_loop.thisN,wm_test_loop.thisIndex,wm_test_loop.ran,wm_trial_loop.thisRepN,wm_trial_loop.thisTrialN,wm_trial_loop.thisN,wm_trial_loop.thisIndex,wm_trial_loop.ran
y,53.46668,TOUGH,6.240215,1,0,0,0,0,1,stimuli/images/PICTURE_747.png,TOUGH,5edf4de806a7db1fb57bc01a,6/8/1994,2020-07-08_09h06.23.960,proactive,2020.1.2,Win32,60,5f035e5afe130c270d6ae6dd,5f05e57e09b0de0b9d5cc3f0,1,,,,,,,,,,,,,,,,,,,,,,,,,,,,,,,,,,,,,,,,,,,,,,,,,,,,,,,,,,,,,,,,,,,,,,,,,,,,,,,,,,,,,,,,,,,,,
,,,,,,,,,,stimuli/images/PICTURE_269.png,GENIUS,5edf4de806a7db1fb57bc01a,6/8/1994,2020-07-08_09h06.23.960,proactive,2020.1.2,Win32,60,5f035e5afe130c270d6ae6dd,5f05e57e09b0de0b9d5cc3f0,1,0,0,0,0,1,chameleon,,,,,,,,,,,,,,,,,,,,,,,,,,,,,,,,,,,,,,,,,,,,,,,,,,,,,,,,,,,,,,,,,,,,,,,,,,,,,,,,,,,,,,,
,,,,,,,,,,stimuli/images/PICTURE_727.png,CELL,5edf4de806a7db1fb57bc01a,6/8/1994,2020-07-08_09h06.23.960,proactive,2020.1.2,Win32,60,5f035e5afe130c270d6ae6dd,5f05e57e09b0de0b9d5cc3f0,1,0,1,1,1,1,hose,,,,,,,,,,,,,,,,,,,,,,,,,,,,,,,,,,,,,,,,,,,,,,,,,,,,,,,,,,,,,,,,,,,,,,,,,,,,,,,,,,,,,,,
,,,,,,,,,,stimuli/images/PICTURE_658.png,DEVIL,5edf4de806a7db1fb57bc01a,6/8/1994,2020-07-08_09h06.23.960,proactive,2020.1.2,Win32,60,5f035e5afe130c270d6ae6dd,5f05e57e09b0de0b9d5cc3f0,1,0,2,2,3,1,crow,,,,,,,,,,,,,,,,,,,,,,,,,,,,,,,,,,,,,,,,,,,,,,,,,,,,,,,,,,,,,,,,,,,,,,,,,,,,,,,,,,,,,,,
,,,,,,,,,,stimuli/images/PICTURE_697.png,KILLER,5edf4de806a7db1fb57bc01a,6/8/1994,2020-07-08_09h06.23.960,proactive,2020.1.2,Win32,60,5f035e5afe130c270d6ae6dd,5f05e57e09b0de0b9d5cc3f0,1,0,3,3,4,1,peach,,,,,,,,,,,,,,,,,,,,,,,,,,,,,,,,,,,,,,,,,,,,,,,,,,,,,,,,,,,,,,,,,,,,,,,,,,,,,,,,,,,,,,,
,,LOSS,7.098635,1,,,,,,stimuli/images/PICTURE_378.png,LOSS,5edf4de806a7db1fb57bc01a,6/8/1994,2020-07-08_09h06.23.960,proactive,2020.1.2,Win32,60,5f035e5afe130c270d6ae6dd,5f05e57e09b0de0b9d5cc3f0,1,,,,,,lobster,0,0,0,2,1,,,,,,,,,,,,,,,,,,,,,,,,,,,,,,,,,,,,,,,,,,,,,,,,,,,,,,,,,,,,,,,,,,,,,,,,,,,,,,,,,,
,,DEVIL,3.34385,1,,,,,,stimuli/images/PICTURE_658.png,DEVIL,5edf4de806a7db1fb57bc01a,6/8/1994,2020-07-08_09h06.23.960,proactive,2020.1.2,Win32,60,5f035e5afe130c270d6ae6dd,5f05e57e09b0de0b9d5cc3f0,1,,,,,,crow,0,1,1,3,1,,,,,,,,,,,,,,,,,,,,,,,,,,,,,,,,,,,,,,,,,,,,,,,,,,,,,,,,,,,,,,,,,,,,,,,,,,,,,,,,,,
,,CELL,2.726295,1,,,,,,stimuli/images/PICTURE_727.png,CELL,5edf4de806a7db1fb57bc01a,6/8/1994,2020-07-08_09h06.23.960,proactive,2020.1.2,Win32,60,5f035e5afe130c270d6ae6dd,5f05e57e09b0de0b9d5cc3f0,1,,,,,,hose,0,2,2,1,1,,,,,,,,,,,,,,,,,,,,,,,,,,,,,,,,,,,,,,,,,,,,,,,,,,,,,,,,,,,,,,,,,,,,,,,,,,,,,,,,,,
,,KILLER,3.08158,1,,,,,,stimuli/images/PICTURE_697.png,KILLER,5edf4de806a7db1fb57bc01a,6/8/1994,2020-07-08_09h06.23.960,proactive,2020.1.2,Win32,60,5f035e5afe130c270d6ae6dd,5f05e57e09b0de0b9d5cc3f0,1,,,,,,peach,0,3,3,4,1,,,,,,,,,,,,,,,,,,,,,,,,,,,,,,,,,,,,,,,,,,,,,,,,,,,,,,,,,,,,,,,,,,,,,,,,,,,,,,,,,,
,,GENIUS,6.609855,1,,,,,,stimuli/images/PICTURE_269.png,GENIUS,5edf4de806a7db1fb57bc01a,6/8/1994,2020-07-08_09h06.23.960,proactive,2020.1.2,Win32,60,5f035e5afe130c270d6ae6dd,5f05e57e09b0de0b9d5cc3f0,1,,,,,,chameleon,0,4,4,0,1,,,,,,,,,,,,,,,,,,,,,,,,,,,,,,,,,,,,,,,,,,,,,,,,,,,,,,,,,,,,,,,,,,,,,,,,,,,,,,,,,,
,,,,,,,,,,stimuli/images/PICTURE_308.png,ESTATE,5edf4de806a7db1fb57bc01a,6/8/1994,2020-07-08_09h06.23.960,proactive,2020.1.2,Win32,60,5f035e5afe130c270d6ae6dd,5f05e57e09b0de0b9d5cc3f0,1,,,,,,dice,,,,,,0,0,0,46,1,5,0,,,,,,,,,,,,,,,,,,,,,,,,,,,,,,,,,,,,,,,,,,,,,,,,,,,,,,,,,,,,,,,,,,,,,,,,,,,
,,,,,,,,,,stimuli/images/PICTURE_68.png,MILE,5edf4de806a7db1fb57bc01a,6/8/1994,2020-07-08_09h06.23.960,proactive,2020.1.2,Win32,60,5f035e5afe130c270d6ae6dd,5f05e57e09b0de0b9d5cc3f0,1,,,,,,candle,,,,,,0,1,1,44,1,5,0,,,,,,,,,,,,,,,,,,,,,,,,,,,,,,,,,,,,,,,,,,,,,,,,,,,,,,,,,,,,,,,,,,,,,,,,,,,
,,,,,,,,,,stimuli/images/PICTURE_32.png,JUNGLE,5edf4de806a7db1fb57bc01a,6/8/1994,2020-07-08_09h06.23.960,proactive,2020.1.2,Win32,60,5f035e5afe130c270d6ae6dd,5f05e57e09b0de0b9d5cc3f0,1,,,,,,crown,,,,,,0,2,2,45,1,5,0,,,,,,,,,,,,,,,,,,,,,,,,,,,,,,,,,,,,,,,,,,,,,,,,,,,,,,,,,,,,,,,,,,,,,,,,,,,
,,,,,,,,,,stimuli/images/PICTURE_470.png,CASINO,5edf4de806a7db1fb57bc01a,6/8/1994,2020-07-08_09h06.23.960,proactive,2020.1.2,Win32,60,5f035e5afe130c270d6ae6dd,5f05e57e09b0de0b9d5cc3f0,1,,,,,,motorbike,,,,,,0,3,3,36,1,4,0,,,,,,,,,,,,,,,,,,,,,,,,,,,,,,,,,,,,,,,,,,,,,,,,,,,,,,,,,,,,,,,,,,,,,,,,,,,
,,,,,,,,,,stimuli/images/PICTURE_688.png,WOMEN,5edf4de806a7db1fb57bc01a,6/8/1994,2020-07-08_09h06.23.960,proactive,2020.1.2,Win32,60,5f035e5afe130c270d6ae6dd,5f05e57e09b0de0b9d5cc3f0,1,,,,,,runner,,,,,,0,4,4,14,1,2,0,,,,,,,,,,,,,,,,,,,,,,,,,,,,,,,,,,,,,,,,,,,,,,,,,,,,,,,,,,,,,,,,,,,,,,,,,,,
,,,,,,,,,,stimuli/images/PICTURE_467.png,DEMON,5edf4de806a7db1fb57bc01a,6/8/1994,2020-07-08_09h06.23.960,proactive,2020.1.2,Win32,60,5f035e5afe130c270d6ae6dd,5f05e57e09b0de0b9d5cc3f0,1,,,,,,peg,,,,,,0,5,5,23,1,3,0,,,,,,,,,,,,,,,,,,,,,,,,,,,,,,,,,,,,,,,,,,,,,,,,,,,,,,,,,,,,,,,,,,,,,,,,,,,
,,,,,,,,,,stimuli/images/PICTURE_677.png,MILE,5edf4de806a7db1fb57bc01a,6/8/1994,2020-07-08_09h06.23.960,proactive,2020.1.2,Win32,60,5f035e5afe130c270d6ae6dd,5f05e57e09b0de0b9d5cc3f0,1,,,,,,map,,,,,,0,6,6,30,1,4,0,,,,,,,,,,,,,,,,,,,,,,,,,,,,,,,,,,,,,,,,,,,,,,,,,,,,,,,,,,,,,,,,,,,,,,,,,,,
,,,,,,,,,,stimuli/images/PICTURE_123.png,ADVICE,5edf4de806a7db1fb57bc01a,6/8/1994,2020-07-08_09h06.23.960,proactive,2020.1.2,Win32,60,5f035e5afe130c270d6ae6dd,5f05e57e09b0de0b9d5cc3f0,1,,,,,,dart,,,,,,0,7,7,50,1,6,0,,,,,,,,,,,,,,,,,,,,,,,,,,,,,,,,,,,,,,,,,,,,,,,,,,,,,,,,,,,,,,,,,,,,,,,,,,,
,,,,,,,,,,stimuli/images/PICTURE_285.png,ADVICE,5edf4de806a7db1fb57bc01a,6/8/1994,2020-07-08_09h06.23.960,proactive,2020.1.2,Win32,60,5f035e5afe130c270d6ae6dd,5f05e57e09b0de0b9d5cc3f0,1,,,,,,carrot,,,,,,0,8,8,12,1,2,0,,,,,,,,,,,,,,,,,,,,,,,,,,,,,,,,,,,,,,,,,,,,,,,,,,,,,,,,,,,,,,,,,,,,,,,,,,,
,,,,,,,,,,stimuli/images/PICTURE_208.png,THING,5edf4de806a7db1fb57bc01a,6/8/1994,2020-07-08_09h06.23.960,proactive,2020.1.2,Win32,60,5f035e5afe130c270d6ae6dd,5f05e57e09b0de0b9d5cc3f0,1,,,,,,microphone,,,,,,0,9,9,47,1,5,0,,,,,,,,,,,,,,,,,,,,,,,,,,,,,,,,,,,,,,,,,,,,,,,,,,,,,,,,,,,,,,,,,,,,,,,,,,,
,,,,,,,,,,stimuli/images/PICTURE_491.png,ROOF,5edf4de806a7db1fb57bc01a,6/8/1994,2020-07-08_09h06.23.960,proactive,2020.1.2,Win32,60,5f035e5afe130c270d6ae6dd,5f05e57e09b0de0b9d5cc3f0,1,,,,,,rug,,,,,,0,10,10,24,1,3,0,,,,,,,,,,,,,,,,,,,,,,,,,,,,,,,,,,,,,,,,,,,,,,,,,,,,,,,,,,,,,,,,,,,,,,,,,,,
,,,,,,,,,,stimuli/images/PICTURE_339.png,PLENTY,5edf4de806a7db1fb57bc01a,6/8/1994,2020-07-08_09h06.23.960,proactive,2020.1.2,Win32,60,5f035e5afe130c270d6ae6dd,5f05e57e09b0de0b9d5cc3f0,1,,,,,,backpack,,,,,,0,11,11,0,1,1,0,,,,,,,,,,,,,,,,,,,,,,,,,,,,,,,,,,,,,,,,,,,,,,,,,,,,,,,,,,,,,,,,,,,,,,,,,,,
,,,,,,,,,,stimuli/images/PICTURE_203.png,ARTIST,5edf4de806a7db1fb57bc01a,6/8/1994,2020-07-08_09h06.23.960,proactive,2020.1.2,Win32,60,5f035e5afe130c270d6ae6dd,5f05e57e09b0de0b9d5cc3f0,1,,,,,,cap,,,,,,0,12,12,26,1,3,0,,,,,,,,,,,,,,,,,,,,,,,,,,,,,,,,,,,,,,,,,,,,,,,,,,,,,,,,,,,,,,,,,,,,,,,,,,,
,,,,,,,,,,stimuli/images/PICTURE_215.png,PLENTY,5edf4de806a7db1fb57bc01a,6/8/1994,2020-07-08_09h06.23.960,proactive,2020.1.2,Win32,60,5f035e5afe130c270d6ae6dd,5f05e57e09b0de0b9d5cc3f0,1,,,,,,boot,,,,,,0,13,13,37,1,4,0,,,,,,,,,,,,,,,,,,,,,,,,,,,,,,,,,,,,,,,,,,,,,,,,,,,,,,,,,,,,,,,,,,,,,,,,,,,
,,,,,,,,,,stimuli/images/PICTURE_469.png,LETTER,5edf4de806a7db1fb57bc01a,6/8/1994,2020-07-08_09h06.23.960,proactive,2020.1.2,Win32,60,5f035e5afe130c270d6ae6dd,5f05e57e09b0de0b9d5cc3f0,1,,,,,,stool,,,,,,0,14,14,42,1,5,0,,,,,,,,,,,,,,,,,,,,,,,,,,,,,,,,,,,,,,,,,,,,,,,,,,,,,,,,,,,,,,,,,,,,,,,,,,,
,,,,,,,,,,stimuli/images/PICTURE_95.png,STYLE,5edf4de806a7db1fb57bc01a,6/8/1994,2020-07-08_09h06.23.960,proactive,2020.1.2,Win32,60,5f035e5afe130c270d6ae6dd,5f05e57e09b0de0b9d5cc3f0,1,,,,,,suitcase,,,,,,0,15,15,25,1,3,0,,,,,,,,,,,,,,,,,,,,,,,,,,,,,,,,,,,,,,,,,,,,,,,,,,,,,,,,,,,,,,,,,,,,,,,,,,,
,,,,,,,,,,stimuli/images/PICTURE_255.png,AREA,5edf4de806a7db1fb57bc01a,6/8/1994,2020-07-08_09h06.23.960,proactive,2020.1.2,Win32,60,5f035e5afe130c270d6ae6dd,5f05e57e09b0de0b9d5cc3f0,1,,,,,,shovel,,,,,,0,16,16,22,1,3,0,,,,,,,,,,,,,,,,,,,,,,,,,,,,,,,,,,,,,,,,,,,,,,,,,,,,,,,,,,,,,,,,,,,,,,,,,,,
,,,,,,,,,,stimuli/images/PICTURE_469.png,ARTIST,5edf4de806a7db1fb57bc01a,6/8/1994,2020-07-08_09h06.23.960,proactive,2020.1.2,Win32,60,5f035e5afe130c270d6ae6dd,5f05e57e09b0de0b9d5cc3f0,1,,,,,,stool,,,,,,0,17,17,6,1,1,0,,,,,,,,,,,,,,,,,,,,,,,,,,,,,,,,,,,,,,,,,,,,,,,,,,,,,,,,,,,,,,,,,,,,,,,,,,,
,,,,,,,,,,stimuli/images/PICTURE_208.png,MONTH,5edf4de806a7db1fb57bc01a,6/8/1994,2020-07-08_09h06.23.960,proactive,2020.1.2,Win32,60,5f035e5afe130c270d6ae6dd,5f05e57e09b0de0b9d5cc3f0,1,,,,,,microphone,,,,,,0,18,18,53,1,6,0,,,,,,,,,,,,,,,,,,,,,,,,,,,,,,,,,,,,,,,,,,,,,,,,,,,,,,,,,,,,,,,,,,,,,,,,,,,
,,,,,,,,,,stimuli/images/PICTURE_308.png,KIND,5edf4de806a7db1fb57bc01a,6/8/1994,2020-07-08_09h06.23.960,proactive,2020.1.2,Win32,60,5f035e5afe130c270d6ae6dd,5f05e57e09b0de0b9d5cc3f0,1,,,,,,dice,,,,,,0,19,19,54,1,6,0,,,,,,,,,,,,,,,,,,,,,,,,,,,,,,,,,,,,,,,,,,,,,,,,,,,,,,,,,,,,,,,,,,,,,,,,,,,
,,,,,,,,,,stimuli/images/PICTURE_160.png,FEET,5edf4de806a7db1fb57bc01a,6/8/1994,2020-07-08_09h06.23.960,proactive,2020.1.2,Win32,60,5f035e5afe130c270d6ae6dd,5f05e57e09b0de0b9d5cc3f0,1,,,,,,wheelbarrow,,,,,,0,20,20,58,1,6,0,,,,,,,,,,,,,,,,,,,,,,,,,,,,,,,,,,,,,,,,,,,,,,,,,,,,,,,,,,,,,,,,,,,,,,,,,,,
,,,,,,,,,,stimuli/images/PICTURE_160.png,LEADER,5edf4de806a7db1fb57bc01a,6/8/1994,2020-07-08_09h06.23.960,proactive,2020.1.2,Win32,60,5f035e5afe130c270d6ae6dd,5f05e57e09b0de0b9d5cc3f0,1,,,,,,wheelbarrow,,,,,,0,21,21,3,1,1,0,,,,,,,,,,,,,,,,,,,,,,,,,,,,,,,,,,,,,,,,,,,,,,,,,,,,,,,,,,,,,,,,,,,,,,,,,,,
,,,,,,,,,,stimuli/images/PICTURE_487.png,FLIGHT,5edf4de806a7db1fb57bc01a,6/8/1994,2020-07-08_09h06.23.960,proactive,2020.1.2,Win32,60,5f035e5afe130c270d6ae6dd,5f05e57e09b0de0b9d5cc3f0,1,,,,,,basket,,,,,,0,22,22,9,1,1,0,,,,,,,,,,,,,,,,,,,,,,,,,,,,,,,,,,,,,,,,,,,,,,,,,,,,,,,,,,,,,,,,,,,,,,,,,,,
,,,,,,,,,,stimuli/images/PICTURE_453.png,DUDE,5edf4de806a7db1fb57bc01a,6/8/1994,2020-07-08_09h06.23.960,proactive,2020.1.2,Win32,60,5f035e5afe130c270d6ae6dd,5f05e57e09b0de0b9d5cc3f0,1,,,,,,scissors,,,,,,0,23,23,27,1,3,0,,,,,,,,,,,,,,,,,,,,,,,,,,,,,,,,,,,,,,,,,,,,,,,,,,,,,,,,,,,,,,,,,,,,,,,,,,,
,,,,,,,,,,stimuli/images/PICTURE_348.png,SPEECH,5edf4de806a7db1fb57bc01a,6/8/1994,2020-07-08_09h06.23.960,proactive,2020.1.2,Win32,60,5f035e5afe130c270d6ae6dd,5f05e57e09b0de0b9d5cc3f0,1,,,,,,pepper,,,,,,0,24,24,20,1,3,0,,,,,,,,,,,,,,,,,,,,,,,,,,,,,,,,,,,,,,,,,,,,,,,,,,,,,,,,,,,,,,,,,,,,,,,,,,,
,,,,,,,,,,stimuli/images/PICTURE_302.png,FAMILY,5edf4de806a7db1fb57bc01a,6/8/1994,2020-07-08_09h06.23.960,proactive,2020.1.2,Win32,60,5f035e5afe130c270d6ae6dd,5f05e57e09b0de0b9d5cc3f0,1,,,,,,taxi,,,,,,0,25,25,18,1,2,0,,,,,,,,,,,,,,,,,,,,,,,,,,,,,,,,,,,,,,,,,,,,,,,,,,,,,,,,,,,,,,,,,,,,,,,,,,,
,,,,,,,,,,stimuli/images/PICTURE_504.png,BODY,5edf4de806a7db1fb57bc01a,6/8/1994,2020-07-08_09h06.23.960,proactive,2020.1.2,Win32,60,5f035e5afe130c270d6ae6dd,5f05e57e09b0de0b9d5cc3f0,1,,,,,,wheel,,,,,,0,26,26,8,1,1,0,,,,,,,,,,,,,,,,,,,,,,,,,,,,,,,,,,,,,,,,,,,,,,,,,,,,,,,,,,,,,,,,,,,,,,,,,,,
,,,,,,,,,,stimuli/images/PICTURE_708.png,YARD,5edf4de806a7db1fb57bc01a,6/8/1994,2020-07-08_09h06.23.960,proactive,2020.1.2,Win32,60,5f035e5afe130c270d6ae6dd,5f05e57e09b0de0b9d5cc3f0,1,,,,,,monkey,,,,,,0,27,27,29,1,3,0,,,,,,,,,,,,,,,,,,,,,,,,,,,,,,,,,,,,,,,,,,,,,,,,,,,,,,,,,,,,,,,,,,,,,,,,,,,
,,,,,,,,,,stimuli/images/PICTURE_667.png,PLENTY,5edf4de806a7db1fb57bc01a,6/8/1994,2020-07-08_09h06.23.960,proactive,2020.1.2,Win32,60,5f035e5afe130c270d6ae6dd,5f05e57e09b0de0b9d5cc3f0,1,,,,,,daisy,,,,,,0,28,28,41,1,5,0,,,,,,,,,,,,,,,,,,,,,,,,,,,,,,,,,,,,,,,,,,,,,,,,,,,,,,,,,,,,,,,,,,,,,,,,,,,
,,,,,,,,,,stimuli/images/PICTURE_380.png,PHOTO,5edf4de806a7db1fb57bc01a,6/8/1994,2020-07-08_09h06.23.960,proactive,2020.1.2,Win32,60,5f035e5afe130c270d6ae6dd,5f05e57e09b0de0b9d5cc3f0,1,,,,,,gorilla,,,,,,0,29,29,52,1,6,0,,,,,,,,,,,,,,,,,,,,,,,,,,,,,,,,,,,,,,,,,,,,,,,,,,,,,,,,,,,,,,,,,,,,,,,,,,,
,,,,,,,,,,stimuli/images/PICTURE_449.png,THING,5edf4de806a7db1fb57bc01a,6/8/1994,2020-07-08_09h06.23.960,proactive,2020.1.2,Win32,60,5f035e5afe130c270d6ae6dd,5f05e57e09b0de0b9d5cc3f0,1,,,,,,bench,,,,,,0,30,30,59,1,6,0,,,,,,,,,,,,,,,,,,,,,,,,,,,,,,,,,,,,,,,,,,,,,,,,,,,,,,,,,,,,,,,,,,,,,,,,,,,
,,,,,,,,,,stimuli/images/PICTURE_177.png,CARS,5edf4de806a7db1fb57bc01a,6/8/1994,2020-07-08_09h06.23.960,proactive,2020.1.2,Win32,60,5f035e5afe130c270d6ae6dd,5f05e57e09b0de0b9d5cc3f0,1,,,,,,mushroom,,,,,,0,31,31,35,1,4,0,,,,,,,,,,,,,,,,,,,,,,,,,,,,,,,,,,,,,,,,,,,,,,,,,,,,,,,,,,,,,,,,,,,,,,,,,,,
,,,,,,,,,,stimuli/images/PICTURE_327.png,BEAUTY,5edf4de806a7db1fb57bc01a,6/8/1994,2020-07-08_09h06.23.960,proactive,2020.1.2,Win32,60,5f035e5afe130c270d6ae6dd,5f05e57e09b0de0b9d5cc3f0,1,,,,,,helmet,,,,,,0,32,32,48,1,5,0,,,,,,,,,,,,,,,,,,,,,,,,,,,,,,,,,,,,,,,,,,,,,,,,,,,,,,,,,,,,,,,,,,,,,,,,,,,
,,,,,,,,,,stimuli/images/PICTURE_708.png,PENNY,5edf4de806a7db1fb57bc01a,6/8/1994,2020-07-08_09h06.23.960,proactive,2020.1.2,Win32,60,5f035e5afe130c270d6ae6dd,5f05e57e09b0de0b9d5cc3f0,1,,,,,,monkey,,,,,,0,33,33,31,1,4,0,,,,,,,,,,,,,,,,,,,,,,,,,,,,,,,,,,,,,,,,,,,,,,,,,,,,,,,,,,,,,,,,,,,,,,,,,,,
,,,,,,,,,,stimuli/images/PICTURE_311.png,BEAUTY,5edf4de806a7db1fb57bc01a,6/8/1994,2020-07-08_09h06.23.960,proactive,2020.1.2,Win32,60,5f035e5afe130c270d6ae6dd,5f05e57e09b0de0b9d5cc3f0,1,,,,,,razor,,,,,,0,34,34,13,1,2,0,,,,,,,,,,,,,,,,,,,,,,,,,,,,,,,,,,,,,,,,,,,,,,,,,,,,,,,,,,,,,,,,,,,,,,,,,,,
,,,,,,,,,,stimuli/images/PICTURE_692.png,MONTH,5edf4de806a7db1fb57bc01a,6/8/1994,2020-07-08_09h06.23.960,proactive,2020.1.2,Win32,60,5f035e5afe130c270d6ae6dd,5f05e57e09b0de0b9d5cc3f0,1,,,,,,cherry,,,,,,0,35,35,16,1,2,0,,,,,,,,,,,,,,,,,,,,,,,,,,,,,,,,,,,,,,,,,,,,,,,,,,,,,,,,,,,,,,,,,,,,,,,,,,,
,,,,,,,,,,stimuli/images/PICTURE_314.png,GODS,5edf4de806a7db1fb57bc01a,6/8/1994,2020-07-08_09h06.23.960,proactive,2020.1.2,Win32,60,5f035e5afe130c270d6ae6dd,5f05e57e09b0de0b9d5cc3f0,1,,,,,,perfume,,,,,,0,36,36,11,1,2,0,,,,,,,,,,,,,,,,,,,,,,,,,,,,,,,,,,,,,,,,,,,,,,,,,,,,,,,,,,,,,,,,,,,,,,,,,,,
,,,,,,,,,,stimuli/images/PICTURE_688.png,CASINO,5edf4de806a7db1fb57bc01a,6/8/1994,2020-07-08_09h06.23.960,proactive,2020.1.2,Win32,60,5f035e5afe130c270d6ae6dd,5f05e57e09b0de0b9d5cc3f0,1,,,,,,runner,,,,,,0,37,37,2,1,1,0,,,,,,,,,,,,,,,,,,,,,,,,,,,,,,,,,,,,,,,,,,,,,,,,,,,,,,,,,,,,,,,,,,,,,,,,,,,
,,,,,,,,,,stimuli/images/PICTURE_453.png,PLENTY,5edf4de806a7db1fb57bc01a,6/8/1994,2020-07-08_09h06.23.960,proactive,2020.1.2,Win32,60,5f035e5afe130c270d6ae6dd,5f05e57e09b0de0b9d5cc3f0,1,,,,,,scissors,,,,,,0,38,38,56,1,6,0,,,,,,,,,,,,,,,,,,,,,,,,,,,,,,,,,,,,,,,,,,,,,,,,,,,,,,,,,,,,,,,,,,,,,,,,,,,
,,,,,,,,,,stimuli/images/PICTURE_509.png,PHOTO,5edf4de806a7db1fb57bc01a,6/8/1994,2020-07-08_09h06.23.960,proactive,2020.1.2,Win32,60,5f035e5afe130c270d6ae6dd,5f05e57e09b0de0b9d5cc3f0,1,,,,,,telephone,,,,,,0,39,39,21,1,3,0,,,,,,,,,,,,,,,,,,,,,,,,,,,,,,,,,,,,,,,,,,,,,,,,,,,,,,,,,,,,,,,,,,,,,,,,,,,
,,,,,,,,,,stimuli/images/PICTURE_380.png,DEATH,5edf4de806a7db1fb57bc01a,6/8/1994,2020-07-08_09h06.23.960,proactive,2020.1.2,Win32,60,5f035e5afe130c270d6ae6dd,5f05e57e09b0de0b9d5cc3f0,1,,,,,,gorilla,,,,,,0,40,40,49,1,5,0,,,,,,,,,,,,,,,,,,,,,,,,,,,,,,,,,,,,,,,,,,,,,,,,,,,,,,,,,,,,,,,,,,,,,,,,,,,
,,,,,,,,,,stimuli/images/PICTURE_208.png,LOTS,5edf4de806a7db1fb57bc01a,6/8/1994,2020-07-08_09h06.23.960,proactive,2020.1.2,Win32,60,5f035e5afe130c270d6ae6dd,5f05e57e09b0de0b9d5cc3f0,1,,,,,,microphone,,,,,,0,41,41,10,1,2,0,,,,,,,,,,,,,,,,,,,,,,,,,,,,,,,,,,,,,,,,,,,,,,,,,,,,,,,,,,,,,,,,,,,,,,,,,,,
,,,,,,,,,,stimuli/images/PICTURE_85.png,THING,5edf4de806a7db1fb57bc01a,6/8/1994,2020-07-08_09h06.23.960,proactive,2020.1.2,Win32,60,5f035e5afe130c270d6ae6dd,5f05e57e09b0de0b9d5cc3f0,1,,,,,,diamond,,,,,,0,42,42,15,1,2,0,,,,,,,,,,,,,,,,,,,,,,,,,,,,,,,,,,,,,,,,,,,,,,,,,,,,,,,,,,,,,,,,,,,,,,,,,,,
,,,,,,,,,,stimuli/images/PICTURE_744.png,SAKE,5edf4de806a7db1fb57bc01a,6/8/1994,2020-07-08_09h06.23.960,proactive,2020.1.2,Win32,60,5f035e5afe130c270d6ae6dd,5f05e57e09b0de0b9d5cc3f0,1,,,,,,ring,,,,,,0,43,43,17,1,2,0,,,,,,,,,,,,,,,,,,,,,,,,,,,,,,,,,,,,,,,,,,,,,,,,,,,,,,,,,,,,,,,,,,,,,,,,,,,
,,,,,,,,,,stimuli/images/PICTURE_667.png,BATH,5edf4de806a7db1fb57bc01a,6/8/1994,2020-07-08_09h06.23.960,proactive,2020.1.2,Win32,60,5f035e5afe130c270d6ae6dd,5f05e57e09b0de0b9d5cc3f0,1,,,,,,daisy,,,,,,0,44,44,4,1,1,0,,,,,,,,,,,,,,,,,,,,,,,,,,,,,,,,,,,,,,,,,,,,,,,,,,,,,,,,,,,,,,,,,,,,,,,,,,,
,,,,,,,,,,stimuli/images/PICTURE_675.png,WEAPON,5edf4de806a7db1fb57bc01a,6/8/1994,2020-07-08_09h06.23.960,proactive,2020.1.2,Win32,60,5f035e5afe130c270d6ae6dd,5f05e57e09b0de0b9d5cc3f0,1,,,,,,windmill,,,,,,0,45,45,32,1,4,0,,,,,,,,,,,,,,,,,,,,,,,,,,,,,,,,,,,,,,,,,,,,,,,,,,,,,,,,,,,,,,,,,,,,,,,,,,,
,,,,,,,,,,stimuli/images/PICTURE_654.png,VALLEY,5edf4de806a7db1fb57bc01a,6/8/1994,2020-07-08_09h06.23.960,proactive,2020.1.2,Win32,60,5f035e5afe130c270d6ae6dd,5f05e57e09b0de0b9d5cc3f0,1,,,,,,pencil,,,,,,0,46,46,1,1,1,0,,,,,,,,,,,,,,,,,,,,,,,,,,,,,,,,,,,,,,,,,,,,,,,,,,,,,,,,,,,,,,,,,,,,,,,,,,,
,,,,,,,,,,stimuli/images/PICTURE_356.png,DANGER,5edf4de806a7db1fb57bc01a,6/8/1994,2020-07-08_09h06.23.960,proactive,2020.1.2,Win32,60,5f035e5afe130c270d6ae6dd,5f05e57e09b0de0b9d5cc3f0,1,,,,,,pawn,,,,,,0,47,47,55,1,6,0,,,,,,,,,,,,,,,,,,,,,,,,,,,,,,,,,,,,,,,,,,,,,,,,,,,,,,,,,,,,,,,,,,,,,,,,,,,
,,,,,,,,,,stimuli/images/PICTURE_248.png,DOZEN,5edf4de806a7db1fb57bc01a,6/8/1994,2020-07-08_09h06.23.960,proactive,2020.1.2,Win32,60,5f035e5afe130c270d6ae6dd,5f05e57e09b0de0b9d5cc3f0,1,,,,,,cart,,,,,,0,48,48,39,1,4,0,,,,,,,,,,,,,,,,,,,,,,,,,,,,,,,,,,,,,,,,,,,,,,,,,,,,,,,,,,,,,,,,,,,,,,,,,,,
,,,,,,,,,,stimuli/images/PICTURE_491.png,WRITER,5edf4de806a7db1fb57bc01a,6/8/1994,2020-07-08_09h06.23.960,proactive,2020.1.2,Win32,60,5f035e5afe130c270d6ae6dd,5f05e57e09b0de0b9d5cc3f0,1,,,,,,rug,,,,,,0,49,49,57,1,6,0,,,,,,,,,,,,,,,,,,,,,,,,,,,,,,,,,,,,,,,,,,,,,,,,,,,,,,,,,,,,,,,,,,,,,,,,,,,
,,,,,,,,,,stimuli/images/PICTURE_147.png,MOMENT,5edf4de806a7db1fb57bc01a,6/8/1994,2020-07-08_09h06.23.960,proactive,2020.1.2,Win32,60,5f035e5afe130c270d6ae6dd,5f05e57e09b0de0b9d5cc3f0,1,,,,,,hanger,,,,,,0,50,50,51,1,6,0,,,,,,,,,,,,,,,,,,,,,,,,,,,,,,,,,,,,,,,,,,,,,,,,,,,,,,,,,,,,,,,,,,,,,,,,,,,
,,,,,,,,,,stimuli/images/PICTURE_233.png,IDEAS,5edf4de806a7db1fb57bc01a,6/8/1994,2020-07-08_09h06.23.960,proactive,2020.1.2,Win32,60,5f035e5afe130c270d6ae6dd,5f05e57e09b0de0b9d5cc3f0,1,,,,,,salt,,,,,,0,51,51,28,1,3,0,,,,,,,,,,,,,,,,,,,,,,,,,,,,,,,,,,,,,,,,,,,,,,,,,,,,,,,,,,,,,,,,,,,,,,,,,,,
,,,,,,,,,,stimuli/images/PICTURE_123.png,ADVICE,5edf4de806a7db1fb57bc01a,6/8/1994,2020-07-08_09h06.23.960,proactive,2020.1.2,Win32,60,5f035e5afe130c270d6ae6dd,5f05e57e09b0de0b9d5cc3f0,1,,,,,,dart,,,,,,0,52,52,40,1,5,0,,,,,,,,,,,,,,,,,,,,,,,,,,,,,,,,,,,,,,,,,,,,,,,,,,,,,,,,,,,,,,,,,,,,,,,,,,,
,,,,,,,,,,stimuli/images/PICTURE_744.png,SYSTEM,5edf4de806a7db1fb57bc01a,6/8/1994,2020-07-08_09h06.23.960,proactive,2020.1.2,Win32,60,5f035e5afe130c270d6ae6dd,5f05e57e09b0de0b9d5cc3f0,1,,,,,,ring,,,,,,0,53,53,43,1,5,0,,,,,,,,,,,,,,,,,,,,,,,,,,,,,,,,,,,,,,,,,,,,,,,,,,,,,,,,,,,,,,,,,,,,,,,,,,,
,,,,,,,,,,stimuli/images/PICTURE_314.png,SAKE,5edf4de806a7db1fb57bc01a,6/8/1994,2020-07-08_09h06.23.960,proactive,2020.1.2,Win32,60,5f035e5afe130c270d6ae6dd,5f05e57e09b0de0b9d5cc3f0,1,,,,,,perfume,,,,,,0,54,54,7,1,1,0,,,,,,,,,,,,,,,,,,,,,,,,,,,,,,,,,,,,,,,,,,,,,,,,,,,,,,,,,,,,,,,,,,,,,,,,,,,
,,,,,,,,,,stimuli/images/PICTURE_311.png,FRIEND,5edf4de806a7db1fb57bc01a,6/8/1994,2020-07-08_09h06.23.960,proactive,2020.1.2,Win32,60,5f035e5afe130c270d6ae6dd,5f05e57e09b0de0b9d5cc3f0,1,,,,,,razor,,,,,,0,55,55,34,1,4,0,,,,,,,,,,,,,,,,,,,,,,,,,,,,,,,,,,,,,,,,,,,,,,,,,,,,,,,,,,,,,,,,,,,,,,,,,,,
,,,,,,,,,,stimuli/images/PICTURE_708.png,CLIENT,5edf4de806a7db1fb57bc01a,6/8/1994,2020-07-08_09h06.23.960,proactive,2020.1.2,Win32,60,5f035e5afe130c270d6ae6dd,5f05e57e09b0de0b9d5cc3f0,1,,,,,,monkey,,,,,,0,56,56,5,1,1,0,,,,,,,,,,,,,,,,,,,,,,,,,,,,,,,,,,,,,,,,,,,,,,,,,,,,,,,,,,,,,,,,,,,,,,,,,,,
,,,,,,,,,,stimuli/images/PICTURE_488.png,STYLE,5edf4de806a7db1fb57bc01a,6/8/1994,2020-07-08_09h06.23.960,proactive,2020.1.2,Win32,60,5f035e5afe130c270d6ae6dd,5f05e57e09b0de0b9d5cc3f0,1,,,,,,sun,,,,,,0,57,57,33,1,4,0,,,,,,,,,,,,,,,,,,,,,,,,,,,,,,,,,,,,,,,,,,,,,,,,,,,,,,,,,,,,,,,,,,,,,,,,,,,
,,,,,,,,,,stimuli/images/PICTURE_233.png,WOMEN,5edf4de806a7db1fb57bc01a,6/8/1994,2020-07-08_09h06.23.960,proactive,2020.1.2,Win32,60,5f035e5afe130c270d6ae6dd,5f05e57e09b0de0b9d5cc3f0,1,,,,,,salt,,,,,,0,58,58,38,1,4,0,,,,,,,,,,,,,,,,,,,,,,,,,,,,,,,,,,,,,,,,,,,,,,,,,,,,,,,,,,,,,,,,,,,,,,,,,,,
,,?,0.017895,0,,,,,,stimuli/images/PICTURE_491.png,ROOF,5edf4de806a7db1fb57bc01a,6/8/1994,2020-07-08_09h06.23.960,proactive,2020.1.2,Win32,60,5f035e5afe130c270d6ae6dd,5f05e57e09b0de0b9d5cc3f0,1,,,,,,rug,,,,,,,,,,,3,0,0,0,0,24,1,,,,,,,,,,,,,,,,,,,,,,,,,,,,,,,,,,,,,,,,,,,,,,,,,,,,,,,,,,,,,,,,,,,,,,
,,?,0.012025,0,,,,,,stimuli/images/PICTURE_308.png,KIND,5edf4de806a7db1fb57bc01a,6/8/1994,2020-07-08_09h06.23.960,proactive,2020.1.2,Win32,60,5f035e5afe130c270d6ae6dd,5f05e57e09b0de0b9d5cc3f0,1,,,,,,dice,,,,,,,,,,,6,0,0,1,1,54,1,,,,,,,,,,,,,,,,,,,,,,,,,,,,,,,,,,,,,,,,,,,,,,,,,,,,,,,,,,,,,,,,,,,,,,
,,?,0.012545,0,,,,,,stimuli/images/PICTURE_95.png,STYLE,5edf4de806a7db1fb57bc01a,6/8/1994,2020-07-08_09h06.23.960,proactive,2020.1.2,Win32,60,5f035e5afe130c270d6ae6dd,5f05e57e09b0de0b9d5cc3f0,1,,,,,,suitcase,,,,,,,,,,,3,0,0,2,2,25,1,,,,,,,,,,,,,,,,,,,,,,,,,,,,,,,,,,,,,,,,,,,,,,,,,,,,,,,,,,,,,,,,,,,,,,
,,?,0.004895,0,,,,,,stimuli/images/PICTURE_311.png,FRIEND,5edf4de806a7db1fb57bc01a,6/8/1994,2020-07-08_09h06.23.960,proactive,2020.1.2,Win32,60,5f035e5afe130c270d6ae6dd,5f05e57e09b0de0b9d5cc3f0,1,,,,,,razor,,,,,,,,,,,4,0,0,3,3,34,1,,,,,,,,,,,,,,,,,,,,,,,,,,,,,,,,,,,,,,,,,,,,,,,,,,,,,,,,,,,,,,,,,,,,,,
,,?,0.016695,0,,,,,,stimuli/images/PICTURE_453.png,PLENTY,5edf4de806a7db1fb57bc01a,6/8/1994,2020-07-08_09h06.23.960,proactive,2020.1.2,Win32,60,5f035e5afe130c270d6ae6dd,5f05e57e09b0de0b9d5cc3f0,1,,,,,,scissors,,,,,,,,,,,6,0,0,4,4,56,1,,,,,,,,,,,,,,,,,,,,,,,,,,,,,,,,,,,,,,,,,,,,,,,,,,,,,,,,,,,,,,,,,,,,,,
,,FLIGHT,5.24445,1,,,,,,stimuli/images/PICTURE_487.png,FLIGHT,5edf4de806a7db1fb57bc01a,6/8/1994,2020-07-08_09h06.23.960,proactive,2020.1.2,Win32,60,5f035e5afe130c270d6ae6dd,5f05e57e09b0de0b9d5cc3f0,1,,,,,,basket,,,,,,,,,,,1,0,0,5,5,9,1,,,,,,,,,,,,,,,,,,,,,,,,,,,,,,,,,,,,,,,,,,,,,,,,,,,,,,,,,,,,,,,,,,,,,,
,,?,0.006025,0,,,,,,stimuli/images/PICTURE_677.png,MILE,5edf4de806a7db1fb57bc01a,6/8/1994,2020-07-08_09h06.23.960,proactive,2020.1.2,Win32,60,5f035e5afe130c270d6ae6dd,5f05e57e09b0de0b9d5cc3f0,1,,,,,,map,,,,,,,,,,,4,0,0,6,6,30,1,,,,,,,,,,,,,,,,,,,,,,,,,,,,,,,,,,,,,,,,,,,,,,,,,,,,,,,,,,,,,,,,,,,,,,
,,SAKE,3.253115,1,,,,,,stimuli/images/PICTURE_314.png,SAKE,5edf4de806a7db1fb57bc01a,6/8/1994,2020-07-08_09h06.23.960,proactive,2020.1.2,Win32,60,5f035e5afe130c270d6ae6dd,5f05e57e09b0de0b9d5cc3f0,1,,,,,,perfume,,,,,,,,,,,1,0,0,7,7,7,1,,,,,,,,,,,,,,,,,,,,,,,,,,,,,,,,,,,,,,,,,,,,,,,,,,,,,,,,,,,,,,,,,,,,,,
,,?,0.00393,0,,,,,,stimuli/images/PICTURE_470.png,CASINO,5edf4de806a7db1fb57bc01a,6/8/1994,2020-07-08_09h06.23.960,proactive,2020.1.2,Win32,60,5f035e5afe130c270d6ae6dd,5f05e57e09b0de0b9d5cc3f0,1,,,,,,motorbike,,,,,,,,,,,4,0,0,8,8,36,1,,,,,,,,,,,,,,,,,,,,,,,,,,,,,,,,,,,,,,,,,,,,,,,,,,,,,,,,,,,,,,,,,,,,,,
,,?,0.00466,0,,,,,,stimuli/images/PICTURE_356.png,DANGER,5edf4de806a7db1fb57bc01a,6/8/1994,2020-07-08_09h06.23.960,proactive,2020.1.2,Win32,60,5f035e5afe130c270d6ae6dd,5f05e57e09b0de0b9d5cc3f0,1,,,,,,pawn,,,,,,,,,,,6,0,0,9,9,55,1,,,,,,,,,,,,,,,,,,,,,,,,,,,,,,,,,,,,,,,,,,,,,,,,,,,,,,,,,,,,,,,,,,,,,,
,,?,0.00332,0,,,,,,stimuli/images/PICTURE_177.png,CARS,5edf4de806a7db1fb57bc01a,6/8/1994,2020-07-08_09h06.23.960,proactive,2020.1.2,Win32,60,5f035e5afe130c270d6ae6dd,5f05e57e09b0de0b9d5cc3f0,1,,,,,,mushroom,,,,,,,,,,,4,0,0,10,10,35,1,,,,,,,,,,,,,,,,,,,,,,,,,,,,,,,,,,,,,,,,,,,,,,,,,,,,,,,,,,,,,,,,,,,,,,
,,?,0.00435,0,,,,,,stimuli/images/PICTURE_314.png,GODS,5edf4de806a7db1fb57bc01a,6/8/1994,2020-07-08_09h06.23.960,proactive,2020.1.2,Win32,60,5f035e5afe130c270d6ae6dd,5f05e57e09b0de0b9d5cc3f0,1,,,,,,perfume,,,,,,,,,,,2,0,0,11,11,11,1,,,,,,,,,,,,,,,,,,,,,,,,,,,,,,,,,,,,,,,,,,,,,,,,,,,,,,,,,,,,,,,,,,,,,,
,,?,0.006905,0,,,,,,stimuli/images/PICTURE_285.png,ADVICE,5edf4de806a7db1fb57bc01a,6/8/1994,2020-07-08_09h06.23.960,proactive,2020.1.2,Win32,60,5f035e5afe130c270d6ae6dd,5f05e57e09b0de0b9d5cc3f0,1,,,,,,carrot,,,,,,,,,,,2,0,0,12,12,12,1,,,,,,,,,,,,,,,,,,,,,,,,,,,,,,,,,,,,,,,,,,,,,,,,,,,,,,,,,,,,,,,,,,,,,,
,,?,0.003275,0,,,,,,stimuli/images/PICTURE_348.png,SPEECH,5edf4de806a7db1fb57bc01a,6/8/1994,2020-07-08_09h06.23.960,proactive,2020.1.2,Win32,60,5f035e5afe130c270d6ae6dd,5f05e57e09b0de0b9d5cc3f0,1,,,,,,pepper,,,,,,,,,,,3,0,0,13,13,20,1,,,,,,,,,,,,,,,,,,,,,,,,,,,,,,,,,,,,,,,,,,,,,,,,,,,,,,,,,,,,,,,,,,,,,,
,,CLIENT,4.3939,1,,,,,,stimuli/images/PICTURE_708.png,CLIENT,5edf4de806a7db1fb57bc01a,6/8/1994,2020-07-08_09h06.23.960,proactive,2020.1.2,Win32,60,5f035e5afe130c270d6ae6dd,5f05e57e09b0de0b9d5cc3f0,1,,,,,,monkey,,,,,,,,,,,1,0,0,14,14,5,1,,,,,,,,,,,,,,,,,,,,,,,,,,,,,,,,,,,,,,,,,,,,,,,,,,,,,,,,,,,,,,,,,,,,,,
,,?,0.004785,0,,,,,,stimuli/images/PICTURE_469.png,LETTER,5edf4de806a7db1fb57bc01a,6/8/1994,2020-07-08_09h06.23.960,proactive,2020.1.2,Win32,60,5f035e5afe130c270d6ae6dd,5f05e57e09b0de0b9d5cc3f0,1,,,,,,stool,,,,,,,,,,,5,0,0,15,15,42,1,,,,,,,,,,,,,,,,,,,,,,,,,,,,,,,,,,,,,,,,,,,,,,,,,,,,,,,,,,,,,,,,,,,,,,
,,ARTIST,6.50083,1,,,,,,stimuli/images/PICTURE_469.png,ARTIST,5edf4de806a7db1fb57bc01a,6/8/1994,2020-07-08_09h06.23.960,proactive,2020.1.2,Win32,60,5f035e5afe130c270d6ae6dd,5f05e57e09b0de0b9d5cc3f0,1,,,,,,stool,,,,,,,,,,,1,0,0,16,16,6,1,,,,,,,,,,,,,,,,,,,,,,,,,,,,,,,,,,,,,,,,,,,,,,,,,,,,,,,,,,,,,,,,,,,,,,
,,?,0.005405,0,,,,,,stimuli/images/PICTURE_32.png,JUNGLE,5edf4de806a7db1fb57bc01a,6/8/1994,2020-07-08_09h06.23.960,proactive,2020.1.2,Win32,60,5f035e5afe130c270d6ae6dd,5f05e57e09b0de0b9d5cc3f0,1,,,,,,crown,,,,,,,,,,,5,0,0,17,17,45,1,,,,,,,,,,,,,,,,,,,,,,,,,,,,,,,,,,,,,,,,,,,,,,,,,,,,,,,,,,,,,,,,,,,,,,
,,VALLEY,3.741165,1,,,,,,stimuli/images/PICTURE_654.png,VALLEY,5edf4de806a7db1fb57bc01a,6/8/1994,2020-07-08_09h06.23.960,proactive,2020.1.2,Win32,60,5f035e5afe130c270d6ae6dd,5f05e57e09b0de0b9d5cc3f0,1,,,,,,pencil,,,,,,,,,,,1,0,0,18,18,1,1,,,,,,,,,,,,,,,,,,,,,,,,,,,,,,,,,,,,,,,,,,,,,,,,,,,,,,,,,,,,,,,,,,,,,,
,,PLENTY,3.506425,1,,,,,,stimuli/images/PICTURE_339.png,PLENTY,5edf4de806a7db1fb57bc01a,6/8/1994,2020-07-08_09h06.23.960,proactive,2020.1.2,Win32,60,5f035e5afe130c270d6ae6dd,5f05e57e09b0de0b9d5cc3f0,1,,,,,,backpack,,,,,,,,,,,1,0,0,19,19,0,1,,,,,,,,,,,,,,,,,,,,,,,,,,,,,,,,,,,,,,,,,,,,,,,,,,,,,,,,,,,,,,,,,,,,,,
,,?,0.01323,0,,,,,,stimuli/images/PICTURE_203.png,ARTIST,5edf4de806a7db1fb57bc01a,6/8/1994,2020-07-08_09h06.23.960,proactive,2020.1.2,Win32,60,5f035e5afe130c270d6ae6dd,5f05e57e09b0de0b9d5cc3f0,1,,,,,,cap,,,,,,,,,,,3,0,0,20,20,26,1,,,,,,,,,,,,,,,,,,,,,,,,,,,,,,,,,,,,,,,,,,,,,,,,,,,,,,,,,,,,,,,,,,,,,,
,,?,0.008725,0,,,,,,stimuli/images/PICTURE_380.png,DEATH,5edf4de806a7db1fb57bc01a,6/8/1994,2020-07-08_09h06.23.960,proactive,2020.1.2,Win32,60,5f035e5afe130c270d6ae6dd,5f05e57e09b0de0b9d5cc3f0,1,,,,,,gorilla,,,,,,,,,,,5,0,0,21,21,49,1,,,,,,,,,,,,,,,,,,,,,,,,,,,,,,,,,,,,,,,,,,,,,,,,,,,,,,,,,,,,,,,,,,,,,,
,,?,0.005905,0,,,,,,stimuli/images/PICTURE_491.png,WRITER,5edf4de806a7db1fb57bc01a,6/8/1994,2020-07-08_09h06.23.960,proactive,2020.1.2,Win32,60,5f035e5afe130c270d6ae6dd,5f05e57e09b0de0b9d5cc3f0,1,,,,,,rug,,,,,,,,,,,6,0,0,22,22,57,1,,,,,,,,,,,,,,,,,,,,,,,,,,,,,,,,,,,,,,,,,,,,,,,,,,,,,,,,,,,,,,,,,,,,,,
,,?,0.02306,0,,,,,,stimuli/images/PICTURE_208.png,LOTS,5edf4de806a7db1fb57bc01a,6/8/1994,2020-07-08_09h06.23.960,proactive,2020.1.2,Win32,60,5f035e5afe130c270d6ae6dd,5f05e57e09b0de0b9d5cc3f0,1,,,,,,microphone,,,,,,,,,,,2,0,0,23,23,10,1,,,,,,,,,,,,,,,,,,,,,,,,,,,,,,,,,,,,,,,,,,,,,,,,,,,,,,,,,,,,,,,,,,,,,,
,,?,0.00516,0,,,,,,stimuli/images/PICTURE_233.png,IDEAS,5edf4de806a7db1fb57bc01a,6/8/1994,2020-07-08_09h06.23.960,proactive,2020.1.2,Win32,60,5f035e5afe130c270d6ae6dd,5f05e57e09b0de0b9d5cc3f0,1,,,,,,salt,,,,,,,,,,,3,0,0,24,24,28,1,,,,,,,,,,,,,,,,,,,,,,,,,,,,,,,,,,,,,,,,,,,,,,,,,,,,,,,,,,,,,,,,,,,,,,
,,?,0.004285,0,,,,,,stimuli/images/PICTURE_327.png,BEAUTY,5edf4de806a7db1fb57bc01a,6/8/1994,2020-07-08_09h06.23.960,proactive,2020.1.2,Win32,60,5f035e5afe130c270d6ae6dd,5f05e57e09b0de0b9d5cc3f0,1,,,,,,helmet,,,,,,,,,,,5,0,0,25,25,48,1,,,,,,,,,,,,,,,,,,,,,,,,,,,,,,,,,,,,,,,,,,,,,,,,,,,,,,,,,,,,,,,,,,,,,,
,,?,0.00501,0,,,,,,stimuli/images/PICTURE_744.png,SYSTEM,5edf4de806a7db1fb57bc01a,6/8/1994,2020-07-08_09h06.23.960,proactive,2020.1.2,Win32,60,5f035e5afe130c270d6ae6dd,5f05e57e09b0de0b9d5cc3f0,1,,,,,,ring,,,,,,,,,,,5,0,0,26,26,43,1,,,,,,,,,,,,,,,,,,,,,,,,,,,,,,,,,,,,,,,,,,,,,,,,,,,,,,,,,,,,,,,,,,,,,,
,,?,0.022325,0,,,,,,stimuli/images/PICTURE_449.png,THING,5edf4de806a7db1fb57bc01a,6/8/1994,2020-07-08_09h06.23.960,proactive,2020.1.2,Win32,60,5f035e5afe130c270d6ae6dd,5f05e57e09b0de0b9d5cc3f0,1,,,,,,bench,,,,,,,,,,,6,0,0,27,27,59,1,,,,,,,,,,,,,,,,,,,,,,,,,,,,,,,,,,,,,,,,,,,,,,,,,,,,,,,,,,,,,,,,,,,,,,
,,?,0.009865,0,,,,,,stimuli/images/PICTURE_233.png,WOMEN,5edf4de806a7db1fb57bc01a,6/8/1994,2020-07-08_09h06.23.960,proactive,2020.1.2,Win32,60,5f035e5afe130c270d6ae6dd,5f05e57e09b0de0b9d5cc3f0,1,,,,,,salt,,,,,,,,,,,4,0,0,28,28,38,1,,,,,,,,,,,,,,,,,,,,,,,,,,,,,,,,,,,,,,,,,,,,,,,,,,,,,,,,,,,,,,,,,,,,,,
,,?,0.01137,0,,,,,,stimuli/images/PICTURE_688.png,WOMEN,5edf4de806a7db1fb57bc01a,6/8/1994,2020-07-08_09h06.23.960,proactive,2020.1.2,Win32,60,5f035e5afe130c270d6ae6dd,5f05e57e09b0de0b9d5cc3f0,1,,,,,,runner,,,,,,,,,,,2,0,0,29,29,14,1,,,,,,,,,,,,,,,,,,,,,,,,,,,,,,,,,,,,,,,,,,,,,,,,,,,,,,,,,,,,,,,,,,,,,,
,,?,0.00439,0,,,,,,stimuli/images/PICTURE_311.png,BEAUTY,5edf4de806a7db1fb57bc01a,6/8/1994,2020-07-08_09h06.23.960,proactive,2020.1.2,Win32,60,5f035e5afe130c270d6ae6dd,5f05e57e09b0de0b9d5cc3f0,1,,,,,,razor,,,,,,,,,,,2,0,0,30,30,13,1,,,,,,,,,,,,,,,,,,,,,,,,,,,,,,,,,,,,,,,,,,,,,,,,,,,,,,,,,,,,,,,,,,,,,,
,,BATT,3.83411,0,,,,,,stimuli/images/PICTURE_667.png,BATH,5edf4de806a7db1fb57bc01a,6/8/1994,2020-07-08_09h06.23.960,proactive,2020.1.2,Win32,60,5f035e5afe130c270d6ae6dd,5f05e57e09b0de0b9d5cc3f0,1,,,,,,daisy,,,,,,,,,,,1,0,0,31,31,4,1,,,,,,,,,,,,,,,,,,,,,,,,,,,,,,,,,,,,,,,,,,,,,,,,,,,,,,,,,,,,,,,,,,,,,,
,,?,0.008725,0,,,,,,stimuli/images/PICTURE_708.png,PENNY,5edf4de806a7db1fb57bc01a,6/8/1994,2020-07-08_09h06.23.960,proactive,2020.1.2,Win32,60,5f035e5afe130c270d6ae6dd,5f05e57e09b0de0b9d5cc3f0,1,,,,,,monkey,,,,,,,,,,,4,0,0,32,32,31,1,,,,,,,,,,,,,,,,,,,,,,,,,,,,,,,,,,,,,,,,,,,,,,,,,,,,,,,,,,,,,,,,,,,,,,
,,?,0.007045,0,,,,,,stimuli/images/PICTURE_208.png,THING,5edf4de806a7db1fb57bc01a,6/8/1994,2020-07-08_09h06.23.960,proactive,2020.1.2,Win32,60,5f035e5afe130c270d6ae6dd,5f05e57e09b0de0b9d5cc3f0,1,,,,,,microphone,,,,,,,,,,,5,0,0,33,33,47,1,,,,,,,,,,,,,,,,,,,,,,,,,,,,,,,,,,,,,,,,,,,,,,,,,,,,,,,,,,,,,,,,,,,,,,
,,?,0.0145,0,,,,,,stimuli/images/PICTURE_675.png,WEAPON,5edf4de806a7db1fb57bc01a,6/8/1994,2020-07-08_09h06.23.960,proactive,2020.1.2,Win32,60,5f035e5afe130c270d6ae6dd,5f05e57e09b0de0b9d5cc3f0,1,,,,,,windmill,,,,,,,,,,,4,0,0,34,34,32,1,,,,,,,,,,,,,,,,,,,,,,,,,,,,,,,,,,,,,,,,,,,,,,,,,,,,,,,,,,,,,,,,,,,,,,
,,?,0.0182,0,,,,,,stimuli/images/PICTURE_255.png,AREA,5edf4de806a7db1fb57bc01a,6/8/1994,2020-07-08_09h06.23.960,proactive,2020.1.2,Win32,60,5f035e5afe130c270d6ae6dd,5f05e57e09b0de0b9d5cc3f0,1,,,,,,shovel,,,,,,,,,,,3,0,0,35,35,22,1,,,,,,,,,,,,,,,,,,,,,,,,,,,,,,,,,,,,,,,,,,,,,,,,,,,,,,,,,,,,,,,,,,,,,,
,,LEADER,6.606425,1,,,,,,stimuli/images/PICTURE_160.png,LEADER,5edf4de806a7db1fb57bc01a,6/8/1994,2020-07-08_09h06.23.960,proactive,2020.1.2,Win32,60,5f035e5afe130c270d6ae6dd,5f05e57e09b0de0b9d5cc3f0,1,,,,,,wheelbarrow,,,,,,,,,,,1,0,0,36,36,3,1,,,,,,,,,,,,,,,,,,,,,,,,,,,,,,,,,,,,,,,,,,,,,,,,,,,,,,,,,,,,,,,,,,,,,,
,,?,0.015545,0,,,,,,stimuli/images/PICTURE_488.png,STYLE,5edf4de806a7db1fb57bc01a,6/8/1994,2020-07-08_09h06.23.960,proactive,2020.1.2,Win32,60,5f035e5afe130c270d6ae6dd,5f05e57e09b0de0b9d5cc3f0,1,,,,,,sun,,,,,,,,,,,4,0,0,37,37,33,1,,,,,,,,,,,,,,,,,,,,,,,,,,,,,,,,,,,,,,,,,,,,,,,,,,,,,,,,,,,,,,,,,,,,,,
,,?,0.004585,0,,,,,,stimuli/images/PICTURE_708.png,YARD,5edf4de806a7db1fb57bc01a,6/8/1994,2020-07-08_09h06.23.960,proactive,2020.1.2,Win32,60,5f035e5afe130c270d6ae6dd,5f05e57e09b0de0b9d5cc3f0,1,,,,,,monkey,,,,,,,,,,,3,0,0,38,38,29,1,,,,,,,,,,,,,,,,,,,,,,,,,,,,,,,,,,,,,,,,,,,,,,,,,,,,,,,,,,,,,,,,,,,,,,
,,?,0.03264,0,,,,,,stimuli/images/PICTURE_453.png,DUDE,5edf4de806a7db1fb57bc01a,6/8/1994,2020-07-08_09h06.23.960,proactive,2020.1.2,Win32,60,5f035e5afe130c270d6ae6dd,5f05e57e09b0de0b9d5cc3f0,1,,,,,,scissors,,,,,,,,,,,3,0,0,39,39,27,1,,,,,,,,,,,,,,,,,,,,,,,,,,,,,,,,,,,,,,,,,,,,,,,,,,,,,,,,,,,,,,,,,,,,,,
,,?,0.005115,0,,,,,,stimuli/images/PICTURE_147.png,MOMENT,5edf4de806a7db1fb57bc01a,6/8/1994,2020-07-08_09h06.23.960,proactive,2020.1.2,Win32,60,5f035e5afe130c270d6ae6dd,5f05e57e09b0de0b9d5cc3f0,1,,,,,,hanger,,,,,,,,,,,6,0,0,40,40,51,1,,,,,,,,,,,,,,,,,,,,,,,,,,,,,,,,,,,,,,,,,,,,,,,,,,,,,,,,,,,,,,,,,,,,,,
,,?,0.012235,0,,,,,,stimuli/images/PICTURE_160.png,FEET,5edf4de806a7db1fb57bc01a,6/8/1994,2020-07-08_09h06.23.960,proactive,2020.1.2,Win32,60,5f035e5afe130c270d6ae6dd,5f05e57e09b0de0b9d5cc3f0,1,,,,,,wheelbarrow,,,,,,,,,,,6,0,0,41,41,58,1,,,,,,,,,,,,,,,,,,,,,,,,,,,,,,,,,,,,,,,,,,,,,,,,,,,,,,,,,,,,,,,,,,,,,,
,,CASINO,4.032905,1,,,,,,stimuli/images/PICTURE_688.png,CASINO,5edf4de806a7db1fb57bc01a,6/8/1994,2020-07-08_09h06.23.960,proactive,2020.1.2,Win32,60,5f035e5afe130c270d6ae6dd,5f05e57e09b0de0b9d5cc3f0,1,,,,,,runner,,,,,,,,,,,1,0,0,42,42,2,1,,,,,,,,,,,,,,,,,,,,,,,,,,,,,,,,,,,,,,,,,,,,,,,,,,,,,,,,,,,,,,,,,,,,,,
,,?,0.00863,0,,,,,,stimuli/images/PICTURE_308.png,ESTATE,5edf4de806a7db1fb57bc01a,6/8/1994,2020-07-08_09h06.23.960,proactive,2020.1.2,Win32,60,5f035e5afe130c270d6ae6dd,5f05e57e09b0de0b9d5cc3f0,1,,,,,,dice,,,,,,,,,,,5,0,0,43,43,46,1,,,,,,,,,,,,,,,,,,,,,,,,,,,,,,,,,,,,,,,,,,,,,,,,,,,,,,,,,,,,,,,,,,,,,,
,,?,0.005665,0,,,,,,stimuli/images/PICTURE_667.png,PLENTY,5edf4de806a7db1fb57bc01a,6/8/1994,2020-07-08_09h06.23.960,proactive,2020.1.2,Win32,60,5f035e5afe130c270d6ae6dd,5f05e57e09b0de0b9d5cc3f0,1,,,,,,daisy,,,,,,,,,,,5,0,0,44,44,41,1,,,,,,,,,,,,,,,,,,,,,,,,,,,,,,,,,,,,,,,,,,,,,,,,,,,,,,,,,,,,,,,,,,,,,,
,,?,0.00563,0,,,,,,stimuli/images/PICTURE_692.png,MONTH,5edf4de806a7db1fb57bc01a,6/8/1994,2020-07-08_09h06.23.960,proactive,2020.1.2,Win32,60,5f035e5afe130c270d6ae6dd,5f05e57e09b0de0b9d5cc3f0,1,,,,,,cherry,,,,,,,,,,,2,0,0,45,45,16,1,,,,,,,,,,,,,,,,,,,,,,,,,,,,,,,,,,,,,,,,,,,,,,,,,,,,,,,,,,,,,,,,,,,,,,
,,?,0.00812,0,,,,,,stimuli/images/PICTURE_85.png,THING,5edf4de806a7db1fb57bc01a,6/8/1994,2020-07-08_09h06.23.960,proactive,2020.1.2,Win32,60,5f035e5afe130c270d6ae6dd,5f05e57e09b0de0b9d5cc3f0,1,,,,,,diamond,,,,,,,,,,,2,0,0,46,46,15,1,,,,,,,,,,,,,,,,,,,,,,,,,,,,,,,,,,,,,,,,,,,,,,,,,,,,,,,,,,,,,,,,,,,,,,
,,?,0.01964,0,,,,,,stimuli/images/PICTURE_380.png,PHOTO,5edf4de806a7db1fb57bc01a,6/8/1994,2020-07-08_09h06.23.960,proactive,2020.1.2,Win32,60,5f035e5afe130c270d6ae6dd,5f05e57e09b0de0b9d5cc3f0,1,,,,,,gorilla,,,,,,,,,,,6,0,0,47,47,52,1,,,,,,,,,,,,,,,,,,,,,,,,,,,,,,,,,,,,,,,,,,,,,,,,,,,,,,,,,,,,,,,,,,,,,,
,,BODY,3.3312,1,,,,,,stimuli/images/PICTURE_504.png,BODY,5edf4de806a7db1fb57bc01a,6/8/1994,2020-07-08_09h06.23.960,proactive,2020.1.2,Win32,60,5f035e5afe130c270d6ae6dd,5f05e57e09b0de0b9d5cc3f0,1,,,,,,wheel,,,,,,,,,,,1,0,0,48,48,8,1,,,,,,,,,,,,,,,,,,,,,,,,,,,,,,,,,,,,,,,,,,,,,,,,,,,,,,,,,,,,,,,,,,,,,,
,,?,0.004865,0,,,,,,stimuli/images/PICTURE_509.png,PHOTO,5edf4de806a7db1fb57bc01a,6/8/1994,2020-07-08_09h06.23.960,proactive,2020.1.2,Win32,60,5f035e5afe130c270d6ae6dd,5f05e57e09b0de0b9d5cc3f0,1,,,,,,telephone,,,,,,,,,,,3,0,0,49,49,21,1,,,,,,,,,,,,,,,,,,,,,,,,,,,,,,,,,,,,,,,,,,,,,,,,,,,,,,,,,,,,,,,,,,,,,,
,,?,0.0048,0,,,,,,stimuli/images/PICTURE_208.png,MONTH,5edf4de806a7db1fb57bc01a,6/8/1994,2020-07-08_09h06.23.960,proactive,2020.1.2,Win32,60,5f035e5afe130c270d6ae6dd,5f05e57e09b0de0b9d5cc3f0,1,,,,,,microphone,,,,,,,,,,,6,0,0,50,50,53,1,,,,,,,,,,,,,,,,,,,,,,,,,,,,,,,,,,,,,,,,,,,,,,,,,,,,,,,,,,,,,,,,,,,,,,
,,?,0.002945,0,,,,,,stimuli/images/PICTURE_302.png,FAMILY,5edf4de806a7db1fb57bc01a,6/8/1994,2020-07-08_09h06.23.960,proactive,2020.1.2,Win32,60,5f035e5afe130c270d6ae6dd,5f05e57e09b0de0b9d5cc3f0,1,,,,,,taxi,,,,,,,,,,,2,0,0,51,51,18,1,,,,,,,,,,,,,,,,,,,,,,,,,,,,,,,,,,,,,,,,,,,,,,,,,,,,,,,,,,,,,,,,,,,,,,
,,?,0.00394,0,,,,,,stimuli/images/PICTURE_744.png,SAKE,5edf4de806a7db1fb57bc01a,6/8/1994,2020-07-08_09h06.23.960,proactive,2020.1.2,Win32,60,5f035e5afe130c270d6ae6dd,5f05e57e09b0de0b9d5cc3f0,1,,,,,,ring,,,,,,,,,,,2,0,0,52,52,17,1,,,,,,,,,,,,,,,,,,,,,,,,,,,,,,,,,,,,,,,,,,,,,,,,,,,,,,,,,,,,,,,,,,,,,,
,,?,0.002735,0,,,,,,stimuli/images/PICTURE_68.png,MILE,5edf4de806a7db1fb57bc01a,6/8/1994,2020-07-08_09h06.23.960,proactive,2020.1.2,Win32,60,5f035e5afe130c270d6ae6dd,5f05e57e09b0de0b9d5cc3f0,1,,,,,,candle,,,,,,,,,,,5,0,0,53,53,44,1,,,,,,,,,,,,,,,,,,,,,,,,,,,,,,,,,,,,,,,,,,,,,,,,,,,,,,,,,,,,,,,,,,,,,,
,,?,0.00428,0,,,,,,stimuli/images/PICTURE_151.png,GIRL,5edf4de806a7db1fb57bc01a,6/8/1994,2020-07-08_09h06.23.960,proactive,2020.1.2,Win32,60,5f035e5afe130c270d6ae6dd,5f05e57e09b0de0b9d5cc3f0,1,,,,,,tray,,,,,,,,,,,2,0,0,54,54,19,1,,,,,,,,,,,,,,,,,,,,,,,,,,,,,,,,,,,,,,,,,,,,,,,,,,,,,,,,,,,,,,,,,,,,,,
,,?,0.00301,0,,,,,,stimuli/images/PICTURE_248.png,DOZEN,5edf4de806a7db1fb57bc01a,6/8/1994,2020-07-08_09h06.23.960,proactive,2020.1.2,Win32,60,5f035e5afe130c270d6ae6dd,5f05e57e09b0de0b9d5cc3f0,1,,,,,,cart,,,,,,,,,,,4,0,0,55,55,39,1,,,,,,,,,,,,,,,,,,,,,,,,,,,,,,,,,,,,,,,,,,,,,,,,,,,,,,,,,,,,,,,,,,,,,,
,,?,0.0036,0,,,,,,stimuli/images/PICTURE_123.png,ADVICE,5edf4de806a7db1fb57bc01a,6/8/1994,2020-07-08_09h06.23.960,proactive,2020.1.2,Win32,60,5f035e5afe130c270d6ae6dd,5f05e57e09b0de0b9d5cc3f0,1,,,,,,dart,,,,,,,,,,,5,0,0,56,56,40,1,,,,,,,,,,,,,,,,,,,,,,,,,,,,,,,,,,,,,,,,,,,,,,,,,,,,,,,,,,,,,,,,,,,,,,
,,?,0.003685,0,,,,,,stimuli/images/PICTURE_123.png,ADVICE,5edf4de806a7db1fb57bc01a,6/8/1994,2020-07-08_09h06.23.960,proactive,2020.1.2,Win32,60,5f035e5afe130c270d6ae6dd,5f05e57e09b0de0b9d5cc3f0,1,,,,,,dart,,,,,,,,,,,6,0,0,57,57,50,1,,,,,,,,,,,,,,,,,,,,,,,,,,,,,,,,,,,,,,,,,,,,,,,,,,,,,,,,,,,,,,,,,,,,,,
,,?,0.00374,0,,,,,,stimuli/images/PICTURE_467.png,DEMON,5edf4de806a7db1fb57bc01a,6/8/1994,2020-07-08_09h06.23.960,proactive,2020.1.2,Win32,60,5f035e5afe130c270d6ae6dd,5f05e57e09b0de0b9d5cc3f0,1,,,,,,peg,,,,,,,,,,,3,0,0,58,58,23,1,,,,,,,,,,,,,,,,,,,,,,,,,,,,,,,,,,,,,,,,,,,,,,,,,,,,,,,,,,,,,,,,,,,,,,
,,?,0.00262,0,,,,,,stimuli/images/PICTURE_215.png,PLENTY,5edf4de806a7db1fb57bc01a,6/8/1994,2020-07-08_09h06.23.960,proactive,2020.1.2,Win32,60,5f035e5afe130c270d6ae6dd,5f05e57e09b0de0b9d5cc3f0,1,,,,,,boot,,,,,,,,,,,4,0,0,59,59,37,1,,,,,,,,,,,,,,,,,,,,,,,,,,,,,,,,,,,,,,,,,,,,,,,,,,,,,,,,,,,,,,,,,,,,,,
,,,,,,,,,,,,5edf4de806a7db1fb57bc01a,6/8/1994,2020-07-08_09h06.23.960,proactive,2020.1.2,Win32,60,5f035e5afe130c270d6ae6dd,5f05e57e09b0de0b9d5cc3f0,1,,,,,,,,,,,,,,,,,,,,,,,,0,0,0,0,1,stimuli/learn-block1.csv,,,,,,,,,,,,,,,,,,,,,,,,,,,,,,,,,,,,,,,,,,,,,,,,,,,,,,,,,,,,,,,,
,,,,,,,,,,stimuli/images/PICTURE_467.png,POLICY,5edf4de806a7db1fb57bc01a,6/8/1994,2020-07-08_09h06.23.960,proactive,2020.1.2,Win32,60,5f035e5afe130c270d6ae6dd,5f05e57e09b0de0b9d5cc3f0,1,,,,,,peg,,,,,,0,0,0,53,1,6,1,,,,,,,,,,,,,,,,,,,,,,,,,,,,,,,,,,,,,,,,,,,,,,,,,,,,,,,,,,,,,,,,,,,,,,,,,,,
,,,,,,,,,,stimuli/images/PICTURE_403.png,TOILET,5edf4de806a7db1fb57bc01a,6/8/1994,2020-07-08_09h06.23.960,proactive,2020.1.2,Win32,60,5f035e5afe130c270d6ae6dd,5f05e57e09b0de0b9d5cc3f0,1,,,,,,cathedral,,,,,,0,1,1,25,1,3,1,,,,,,,,,,,,,,,,,,,,,,,,,,,,,,,,,,,,,,,,,,,,,,,,,,,,,,,,,,,,,,,,,,,,,,,,,,,
,,,,,,,,,,stimuli/images/PICTURE_654.png,MONTH,5edf4de806a7db1fb57bc01a,6/8/1994,2020-07-08_09h06.23.960,proactive,2020.1.2,Win32,60,5f035e5afe130c270d6ae6dd,5f05e57e09b0de0b9d5cc3f0,1,,,,,,pencil,,,,,,0,2,2,29,1,3,1,,,,,,,,,,,,,,,,,,,,,,,,,,,,,,,,,,,,,,,,,,,,,,,,,,,,,,,,,,,,,,,,,,,,,,,,,,,
,,,,,,,,,,stimuli/images/PICTURE_327.png,CASINO,5edf4de806a7db1fb57bc01a,6/8/1994,2020-07-08_09h06.23.960,proactive,2020.1.2,Win32,60,5f035e5afe130c270d6ae6dd,5f05e57e09b0de0b9d5cc3f0,1,,,,,,helmet,,,,,,0,3,3,20,1,3,1,,,,,,,,,,,,,,,,,,,,,,,,,,,,,,,,,,,,,,,,,,,,,,,,,,,,,,,,,,,,,,,,,,,,,,,,,,,
,,,,,,,,,,stimuli/images/PICTURE_85.png,TOILET,5edf4de806a7db1fb57bc01a,6/8/1994,2020-07-08_09h06.23.960,proactive,2020.1.2,Win32,60,5f035e5afe130c270d6ae6dd,5f05e57e09b0de0b9d5cc3f0,1,,,,,,diamond,,,,,,0,4,4,48,1,5,1,,,,,,,,,,,,,,,,,,,,,,,,,,,,,,,,,,,,,,,,,,,,,,,,,,,,,,,,,,,,,,,,,,,,,,,,,,,
,,,,,,,,,,stimuli/images/PICTURE_33.png,FRIEND,5edf4de806a7db1fb57bc01a,6/8/1994,2020-07-08_09h06.23.960,proactive,2020.1.2,Win32,60,5f035e5afe130c270d6ae6dd,5f05e57e09b0de0b9d5cc3f0,1,,,,,,frame,,,,,,0,5,5,8,1,1,1,,,,,,,,,,,,,,,,,,,,,,,,,,,,,,,,,,,,,,,,,,,,,,,,,,,,,,,,,,,,,,,,,,,,,,,,,,,
,,,,,,,,,,stimuli/images/PICTURE_469.png,AGENT,5edf4de806a7db1fb57bc01a,6/8/1994,2020-07-08_09h06.23.960,proactive,2020.1.2,Win32,60,5f035e5afe130c270d6ae6dd,5f05e57e09b0de0b9d5cc3f0,1,,,,,,stool,,,,,,0,6,6,16,1,2,1,,,,,,,,,,,,,,,,,,,,,,,,,,,,,,,,,,,,,,,,,,,,,,,,,,,,,,,,,,,,,,,,,,,,,,,,,,,
,,,,,,,,,,stimuli/images/PICTURE_203.png,NIGHT,5edf4de806a7db1fb57bc01a,6/8/1994,2020-07-08_09h06.23.960,proactive,2020.1.2,Win32,60,5f035e5afe130c270d6ae6dd,5f05e57e09b0de0b9d5cc3f0,1,,,,,,cap,,,,,,0,7,7,2,1,1,1,,,,,,,,,,,,,,,,,,,,,,,,,,,,,,,,,,,,,,,,,,,,,,,,,,,,,,,,,,,,,,,,,,,,,,,,,,,
,,,,,,,,,,stimuli/images/PICTURE_95.png,HONEY,5edf4de806a7db1fb57bc01a,6/8/1994,2020-07-08_09h06.23.960,proactive,2020.1.2,Win32,60,5f035e5afe130c270d6ae6dd,5f05e57e09b0de0b9d5cc3f0,1,,,,,,suitcase,,,,,,0,8,8,44,1,5,1,,,,,,,,,,,,,,,,,,,,,,,,,,,,,,,,,,,,,,,,,,,,,,,,,,,,,,,,,,,,,,,,,,,,,,,,,,,
,,,,,,,,,,stimuli/images/PICTURE_85.png,NATION,5edf4de806a7db1fb57bc01a,6/8/1994,2020-07-08_09h06.23.960,proactive,2020.1.2,Win32,60,5f035e5afe130c270d6ae6dd,5f05e57e09b0de0b9d5cc3f0,1,,,,,,diamond,,,,,,0,9,9,5,1,1,1,,,,,,,,,,,,,,,,,,,,,,,,,,,,,,,,,,,,,,,,,,,,,,,,,,,,,,,,,,,,,,,,,,,,,,,,,,,
,,,,,,,,,,stimuli/images/PICTURE_32.png,KIND,5edf4de806a7db1fb57bc01a,6/8/1994,2020-07-08_09h06.23.960,proactive,2020.1.2,Win32,60,5f035e5afe130c270d6ae6dd,5f05e57e09b0de0b9d5cc3f0,1,,,,,,crown,,,,,,0,10,10,35,1,4,1,,,,,,,,,,,,,,,,,,,,,,,,,,,,,,,,,,,,,,,,,,,,,,,,,,,,,,,,,,,,,,,,,,,,,,,,,,,
,,,,,,,,,,stimuli/images/PICTURE_147.png,YEAR,5edf4de806a7db1fb57bc01a,6/8/1994,2020-07-08_09h06.23.960,proactive,2020.1.2,Win32,60,5f035e5afe130c270d6ae6dd,5f05e57e09b0de0b9d5cc3f0,1,,,,,,hanger,,,,,,0,11,11,21,1,3,1,,,,,,,,,,,,,,,,,,,,,,,,,,,,,,,,,,,,,,,,,,,,,,,,,,,,,,,,,,,,,,,,,,,,,,,,,,,
,,,,,,,,,,stimuli/images/PICTURE_68.png,ROOF,5edf4de806a7db1fb57bc01a,6/8/1994,2020-07-08_09h06.23.960,proactive,2020.1.2,Win32,60,5f035e5afe130c270d6ae6dd,5f05e57e09b0de0b9d5cc3f0,1,,,,,,candle,,,,,,0,12,12,38,1,4,1,,,,,,,,,,,,,,,,,,,,,,,,,,,,,,,,,,,,,,,,,,,,,,,,,,,,,,,,,,,,,,,,,,,,,,,,,,,
,,,,,,,,,,stimuli/images/PICTURE_42.png,BOYS,5edf4de806a7db1fb57bc01a,6/8/1994,2020-07-08_09h06.23.960,proactive,2020.1.2,Win32,60,5f035e5afe130c270d6ae6dd,5f05e57e09b0de0b9d5cc3f0,1,,,,,,pear,,,,,,0,13,13,55,1,6,1,,,,,,,,,,,,,,,,,,,,,,,,,,,,,,,,,,,,,,,,,,,,,,,,,,,,,,,,,,,,,,,,,,,,,,,,,,,
,,,,,,,,,,stimuli/images/PICTURE_203.png,GODS,5edf4de806a7db1fb57bc01a,6/8/1994,2020-07-08_09h06.23.960,proactive,2020.1.2,Win32,60,5f035e5afe130c270d6ae6dd,5f05e57e09b0de0b9d5cc3f0,1,,,,,,cap,,,,,,0,14,14,30,1,4,1,,,,,,,,,,,,,,,,,,,,,,,,,,,,,,,,,,,,,,,,,,,,,,,,,,,,,,,,,,,,,,,,,,,,,,,,,,,
,,,,,,,,,,stimuli/images/PICTURE_405.png,YEAR,5edf4de806a7db1fb57bc01a,6/8/1994,2020-07-08_09h06.23.960,proactive,2020.1.2,Win32,60,5f035e5afe130c270d6ae6dd,5f05e57e09b0de0b9d5cc3f0,1,,,,,,anchor,,,,,,0,15,15,34,1,4,1,,,,,,,,,,,,,,,,,,,,,,,,,,,,,,,,,,,,,,,,,,,,,,,,,,,,,,,,,,,,,,,,,,,,,,,,,,,
,,,,,,,,,,stimuli/images/PICTURE_57.png,MOMENT,5edf4de806a7db1fb57bc01a,6/8/1994,2020-07-08_09h06.23.960,proactive,2020.1.2,Win32,60,5f035e5afe130c270d6ae6dd,5f05e57e09b0de0b9d5cc3f0,1,,,,,,stamp,,,,,,0,16,16,37,1,4,1,,,,,,,,,,,,,,,,,,,,,,,,,,,,,,,,,,,,,,,,,,,,,,,,,,,,,,,,,,,,,,,,,,,,,,,,,,,
,,,,,,,,,,stimuli/images/PICTURE_708.png,RECORD,5edf4de806a7db1fb57bc01a,6/8/1994,2020-07-08_09h06.23.960,proactive,2020.1.2,Win32,60,5f035e5afe130c270d6ae6dd,5f05e57e09b0de0b9d5cc3f0,1,,,,,,monkey,,,,,,0,17,17,58,1,6,1,,,,,,,,,,,,,,,,,,,,,,,,,,,,,,,,,,,,,,,,,,,,,,,,,,,,,,,,,,,,,,,,,,,,,,,,,,,
,,,,,,,,,,stimuli/images/PICTURE_491.png,GLASS,5edf4de806a7db1fb57bc01a,6/8/1994,2020-07-08_09h06.23.960,proactive,2020.1.2,Win32,60,5f035e5afe130c270d6ae6dd,5f05e57e09b0de0b9d5cc3f0,1,,,,,,rug,,,,,,0,18,18,14,1,2,1,,,,,,,,,,,,,,,,,,,,,,,,,,,,,,,,,,,,,,,,,,,,,,,,,,,,,,,,,,,,,,,,,,,,,,,,,,,
,,,,,,,,,,stimuli/images/PICTURE_487.png,GIRL,5edf4de806a7db1fb57bc01a,6/8/1994,2020-07-08_09h06.23.960,proactive,2020.1.2,Win32,60,5f035e5afe130c270d6ae6dd,5f05e57e09b0de0b9d5cc3f0,1,,,,,,basket,,,,,,0,19,19,45,1,5,1,,,,,,,,,,,,,,,,,,,,,,,,,,,,,,,,,,,,,,,,,,,,,,,,,,,,,,,,,,,,,,,,,,,,,,,,,,,
,,,,,,,,,,stimuli/images/PICTURE_403.png,WRITER,5edf4de806a7db1fb57bc01a,6/8/1994,2020-07-08_09h06.23.960,proactive,2020.1.2,Win32,60,5f035e5afe130c270d6ae6dd,5f05e57e09b0de0b9d5cc3f0,1,,,,,,cathedral,,,,,,0,20,20,31,1,4,1,,,,,,,,,,,,,,,,,,,,,,,,,,,,,,,,,,,,,,,,,,,,,,,,,,,,,,,,,,,,,,,,,,,,,,,,,,,
,,,,,,,,,,stimuli/images/PICTURE_667.png,RIVER,5edf4de806a7db1fb57bc01a,6/8/1994,2020-07-08_09h06.23.960,proactive,2020.1.2,Win32,60,5f035e5afe130c270d6ae6dd,5f05e57e09b0de0b9d5cc3f0,1,,,,,,daisy,,,,,,0,21,21,10,1,2,1,,,,,,,,,,,,,,,,,,,,,,,,,,,,,,,,,,,,,,,,,,,,,,,,,,,,,,,,,,,,,,,,,,,,,,,,,,,
,,,,,,,,,,stimuli/images/PICTURE_308.png,FAMILY,5edf4de806a7db1fb57bc01a,6/8/1994,2020-07-08_09h06.23.960,proactive,2020.1.2,Win32,60,5f035e5afe130c270d6ae6dd,5f05e57e09b0de0b9d5cc3f0,1,,,,,,dice,,,,,,0,22,22,36,1,4,1,,,,,,,,,,,,,,,,,,,,,,,,,,,,,,,,,,,,,,,,,,,,,,,,,,,,,,,,,,,,,,,,,,,,,,,,,,,
,,,,,,,,,,stimuli/images/PICTURE_449.png,DUDE,5edf4de806a7db1fb57bc01a,6/8/1994,2020-07-08_09h06.23.960,proactive,2020.1.2,Win32,60,5f035e5afe130c270d6ae6dd,5f05e57e09b0de0b9d5cc3f0,1,,,,,,bench,,,,,,0,23,23,17,1,2,1,,,,,,,,,,,,,,,,,,,,,,,,,,,,,,,,,,,,,,,,,,,,,,,,,,,,,,,,,,,,,,,,,,,,,,,,,,,
,,,,,,,,,,stimuli/images/PICTURE_108.png,FLIGHT,5edf4de806a7db1fb57bc01a,6/8/1994,2020-07-08_09h06.23.960,proactive,2020.1.2,Win32,60,5f035e5afe130c270d6ae6dd,5f05e57e09b0de0b9d5cc3f0,1,,,,,,calendar,,,,,,0,24,24,59,1,6,1,,,,,,,,,,,,,,,,,,,,,,,,,,,,,,,,,,,,,,,,,,,,,,,,,,,,,,,,,,,,,,,,,,,,,,,,,,,
,,,,,,,,,,stimuli/images/PICTURE_403.png,RIVER,5edf4de806a7db1fb57bc01a,6/8/1994,2020-07-08_09h06.23.960,proactive,2020.1.2,Win32,60,5f035e5afe130c270d6ae6dd,5f05e57e09b0de0b9d5cc3f0,1,,,,,,cathedral,,,,,,0,25,25,40,1,5,1,,,,,,,,,,,,,,,,,,,,,,,,,,,,,,,,,,,,,,,,,,,,,,,,,,,,,,,,,,,,,,,,,,,,,,,,,,,
,,,,,,,,,,stimuli/images/PICTURE_208.png,SYSTEM,5edf4de806a7db1fb57bc01a,6/8/1994,2020-07-08_09h06.23.960,proactive,2020.1.2,Win32,60,5f035e5afe130c270d6ae6dd,5f05e57e09b0de0b9d5cc3f0,1,,,,,,microphone,,,,,,0,26,26,32,1,4,1,,,,,,,,,,,,,,,,,,,,,,,,,,,,,,,,,,,,,,,,,,,,,,,,,,,,,,,,,,,,,,,,,,,,,,,,,,,
,,,,,,,,,,stimuli/images/PICTURE_677.png,APPLE,5edf4de806a7db1fb57bc01a,6/8/1994,2020-07-08_09h06.23.960,proactive,2020.1.2,Win32,60,5f035e5afe130c270d6ae6dd,5f05e57e09b0de0b9d5cc3f0,1,,,,,,map,,,,,,0,27,27,43,1,5,1,,,,,,,,,,,,,,,,,,,,,,,,,,,,,,,,,,,,,,,,,,,,,,,,,,,,,,,,,,,,,,,,,,,,,,,,,,,
,,,,,,,,,,stimuli/images/PICTURE_296.png,LOTS,5edf4de806a7db1fb57bc01a,6/8/1994,2020-07-08_09h06.23.960,proactive,2020.1.2,Win32,60,5f035e5afe130c270d6ae6dd,5f05e57e09b0de0b9d5cc3f0,1,,,,,,bolt,,,,,,0,28,28,9,1,1,1,,,,,,,,,,,,,,,,,,,,,,,,,,,,,,,,,,,,,,,,,,,,,,,,,,,,,,,,,,,,,,,,,,,,,,,,,,,
,,,,,,,,,,stimuli/images/PICTURE_504.png,YEAR,5edf4de806a7db1fb57bc01a,6/8/1994,2020-07-08_09h06.23.960,proactive,2020.1.2,Win32,60,5f035e5afe130c270d6ae6dd,5f05e57e09b0de0b9d5cc3f0,1,,,,,,wheel,,,,,,0,29,29,13,1,2,1,,,,,,,,,,,,,,,,,,,,,,,,,,,,,,,,,,,,,,,,,,,,,,,,,,,,,,,,,,,,,,,,,,,,,,,,,,,
,,,,,,,,,,stimuli/images/PICTURE_744.png,WEAPON,5edf4de806a7db1fb57bc01a,6/8/1994,2020-07-08_09h06.23.960,proactive,2020.1.2,Win32,60,5f035e5afe130c270d6ae6dd,5f05e57e09b0de0b9d5cc3f0,1,,,,,,ring,,,,,,0,30,30,50,1,6,1,,,,,,,,,,,,,,,,,,,,,,,,,,,,,,,,,,,,,,,,,,,,,,,,,,,,,,,,,,,,,,,,,,,,,,,,,,,
,,,,,,,,,,stimuli/images/PICTURE_383.png,SERIES,5edf4de806a7db1fb57bc01a,6/8/1994,2020-07-08_09h06.23.960,proactive,2020.1.2,Win32,60,5f035e5afe130c270d6ae6dd,5f05e57e09b0de0b9d5cc3f0,1,,,,,,coin,,,,,,0,31,31,46,1,5,1,,,,,,,,,,,,,,,,,,,,,,,,,,,,,,,,,,,,,,,,,,,,,,,,,,,,,,,,,,,,,,,,,,,,,,,,,,,
,,,,,,,,,,stimuli/images/PICTURE_380.png,HONEY,5edf4de806a7db1fb57bc01a,6/8/1994,2020-07-08_09h06.23.960,proactive,2020.1.2,Win32,60,5f035e5afe130c270d6ae6dd,5f05e57e09b0de0b9d5cc3f0,1,,,,,,gorilla,,,,,,0,32,32,19,1,2,1,,,,,,,,,,,,,,,,,,,,,,,,,,,,,,,,,,,,,,,,,,,,,,,,,,,,,,,,,,,,,,,,,,,,,,,,,,,
,,,,,,,,,,stimuli/images/PICTURE_327.png,SERIES,5edf4de806a7db1fb57bc01a,6/8/1994,2020-07-08_09h06.23.960,proactive,2020.1.2,Win32,60,5f035e5afe130c270d6ae6dd,5f05e57e09b0de0b9d5cc3f0,1,,,,,,helmet,,,,,,0,33,33,3,1,1,1,,,,,,,,,,,,,,,,,,,,,,,,,,,,,,,,,,,,,,,,,,,,,,,,,,,,,,,,,,,,,,,,,,,,,,,,,,,
,,,,,,,,,,stimuli/images/PICTURE_339.png,CLIENT,5edf4de806a7db1fb57bc01a,6/8/1994,2020-07-08_09h06.23.960,proactive,2020.1.2,Win32,60,5f035e5afe130c270d6ae6dd,5f05e57e09b0de0b9d5cc3f0,1,,,,,,backpack,,,,,,0,34,34,11,1,2,1,,,,,,,,,,,,,,,,,,,,,,,,,,,,,,,,,,,,,,,,,,,,,,,,,,,,,,,,,,,,,,,,,,,,,,,,,,,
,,,,,,,,,,stimuli/images/PICTURE_405.png,PLENTY,5edf4de806a7db1fb57bc01a,6/8/1994,2020-07-08_09h06.23.960,proactive,2020.1.2,Win32,60,5f035e5afe130c270d6ae6dd,5f05e57e09b0de0b9d5cc3f0,1,,,,,,anchor,,,,,,0,35,35,23,1,3,1,,,,,,,,,,,,,,,,,,,,,,,,,,,,,,,,,,,,,,,,,,,,,,,,,,,,,,,,,,,,,,,,,,,,,,,,,,,
,,,,,,,,,,stimuli/images/PICTURE_675.png,SALE,5edf4de806a7db1fb57bc01a,6/8/1994,2020-07-08_09h06.23.960,proactive,2020.1.2,Win32,60,5f035e5afe130c270d6ae6dd,5f05e57e09b0de0b9d5cc3f0,1,,,,,,windmill,,,,,,0,36,36,47,1,5,1,,,,,,,,,,,,,,,,,,,,,,,,,,,,,,,,,,,,,,,,,,,,,,,,,,,,,,,,,,,,,,,,,,,,,,,,,,,
,,,,,,,,,,stimuli/images/PICTURE_296.png,LIFE,5edf4de806a7db1fb57bc01a,6/8/1994,2020-07-08_09h06.23.960,proactive,2020.1.2,Win32,60,5f035e5afe130c270d6ae6dd,5f05e57e09b0de0b9d5cc3f0,1,,,,,,bolt,,,,,,0,37,37,57,1,6,1,,,,,,,,,,,,,,,,,,,,,,,,,,,,,,,,,,,,,,,,,,,,,,,,,,,,,,,,,,,,,,,,,,,,,,,,,,,
,,,,,,,,,,stimuli/images/PICTURE_655.png,TOILET,5edf4de806a7db1fb57bc01a,6/8/1994,2020-07-08_09h06.23.960,proactive,2020.1.2,Win32,60,5f035e5afe130c270d6ae6dd,5f05e57e09b0de0b9d5cc3f0,1,,,,,,megaphone,,,,,,0,38,38,12,1,2,1,,,,,,,,,,,,,,,,,,,,,,,,,,,,,,,,,,,,,,,,,,,,,,,,,,,,,,,,,,,,,,,,,,,,,,,,,,,
,,,,,,,,,,stimuli/images/PICTURE_108.png,POLICY,5edf4de806a7db1fb57bc01a,6/8/1994,2020-07-08_09h06.23.960,proactive,2020.1.2,Win32,60,5f035e5afe130c270d6ae6dd,5f05e57e09b0de0b9d5cc3f0,1,,,,,,calendar,,,,,,0,39,39,22,1,3,1,,,,,,,,,,,,,,,,,,,,,,,,,,,,,,,,,,,,,,,,,,,,,,,,,,,,,,,,,,,,,,,,,,,,,,,,,,,
,,,,,,,,,,stimuli/images/PICTURE_504.png,ARTIST,5edf4de806a7db1fb57bc01a,6/8/1994,2020-07-08_09h06.23.960,proactive,2020.1.2,Win32,60,5f035e5afe130c270d6ae6dd,5f05e57e09b0de0b9d5cc3f0,1,,,,,,wheel,,,,,,0,40,40,49,1,5,1,,,,,,,,,,,,,,,,,,,,,,,,,,,,,,,,,,,,,,,,,,,,,,,,,,,,,,,,,,,,,,,,,,,,,,,,,,,
,,,,,,,,,,stimuli/images/PICTURE_233.png,LOTS,5edf4de806a7db1fb57bc01a,6/8/1994,2020-07-08_09h06.23.960,proactive,2020.1.2,Win32,60,5f035e5afe130c270d6ae6dd,5f05e57e09b0de0b9d5cc3f0,1,,,,,,salt,,,,,,0,41,41,42,1,5,1,,,,,,,,,,,,,,,,,,,,,,,,,,,,,,,,,,,,,,,,,,,,,,,,,,,,,,,,,,,,,,,,,,,,,,,,,,,
,,,,,,,,,,stimuli/images/PICTURE_564.png,BATH,5edf4de806a7db1fb57bc01a,6/8/1994,2020-07-08_09h06.23.960,proactive,2020.1.2,Win32,60,5f035e5afe130c270d6ae6dd,5f05e57e09b0de0b9d5cc3f0,1,,,,,,spoon,,,,,,0,42,42,26,1,3,1,,,,,,,,,,,,,,,,,,,,,,,,,,,,,,,,,,,,,,,,,,,,,,,,,,,,,,,,,,,,,,,,,,,,,,,,,,,
,,,,,,,,,,stimuli/images/PICTURE_685.png,PENNY,5edf4de806a7db1fb57bc01a,6/8/1994,2020-07-08_09h06.23.960,proactive,2020.1.2,Win32,60,5f035e5afe130c270d6ae6dd,5f05e57e09b0de0b9d5cc3f0,1,,,,,,goose,,,,,,0,43,43,4,1,1,1,,,,,,,,,,,,,,,,,,,,,,,,,,,,,,,,,,,,,,,,,,,,,,,,,,,,,,,,,,,,,,,,,,,,,,,,,,,
,,,,,,,,,,stimuli/images/PICTURE_380.png,CANDY,5edf4de806a7db1fb57bc01a,6/8/1994,2020-07-08_09h06.23.960,proactive,2020.1.2,Win32,60,5f035e5afe130c270d6ae6dd,5f05e57e09b0de0b9d5cc3f0,1,,,,,,gorilla,,,,,,0,44,44,0,1,1,1,,,,,,,,,,,,,,,,,,,,,,,,,,,,,,,,,,,,,,,,,,,,,,,,,,,,,,,,,,,,,,,,,,,,,,,,,,,
,,,,,,,,,,stimuli/images/PICTURE_491.png,RIVER,5edf4de806a7db1fb57bc01a,6/8/1994,2020-07-08_09h06.23.960,proactive,2020.1.2,Win32,60,5f035e5afe130c270d6ae6dd,5f05e57e09b0de0b9d5cc3f0,1,,,,,,rug,,,,,,0,45,45,6,1,1,1,,,,,,,,,,,,,,,,,,,,,,,,,,,,,,,,,,,,,,,,,,,,,,,,,,,,,,,,,,,,,,,,,,,,,,,,,,,
,,,,,,,,,,stimuli/images/PICTURE_340.png,VALLEY,5edf4de806a7db1fb57bc01a,6/8/1994,2020-07-08_09h06.23.960,proactive,2020.1.2,Win32,60,5f035e5afe130c270d6ae6dd,5f05e57e09b0de0b9d5cc3f0,1,,,,,,mirror,,,,,,0,46,46,54,1,6,1,,,,,,,,,,,,,,,,,,,,,,,,,,,,,,,,,,,,,,,,,,,,,,,,,,,,,,,,,,,,,,,,,,,,,,,,,,,
,,,,,,,,,,stimuli/images/PICTURE_95.png,MILLER,5edf4de806a7db1fb57bc01a,6/8/1994,2020-07-08_09h06.23.960,proactive,2020.1.2,Win32,60,5f035e5afe130c270d6ae6dd,5f05e57e09b0de0b9d5cc3f0,1,,,,,,suitcase,,,,,,0,47,47,56,1,6,1,,,,,,,,,,,,,,,,,,,,,,,,,,,,,,,,,,,,,,,,,,,,,,,,,,,,,,,,,,,,,,,,,,,,,,,,,,,
,,,,,,,,,,stimuli/images/PICTURE_68.png,MILE,5edf4de806a7db1fb57bc01a,6/8/1994,2020-07-08_09h06.23.960,proactive,2020.1.2,Win32,60,5f035e5afe130c270d6ae6dd,5f05e57e09b0de0b9d5cc3f0,1,,,,,,candle,,,,,,0,48,48,51,1,6,1,,,,,,,,,,,,,,,,,,,,,,,,,,,,,,,,,,,,,,,,,,,,,,,,,,,,,,,,,,,,,,,,,,,,,,,,,,,
,,,,,,,,,,stimuli/images/PICTURE_177.png,WRITER,5edf4de806a7db1fb57bc01a,6/8/1994,2020-07-08_09h06.23.960,proactive,2020.1.2,Win32,60,5f035e5afe130c270d6ae6dd,5f05e57e09b0de0b9d5cc3f0,1,,,,,,mushroom,,,,,,0,49,49,41,1,5,1,,,,,,,,,,,,,,,,,,,,,,,,,,,,,,,,,,,,,,,,,,,,,,,,,,,,,,,,,,,,,,,,,,,,,,,,,,,
,,,,,,,,,,stimuli/images/PICTURE_297.png,RIVER,5edf4de806a7db1fb57bc01a,6/8/1994,2020-07-08_09h06.23.960,proactive,2020.1.2,Win32,60,5f035e5afe130c270d6ae6dd,5f05e57e09b0de0b9d5cc3f0,1,,,,,,aeroplane,,,,,,0,50,50,39,1,4,1,,,,,,,,,,,,,,,,,,,,,,,,,,,,,,,,,,,,,,,,,,,,,,,,,,,,,,,,,,,,,,,,,,,,,,,,,,,
,,,,,,,,,,stimuli/images/PICTURE_504.png,COPS,5edf4de806a7db1fb57bc01a,6/8/1994,2020-07-08_09h06.23.960,proactive,2020.1.2,Win32,60,5f035e5afe130c270d6ae6dd,5f05e57e09b0de0b9d5cc3f0,1,,,,,,wheel,,,,,,0,51,51,52,1,6,1,,,,,,,,,,,,,,,,,,,,,,,,,,,,,,,,,,,,,,,,,,,,,,,,,,,,,,,,,,,,,,,,,,,,,,,,,,,
,,,,,,,,,,stimuli/images/PICTURE_340.png,LETTER,5edf4de806a7db1fb57bc01a,6/8/1994,2020-07-08_09h06.23.960,proactive,2020.1.2,Win32,60,5f035e5afe130c270d6ae6dd,5f05e57e09b0de0b9d5cc3f0,1,,,,,,mirror,,,,,,0,52,52,24,1,3,1,,,,,,,,,,,,,,,,,,,,,,,,,,,,,,,,,,,,,,,,,,,,,,,,,,,,,,,,,,,,,,,,,,,,,,,,,,,
,,,,,,,,,,stimuli/images/PICTURE_2.png,FLIGHT,5edf4de806a7db1fb57bc01a,6/8/1994,2020-07-08_09h06.23.960,proactive,2020.1.2,Win32,60,5f035e5afe130c270d6ae6dd,5f05e57e09b0de0b9d5cc3f0,1,,,,,,tyre,,,,,,0,53,53,15,1,2,1,,,,,,,,,,,,,,,,,,,,,,,,,,,,,,,,,,,,,,,,,,,,,,,,,,,,,,,,,,,,,,,,,,,,,,,,,,,
,,,,,,,,,,stimuli/images/PICTURE_285.png,LIFE,5edf4de806a7db1fb57bc01a,6/8/1994,2020-07-08_09h06.23.960,proactive,2020.1.2,Win32,60,5f035e5afe130c270d6ae6dd,5f05e57e09b0de0b9d5cc3f0,1,,,,,,carrot,,,,,,0,54,54,33,1,4,1,,,,,,,,,,,,,,,,,,,,,,,,,,,,,,,,,,,,,,,,,,,,,,,,,,,,,,,,,,,,,,,,,,,,,,,,,,,
,,,,,,,,,,stimuli/images/PICTURE_383.png,WRITER,5edf4de806a7db1fb57bc01a,6/8/1994,2020-07-08_09h06.23.960,proactive,2020.1.2,Win32,60,5f035e5afe130c270d6ae6dd,5f05e57e09b0de0b9d5cc3f0,1,,,,,,coin,,,,,,0,55,55,28,1,3,1,,,,,,,,,,,,,,,,,,,,,,,,,,,,,,,,,,,,,,,,,,,,,,,,,,,,,,,,,,,,,,,,,,,,,,,,,,,
,,,,,,,,,,stimuli/images/PICTURE_95.png,BOYS,5edf4de806a7db1fb57bc01a,6/8/1994,2020-07-08_09h06.23.960,proactive,2020.1.2,Win32,60,5f035e5afe130c270d6ae6dd,5f05e57e09b0de0b9d5cc3f0,1,,,,,,suitcase,,,,,,0,56,56,1,1,1,1,,,,,,,,,,,,,,,,,,,,,,,,,,,,,,,,,,,,,,,,,,,,,,,,,,,,,,,,,,,,,,,,,,,,,,,,,,,
,,,,,,,,,,stimuli/images/PICTURE_32.png,PILLS,5edf4de806a7db1fb57bc01a,6/8/1994,2020-07-08_09h06.23.960,proactive,2020.1.2,Win32,60,5f035e5afe130c270d6ae6dd,5f05e57e09b0de0b9d5cc3f0,1,,,,,,crown,,,,,,0,57,57,18,1,2,1,,,,,,,,,,,,,,,,,,,,,,,,,,,,,,,,,,,,,,,,,,,,,,,,,,,,,,,,,,,,,,,,,,,,,,,,,,,
,,,,,,,,,,stimuli/images/PICTURE_147.png,WOMEN,5edf4de806a7db1fb57bc01a,6/8/1994,2020-07-08_09h06.23.960,proactive,2020.1.2,Win32,60,5f035e5afe130c270d6ae6dd,5f05e57e09b0de0b9d5cc3f0,1,,,,,,hanger,,,,,,0,58,58,7,1,1,1,,,,,,,,,,,,,,,,,,,,,,,,,,,,,,,,,,,,,,,,,,,,,,,,,,,,,,,,,,,,,,,,,,,,,,,,,,,
,,?,0.005735,0,,,,,,stimuli/images/PICTURE_504.png,ARTIST,5edf4de806a7db1fb57bc01a,6/8/1994,2020-07-08_09h06.23.960,proactive,2020.1.2,Win32,60,5f035e5afe130c270d6ae6dd,5f05e57e09b0de0b9d5cc3f0,1,,,,,,wheel,,,,,,,,,,,5,1,0,0,0,49,1,,,,,,,,,,,,,,,,,,,,,,,,,,,,,,,,,,,,,,,,,,,,,,,,,,,,,,,,,,,,,,,,,,,,,,
,,?,0.00725,0,,,,,,stimuli/images/PICTURE_203.png,GODS,5edf4de806a7db1fb57bc01a,6/8/1994,2020-07-08_09h06.23.960,proactive,2020.1.2,Win32,60,5f035e5afe130c270d6ae6dd,5f05e57e09b0de0b9d5cc3f0,1,,,,,,cap,,,,,,,,,,,4,1,0,1,1,30,1,,,,,,,,,,,,,,,,,,,,,,,,,,,,,,,,,,,,,,,,,,,,,,,,,,,,,,,,,,,,,,,,,,,,,,
,,?,0.005505,0,,,,,,stimuli/images/PICTURE_467.png,POLICY,5edf4de806a7db1fb57bc01a,6/8/1994,2020-07-08_09h06.23.960,proactive,2020.1.2,Win32,60,5f035e5afe130c270d6ae6dd,5f05e57e09b0de0b9d5cc3f0,1,,,,,,peg,,,,,,,,,,,6,1,0,2,2,53,1,,,,,,,,,,,,,,,,,,,,,,,,,,,,,,,,,,,,,,,,,,,,,,,,,,,,,,,,,,,,,,,,,,,,,,
,,?,0.00404,0,,,,,,stimuli/images/PICTURE_147.png,YEAR,5edf4de806a7db1fb57bc01a,6/8/1994,2020-07-08_09h06.23.960,proactive,2020.1.2,Win32,60,5f035e5afe130c270d6ae6dd,5f05e57e09b0de0b9d5cc3f0,1,,,,,,hanger,,,,,,,,,,,3,1,0,3,3,21,1,,,,,,,,,,,,,,,,,,,,,,,,,,,,,,,,,,,,,,,,,,,,,,,,,,,,,,,,,,,,,,,,,,,,,,
,,NATION,4.094115,1,,,,,,stimuli/images/PICTURE_85.png,NATION,5edf4de806a7db1fb57bc01a,6/8/1994,2020-07-08_09h06.23.960,proactive,2020.1.2,Win32,60,5f035e5afe130c270d6ae6dd,5f05e57e09b0de0b9d5cc3f0,1,,,,,,diamond,,,,,,,,,,,1,1,0,4,4,5,1,,,,,,,,,,,,,,,,,,,,,,,,,,,,,,,,,,,,,,,,,,,,,,,,,,,,,,,,,,,,,,,,,,,,,,
,,?,0.005165,0,,,,,,stimuli/images/PICTURE_403.png,WRITER,5edf4de806a7db1fb57bc01a,6/8/1994,2020-07-08_09h06.23.960,proactive,2020.1.2,Win32,60,5f035e5afe130c270d6ae6dd,5f05e57e09b0de0b9d5cc3f0,1,,,,,,cathedral,,,,,,,,,,,4,1,0,5,5,31,1,,,,,,,,,,,,,,,,,,,,,,,,,,,,,,,,,,,,,,,,,,,,,,,,,,,,,,,,,,,,,,,,,,,,,,
,,?,0.003995,0,,,,,,stimuli/images/PICTURE_95.png,MILLER,5edf4de806a7db1fb57bc01a,6/8/1994,2020-07-08_09h06.23.960,proactive,2020.1.2,Win32,60,5f035e5afe130c270d6ae6dd,5f05e57e09b0de0b9d5cc3f0,1,,,,,,suitcase,,,,,,,,,,,6,1,0,6,6,56,1,,,,,,,,,,,,,,,,,,,,,,,,,,,,,,,,,,,,,,,,,,,,,,,,,,,,,,,,,,,,,,,,,,,,,,
,,?,0.00499,0,,,,,,stimuli/images/PICTURE_677.png,APPLE,5edf4de806a7db1fb57bc01a,6/8/1994,2020-07-08_09h06.23.960,proactive,2020.1.2,Win32,60,5f035e5afe130c270d6ae6dd,5f05e57e09b0de0b9d5cc3f0,1,,,,,,map,,,,,,,,,,,5,1,0,7,7,43,1,,,,,,,,,,,,,,,,,,,,,,,,,,,,,,,,,,,,,,,,,,,,,,,,,,,,,,,,,,,,,,,,,,,,,,
,,?,0.00571,0,,,,,,stimuli/images/PICTURE_383.png,SERIES,5edf4de806a7db1fb57bc01a,6/8/1994,2020-07-08_09h06.23.960,proactive,2020.1.2,Win32,60,5f035e5afe130c270d6ae6dd,5f05e57e09b0de0b9d5cc3f0,1,,,,,,coin,,,,,,,,,,,5,1,0,8,8,46,1,,,,,,,,,,,,,,,,,,,,,,,,,,,,,,,,,,,,,,,,,,,,,,,,,,,,,,,,,,,,,,,,,,,,,,
,,RIVER,5.737385,1,,,,,,stimuli/images/PICTURE_491.png,RIVER,5edf4de806a7db1fb57bc01a,6/8/1994,2020-07-08_09h06.23.960,proactive,2020.1.2,Win32,60,5f035e5afe130c270d6ae6dd,5f05e57e09b0de0b9d5cc3f0,1,,,,,,rug,,,,,,,,,,,1,1,0,9,9,6,1,,,,,,,,,,,,,,,,,,,,,,,,,,,,,,,,,,,,,,,,,,,,,,,,,,,,,,,,,,,,,,,,,,,,,,
,,?,0.0402,0,,,,,,stimuli/images/PICTURE_675.png,SALE,5edf4de806a7db1fb57bc01a,6/8/1994,2020-07-08_09h06.23.960,proactive,2020.1.2,Win32,60,5f035e5afe130c270d6ae6dd,5f05e57e09b0de0b9d5cc3f0,1,,,,,,windmill,,,,,,,,,,,5,1,0,10,10,47,1,,,,,,,,,,,,,,,,,,,,,,,,,,,,,,,,,,,,,,,,,,,,,,,,,,,,,,,,,,,,,,,,,,,,,,
,,?,0.008235,0,,,,,,stimuli/images/PICTURE_296.png,LIFE,5edf4de806a7db1fb57bc01a,6/8/1994,2020-07-08_09h06.23.960,proactive,2020.1.2,Win32,60,5f035e5afe130c270d6ae6dd,5f05e57e09b0de0b9d5cc3f0,1,,,,,,bolt,,,,,,,,,,,6,1,0,11,11,57,1,,,,,,,,,,,,,,,,,,,,,,,,,,,,,,,,,,,,,,,,,,,,,,,,,,,,,,,,,,,,,,,,,,,,,,
,,?,0.006275,0,,,,,,stimuli/images/PICTURE_308.png,FAMILY,5edf4de806a7db1fb57bc01a,6/8/1994,2020-07-08_09h06.23.960,proactive,2020.1.2,Win32,60,5f035e5afe130c270d6ae6dd,5f05e57e09b0de0b9d5cc3f0,1,,,,,,dice,,,,,,,,,,,4,1,0,12,12,36,1,,,,,,,,,,,,,,,,,,,,,,,,,,,,,,,,,,,,,,,,,,,,,,,,,,,,,,,,,,,,,,,,,,,,,,
,,?,0.00637,0,,,,,,stimuli/images/PICTURE_57.png,MOMENT,5edf4de806a7db1fb57bc01a,6/8/1994,2020-07-08_09h06.23.960,proactive,2020.1.2,Win32,60,5f035e5afe130c270d6ae6dd,5f05e57e09b0de0b9d5cc3f0,1,,,,,,stamp,,,,,,,,,,,4,1,0,13,13,37,1,,,,,,,,,,,,,,,,,,,,,,,,,,,,,,,,,,,,,,,,,,,,,,,,,,,,,,,,,,,,,,,,,,,,,,
,,?,0.01224,0,,,,,,stimuli/images/PICTURE_340.png,LETTER,5edf4de806a7db1fb57bc01a,6/8/1994,2020-07-08_09h06.23.960,proactive,2020.1.2,Win32,60,5f035e5afe130c270d6ae6dd,5f05e57e09b0de0b9d5cc3f0,1,,,,,,mirror,,,,,,,,,,,3,1,0,14,14,24,1,,,,,,,,,,,,,,,,,,,,,,,,,,,,,,,,,,,,,,,,,,,,,,,,,,,,,,,,,,,,,,,,,,,,,,
,,?,0.007425,0,,,,,,stimuli/images/PICTURE_654.png,MONTH,5edf4de806a7db1fb57bc01a,6/8/1994,2020-07-08_09h06.23.960,proactive,2020.1.2,Win32,60,5f035e5afe130c270d6ae6dd,5f05e57e09b0de0b9d5cc3f0,1,,,,,,pencil,,,,,,,,,,,3,1,0,15,15,29,1,,,,,,,,,,,,,,,,,,,,,,,,,,,,,,,,,,,,,,,,,,,,,,,,,,,,,,,,,,,,,,,,,,,,,,
,,?,0.005395,0,,,,,,stimuli/images/PICTURE_285.png,LIFE,5edf4de806a7db1fb57bc01a,6/8/1994,2020-07-08_09h06.23.960,proactive,2020.1.2,Win32,60,5f035e5afe130c270d6ae6dd,5f05e57e09b0de0b9d5cc3f0,1,,,,,,carrot,,,,,,,,,,,4,1,0,16,16,33,1,,,,,,,,,,,,,,,,,,,,,,,,,,,,,,,,,,,,,,,,,,,,,,,,,,,,,,,,,,,,,,,,,,,,,,
,,?,0.00581,0,,,,,,stimuli/images/PICTURE_750.png,HOTEL,5edf4de806a7db1fb57bc01a,6/8/1994,2020-07-08_09h06.23.960,proactive,2020.1.2,Win32,60,5f035e5afe130c270d6ae6dd,5f05e57e09b0de0b9d5cc3f0,1,,,,,,kettle,,,,,,,,,,,3,1,0,17,17,27,1,,,,,,,,,,,,,,,,,,,,,,,,,,,,,,,,,,,,,,,,,,,,,,,,,,,,,,,,,,,,,,,,,,,,,,
,,?,0.01202,0,,,,,,stimuli/images/PICTURE_208.png,SYSTEM,5edf4de806a7db1fb57bc01a,6/8/1994,2020-07-08_09h06.23.960,proactive,2020.1.2,Win32,60,5f035e5afe130c270d6ae6dd,5f05e57e09b0de0b9d5cc3f0,1,,,,,,microphone,,,,,,,,,,,4,1,0,18,18,32,1,,,,,,,,,,,,,,,,,,,,,,,,,,,,,,,,,,,,,,,,,,,,,,,,,,,,,,,,,,,,,,,,,,,,,,
,,CANDY,3.62833,1,,,,,,stimuli/images/PICTURE_380.png,CANDY,5edf4de806a7db1fb57bc01a,6/8/1994,2020-07-08_09h06.23.960,proactive,2020.1.2,Win32,60,5f035e5afe130c270d6ae6dd,5f05e57e09b0de0b9d5cc3f0,1,,,,,,gorilla,,,,,,,,,,,1,1,0,19,19,0,1,,,,,,,,,,,,,,,,,,,,,,,,,,,,,,,,,,,,,,,,,,,,,,,,,,,,,,,,,,,,,,,,,,,,,,
,,?,0.00467,0,,,,,,stimuli/images/PICTURE_32.png,PILLS,5edf4de806a7db1fb57bc01a,6/8/1994,2020-07-08_09h06.23.960,proactive,2020.1.2,Win32,60,5f035e5afe130c270d6ae6dd,5f05e57e09b0de0b9d5cc3f0,1,,,,,,crown,,,,,,,,,,,2,1,0,20,20,18,1,,,,,,,,,,,,,,,,,,,,,,,,,,,,,,,,,,,,,,,,,,,,,,,,,,,,,,,,,,,,,,,,,,,,,,
,,WOMEN,3.087465,1,,,,,,stimuli/images/PICTURE_147.png,WOMEN,5edf4de806a7db1fb57bc01a,6/8/1994,2020-07-08_09h06.23.960,proactive,2020.1.2,Win32,60,5f035e5afe130c270d6ae6dd,5f05e57e09b0de0b9d5cc3f0,1,,,,,,hanger,,,,,,,,,,,1,1,0,21,21,7,1,,,,,,,,,,,,,,,,,,,,,,,,,,,,,,,,,,,,,,,,,,,,,,,,,,,,,,,,,,,,,,,,,,,,,,
,,FRIEND,4.694955,1,,,,,,stimuli/images/PICTURE_33.png,FRIEND,5edf4de806a7db1fb57bc01a,6/8/1994,2020-07-08_09h06.23.960,proactive,2020.1.2,Win32,60,5f035e5afe130c270d6ae6dd,5f05e57e09b0de0b9d5cc3f0,1,,,,,,frame,,,,,,,,,,,1,1,0,22,22,8,1,,,,,,,,,,,,,,,,,,,,,,,,,,,,,,,,,,,,,,,,,,,,,,,,,,,,,,,,,,,,,,,,,,,,,,
,,?,0.005635,0,,,,,,stimuli/images/PICTURE_297.png,RIVER,5edf4de806a7db1fb57bc01a,6/8/1994,2020-07-08_09h06.23.960,proactive,2020.1.2,Win32,60,5f035e5afe130c270d6ae6dd,5f05e57e09b0de0b9d5cc3f0,1,,,,,,aeroplane,,,,,,,,,,,4,1,0,23,23,39,1,,,,,,,,,,,,,,,,,,,,,,,,,,,,,,,,,,,,,,,,,,,,,,,,,,,,,,,,,,,,,,,,,,,,,,
,,?,0.015495,0,,,,,,stimuli/images/PICTURE_68.png,ROOF,5edf4de806a7db1fb57bc01a,6/8/1994,2020-07-08_09h06.23.960,proactive,2020.1.2,Win32,60,5f035e5afe130c270d6ae6dd,5f05e57e09b0de0b9d5cc3f0,1,,,,,,candle,,,,,,,,,,,4,1,0,24,24,38,1,,,,,,,,,,,,,,,,,,,,,,,,,,,,,,,,,,,,,,,,,,,,,,,,,,,,,,,,,,,,,,,,,,,,,,
,,?,0.0044,0,,,,,,stimuli/images/PICTURE_108.png,FLIGHT,5edf4de806a7db1fb57bc01a,6/8/1994,2020-07-08_09h06.23.960,proactive,2020.1.2,Win32,60,5f035e5afe130c270d6ae6dd,5f05e57e09b0de0b9d5cc3f0,1,,,,,,calendar,,,,,,,,,,,6,1,0,25,25,59,1,,,,,,,,,,,,,,,,,,,,,,,,,,,,,,,,,,,,,,,,,,,,,,,,,,,,,,,,,,,,,,,,,,,,,,
,,?,0.005235,0,,,,,,stimuli/images/PICTURE_85.png,TOILET,5edf4de806a7db1fb57bc01a,6/8/1994,2020-07-08_09h06.23.960,proactive,2020.1.2,Win32,60,5f035e5afe130c270d6ae6dd,5f05e57e09b0de0b9d5cc3f0,1,,,,,,diamond,,,,,,,,,,,5,1,0,26,26,48,1,,,,,,,,,,,,,,,,,,,,,,,,,,,,,,,,,,,,,,,,,,,,,,,,,,,,,,,,,,,,,,,,,,,,,,
,,?,0.0054,0,,,,,,stimuli/images/PICTURE_108.png,POLICY,5edf4de806a7db1fb57bc01a,6/8/1994,2020-07-08_09h06.23.960,proactive,2020.1.2,Win32,60,5f035e5afe130c270d6ae6dd,5f05e57e09b0de0b9d5cc3f0,1,,,,,,calendar,,,,,,,,,,,3,1,0,27,27,22,1,,,,,,,,,,,,,,,,,,,,,,,,,,,,,,,,,,,,,,,,,,,,,,,,,,,,,,,,,,,,,,,,,,,,,,
,,?,0.004505,0,,,,,,stimuli/images/PICTURE_449.png,DUDE,5edf4de806a7db1fb57bc01a,6/8/1994,2020-07-08_09h06.23.960,proactive,2020.1.2,Win32,60,5f035e5afe130c270d6ae6dd,5f05e57e09b0de0b9d5cc3f0,1,,,,,,bench,,,,,,,,,,,2,1,0,28,28,17,1,,,,,,,,,,,,,,,,,,,,,,,,,,,,,,,,,,,,,,,,,,,,,,,,,,,,,,,,,,,,,,,,,,,,,,
,,NIGHT,5.726525,1,,,,,,stimuli/images/PICTURE_203.png,NIGHT,5edf4de806a7db1fb57bc01a,6/8/1994,2020-07-08_09h06.23.960,proactive,2020.1.2,Win32,60,5f035e5afe130c270d6ae6dd,5f05e57e09b0de0b9d5cc3f0,1,,,,,,cap,,,,,,,,,,,1,1,0,29,29,2,1,,,,,,,,,,,,,,,,,,,,,,,,,,,,,,,,,,,,,,,,,,,,,,,,,,,,,,,,,,,,,,,,,,,,,,
,,?,0.005765,0,,,,,,stimuli/images/PICTURE_380.png,HONEY,5edf4de806a7db1fb57bc01a,6/8/1994,2020-07-08_09h06.23.960,proactive,2020.1.2,Win32,60,5f035e5afe130c270d6ae6dd,5f05e57e09b0de0b9d5cc3f0,1,,,,,,gorilla,,,,,,,,,,,2,1,0,30,30,19,1,,,,,,,,,,,,,,,,,,,,,,,,,,,,,,,,,,,,,,,,,,,,,,,,,,,,,,,,,,,,,,,,,,,,,,
,,BOYS,4.17849,1,,,,,,stimuli/images/PICTURE_95.png,BOYS,5edf4de806a7db1fb57bc01a,6/8/1994,2020-07-08_09h06.23.960,proactive,2020.1.2,Win32,60,5f035e5afe130c270d6ae6dd,5f05e57e09b0de0b9d5cc3f0,1,,,,,,suitcase,,,,,,,,,,,1,1,0,31,31,1,1,,,,,,,,,,,,,,,,,,,,,,,,,,,,,,,,,,,,,,,,,,,,,,,,,,,,,,,,,,,,,,,,,,,,,,
,,?,0.003825,0,,,,,,stimuli/images/PICTURE_32.png,KIND,5edf4de806a7db1fb57bc01a,6/8/1994,2020-07-08_09h06.23.960,proactive,2020.1.2,Win32,60,5f035e5afe130c270d6ae6dd,5f05e57e09b0de0b9d5cc3f0,1,,,,,,crown,,,,,,,,,,,4,1,0,32,32,35,1,,,,,,,,,,,,,,,,,,,,,,,,,,,,,,,,,,,,,,,,,,,,,,,,,,,,,,,,,,,,,,,,,,,,,,
,,?,0.004685,0,,,,,,stimuli/images/PICTURE_68.png,MILE,5edf4de806a7db1fb57bc01a,6/8/1994,2020-07-08_09h06.23.960,proactive,2020.1.2,Win32,60,5f035e5afe130c270d6ae6dd,5f05e57e09b0de0b9d5cc3f0,1,,,,,,candle,,,,,,,,,,,6,1,0,33,33,51,1,,,,,,,,,,,,,,,,,,,,,,,,,,,,,,,,,,,,,,,,,,,,,,,,,,,,,,,,,,,,,,,,,,,,,,
,,?,0.005825,0,,,,,,stimuli/images/PICTURE_487.png,GIRL,5edf4de806a7db1fb57bc01a,6/8/1994,2020-07-08_09h06.23.960,proactive,2020.1.2,Win32,60,5f035e5afe130c270d6ae6dd,5f05e57e09b0de0b9d5cc3f0,1,,,,,,basket,,,,,,,,,,,5,1,0,34,34,45,1,,,,,,,,,,,,,,,,,,,,,,,,,,,,,,,,,,,,,,,,,,,,,,,,,,,,,,,,,,,,,,,,,,,,,,
,,?,0.00451,0,,,,,,stimuli/images/PICTURE_95.png,HONEY,5edf4de806a7db1fb57bc01a,6/8/1994,2020-07-08_09h06.23.960,proactive,2020.1.2,Win32,60,5f035e5afe130c270d6ae6dd,5f05e57e09b0de0b9d5cc3f0,1,,,,,,suitcase,,,,,,,,,,,5,1,0,35,35,44,1,,,,,,,,,,,,,,,,,,,,,,,,,,,,,,,,,,,,,,,,,,,,,,,,,,,,,,,,,,,,,,,,,,,,,,
,,?,0.004145,0,,,,,,stimuli/images/PICTURE_744.png,WEAPON,5edf4de806a7db1fb57bc01a,6/8/1994,2020-07-08_09h06.23.960,proactive,2020.1.2,Win32,60,5f035e5afe130c270d6ae6dd,5f05e57e09b0de0b9d5cc3f0,1,,,,,,ring,,,,,,,,,,,6,1,0,36,36,50,1,,,,,,,,,,,,,,,,,,,,,,,,,,,,,,,,,,,,,,,,,,,,,,,,,,,,,,,,,,,,,,,,,,,,,,
,,?,0.005585,0,,,,,,stimuli/images/PICTURE_564.png,BATH,5edf4de806a7db1fb57bc01a,6/8/1994,2020-07-08_09h06.23.960,proactive,2020.1.2,Win32,60,5f035e5afe130c270d6ae6dd,5f05e57e09b0de0b9d5cc3f0,1,,,,,,spoon,,,,,,,,,,,3,1,0,37,37,26,1,,,,,,,,,,,,,,,,,,,,,,,,,,,,,,,,,,,,,,,,,,,,,,,,,,,,,,,,,,,,,,,,,,,,,,
,,?,0.0046,0,,,,,,stimuli/images/PICTURE_383.png,WRITER,5edf4de806a7db1fb57bc01a,6/8/1994,2020-07-08_09h06.23.960,proactive,2020.1.2,Win32,60,5f035e5afe130c270d6ae6dd,5f05e57e09b0de0b9d5cc3f0,1,,,,,,coin,,,,,,,,,,,3,1,0,38,38,28,1,,,,,,,,,,,,,,,,,,,,,,,,,,,,,,,,,,,,,,,,,,,,,,,,,,,,,,,,,,,,,,,,,,,,,,
,,?,0.004395,0,,,,,,stimuli/images/PICTURE_339.png,CLIENT,5edf4de806a7db1fb57bc01a,6/8/1994,2020-07-08_09h06.23.960,proactive,2020.1.2,Win32,60,5f035e5afe130c270d6ae6dd,5f05e57e09b0de0b9d5cc3f0,1,,,,,,backpack,,,,,,,,,,,2,1,0,39,39,11,1,,,,,,,,,,,,,,,,,,,,,,,,,,,,,,,,,,,,,,,,,,,,,,,,,,,,,,,,,,,,,,,,,,,,,,
,,?,0.004345,0,,,,,,stimuli/images/PICTURE_42.png,BOYS,5edf4de806a7db1fb57bc01a,6/8/1994,2020-07-08_09h06.23.960,proactive,2020.1.2,Win32,60,5f035e5afe130c270d6ae6dd,5f05e57e09b0de0b9d5cc3f0,1,,,,,,pear,,,,,,,,,,,6,1,0,40,40,55,1,,,,,,,,,,,,,,,,,,,,,,,,,,,,,,,,,,,,,,,,,,,,,,,,,,,,,,,,,,,,,,,,,,,,,,
,,?,0.01078,0,,,,,,stimuli/images/PICTURE_655.png,TOILET,5edf4de806a7db1fb57bc01a,6/8/1994,2020-07-08_09h06.23.960,proactive,2020.1.2,Win32,60,5f035e5afe130c270d6ae6dd,5f05e57e09b0de0b9d5cc3f0,1,,,,,,megaphone,,,,,,,,,,,2,1,0,41,41,12,1,,,,,,,,,,,,,,,,,,,,,,,,,,,,,,,,,,,,,,,,,,,,,,,,,,,,,,,,,,,,,,,,,,,,,,
,,?,0.003475,0,,,,,,stimuli/images/PICTURE_405.png,PLENTY,5edf4de806a7db1fb57bc01a,6/8/1994,2020-07-08_09h06.23.960,proactive,2020.1.2,Win32,60,5f035e5afe130c270d6ae6dd,5f05e57e09b0de0b9d5cc3f0,1,,,,,,anchor,,,,,,,,,,,3,1,0,42,42,23,1,,,,,,,,,,,,,,,,,,,,,,,,,,,,,,,,,,,,,,,,,,,,,,,,,,,,,,,,,,,,,,,,,,,,,,
,,?,0.003955,0,,,,,,stimuli/images/PICTURE_504.png,YEAR,5edf4de806a7db1fb57bc01a,6/8/1994,2020-07-08_09h06.23.960,proactive,2020.1.2,Win32,60,5f035e5afe130c270d6ae6dd,5f05e57e09b0de0b9d5cc3f0,1,,,,,,wheel,,,,,,,,,,,2,1,0,43,43,13,1,,,,,,,,,,,,,,,,,,,,,,,,,,,,,,,,,,,,,,,,,,,,,,,,,,,,,,,,,,,,,,,,,,,,,,
,,PENNY,4.33036,1,,,,,,stimuli/images/PICTURE_685.png,PENNY,5edf4de806a7db1fb57bc01a,6/8/1994,2020-07-08_09h06.23.960,proactive,2020.1.2,Win32,60,5f035e5afe130c270d6ae6dd,5f05e57e09b0de0b9d5cc3f0,1,,,,,,goose,,,,,,,,,,,1,1,0,44,44,4,1,,,,,,,,,,,,,,,,,,,,,,,,,,,,,,,,,,,,,,,,,,,,,,,,,,,,,,,,,,,,,,,,,,,,,,
,,?,0.00489,0,,,,,,stimuli/images/PICTURE_233.png,LOTS,5edf4de806a7db1fb57bc01a,6/8/1994,2020-07-08_09h06.23.960,proactive,2020.1.2,Win32,60,5f035e5afe130c270d6ae6dd,5f05e57e09b0de0b9d5cc3f0,1,,,,,,salt,,,,,,,,,,,5,1,0,45,45,42,1,,,,,,,,,,,,,,,,,,,,,,,,,,,,,,,,,,,,,,,,,,,,,,,,,,,,,,,,,,,,,,,,,,,,,,
,,?,0.004415,0,,,,,,stimuli/images/PICTURE_403.png,RIVER,5edf4de806a7db1fb57bc01a,6/8/1994,2020-07-08_09h06.23.960,proactive,2020.1.2,Win32,60,5f035e5afe130c270d6ae6dd,5f05e57e09b0de0b9d5cc3f0,1,,,,,,cathedral,,,,,,,,,,,5,1,0,46,46,40,1,,,,,,,,,,,,,,,,,,,,,,,,,,,,,,,,,,,,,,,,,,,,,,,,,,,,,,,,,,,,,,,,,,,,,,
,,?,0.005245,0,,,,,,stimuli/images/PICTURE_2.png,FLIGHT,5edf4de806a7db1fb57bc01a,6/8/1994,2020-07-08_09h06.23.960,proactive,2020.1.2,Win32,60,5f035e5afe130c270d6ae6dd,5f05e57e09b0de0b9d5cc3f0,1,,,,,,tyre,,,,,,,,,,,2,1,0,47,47,15,1,,,,,,,,,,,,,,,,,,,,,,,,,,,,,,,,,,,,,,,,,,,,,,,,,,,,,,,,,,,,,,,,,,,,,,
,,SERIES,5.260035,1,,,,,,stimuli/images/PICTURE_327.png,SERIES,5edf4de806a7db1fb57bc01a,6/8/1994,2020-07-08_09h06.23.960,proactive,2020.1.2,Win32,60,5f035e5afe130c270d6ae6dd,5f05e57e09b0de0b9d5cc3f0,1,,,,,,helmet,,,,,,,,,,,1,1,0,48,48,3,1,,,,,,,,,,,,,,,,,,,,,,,,,,,,,,,,,,,,,,,,,,,,,,,,,,,,,,,,,,,,,,,,,,,,,,
,,?,0.00587,0,,,,,,stimuli/images/PICTURE_403.png,TOILET,5edf4de806a7db1fb57bc01a,6/8/1994,2020-07-08_09h06.23.960,proactive,2020.1.2,Win32,60,5f035e5afe130c270d6ae6dd,5f05e57e09b0de0b9d5cc3f0,1,,,,,,cathedral,,,,,,,,,,,3,1,0,49,49,25,1,,,,,,,,,,,,,,,,,,,,,,,,,,,,,,,,,,,,,,,,,,,,,,,,,,,,,,,,,,,,,,,,,,,,,,
,,?,0.005405,0,,,,,,stimuli/images/PICTURE_340.png,VALLEY,5edf4de806a7db1fb57bc01a,6/8/1994,2020-07-08_09h06.23.960,proactive,2020.1.2,Win32,60,5f035e5afe130c270d6ae6dd,5f05e57e09b0de0b9d5cc3f0,1,,,,,,mirror,,,,,,,,,,,6,1,0,50,50,54,1,,,,,,,,,,,,,,,,,,,,,,,,,,,,,,,,,,,,,,,,,,,,,,,,,,,,,,,,,,,,,,,,,,,,,,
,,?,0.006925,0,,,,,,stimuli/images/PICTURE_469.png,AGENT,5edf4de806a7db1fb57bc01a,6/8/1994,2020-07-08_09h06.23.960,proactive,2020.1.2,Win32,60,5f035e5afe130c270d6ae6dd,5f05e57e09b0de0b9d5cc3f0,1,,,,,,stool,,,,,,,,,,,2,1,0,51,51,16,1,,,,,,,,,,,,,,,,,,,,,,,,,,,,,,,,,,,,,,,,,,,,,,,,,,,,,,,,,,,,,,,,,,,,,,
,,NOTS,2.536835,0,,,,,,stimuli/images/PICTURE_296.png,LOTS,5edf4de806a7db1fb57bc01a,6/8/1994,2020-07-08_09h06.23.960,proactive,2020.1.2,Win32,60,5f035e5afe130c270d6ae6dd,5f05e57e09b0de0b9d5cc3f0,1,,,,,,bolt,,,,,,,,,,,1,1,0,52,52,9,1,,,,,,,,,,,,,,,,,,,,,,,,,,,,,,,,,,,,,,,,,,,,,,,,,,,,,,,,,,,,,,,,,,,,,,
,,?,0.004325,0,,,,,,stimuli/images/PICTURE_708.png,RECORD,5edf4de806a7db1fb57bc01a,6/8/1994,2020-07-08_09h06.23.960,proactive,2020.1.2,Win32,60,5f035e5afe130c270d6ae6dd,5f05e57e09b0de0b9d5cc3f0,1,,,,,,monkey,,,,,,,,,,,6,1,0,53,53,58,1,,,,,,,,,,,,,,,,,,,,,,,,,,,,,,,,,,,,,,,,,,,,,,,,,,,,,,,,,,,,,,,,,,,,,,
,,?,0.040255,0,,,,,,stimuli/images/PICTURE_405.png,YEAR,5edf4de806a7db1fb57bc01a,6/8/1994,2020-07-08_09h06.23.960,proactive,2020.1.2,Win32,60,5f035e5afe130c270d6ae6dd,5f05e57e09b0de0b9d5cc3f0,1,,,,,,anchor,,,,,,,,,,,4,1,0,54,54,34,1,,,,,,,,,,,,,,,,,,,,,,,,,,,,,,,,,,,,,,,,,,,,,,,,,,,,,,,,,,,,,,,,,,,,,,
,,?,0.005695,0,,,,,,stimuli/images/PICTURE_177.png,WRITER,5edf4de806a7db1fb57bc01a,6/8/1994,2020-07-08_09h06.23.960,proactive,2020.1.2,Win32,60,5f035e5afe130c270d6ae6dd,5f05e57e09b0de0b9d5cc3f0,1,,,,,,mushroom,,,,,,,,,,,5,1,0,55,55,41,1,,,,,,,,,,,,,,,,,,,,,,,,,,,,,,,,,,,,,,,,,,,,,,,,,,,,,,,,,,,,,,,,,,,,,,
,,?,0.011815,0,,,,,,stimuli/images/PICTURE_504.png,COPS,5edf4de806a7db1fb57bc01a,6/8/1994,2020-07-08_09h06.23.960,proactive,2020.1.2,Win32,60,5f035e5afe130c270d6ae6dd,5f05e57e09b0de0b9d5cc3f0,1,,,,,,wheel,,,,,,,,,,,6,1,0,56,56,52,1,,,,,,,,,,,,,,,,,,,,,,,,,,,,,,,,,,,,,,,,,,,,,,,,,,,,,,,,,,,,,,,,,,,,,,
,,?,0.014885,0,,,,,,stimuli/images/PICTURE_327.png,CASINO,5edf4de806a7db1fb57bc01a,6/8/1994,2020-07-08_09h06.23.960,proactive,2020.1.2,Win32,60,5f035e5afe130c270d6ae6dd,5f05e57e09b0de0b9d5cc3f0,1,,,,,,helmet,,,,,,,,,,,3,1,0,57,57,20,1,,,,,,,,,,,,,,,,,,,,,,,,,,,,,,,,,,,,,,,,,,,,,,,,,,,,,,,,,,,,,,,,,,,,,,
,,?,0.005055,0,,,,,,stimuli/images/PICTURE_491.png,GLASS,5edf4de806a7db1fb57bc01a,6/8/1994,2020-07-08_09h06.23.960,proactive,2020.1.2,Win32,60,5f035e5afe130c270d6ae6dd,5f05e57e09b0de0b9d5cc3f0,1,,,,,,rug,,,,,,,,,,,2,1,0,58,58,14,1,,,,,,,,,,,,,,,,,,,,,,,,,,,,,,,,,,,,,,,,,,,,,,,,,,,,,,,,,,,,,,,,,,,,,,
,,?,0.00646,0,,,,,,stimuli/images/PICTURE_667.png,RIVER,5edf4de806a7db1fb57bc01a,6/8/1994,2020-07-08_09h06.23.960,proactive,2020.1.2,Win32,60,5f035e5afe130c270d6ae6dd,5f05e57e09b0de0b9d5cc3f0,1,,,,,,daisy,,,,,,,,,,,2,1,0,59,59,10,1,,,,,,,,,,,,,,,,,,,,,,,,,,,,,,,,,,,,,,,,,,,,,,,,,,,,,,,,,,,,,,,,,,,,,,
,,,,,,,,,,,,5edf4de806a7db1fb57bc01a,6/8/1994,2020-07-08_09h06.23.960,proactive,2020.1.2,Win32,60,5f035e5afe130c270d6ae6dd,5f05e57e09b0de0b9d5cc3f0,1,,,,,,,,,,,,,,,,,,,,,,,,0,1,1,1,1,stimuli/learn-block2.csv,,,,,,,,,,,,,,,,,,,,,,,,,,,,,,,,,,,,,,,,,,,,,,,,,,,,,,,,,,,,,,,,
,,,,,,,,,,stimuli/images/PICTURE_2.png,YARD,5edf4de806a7db1fb57bc01a,6/8/1994,2020-07-08_09h06.23.960,proactive,2020.1.2,Win32,60,5f035e5afe130c270d6ae6dd,5f05e57e09b0de0b9d5cc3f0,1,,,,,,tyre,,,,,,0,0,0,55,1,6,2,,,,,,,,,,,,,,,,,,,,,,,,,,,,,,,,,,,,,,,,,,,,,,,,,,,,,,,,,,,,,,,,,,,,,,,,,,,
,,,,,,,,,,stimuli/images/PICTURE_452.png,COPS,5edf4de806a7db1fb57bc01a,6/8/1994,2020-07-08_09h06.23.960,proactive,2020.1.2,Win32,60,5f035e5afe130c270d6ae6dd,5f05e57e09b0de0b9d5cc3f0,1,,,,,,watch,,,,,,0,1,1,0,1,1,2,,,,,,,,,,,,,,,,,,,,,,,,,,,,,,,,,,,,,,,,,,,,,,,,,,,,,,,,,,,,,,,,,,,,,,,,,,,
,,,,,,,,,,stimuli/images/PICTURE_255.png,PENNY,5edf4de806a7db1fb57bc01a,6/8/1994,2020-07-08_09h06.23.960,proactive,2020.1.2,Win32,60,5f035e5afe130c270d6ae6dd,5f05e57e09b0de0b9d5cc3f0,1,,,,,,shovel,,,,,,0,2,2,19,1,2,2,,,,,,,,,,,,,,,,,,,,,,,,,,,,,,,,,,,,,,,,,,,,,,,,,,,,,,,,,,,,,,,,,,,,,,,,,,,
,,,,,,,,,,stimuli/images/PICTURE_487.png,POLICY,5edf4de806a7db1fb57bc01a,6/8/1994,2020-07-08_09h06.23.960,proactive,2020.1.2,Win32,60,5f035e5afe130c270d6ae6dd,5f05e57e09b0de0b9d5cc3f0,1,,,,,,basket,,,,,,0,3,3,34,1,4,2,,,,,,,,,,,,,,,,,,,,,,,,,,,,,,,,,,,,,,,,,,,,,,,,,,,,,,,,,,,,,,,,,,,,,,,,,,,
,,,,,,,,,,stimuli/images/PICTURE_453.png,FAMILY,5edf4de806a7db1fb57bc01a,6/8/1994,2020-07-08_09h06.23.960,proactive,2020.1.2,Win32,60,5f035e5afe130c270d6ae6dd,5f05e57e09b0de0b9d5cc3f0,1,,,,,,scissors,,,,,,0,4,4,48,1,5,2,,,,,,,,,,,,,,,,,,,,,,,,,,,,,,,,,,,,,,,,,,,,,,,,,,,,,,,,,,,,,,,,,,,,,,,,,,,
,,,,,,,,,,stimuli/images/PICTURE_509.png,SHOTS,5edf4de806a7db1fb57bc01a,6/8/1994,2020-07-08_09h06.23.960,proactive,2020.1.2,Win32,60,5f035e5afe130c270d6ae6dd,5f05e57e09b0de0b9d5cc3f0,1,,,,,,telephone,,,,,,0,5,5,7,1,1,2,,,,,,,,,,,,,,,,,,,,,,,,,,,,,,,,,,,,,,,,,,,,,,,,,,,,,,,,,,,,,,,,,,,,,,,,,,,
,,,,,,,,,,stimuli/images/PICTURE_68.png,KIND,5edf4de806a7db1fb57bc01a,6/8/1994,2020-07-08_09h06.23.960,proactive,2020.1.2,Win32,60,5f035e5afe130c270d6ae6dd,5f05e57e09b0de0b9d5cc3f0,1,,,,,,candle,,,,,,0,6,6,23,1,3,2,,,,,,,,,,,,,,,,,,,,,,,,,,,,,,,,,,,,,,,,,,,,,,,,,,,,,,,,,,,,,,,,,,,,,,,,,,,
,,,,,,,,,,stimuli/images/PICTURE_708.png,VALLEY,5edf4de806a7db1fb57bc01a,6/8/1994,2020-07-08_09h06.23.960,proactive,2020.1.2,Win32,60,5f035e5afe130c270d6ae6dd,5f05e57e09b0de0b9d5cc3f0,1,,,,,,monkey,,,,,,0,7,7,45,1,5,2,,,,,,,,,,,,,,,,,,,,,,,,,,,,,,,,,,,,,,,,,,,,,,,,,,,,,,,,,,,,,,,,,,,,,,,,,,,
,,,,,,,,,,stimuli/images/PICTURE_356.png,CANDY,5edf4de806a7db1fb57bc01a,6/8/1994,2020-07-08_09h06.23.960,proactive,2020.1.2,Win32,60,5f035e5afe130c270d6ae6dd,5f05e57e09b0de0b9d5cc3f0,1,,,,,,pawn,,,,,,0,8,8,46,1,5,2,,,,,,,,,,,,,,,,,,,,,,,,,,,,,,,,,,,,,,,,,,,,,,,,,,,,,,,,,,,,,,,,,,,,,,,,,,,
,,,,,,,,,,stimuli/images/PICTURE_470.png,MOMENT,5edf4de806a7db1fb57bc01a,6/8/1994,2020-07-08_09h06.23.960,proactive,2020.1.2,Win32,60,5f035e5afe130c270d6ae6dd,5f05e57e09b0de0b9d5cc3f0,1,,,,,,motorbike,,,,,,0,9,9,40,1,5,2,,,,,,,,,,,,,,,,,,,,,,,,,,,,,,,,,,,,,,,,,,,,,,,,,,,,,,,,,,,,,,,,,,,,,,,,,,,
,,,,,,,,,,stimuli/images/PICTURE_405.png,JUNGLE,5edf4de806a7db1fb57bc01a,6/8/1994,2020-07-08_09h06.23.960,proactive,2020.1.2,Win32,60,5f035e5afe130c270d6ae6dd,5f05e57e09b0de0b9d5cc3f0,1,,,,,,anchor,,,,,,0,10,10,13,1,2,2,,,,,,,,,,,,,,,,,,,,,,,,,,,,,,,,,,,,,,,,,,,,,,,,,,,,,,,,,,,,,,,,,,,,,,,,,,,
,,,,,,,,,,stimuli/images/PICTURE_141.png,CLIENT,5edf4de806a7db1fb57bc01a,6/8/1994,2020-07-08_09h06.23.960,proactive,2020.1.2,Win32,60,5f035e5afe130c270d6ae6dd,5f05e57e09b0de0b9d5cc3f0,1,,,,,,sunflower,,,,,,0,11,11,30,1,4,2,,,,,,,,,,,,,,,,,,,,,,,,,,,,,,,,,,,,,,,,,,,,,,,,,,,,,,,,,,,,,,,,,,,,,,,,,,,
,,,,,,,,,,stimuli/images/PICTURE_177.png,HOUSE,5edf4de806a7db1fb57bc01a,6/8/1994,2020-07-08_09h06.23.960,proactive,2020.1.2,Win32,60,5f035e5afe130c270d6ae6dd,5f05e57e09b0de0b9d5cc3f0,1,,,,,,mushroom,,,,,,0,12,12,25,1,3,2,,,,,,,,,,,,,,,,,,,,,,,,,,,,,,,,,,,,,,,,,,,,,,,,,,,,,,,,,,,,,,,,,,,,,,,,,,,
,,,,,,,,,,stimuli/images/PICTURE_93.png,GIRL,5edf4de806a7db1fb57bc01a,6/8/1994,2020-07-08_09h06.23.960,proactive,2020.1.2,Win32,60,5f035e5afe130c270d6ae6dd,5f05e57e09b0de0b9d5cc3f0,1,,,,,,skateboard,,,,,,0,13,13,31,1,4,2,,,,,,,,,,,,,,,,,,,,,,,,,,,,,,,,,,,,,,,,,,,,,,,,,,,,,,,,,,,,,,,,,,,,,,,,,,,
,,,,,,,,,,stimuli/images/PICTURE_405.png,HOUSE,5edf4de806a7db1fb57bc01a,6/8/1994,2020-07-08_09h06.23.960,proactive,2020.1.2,Win32,60,5f035e5afe130c270d6ae6dd,5f05e57e09b0de0b9d5cc3f0,1,,,,,,anchor,,,,,,0,14,14,2,1,1,2,,,,,,,,,,,,,,,,,,,,,,,,,,,,,,,,,,,,,,,,,,,,,,,,,,,,,,,,,,,,,,,,,,,,,,,,,,,
,,,,,,,,,,stimuli/images/PICTURE_2.png,JUNGLE,5edf4de806a7db1fb57bc01a,6/8/1994,2020-07-08_09h06.23.960,proactive,2020.1.2,Win32,60,5f035e5afe130c270d6ae6dd,5f05e57e09b0de0b9d5cc3f0,1,,,,,,tyre,,,,,,0,15,15,1,1,1,2,,,,,,,,,,,,,,,,,,,,,,,,,,,,,,,,,,,,,,,,,,,,,,,,,,,,,,,,,,,,,,,,,,,,,,,,,,,
,,,,,,,,,,stimuli/images/PICTURE_208.png,SPIRIT,5edf4de806a7db1fb57bc01a,6/8/1994,2020-07-08_09h06.23.960,proactive,2020.1.2,Win32,60,5f035e5afe130c270d6ae6dd,5f05e57e09b0de0b9d5cc3f0,1,,,,,,microphone,,,,,,0,16,16,28,1,3,2,,,,,,,,,,,,,,,,,,,,,,,,,,,,,,,,,,,,,,,,,,,,,,,,,,,,,,,,,,,,,,,,,,,,,,,,,,,
,,,,,,,,,,stimuli/images/PICTURE_655.png,SALE,5edf4de806a7db1fb57bc01a,6/8/1994,2020-07-08_09h06.23.960,proactive,2020.1.2,Win32,60,5f035e5afe130c270d6ae6dd,5f05e57e09b0de0b9d5cc3f0,1,,,,,,megaphone,,,,,,0,17,17,57,1,6,2,,,,,,,,,,,,,,,,,,,,,,,,,,,,,,,,,,,,,,,,,,,,,,,,,,,,,,,,,,,,,,,,,,,,,,,,,,,
,,,,,,,,,,stimuli/images/PICTURE_57.png,CASINO,5edf4de806a7db1fb57bc01a,6/8/1994,2020-07-08_09h06.23.960,proactive,2020.1.2,Win32,60,5f035e5afe130c270d6ae6dd,5f05e57e09b0de0b9d5cc3f0,1,,,,,,stamp,,,,,,0,18,18,12,1,2,2,,,,,,,,,,,,,,,,,,,,,,,,,,,,,,,,,,,,,,,,,,,,,,,,,,,,,,,,,,,,,,,,,,,,,,,,,,,
,,,,,,,,,,stimuli/images/PICTURE_348.png,DUDE,5edf4de806a7db1fb57bc01a,6/8/1994,2020-07-08_09h06.23.960,proactive,2020.1.2,Win32,60,5f035e5afe130c270d6ae6dd,5f05e57e09b0de0b9d5cc3f0,1,,,,,,pepper,,,,,,0,19,19,59,1,6,2,,,,,,,,,,,,,,,,,,,,,,,,,,,,,,,,,,,,,,,,,,,,,,,,,,,,,,,,,,,,,,,,,,,,,,,,,,,
,,,,,,,,,,stimuli/images/PICTURE_95.png,NIGHT,5edf4de806a7db1fb57bc01a,6/8/1994,2020-07-08_09h06.23.960,proactive,2020.1.2,Win32,60,5f035e5afe130c270d6ae6dd,5f05e57e09b0de0b9d5cc3f0,1,,,,,,suitcase,,,,,,0,20,20,37,1,4,2,,,,,,,,,,,,,,,,,,,,,,,,,,,,,,,,,,,,,,,,,,,,,,,,,,,,,,,,,,,,,,,,,,,,,,,,,,,
,,,,,,,,,,stimuli/images/PICTURE_2.png,AREA,5edf4de806a7db1fb57bc01a,6/8/1994,2020-07-08_09h06.23.960,proactive,2020.1.2,Win32,60,5f035e5afe130c270d6ae6dd,5f05e57e09b0de0b9d5cc3f0,1,,,,,,tyre,,,,,,0,21,21,32,1,4,2,,,,,,,,,,,,,,,,,,,,,,,,,,,,,,,,,,,,,,,,,,,,,,,,,,,,,,,,,,,,,,,,,,,,,,,,,,,
,,,,,,,,,,stimuli/images/PICTURE_147.png,LEADER,5edf4de806a7db1fb57bc01a,6/8/1994,2020-07-08_09h06.23.960,proactive,2020.1.2,Win32,60,5f035e5afe130c270d6ae6dd,5f05e57e09b0de0b9d5cc3f0,1,,,,,,hanger,,,,,,0,22,22,33,1,4,2,,,,,,,,,,,,,,,,,,,,,,,,,,,,,,,,,,,,,,,,,,,,,,,,,,,,,,,,,,,,,,,,,,,,,,,,,,,
,,,,,,,,,,stimuli/images/PICTURE_314.png,SPEECH,5edf4de806a7db1fb57bc01a,6/8/1994,2020-07-08_09h06.23.960,proactive,2020.1.2,Win32,60,5f035e5afe130c270d6ae6dd,5f05e57e09b0de0b9d5cc3f0,1,,,,,,perfume,,,,,,0,23,23,35,1,4,2,,,,,,,,,,,,,,,,,,,,,,,,,,,,,,,,,,,,,,,,,,,,,,,,,,,,,,,,,,,,,,,,,,,,,,,,,,,
,,,,,,,,,,stimuli/images/PICTURE_297.png,BODY,5edf4de806a7db1fb57bc01a,6/8/1994,2020-07-08_09h06.23.960,proactive,2020.1.2,Win32,60,5f035e5afe130c270d6ae6dd,5f05e57e09b0de0b9d5cc3f0,1,,,,,,aeroplane,,,,,,0,24,24,51,1,6,2,,,,,,,,,,,,,,,,,,,,,,,,,,,,,,,,,,,,,,,,,,,,,,,,,,,,,,,,,,,,,,,,,,,,,,,,,,,
,,,,,,,,,,stimuli/images/PICTURE_405.png,JUNGLE,5edf4de806a7db1fb57bc01a,6/8/1994,2020-07-08_09h06.23.960,proactive,2020.1.2,Win32,60,5f035e5afe130c270d6ae6dd,5f05e57e09b0de0b9d5cc3f0,1,,,,,,anchor,,,,,,0,25,25,58,1,6,2,,,,,,,,,,,,,,,,,,,,,,,,,,,,,,,,,,,,,,,,,,,,,,,,,,,,,,,,,,,,,,,,,,,,,,,,,,,
,,,,,,,,,,stimuli/images/PICTURE_509.png,APPLE,5edf4de806a7db1fb57bc01a,6/8/1994,2020-07-08_09h06.23.960,proactive,2020.1.2,Win32,60,5f035e5afe130c270d6ae6dd,5f05e57e09b0de0b9d5cc3f0,1,,,,,,telephone,,,,,,0,26,26,38,1,4,2,,,,,,,,,,,,,,,,,,,,,,,,,,,,,,,,,,,,,,,,,,,,,,,,,,,,,,,,,,,,,,,,,,,,,,,,,,,
,,,,,,,,,,stimuli/images/PICTURE_285.png,WRITER,5edf4de806a7db1fb57bc01a,6/8/1994,2020-07-08_09h06.23.960,proactive,2020.1.2,Win32,60,5f035e5afe130c270d6ae6dd,5f05e57e09b0de0b9d5cc3f0,1,,,,,,carrot,,,,,,0,27,27,6,1,1,2,,,,,,,,,,,,,,,,,,,,,,,,,,,,,,,,,,,,,,,,,,,,,,,,,,,,,,,,,,,,,,,,,,,,,,,,,,,
,,,,,,,,,,stimuli/images/PICTURE_348.png,TOILET,5edf4de806a7db1fb57bc01a,6/8/1994,2020-07-08_09h06.23.960,proactive,2020.1.2,Win32,60,5f035e5afe130c270d6ae6dd,5f05e57e09b0de0b9d5cc3f0,1,,,,,,pepper,,,,,,0,28,28,4,1,1,2,,,,,,,,,,,,,,,,,,,,,,,,,,,,,,,,,,,,,,,,,,,,,,,,,,,,,,,,,,,,,,,,,,,,,,,,,,,
,,,,,,,,,,stimuli/images/PICTURE_677.png,FAMILY,5edf4de806a7db1fb57bc01a,6/8/1994,2020-07-08_09h06.23.960,proactive,2020.1.2,Win32,60,5f035e5afe130c270d6ae6dd,5f05e57e09b0de0b9d5cc3f0,1,,,,,,map,,,,,,0,29,29,53,1,6,2,,,,,,,,,,,,,,,,,,,,,,,,,,,,,,,,,,,,,,,,,,,,,,,,,,,,,,,,,,,,,,,,,,,,,,,,,,,
,,,,,,,,,,stimuli/images/PICTURE_692.png,DUDE,5edf4de806a7db1fb57bc01a,6/8/1994,2020-07-08_09h06.23.960,proactive,2020.1.2,Win32,60,5f035e5afe130c270d6ae6dd,5f05e57e09b0de0b9d5cc3f0,1,,,,,,cherry,,,,,,0,30,30,47,1,5,2,,,,,,,,,,,,,,,,,,,,,,,,,,,,,,,,,,,,,,,,,,,,,,,,,,,,,,,,,,,,,,,,,,,,,,,,,,,
,,,,,,,,,,stimuli/images/PICTURE_750.png,POLICY,5edf4de806a7db1fb57bc01a,6/8/1994,2020-07-08_09h06.23.960,proactive,2020.1.2,Win32,60,5f035e5afe130c270d6ae6dd,5f05e57e09b0de0b9d5cc3f0,1,,,,,,kettle,,,,,,0,31,31,44,1,5,2,,,,,,,,,,,,,,,,,,,,,,,,,,,,,,,,,,,,,,,,,,,,,,,,,,,,,,,,,,,,,,,,,,,,,,,,,,,
,,,,,,,,,,stimuli/images/PICTURE_32.png,LETTER,5edf4de806a7db1fb57bc01a,6/8/1994,2020-07-08_09h06.23.960,proactive,2020.1.2,Win32,60,5f035e5afe130c270d6ae6dd,5f05e57e09b0de0b9d5cc3f0,1,,,,,,crown,,,,,,0,32,32,56,1,6,2,,,,,,,,,,,,,,,,,,,,,,,,,,,,,,,,,,,,,,,,,,,,,,,,,,,,,,,,,,,,,,,,,,,,,,,,,,,
,,,,,,,,,,stimuli/images/PICTURE_311.png,TOILET,5edf4de806a7db1fb57bc01a,6/8/1994,2020-07-08_09h06.23.960,proactive,2020.1.2,Win32,60,5f035e5afe130c270d6ae6dd,5f05e57e09b0de0b9d5cc3f0,1,,,,,,razor,,,,,,0,33,33,54,1,6,2,,,,,,,,,,,,,,,,,,,,,,,,,,,,,,,,,,,,,,,,,,,,,,,,,,,,,,,,,,,,,,,,,,,,,,,,,,,
,,,,,,,,,,stimuli/images/PICTURE_160.png,HOTEL,5edf4de806a7db1fb57bc01a,6/8/1994,2020-07-08_09h06.23.960,proactive,2020.1.2,Win32,60,5f035e5afe130c270d6ae6dd,5f05e57e09b0de0b9d5cc3f0,1,,,,,,wheelbarrow,,,,,,0,34,34,16,1,2,2,,,,,,,,,,,,,,,,,,,,,,,,,,,,,,,,,,,,,,,,,,,,,,,,,,,,,,,,,,,,,,,,,,,,,,,,,,,
,,,,,,,,,,stimuli/images/PICTURE_18.png,RIVER,5edf4de806a7db1fb57bc01a,6/8/1994,2020-07-08_09h06.23.960,proactive,2020.1.2,Win32,60,5f035e5afe130c270d6ae6dd,5f05e57e09b0de0b9d5cc3f0,1,,,,,,planet,,,,,,0,35,35,22,1,3,2,,,,,,,,,,,,,,,,,,,,,,,,,,,,,,,,,,,,,,,,,,,,,,,,,,,,,,,,,,,,,,,,,,,,,,,,,,,
,,,,,,,,,,stimuli/images/PICTURE_487.png,ROOF,5edf4de806a7db1fb57bc01a,6/8/1994,2020-07-08_09h06.23.960,proactive,2020.1.2,Win32,60,5f035e5afe130c270d6ae6dd,5f05e57e09b0de0b9d5cc3f0,1,,,,,,basket,,,,,,0,36,36,50,1,6,2,,,,,,,,,,,,,,,,,,,,,,,,,,,,,,,,,,,,,,,,,,,,,,,,,,,,,,,,,,,,,,,,,,,,,,,,,,,
,,,,,,,,,,stimuli/images/PICTURE_509.png,MILLER,5edf4de806a7db1fb57bc01a,6/8/1994,2020-07-08_09h06.23.960,proactive,2020.1.2,Win32,60,5f035e5afe130c270d6ae6dd,5f05e57e09b0de0b9d5cc3f0,1,,,,,,telephone,,,,,,0,37,37,49,1,5,2,,,,,,,,,,,,,,,,,,,,,,,,,,,,,,,,,,,,,,,,,,,,,,,,,,,,,,,,,,,,,,,,,,,,,,,,,,,
,,,,,,,,,,stimuli/images/PICTURE_654.png,COPS,5edf4de806a7db1fb57bc01a,6/8/1994,2020-07-08_09h06.23.960,proactive,2020.1.2,Win32,60,5f035e5afe130c270d6ae6dd,5f05e57e09b0de0b9d5cc3f0,1,,,,,,pencil,,,,,,0,38,38,10,1,2,2,,,,,,,,,,,,,,,,,,,,,,,,,,,,,,,,,,,,,,,,,,,,,,,,,,,,,,,,,,,,,,,,,,,,,,,,,,,
,,,,,,,,,,stimuli/images/PICTURE_57.png,CANDY,5edf4de806a7db1fb57bc01a,6/8/1994,2020-07-08_09h06.23.960,proactive,2020.1.2,Win32,60,5f035e5afe130c270d6ae6dd,5f05e57e09b0de0b9d5cc3f0,1,,,,,,stamp,,,,,,0,39,39,52,1,6,2,,,,,,,,,,,,,,,,,,,,,,,,,,,,,,,,,,,,,,,,,,,,,,,,,,,,,,,,,,,,,,,,,,,,,,,,,,,
,,,,,,,,,,stimuli/images/PICTURE_123.png,SALE,5edf4de806a7db1fb57bc01a,6/8/1994,2020-07-08_09h06.23.960,proactive,2020.1.2,Win32,60,5f035e5afe130c270d6ae6dd,5f05e57e09b0de0b9d5cc3f0,1,,,,,,dart,,,,,,0,40,40,8,1,1,2,,,,,,,,,,,,,,,,,,,,,,,,,,,,,,,,,,,,,,,,,,,,,,,,,,,,,,,,,,,,,,,,,,,,,,,,,,,
,,,,,,,,,,stimuli/images/PICTURE_688.png,CLOCK,5edf4de806a7db1fb57bc01a,6/8/1994,2020-07-08_09h06.23.960,proactive,2020.1.2,Win32,60,5f035e5afe130c270d6ae6dd,5f05e57e09b0de0b9d5cc3f0,1,,,,,,runner,,,,,,0,41,41,42,1,5,2,,,,,,,,,,,,,,,,,,,,,,,,,,,,,,,,,,,,,,,,,,,,,,,,,,,,,,,,,,,,,,,,,,,,,,,,,,,
,,,,,,,,,,stimuli/images/PICTURE_285.png,PRINCE,5edf4de806a7db1fb57bc01a,6/8/1994,2020-07-08_09h06.23.960,proactive,2020.1.2,Win32,60,5f035e5afe130c270d6ae6dd,5f05e57e09b0de0b9d5cc3f0,1,,,,,,carrot,,,,,,0,42,42,20,1,3,2,,,,,,,,,,,,,,,,,,,,,,,,,,,,,,,,,,,,,,,,,,,,,,,,,,,,,,,,,,,,,,,,,,,,,,,,,,,
,,,,,,,,,,stimuli/images/PICTURE_667.png,GLASS,5edf4de806a7db1fb57bc01a,6/8/1994,2020-07-08_09h06.23.960,proactive,2020.1.2,Win32,60,5f035e5afe130c270d6ae6dd,5f05e57e09b0de0b9d5cc3f0,1,,,,,,daisy,,,,,,0,43,43,27,1,3,2,,,,,,,,,,,,,,,,,,,,,,,,,,,,,,,,,,,,,,,,,,,,,,,,,,,,,,,,,,,,,,,,,,,,,,,,,,,
,,,,,,,,,,stimuli/images/PICTURE_311.png,FLESH,5edf4de806a7db1fb57bc01a,6/8/1994,2020-07-08_09h06.23.960,proactive,2020.1.2,Win32,60,5f035e5afe130c270d6ae6dd,5f05e57e09b0de0b9d5cc3f0,1,,,,,,razor,,,,,,0,44,44,3,1,1,2,,,,,,,,,,,,,,,,,,,,,,,,,,,,,,,,,,,,,,,,,,,,,,,,,,,,,,,,,,,,,,,,,,,,,,,,,,,
,,,,,,,,,,stimuli/images/PICTURE_509.png,BATH,5edf4de806a7db1fb57bc01a,6/8/1994,2020-07-08_09h06.23.960,proactive,2020.1.2,Win32,60,5f035e5afe130c270d6ae6dd,5f05e57e09b0de0b9d5cc3f0,1,,,,,,telephone,,,,,,0,45,45,15,1,2,2,,,,,,,,,,,,,,,,,,,,,,,,,,,,,,,,,,,,,,,,,,,,,,,,,,,,,,,,,,,,,,,,,,,,,,,,,,,
,,,,,,,,,,stimuli/images/PICTURE_33.png,COPS,5edf4de806a7db1fb57bc01a,6/8/1994,2020-07-08_09h06.23.960,proactive,2020.1.2,Win32,60,5f035e5afe130c270d6ae6dd,5f05e57e09b0de0b9d5cc3f0,1,,,,,,frame,,,,,,0,46,46,29,1,3,2,,,,,,,,,,,,,,,,,,,,,,,,,,,,,,,,,,,,,,,,,,,,,,,,,,,,,,,,,,,,,,,,,,,,,,,,,,,
,,,,,,,,,,stimuli/images/PICTURE_470.png,BEAUTY,5edf4de806a7db1fb57bc01a,6/8/1994,2020-07-08_09h06.23.960,proactive,2020.1.2,Win32,60,5f035e5afe130c270d6ae6dd,5f05e57e09b0de0b9d5cc3f0,1,,,,,,motorbike,,,,,,0,47,47,26,1,3,2,,,,,,,,,,,,,,,,,,,,,,,,,,,,,,,,,,,,,,,,,,,,,,,,,,,,,,,,,,,,,,,,,,,,,,,,,,,
,,,,,,,,,,stimuli/images/PICTURE_403.png,FAMILY,5edf4de806a7db1fb57bc01a,6/8/1994,2020-07-08_09h06.23.960,proactive,2020.1.2,Win32,60,5f035e5afe130c270d6ae6dd,5f05e57e09b0de0b9d5cc3f0,1,,,,,,cathedral,,,,,,0,48,48,9,1,1,2,,,,,,,,,,,,,,,,,,,,,,,,,,,,,,,,,,,,,,,,,,,,,,,,,,,,,,,,,,,,,,,,,,,,,,,,,,,
,,,,,,,,,,stimuli/images/PICTURE_504.png,HOUSE,5edf4de806a7db1fb57bc01a,6/8/1994,2020-07-08_09h06.23.960,proactive,2020.1.2,Win32,60,5f035e5afe130c270d6ae6dd,5f05e57e09b0de0b9d5cc3f0,1,,,,,,wheel,,,,,,0,49,49,36,1,4,2,,,,,,,,,,,,,,,,,,,,,,,,,,,,,,,,,,,,,,,,,,,,,,,,,,,,,,,,,,,,,,,,,,,,,,,,,,,
,,,,,,,,,,stimuli/images/PICTURE_677.png,PHOTO,5edf4de806a7db1fb57bc01a,6/8/1994,2020-07-08_09h06.23.960,proactive,2020.1.2,Win32,60,5f035e5afe130c270d6ae6dd,5f05e57e09b0de0b9d5cc3f0,1,,,,,,map,,,,,,0,50,50,14,1,2,2,,,,,,,,,,,,,,,,,,,,,,,,,,,,,,,,,,,,,,,,,,,,,,,,,,,,,,,,,,,,,,,,,,,,,,,,,,,
,,,,,,,,,,stimuli/images/PICTURE_57.png,NATION,5edf4de806a7db1fb57bc01a,6/8/1994,2020-07-08_09h06.23.960,proactive,2020.1.2,Win32,60,5f035e5afe130c270d6ae6dd,5f05e57e09b0de0b9d5cc3f0,1,,,,,,stamp,,,,,,0,51,51,21,1,3,2,,,,,,,,,,,,,,,,,,,,,,,,,,,,,,,,,,,,,,,,,,,,,,,,,,,,,,,,,,,,,,,,,,,,,,,,,,,
,,,,,,,,,,stimuli/images/PICTURE_564.png,PLENTY,5edf4de806a7db1fb57bc01a,6/8/1994,2020-07-08_09h06.23.960,proactive,2020.1.2,Win32,60,5f035e5afe130c270d6ae6dd,5f05e57e09b0de0b9d5cc3f0,1,,,,,,spoon,,,,,,0,52,52,11,1,2,2,,,,,,,,,,,,,,,,,,,,,,,,,,,,,,,,,,,,,,,,,,,,,,,,,,,,,,,,,,,,,,,,,,,,,,,,,,,
,,,,,,,,,,stimuli/images/PICTURE_215.png,LEADER,5edf4de806a7db1fb57bc01a,6/8/1994,2020-07-08_09h06.23.960,proactive,2020.1.2,Win32,60,5f035e5afe130c270d6ae6dd,5f05e57e09b0de0b9d5cc3f0,1,,,,,,boot,,,,,,0,53,53,43,1,5,2,,,,,,,,,,,,,,,,,,,,,,,,,,,,,,,,,,,,,,,,,,,,,,,,,,,,,,,,,,,,,,,,,,,,,,,,,,,
,,,,,,,,,,stimuli/images/PICTURE_327.png,LEADER,5edf4de806a7db1fb57bc01a,6/8/1994,2020-07-08_09h06.23.960,proactive,2020.1.2,Win32,60,5f035e5afe130c270d6ae6dd,5f05e57e09b0de0b9d5cc3f0,1,,,,,,helmet,,,,,,0,54,54,17,1,2,2,,,,,,,,,,,,,,,,,,,,,,,,,,,,,,,,,,,,,,,,,,,,,,,,,,,,,,,,,,,,,,,,,,,,,,,,,,,
,,,,,,,,,,stimuli/images/PICTURE_215.png,FOOD,5edf4de806a7db1fb57bc01a,6/8/1994,2020-07-08_09h06.23.960,proactive,2020.1.2,Win32,60,5f035e5afe130c270d6ae6dd,5f05e57e09b0de0b9d5cc3f0,1,,,,,,boot,,,,,,0,55,55,5,1,1,2,,,,,,,,,,,,,,,,,,,,,,,,,,,,,,,,,,,,,,,,,,,,,,,,,,,,,,,,,,,,,,,,,,,,,,,,,,,
,,,,,,,,,,stimuli/images/PICTURE_215.png,BOYS,5edf4de806a7db1fb57bc01a,6/8/1994,2020-07-08_09h06.23.960,proactive,2020.1.2,Win32,60,5f035e5afe130c270d6ae6dd,5f05e57e09b0de0b9d5cc3f0,1,,,,,,boot,,,,,,0,56,56,24,1,3,2,,,,,,,,,,,,,,,,,,,,,,,,,,,,,,,,,,,,,,,,,,,,,,,,,,,,,,,,,,,,,,,,,,,,,,,,,,,
,,,,,,,,,,stimuli/images/PICTURE_654.png,YEAR,5edf4de806a7db1fb57bc01a,6/8/1994,2020-07-08_09h06.23.960,proactive,2020.1.2,Win32,60,5f035e5afe130c270d6ae6dd,5f05e57e09b0de0b9d5cc3f0,1,,,,,,pencil,,,,,,0,57,57,41,1,5,2,,,,,,,,,,,,,,,,,,,,,,,,,,,,,,,,,,,,,,,,,,,,,,,,,,,,,,,,,,,,,,,,,,,,,,,,,,,
,,,,,,,,,,stimuli/images/PICTURE_491.png,SERIES,5edf4de806a7db1fb57bc01a,6/8/1994,2020-07-08_09h06.23.960,proactive,2020.1.2,Win32,60,5f035e5afe130c270d6ae6dd,5f05e57e09b0de0b9d5cc3f0,1,,,,,,rug,,,,,,0,58,58,39,1,4,2,,,,,,,,,,,,,,,,,,,,,,,,,,,,,,,,,,,,,,,,,,,,,,,,,,,,,,,,,,,,,,,,,,,,,,,,,,,
,,?,0.00902,0,,,,,,stimuli/images/PICTURE_2.png,AREA,5edf4de806a7db1fb57bc01a,6/8/1994,2020-07-08_09h06.23.960,proactive,2020.1.2,Win32,60,5f035e5afe130c270d6ae6dd,5f05e57e09b0de0b9d5cc3f0,1,,,,,,tyre,,,,,,,,,,,4,2,0,0,0,32,1,,,,,,,,,,,,,,,,,,,,,,,,,,,,,,,,,,,,,,,,,,,,,,,,,,,,,,,,,,,,,,,,,,,,,,
,,?,0.00582,0,,,,,,stimuli/images/PICTURE_677.png,PHOTO,5edf4de806a7db1fb57bc01a,6/8/1994,2020-07-08_09h06.23.960,proactive,2020.1.2,Win32,60,5f035e5afe130c270d6ae6dd,5f05e57e09b0de0b9d5cc3f0,1,,,,,,map,,,,,,,,,,,2,2,0,1,1,14,1,,,,,,,,,,,,,,,,,,,,,,,,,,,,,,,,,,,,,,,,,,,,,,,,,,,,,,,,,,,,,,,,,,,,,,
,,?,0.01917,0,,,,,,stimuli/images/PICTURE_405.png,JUNGLE,5edf4de806a7db1fb57bc01a,6/8/1994,2020-07-08_09h06.23.960,proactive,2020.1.2,Win32,60,5f035e5afe130c270d6ae6dd,5f05e57e09b0de0b9d5cc3f0,1,,,,,,anchor,,,,,,,,,,,2,2,0,2,2,13,1,,,,,,,,,,,,,,,,,,,,,,,,,,,,,,,,,,,,,,,,,,,,,,,,,,,,,,,,,,,,,,,,,,,,,,
,,?,0.008505,0,,,,,,stimuli/images/PICTURE_296.png,CLOCK,5edf4de806a7db1fb57bc01a,6/8/1994,2020-07-08_09h06.23.960,proactive,2020.1.2,Win32,60,5f035e5afe130c270d6ae6dd,5f05e57e09b0de0b9d5cc3f0,1,,,,,,bolt,,,,,,,,,,,2,2,0,3,3,18,1,,,,,,,,,,,,,,,,,,,,,,,,,,,,,,,,,,,,,,,,,,,,,,,,,,,,,,,,,,,,,,,,,,,,,,
,,?,0.008005,0,,,,,,stimuli/images/PICTURE_215.png,BOYS,5edf4de806a7db1fb57bc01a,6/8/1994,2020-07-08_09h06.23.960,proactive,2020.1.2,Win32,60,5f035e5afe130c270d6ae6dd,5f05e57e09b0de0b9d5cc3f0,1,,,,,,boot,,,,,,,,,,,3,2,0,4,4,24,1,,,,,,,,,,,,,,,,,,,,,,,,,,,,,,,,,,,,,,,,,,,,,,,,,,,,,,,,,,,,,,,,,,,,,,
,,LOTS,5.40592,0,,,,,,stimuli/images/PICTURE_405.png,HOUSE,5edf4de806a7db1fb57bc01a,6/8/1994,2020-07-08_09h06.23.960,proactive,2020.1.2,Win32,60,5f035e5afe130c270d6ae6dd,5f05e57e09b0de0b9d5cc3f0,1,,,,,,anchor,,,,,,,,,,,1,2,0,5,5,2,1,,,,,,,,,,,,,,,,,,,,,,,,,,,,,,,,,,,,,,,,,,,,,,,,,,,,,,,,,,,,,,,,,,,,,,
,,TOILET,5.668575,1,,,,,,stimuli/images/PICTURE_348.png,TOILET,5edf4de806a7db1fb57bc01a,6/8/1994,2020-07-08_09h06.23.960,proactive,2020.1.2,Win32,60,5f035e5afe130c270d6ae6dd,5f05e57e09b0de0b9d5cc3f0,1,,,,,,pepper,,,,,,,,,,,1,2,0,6,6,4,1,,,,,,,,,,,,,,,,,,,,,,,,,,,,,,,,,,,,,,,,,,,,,,,,,,,,,,,,,,,,,,,,,,,,,,
,,?,0.00419,0,,,,,,stimuli/images/PICTURE_57.png,CASINO,5edf4de806a7db1fb57bc01a,6/8/1994,2020-07-08_09h06.23.960,proactive,2020.1.2,Win32,60,5f035e5afe130c270d6ae6dd,5f05e57e09b0de0b9d5cc3f0,1,,,,,,stamp,,,,,,,,,,,2,2,0,7,7,12,1,,,,,,,,,,,,,,,,,,,,,,,,,,,,,,,,,,,,,,,,,,,,,,,,,,,,,,,,,,,,,,,,,,,,,,
,,?,0.01378,0,,,,,,stimuli/images/PICTURE_356.png,CANDY,5edf4de806a7db1fb57bc01a,6/8/1994,2020-07-08_09h06.23.960,proactive,2020.1.2,Win32,60,5f035e5afe130c270d6ae6dd,5f05e57e09b0de0b9d5cc3f0,1,,,,,,pawn,,,,,,,,,,,5,2,0,8,8,46,1,,,,,,,,,,,,,,,,,,,,,,,,,,,,,,,,,,,,,,,,,,,,,,,,,,,,,,,,,,,,,,,,,,,,,,
,,WRITER,6.275125,1,,,,,,stimuli/images/PICTURE_285.png,WRITER,5edf4de806a7db1fb57bc01a,6/8/1994,2020-07-08_09h06.23.960,proactive,2020.1.2,Win32,60,5f035e5afe130c270d6ae6dd,5f05e57e09b0de0b9d5cc3f0,1,,,,,,carrot,,,,,,,,,,,1,2,0,9,9,6,1,,,,,,,,,,,,,,,,,,,,,,,,,,,,,,,,,,,,,,,,,,,,,,,,,,,,,,,,,,,,,,,,,,,,,,
,,?,0.004785,0,,,,,,stimuli/images/PICTURE_491.png,SERIES,5edf4de806a7db1fb57bc01a,6/8/1994,2020-07-08_09h06.23.960,proactive,2020.1.2,Win32,60,5f035e5afe130c270d6ae6dd,5f05e57e09b0de0b9d5cc3f0,1,,,,,,rug,,,,,,,,,,,4,2,0,10,10,39,1,,,,,,,,,,,,,,,,,,,,,,,,,,,,,,,,,,,,,,,,,,,,,,,,,,,,,,,,,,,,,,,,,,,,,,
,,?,0.006895,0,,,,,,stimuli/images/PICTURE_215.png,LEADER,5edf4de806a7db1fb57bc01a,6/8/1994,2020-07-08_09h06.23.960,proactive,2020.1.2,Win32,60,5f035e5afe130c270d6ae6dd,5f05e57e09b0de0b9d5cc3f0,1,,,,,,boot,,,,,,,,,,,5,2,0,11,11,43,1,,,,,,,,,,,,,,,,,,,,,,,,,,,,,,,,,,,,,,,,,,,,,,,,,,,,,,,,,,,,,,,,,,,,,,
,,?,0.005635,0,,,,,,stimuli/images/PICTURE_405.png,JUNGLE,5edf4de806a7db1fb57bc01a,6/8/1994,2020-07-08_09h06.23.960,proactive,2020.1.2,Win32,60,5f035e5afe130c270d6ae6dd,5f05e57e09b0de0b9d5cc3f0,1,,,,,,anchor,,,,,,,,,,,6,2,0,12,12,58,1,,,,,,,,,,,,,,,,,,,,,,,,,,,,,,,,,,,,,,,,,,,,,,,,,,,,,,,,,,,,,,,,,,,,,,
,,?,0.01478,0,,,,,,stimuli/images/PICTURE_750.png,POLICY,5edf4de806a7db1fb57bc01a,6/8/1994,2020-07-08_09h06.23.960,proactive,2020.1.2,Win32,60,5f035e5afe130c270d6ae6dd,5f05e57e09b0de0b9d5cc3f0,1,,,,,,kettle,,,,,,,,,,,5,2,0,13,13,44,1,,,,,,,,,,,,,,,,,,,,,,,,,,,,,,,,,,,,,,,,,,,,,,,,,,,,,,,,,,,,,,,,,,,,,,
,,?,0.00859,0,,,,,,stimuli/images/PICTURE_504.png,HOUSE,5edf4de806a7db1fb57bc01a,6/8/1994,2020-07-08_09h06.23.960,proactive,2020.1.2,Win32,60,5f035e5afe130c270d6ae6dd,5f05e57e09b0de0b9d5cc3f0,1,,,,,,wheel,,,,,,,,,,,4,2,0,14,14,36,1,,,,,,,,,,,,,,,,,,,,,,,,,,,,,,,,,,,,,,,,,,,,,,,,,,,,,,,,,,,,,,,,,,,,,,
,,?,0.004115,0,,,,,,stimuli/images/PICTURE_285.png,PRINCE,5edf4de806a7db1fb57bc01a,6/8/1994,2020-07-08_09h06.23.960,proactive,2020.1.2,Win32,60,5f035e5afe130c270d6ae6dd,5f05e57e09b0de0b9d5cc3f0,1,,,,,,carrot,,,,,,,,,,,3,2,0,15,15,20,1,,,,,,,,,,,,,,,,,,,,,,,,,,,,,,,,,,,,,,,,,,,,,,,,,,,,,,,,,,,,,,,,,,,,,,
,,?,0.011805,0,,,,,,stimuli/images/PICTURE_2.png,YARD,5edf4de806a7db1fb57bc01a,6/8/1994,2020-07-08_09h06.23.960,proactive,2020.1.2,Win32,60,5f035e5afe130c270d6ae6dd,5f05e57e09b0de0b9d5cc3f0,1,,,,,,tyre,,,,,,,,,,,6,2,0,16,16,55,1,,,,,,,,,,,,,,,,,,,,,,,,,,,,,,,,,,,,,,,,,,,,,,,,,,,,,,,,,,,,,,,,,,,,,,
,,?,0.003575,0,,,,,,stimuli/images/PICTURE_453.png,FAMILY,5edf4de806a7db1fb57bc01a,6/8/1994,2020-07-08_09h06.23.960,proactive,2020.1.2,Win32,60,5f035e5afe130c270d6ae6dd,5f05e57e09b0de0b9d5cc3f0,1,,,,,,scissors,,,,,,,,,,,5,2,0,17,17,48,1,,,,,,,,,,,,,,,,,,,,,,,,,,,,,,,,,,,,,,,,,,,,,,,,,,,,,,,,,,,,,,,,,,,,,,
,,SALE,3.96992,1,,,,,,stimuli/images/PICTURE_123.png,SALE,5edf4de806a7db1fb57bc01a,6/8/1994,2020-07-08_09h06.23.960,proactive,2020.1.2,Win32,60,5f035e5afe130c270d6ae6dd,5f05e57e09b0de0b9d5cc3f0,1,,,,,,dart,,,,,,,,,,,1,2,0,18,18,8,1,,,,,,,,,,,,,,,,,,,,,,,,,,,,,,,,,,,,,,,,,,,,,,,,,,,,,,,,,,,,,,,,,,,,,,
