consent_key.keys,consent_key.rt,recalled,recalled_rt,recall_acc,example_recall.thisRepN,example_recall.thisTrialN,example_recall.thisN,example_recall.thisIndex,example_recall.ran,file,word,participant,date,expName,psychopyVersion,OS,frameRate,STUDY_ID,SESSION_ID,list,prac_learn_study_loop.thisRepN,prac_learn_study_loop.thisTrialN,prac_learn_study_loop.thisN,prac_learn_study_loop.thisIndex,prac_learn_study_loop.ran,image,prac_learn_test_loop.thisRepN,prac_learn_test_loop.thisTrialN,prac_learn_test_loop.thisN,prac_learn_test_loop.thisIndex,prac_learn_test_loop.ran,learn_study_loop.thisRepN,learn_study_loop.thisTrialN,learn_study_loop.thisN,learn_study_loop.thisIndex,learn_study_loop.ran,list_no,block_no,learn_test_loop.thisRepN,learn_test_loop.thisTrialN,learn_test_loop.thisN,learn_test_loop.thisIndex,learn_test_loop.ran,learn_blocks.thisRepN,learn_blocks.thisTrialN,learn_blocks.thisN,learn_blocks.thisIndex,learn_blocks.ran,block_csv,key_resp_13.keys,key_resp_13.rt,learn_blocks_loop.thisRepN,learn_blocks_loop.thisTrialN,learn_blocks_loop.thisN,learn_blocks_loop.thisIndex,learn_blocks_loop.ran,final_learn_test.thisRepN,final_learn_test.thisTrialN,final_learn_test.thisN,final_learn_test.thisIndex,final_learn_test.ran,prac_wm_test_loop.thisRepN,prac_wm_test_loop.thisTrialN,prac_wm_test_loop.thisN,prac_wm_test_loop.thisIndex,prac_wm_test_loop.ran,wm_recalled1,wm_recall_rt1,wm_probed1,wm_recall_acc1,wm_recalled2,wm_recall_rt2,wm_probed2,wm_recall_acc2,wm_recalled3,wm_recall_rt3,wm_probed3,wm_recall_acc3,wm_recalled4,wm_recall_rt4,wm_probed4,wm_recall_acc4,prac_wm_trial_loop.thisRepN,prac_wm_trial_loop.thisTrialN,prac_wm_trial_loop.thisN,prac_wm_trial_loop.thisIndex,prac_wm_trial_loop.ran,word1,image1,file1,item_type1,word2,image2,file2,item_type2,word4,image4,file4,item_type4,word3,image3,file3,item_type3,wm_test_loop.thisRepN,wm_test_loop.thisTrialN,wm_test_loop.thisN,wm_test_loop.thisIndex,wm_test_loop.ran,wm_trial_loop.thisRepN,wm_trial_loop.thisTrialN,wm_trial_loop.thisN,wm_trial_loop.thisIndex,wm_trial_loop.ran
y,95.773,TOUGH,5.898,1,0,0,0,0,1,stimuli/images/PICTURE_747.png,TOUGH,5ee19552fb6eba1caba328ae,2020-06-30_12h41.16.292,proactive,2020.1.2,Win32,60,5efb791ed4cb570da489e737,5efb87114e1b640ff5ae31ad,2,,,,,,,,,,,,,,,,,,,,,,,,,,,,,,,,,,,,,,,,,,,,,,,,,,,,,,,,,,,,,,,,,,,,,,,,,,,,,,,,,,,,,,,,,,,,,
,,,,,,,,,,stimuli/images/PICTURE_727.png,CELL,5ee19552fb6eba1caba328ae,2020-06-30_12h41.16.292,proactive,2020.1.2,Win32,60,5efb791ed4cb570da489e737,5efb87114e1b640ff5ae31ad,2,0,0,0,1,1,hose,,,,,,,,,,,,,,,,,,,,,,,,,,,,,,,,,,,,,,,,,,,,,,,,,,,,,,,,,,,,,,,,,,,,,,,,,,,,,,,,,,,,,,,
,,,,,,,,,,stimuli/images/PICTURE_697.png,KILLER,5ee19552fb6eba1caba328ae,2020-06-30_12h41.16.292,proactive,2020.1.2,Win32,60,5efb791ed4cb570da489e737,5efb87114e1b640ff5ae31ad,2,0,1,1,4,1,peach,,,,,,,,,,,,,,,,,,,,,,,,,,,,,,,,,,,,,,,,,,,,,,,,,,,,,,,,,,,,,,,,,,,,,,,,,,,,,,,,,,,,,,,
,,,,,,,,,,stimuli/images/PICTURE_378.png,LOSS,5ee19552fb6eba1caba328ae,2020-06-30_12h41.16.292,proactive,2020.1.2,Win32,60,5efb791ed4cb570da489e737,5efb87114e1b640ff5ae31ad,2,0,2,2,2,1,lobster,,,,,,,,,,,,,,,,,,,,,,,,,,,,,,,,,,,,,,,,,,,,,,,,,,,,,,,,,,,,,,,,,,,,,,,,,,,,,,,,,,,,,,,
,,,,,,,,,,stimuli/images/PICTURE_658.png,DEVIL,5ee19552fb6eba1caba328ae,2020-06-30_12h41.16.292,proactive,2020.1.2,Win32,60,5efb791ed4cb570da489e737,5efb87114e1b640ff5ae31ad,2,0,3,3,3,1,crow,,,,,,,,,,,,,,,,,,,,,,,,,,,,,,,,,,,,,,,,,,,,,,,,,,,,,,,,,,,,,,,,,,,,,,,,,,,,,,,,,,,,,,,
,,DEVIL,4.205,1,,,,,,stimuli/images/PICTURE_658.png,DEVIL,5ee19552fb6eba1caba328ae,2020-06-30_12h41.16.292,proactive,2020.1.2,Win32,60,5efb791ed4cb570da489e737,5efb87114e1b640ff5ae31ad,2,,,,,,crow,0,0,0,3,1,,,,,,,,,,,,,,,,,,,,,,,,,,,,,,,,,,,,,,,,,,,,,,,,,,,,,,,,,,,,,,,,,,,,,,,,,,,,,,,,,,
,,GENUIS,5.207,0,,,,,,stimuli/images/PICTURE_269.png,GENIUS,5ee19552fb6eba1caba328ae,2020-06-30_12h41.16.292,proactive,2020.1.2,Win32,60,5efb791ed4cb570da489e737,5efb87114e1b640ff5ae31ad,2,,,,,,chameleon,0,1,1,0,1,,,,,,,,,,,,,,,,,,,,,,,,,,,,,,,,,,,,,,,,,,,,,,,,,,,,,,,,,,,,,,,,,,,,,,,,,,,,,,,,,,
,,KILLER,3.525,1,,,,,,stimuli/images/PICTURE_697.png,KILLER,5ee19552fb6eba1caba328ae,2020-06-30_12h41.16.292,proactive,2020.1.2,Win32,60,5efb791ed4cb570da489e737,5efb87114e1b640ff5ae31ad,2,,,,,,peach,0,2,2,4,1,,,,,,,,,,,,,,,,,,,,,,,,,,,,,,,,,,,,,,,,,,,,,,,,,,,,,,,,,,,,,,,,,,,,,,,,,,,,,,,,,,
,,CELL,3.111,1,,,,,,stimuli/images/PICTURE_727.png,CELL,5ee19552fb6eba1caba328ae,2020-06-30_12h41.16.292,proactive,2020.1.2,Win32,60,5efb791ed4cb570da489e737,5efb87114e1b640ff5ae31ad,2,,,,,,hose,0,3,3,1,1,,,,,,,,,,,,,,,,,,,,,,,,,,,,,,,,,,,,,,,,,,,,,,,,,,,,,,,,,,,,,,,,,,,,,,,,,,,,,,,,,,
,,LOSS,3.609,1,,,,,,stimuli/images/PICTURE_378.png,LOSS,5ee19552fb6eba1caba328ae,2020-06-30_12h41.16.292,proactive,2020.1.2,Win32,60,5efb791ed4cb570da489e737,5efb87114e1b640ff5ae31ad,2,,,,,,lobster,0,4,4,2,1,,,,,,,,,,,,,,,,,,,,,,,,,,,,,,,,,,,,,,,,,,,,,,,,,,,,,,,,,,,,,,,,,,,,,,,,,,,,,,,,,,
,,,,,,,,,,stimuli/images/PICTURE_147.png,WOMEN,5ee19552fb6eba1caba328ae,2020-06-30_12h41.16.292,proactive,2020.1.2,Win32,60,5efb791ed4cb570da489e737,5efb87114e1b640ff5ae31ad,2,,,,,,hanger,,,,,,0,0,0,7,1,1,1,,,,,,,,,,,,,,,,,,,,,,,,,,,,,,,,,,,,,,,,,,,,,,,,,,,,,,,,,,,,,,,,,,,,,,,,,,,
,,,,,,,,,,stimuli/images/PICTURE_203.png,GODS,5ee19552fb6eba1caba328ae,2020-06-30_12h41.16.292,proactive,2020.1.2,Win32,60,5efb791ed4cb570da489e737,5efb87114e1b640ff5ae31ad,2,,,,,,cap,,,,,,0,1,1,30,1,4,1,,,,,,,,,,,,,,,,,,,,,,,,,,,,,,,,,,,,,,,,,,,,,,,,,,,,,,,,,,,,,,,,,,,,,,,,,,,
,,,,,,,,,,stimuli/images/PICTURE_308.png,FAMILY,5ee19552fb6eba1caba328ae,2020-06-30_12h41.16.292,proactive,2020.1.2,Win32,60,5efb791ed4cb570da489e737,5efb87114e1b640ff5ae31ad,2,,,,,,dice,,,,,,0,2,2,36,1,4,1,,,,,,,,,,,,,,,,,,,,,,,,,,,,,,,,,,,,,,,,,,,,,,,,,,,,,,,,,,,,,,,,,,,,,,,,,,,
,,,,,,,,,,stimuli/images/PICTURE_203.png,NIGHT,5ee19552fb6eba1caba328ae,2020-06-30_12h41.16.292,proactive,2020.1.2,Win32,60,5efb791ed4cb570da489e737,5efb87114e1b640ff5ae31ad,2,,,,,,cap,,,,,,0,3,3,2,1,1,1,,,,,,,,,,,,,,,,,,,,,,,,,,,,,,,,,,,,,,,,,,,,,,,,,,,,,,,,,,,,,,,,,,,,,,,,,,,
,,,,,,,,,,stimuli/images/PICTURE_564.png,BATH,5ee19552fb6eba1caba328ae,2020-06-30_12h41.16.292,proactive,2020.1.2,Win32,60,5efb791ed4cb570da489e737,5efb87114e1b640ff5ae31ad,2,,,,,,spoon,,,,,,0,4,4,26,1,3,1,,,,,,,,,,,,,,,,,,,,,,,,,,,,,,,,,,,,,,,,,,,,,,,,,,,,,,,,,,,,,,,,,,,,,,,,,,,
,,,,,,,,,,stimuli/images/PICTURE_744.png,WEAPON,5ee19552fb6eba1caba328ae,2020-06-30_12h41.16.292,proactive,2020.1.2,Win32,60,5efb791ed4cb570da489e737,5efb87114e1b640ff5ae31ad,2,,,,,,ring,,,,,,0,5,5,50,1,6,1,,,,,,,,,,,,,,,,,,,,,,,,,,,,,,,,,,,,,,,,,,,,,,,,,,,,,,,,,,,,,,,,,,,,,,,,,,,
,,,,,,,,,,stimuli/images/PICTURE_340.png,LETTER,5ee19552fb6eba1caba328ae,2020-06-30_12h41.16.292,proactive,2020.1.2,Win32,60,5efb791ed4cb570da489e737,5efb87114e1b640ff5ae31ad,2,,,,,,mirror,,,,,,0,6,6,24,1,3,1,,,,,,,,,,,,,,,,,,,,,,,,,,,,,,,,,,,,,,,,,,,,,,,,,,,,,,,,,,,,,,,,,,,,,,,,,,,
,,,,,,,,,,stimuli/images/PICTURE_504.png,ARTIST,5ee19552fb6eba1caba328ae,2020-06-30_12h41.16.292,proactive,2020.1.2,Win32,60,5efb791ed4cb570da489e737,5efb87114e1b640ff5ae31ad,2,,,,,,wheel,,,,,,0,7,7,49,1,5,1,,,,,,,,,,,,,,,,,,,,,,,,,,,,,,,,,,,,,,,,,,,,,,,,,,,,,,,,,,,,,,,,,,,,,,,,,,,
,,,,,,,,,,stimuli/images/PICTURE_57.png,MOMENT,5ee19552fb6eba1caba328ae,2020-06-30_12h41.16.292,proactive,2020.1.2,Win32,60,5efb791ed4cb570da489e737,5efb87114e1b640ff5ae31ad,2,,,,,,stamp,,,,,,0,8,8,37,1,4,1,,,,,,,,,,,,,,,,,,,,,,,,,,,,,,,,,,,,,,,,,,,,,,,,,,,,,,,,,,,,,,,,,,,,,,,,,,,
,,,,,,,,,,stimuli/images/PICTURE_504.png,YEAR,5ee19552fb6eba1caba328ae,2020-06-30_12h41.16.292,proactive,2020.1.2,Win32,60,5efb791ed4cb570da489e737,5efb87114e1b640ff5ae31ad,2,,,,,,wheel,,,,,,0,9,9,13,1,2,1,,,,,,,,,,,,,,,,,,,,,,,,,,,,,,,,,,,,,,,,,,,,,,,,,,,,,,,,,,,,,,,,,,,,,,,,,,,
,,,,,,,,,,stimuli/images/PICTURE_297.png,RIVER,5ee19552fb6eba1caba328ae,2020-06-30_12h41.16.292,proactive,2020.1.2,Win32,60,5efb791ed4cb570da489e737,5efb87114e1b640ff5ae31ad,2,,,,,,aeroplane,,,,,,0,10,10,39,1,4,1,,,,,,,,,,,,,,,,,,,,,,,,,,,,,,,,,,,,,,,,,,,,,,,,,,,,,,,,,,,,,,,,,,,,,,,,,,,
,,,,,,,,,,stimuli/images/PICTURE_467.png,POLICY,5ee19552fb6eba1caba328ae,2020-06-30_12h41.16.292,proactive,2020.1.2,Win32,60,5efb791ed4cb570da489e737,5efb87114e1b640ff5ae31ad,2,,,,,,peg,,,,,,0,11,11,53,1,6,1,,,,,,,,,,,,,,,,,,,,,,,,,,,,,,,,,,,,,,,,,,,,,,,,,,,,,,,,,,,,,,,,,,,,,,,,,,,
,,,,,,,,,,stimuli/images/PICTURE_2.png,FLIGHT,5ee19552fb6eba1caba328ae,2020-06-30_12h41.16.292,proactive,2020.1.2,Win32,60,5efb791ed4cb570da489e737,5efb87114e1b640ff5ae31ad,2,,,,,,tyre,,,,,,0,12,12,15,1,2,1,,,,,,,,,,,,,,,,,,,,,,,,,,,,,,,,,,,,,,,,,,,,,,,,,,,,,,,,,,,,,,,,,,,,,,,,,,,
,,,,,,,,,,stimuli/images/PICTURE_491.png,RIVER,5ee19552fb6eba1caba328ae,2020-06-30_12h41.16.292,proactive,2020.1.2,Win32,60,5efb791ed4cb570da489e737,5efb87114e1b640ff5ae31ad,2,,,,,,rug,,,,,,0,13,13,6,1,1,1,,,,,,,,,,,,,,,,,,,,,,,,,,,,,,,,,,,,,,,,,,,,,,,,,,,,,,,,,,,,,,,,,,,,,,,,,,,
,,,,,,,,,,stimuli/images/PICTURE_327.png,SERIES,5ee19552fb6eba1caba328ae,2020-06-30_12h41.16.292,proactive,2020.1.2,Win32,60,5efb791ed4cb570da489e737,5efb87114e1b640ff5ae31ad,2,,,,,,helmet,,,,,,0,14,14,3,1,1,1,,,,,,,,,,,,,,,,,,,,,,,,,,,,,,,,,,,,,,,,,,,,,,,,,,,,,,,,,,,,,,,,,,,,,,,,,,,
,,,,,,,,,,stimuli/images/PICTURE_403.png,TOILET,5ee19552fb6eba1caba328ae,2020-06-30_12h41.16.292,proactive,2020.1.2,Win32,60,5efb791ed4cb570da489e737,5efb87114e1b640ff5ae31ad,2,,,,,,cathedral,,,,,,0,15,15,25,1,3,1,,,,,,,,,,,,,,,,,,,,,,,,,,,,,,,,,,,,,,,,,,,,,,,,,,,,,,,,,,,,,,,,,,,,,,,,,,,
,,,,,,,,,,stimuli/images/PICTURE_68.png,ROOF,5ee19552fb6eba1caba328ae,2020-06-30_12h41.16.292,proactive,2020.1.2,Win32,60,5efb791ed4cb570da489e737,5efb87114e1b640ff5ae31ad,2,,,,,,candle,,,,,,0,16,16,38,1,4,1,,,,,,,,,,,,,,,,,,,,,,,,,,,,,,,,,,,,,,,,,,,,,,,,,,,,,,,,,,,,,,,,,,,,,,,,,,,
,,,,,,,,,,stimuli/images/PICTURE_487.png,GIRL,5ee19552fb6eba1caba328ae,2020-06-30_12h41.16.292,proactive,2020.1.2,Win32,60,5efb791ed4cb570da489e737,5efb87114e1b640ff5ae31ad,2,,,,,,basket,,,,,,0,17,17,45,1,5,1,,,,,,,,,,,,,,,,,,,,,,,,,,,,,,,,,,,,,,,,,,,,,,,,,,,,,,,,,,,,,,,,,,,,,,,,,,,
,,,,,,,,,,stimuli/images/PICTURE_380.png,CANDY,5ee19552fb6eba1caba328ae,2020-06-30_12h41.16.292,proactive,2020.1.2,Win32,60,5efb791ed4cb570da489e737,5efb87114e1b640ff5ae31ad,2,,,,,,gorilla,,,,,,0,18,18,0,1,1,1,,,,,,,,,,,,,,,,,,,,,,,,,,,,,,,,,,,,,,,,,,,,,,,,,,,,,,,,,,,,,,,,,,,,,,,,,,,
,,,,,,,,,,stimuli/images/PICTURE_667.png,RIVER,5ee19552fb6eba1caba328ae,2020-06-30_12h41.16.292,proactive,2020.1.2,Win32,60,5efb791ed4cb570da489e737,5efb87114e1b640ff5ae31ad,2,,,,,,daisy,,,,,,0,19,19,10,1,2,1,,,,,,,,,,,,,,,,,,,,,,,,,,,,,,,,,,,,,,,,,,,,,,,,,,,,,,,,,,,,,,,,,,,,,,,,,,,
,,,,,,,,,,stimuli/images/PICTURE_42.png,BOYS,5ee19552fb6eba1caba328ae,2020-06-30_12h41.16.292,proactive,2020.1.2,Win32,60,5efb791ed4cb570da489e737,5efb87114e1b640ff5ae31ad,2,,,,,,pear,,,,,,0,20,20,55,1,6,1,,,,,,,,,,,,,,,,,,,,,,,,,,,,,,,,,,,,,,,,,,,,,,,,,,,,,,,,,,,,,,,,,,,,,,,,,,,
,,,,,,,,,,stimuli/images/PICTURE_383.png,WRITER,5ee19552fb6eba1caba328ae,2020-06-30_12h41.16.292,proactive,2020.1.2,Win32,60,5efb791ed4cb570da489e737,5efb87114e1b640ff5ae31ad,2,,,,,,coin,,,,,,0,21,21,28,1,3,1,,,,,,,,,,,,,,,,,,,,,,,,,,,,,,,,,,,,,,,,,,,,,,,,,,,,,,,,,,,,,,,,,,,,,,,,,,,
,,,,,,,,,,stimuli/images/PICTURE_405.png,PLENTY,5ee19552fb6eba1caba328ae,2020-06-30_12h41.16.292,proactive,2020.1.2,Win32,60,5efb791ed4cb570da489e737,5efb87114e1b640ff5ae31ad,2,,,,,,anchor,,,,,,0,22,22,23,1,3,1,,,,,,,,,,,,,,,,,,,,,,,,,,,,,,,,,,,,,,,,,,,,,,,,,,,,,,,,,,,,,,,,,,,,,,,,,,,
,,,,,,,,,,stimuli/images/PICTURE_296.png,LIFE,5ee19552fb6eba1caba328ae,2020-06-30_12h41.16.292,proactive,2020.1.2,Win32,60,5efb791ed4cb570da489e737,5efb87114e1b640ff5ae31ad,2,,,,,,bolt,,,,,,0,23,23,57,1,6,1,,,,,,,,,,,,,,,,,,,,,,,,,,,,,,,,,,,,,,,,,,,,,,,,,,,,,,,,,,,,,,,,,,,,,,,,,,,
,,,,,,,,,,stimuli/images/PICTURE_233.png,LOTS,5ee19552fb6eba1caba328ae,2020-06-30_12h41.16.292,proactive,2020.1.2,Win32,60,5efb791ed4cb570da489e737,5efb87114e1b640ff5ae31ad,2,,,,,,salt,,,,,,0,24,24,42,1,5,1,,,,,,,,,,,,,,,,,,,,,,,,,,,,,,,,,,,,,,,,,,,,,,,,,,,,,,,,,,,,,,,,,,,,,,,,,,,
,,,,,,,,,,stimuli/images/PICTURE_32.png,KIND,5ee19552fb6eba1caba328ae,2020-06-30_12h41.16.292,proactive,2020.1.2,Win32,60,5efb791ed4cb570da489e737,5efb87114e1b640ff5ae31ad,2,,,,,,crown,,,,,,0,25,25,35,1,4,1,,,,,,,,,,,,,,,,,,,,,,,,,,,,,,,,,,,,,,,,,,,,,,,,,,,,,,,,,,,,,,,,,,,,,,,,,,,
,,,,,,,,,,stimuli/images/PICTURE_383.png,SERIES,5ee19552fb6eba1caba328ae,2020-06-30_12h41.16.292,proactive,2020.1.2,Win32,60,5efb791ed4cb570da489e737,5efb87114e1b640ff5ae31ad,2,,,,,,coin,,,,,,0,26,26,46,1,5,1,,,,,,,,,,,,,,,,,,,,,,,,,,,,,,,,,,,,,,,,,,,,,,,,,,,,,,,,,,,,,,,,,,,,,,,,,,,
,,,,,,,,,,stimuli/images/PICTURE_655.png,TOILET,5ee19552fb6eba1caba328ae,2020-06-30_12h41.16.292,proactive,2020.1.2,Win32,60,5efb791ed4cb570da489e737,5efb87114e1b640ff5ae31ad,2,,,,,,megaphone,,,,,,0,27,27,12,1,2,1,,,,,,,,,,,,,,,,,,,,,,,,,,,,,,,,,,,,,,,,,,,,,,,,,,,,,,,,,,,,,,,,,,,,,,,,,,,
,,,,,,,,,,stimuli/images/PICTURE_469.png,AGENT,5ee19552fb6eba1caba328ae,2020-06-30_12h41.16.292,proactive,2020.1.2,Win32,60,5efb791ed4cb570da489e737,5efb87114e1b640ff5ae31ad,2,,,,,,stool,,,,,,0,28,28,16,1,2,1,,,,,,,,,,,,,,,,,,,,,,,,,,,,,,,,,,,,,,,,,,,,,,,,,,,,,,,,,,,,,,,,,,,,,,,,,,,
,,,,,,,,,,stimuli/images/PICTURE_85.png,NATION,5ee19552fb6eba1caba328ae,2020-06-30_12h41.16.292,proactive,2020.1.2,Win32,60,5efb791ed4cb570da489e737,5efb87114e1b640ff5ae31ad,2,,,,,,diamond,,,,,,0,29,29,5,1,1,1,,,,,,,,,,,,,,,,,,,,,,,,,,,,,,,,,,,,,,,,,,,,,,,,,,,,,,,,,,,,,,,,,,,,,,,,,,,
,,,,,,,,,,stimuli/images/PICTURE_380.png,HONEY,5ee19552fb6eba1caba328ae,2020-06-30_12h41.16.292,proactive,2020.1.2,Win32,60,5efb791ed4cb570da489e737,5efb87114e1b640ff5ae31ad,2,,,,,,gorilla,,,,,,0,30,30,19,1,2,1,,,,,,,,,,,,,,,,,,,,,,,,,,,,,,,,,,,,,,,,,,,,,,,,,,,,,,,,,,,,,,,,,,,,,,,,,,,
,,,,,,,,,,stimuli/images/PICTURE_296.png,LOTS,5ee19552fb6eba1caba328ae,2020-06-30_12h41.16.292,proactive,2020.1.2,Win32,60,5efb791ed4cb570da489e737,5efb87114e1b640ff5ae31ad,2,,,,,,bolt,,,,,,0,31,31,9,1,1,1,,,,,,,,,,,,,,,,,,,,,,,,,,,,,,,,,,,,,,,,,,,,,,,,,,,,,,,,,,,,,,,,,,,,,,,,,,,
,,,,,,,,,,stimuli/images/PICTURE_403.png,RIVER,5ee19552fb6eba1caba328ae,2020-06-30_12h41.16.292,proactive,2020.1.2,Win32,60,5efb791ed4cb570da489e737,5efb87114e1b640ff5ae31ad,2,,,,,,cathedral,,,,,,0,32,32,40,1,5,1,,,,,,,,,,,,,,,,,,,,,,,,,,,,,,,,,,,,,,,,,,,,,,,,,,,,,,,,,,,,,,,,,,,,,,,,,,,
,,,,,,,,,,stimuli/images/PICTURE_403.png,WRITER,5ee19552fb6eba1caba328ae,2020-06-30_12h41.16.292,proactive,2020.1.2,Win32,60,5efb791ed4cb570da489e737,5efb87114e1b640ff5ae31ad,2,,,,,,cathedral,,,,,,0,33,33,31,1,4,1,,,,,,,,,,,,,,,,,,,,,,,,,,,,,,,,,,,,,,,,,,,,,,,,,,,,,,,,,,,,,,,,,,,,,,,,,,,
,,,,,,,,,,stimuli/images/PICTURE_685.png,PENNY,5ee19552fb6eba1caba328ae,2020-06-30_12h41.16.292,proactive,2020.1.2,Win32,60,5efb791ed4cb570da489e737,5efb87114e1b640ff5ae31ad,2,,,,,,goose,,,,,,0,34,34,4,1,1,1,,,,,,,,,,,,,,,,,,,,,,,,,,,,,,,,,,,,,,,,,,,,,,,,,,,,,,,,,,,,,,,,,,,,,,,,,,,
,,,,,,,,,,stimuli/images/PICTURE_675.png,SALE,5ee19552fb6eba1caba328ae,2020-06-30_12h41.16.292,proactive,2020.1.2,Win32,60,5efb791ed4cb570da489e737,5efb87114e1b640ff5ae31ad,2,,,,,,windmill,,,,,,0,35,35,47,1,5,1,,,,,,,,,,,,,,,,,,,,,,,,,,,,,,,,,,,,,,,,,,,,,,,,,,,,,,,,,,,,,,,,,,,,,,,,,,,
,,,,,,,,,,stimuli/images/PICTURE_108.png,FLIGHT,5ee19552fb6eba1caba328ae,2020-06-30_12h41.16.292,proactive,2020.1.2,Win32,60,5efb791ed4cb570da489e737,5efb87114e1b640ff5ae31ad,2,,,,,,calendar,,,,,,0,36,36,59,1,6,1,,,,,,,,,,,,,,,,,,,,,,,,,,,,,,,,,,,,,,,,,,,,,,,,,,,,,,,,,,,,,,,,,,,,,,,,,,,
,,,,,,,,,,stimuli/images/PICTURE_504.png,COPS,5ee19552fb6eba1caba328ae,2020-06-30_12h41.16.292,proactive,2020.1.2,Win32,60,5efb791ed4cb570da489e737,5efb87114e1b640ff5ae31ad,2,,,,,,wheel,,,,,,0,37,37,52,1,6,1,,,,,,,,,,,,,,,,,,,,,,,,,,,,,,,,,,,,,,,,,,,,,,,,,,,,,,,,,,,,,,,,,,,,,,,,,,,
,,,,,,,,,,stimuli/images/PICTURE_108.png,POLICY,5ee19552fb6eba1caba328ae,2020-06-30_12h41.16.292,proactive,2020.1.2,Win32,60,5efb791ed4cb570da489e737,5efb87114e1b640ff5ae31ad,2,,,,,,calendar,,,,,,0,38,38,22,1,3,1,,,,,,,,,,,,,,,,,,,,,,,,,,,,,,,,,,,,,,,,,,,,,,,,,,,,,,,,,,,,,,,,,,,,,,,,,,,
,,,,,,,,,,stimuli/images/PICTURE_177.png,WRITER,5ee19552fb6eba1caba328ae,2020-06-30_12h41.16.292,proactive,2020.1.2,Win32,60,5efb791ed4cb570da489e737,5efb87114e1b640ff5ae31ad,2,,,,,,mushroom,,,,,,0,39,39,41,1,5,1,,,,,,,,,,,,,,,,,,,,,,,,,,,,,,,,,,,,,,,,,,,,,,,,,,,,,,,,,,,,,,,,,,,,,,,,,,,
,,,,,,,,,,stimuli/images/PICTURE_340.png,VALLEY,5ee19552fb6eba1caba328ae,2020-06-30_12h41.16.292,proactive,2020.1.2,Win32,60,5efb791ed4cb570da489e737,5efb87114e1b640ff5ae31ad,2,,,,,,mirror,,,,,,0,40,40,54,1,6,1,,,,,,,,,,,,,,,,,,,,,,,,,,,,,,,,,,,,,,,,,,,,,,,,,,,,,,,,,,,,,,,,,,,,,,,,,,,
,,,,,,,,,,stimuli/images/PICTURE_95.png,BOYS,5ee19552fb6eba1caba328ae,2020-06-30_12h41.16.292,proactive,2020.1.2,Win32,60,5efb791ed4cb570da489e737,5efb87114e1b640ff5ae31ad,2,,,,,,suitcase,,,,,,0,41,41,1,1,1,1,,,,,,,,,,,,,,,,,,,,,,,,,,,,,,,,,,,,,,,,,,,,,,,,,,,,,,,,,,,,,,,,,,,,,,,,,,,
,,,,,,,,,,stimuli/images/PICTURE_491.png,GLASS,5ee19552fb6eba1caba328ae,2020-06-30_12h41.16.292,proactive,2020.1.2,Win32,60,5efb791ed4cb570da489e737,5efb87114e1b640ff5ae31ad,2,,,,,,rug,,,,,,0,42,42,14,1,2,1,,,,,,,,,,,,,,,,,,,,,,,,,,,,,,,,,,,,,,,,,,,,,,,,,,,,,,,,,,,,,,,,,,,,,,,,,,,
,,,,,,,,,,stimuli/images/PICTURE_654.png,MONTH,5ee19552fb6eba1caba328ae,2020-06-30_12h41.16.292,proactive,2020.1.2,Win32,60,5efb791ed4cb570da489e737,5efb87114e1b640ff5ae31ad,2,,,,,,pencil,,,,,,0,43,43,29,1,3,1,,,,,,,,,,,,,,,,,,,,,,,,,,,,,,,,,,,,,,,,,,,,,,,,,,,,,,,,,,,,,,,,,,,,,,,,,,,
,,,,,,,,,,stimuli/images/PICTURE_33.png,FRIEND,5ee19552fb6eba1caba328ae,2020-06-30_12h41.16.292,proactive,2020.1.2,Win32,60,5efb791ed4cb570da489e737,5efb87114e1b640ff5ae31ad,2,,,,,,frame,,,,,,0,44,44,8,1,1,1,,,,,,,,,,,,,,,,,,,,,,,,,,,,,,,,,,,,,,,,,,,,,,,,,,,,,,,,,,,,,,,,,,,,,,,,,,,
,,,,,,,,,,stimuli/images/PICTURE_708.png,RECORD,5ee19552fb6eba1caba328ae,2020-06-30_12h41.16.292,proactive,2020.1.2,Win32,60,5efb791ed4cb570da489e737,5efb87114e1b640ff5ae31ad,2,,,,,,monkey,,,,,,0,45,45,58,1,6,1,,,,,,,,,,,,,,,,,,,,,,,,,,,,,,,,,,,,,,,,,,,,,,,,,,,,,,,,,,,,,,,,,,,,,,,,,,,
,,,,,,,,,,stimuli/images/PICTURE_95.png,MILLER,5ee19552fb6eba1caba328ae,2020-06-30_12h41.16.292,proactive,2020.1.2,Win32,60,5efb791ed4cb570da489e737,5efb87114e1b640ff5ae31ad,2,,,,,,suitcase,,,,,,0,46,46,56,1,6,1,,,,,,,,,,,,,,,,,,,,,,,,,,,,,,,,,,,,,,,,,,,,,,,,,,,,,,,,,,,,,,,,,,,,,,,,,,,
,,,,,,,,,,stimuli/images/PICTURE_750.png,HOTEL,5ee19552fb6eba1caba328ae,2020-06-30_12h41.16.292,proactive,2020.1.2,Win32,60,5efb791ed4cb570da489e737,5efb87114e1b640ff5ae31ad,2,,,,,,kettle,,,,,,0,47,47,27,1,3,1,,,,,,,,,,,,,,,,,,,,,,,,,,,,,,,,,,,,,,,,,,,,,,,,,,,,,,,,,,,,,,,,,,,,,,,,,,,
,,,,,,,,,,stimuli/images/PICTURE_32.png,PILLS,5ee19552fb6eba1caba328ae,2020-06-30_12h41.16.292,proactive,2020.1.2,Win32,60,5efb791ed4cb570da489e737,5efb87114e1b640ff5ae31ad,2,,,,,,crown,,,,,,0,48,48,18,1,2,1,,,,,,,,,,,,,,,,,,,,,,,,,,,,,,,,,,,,,,,,,,,,,,,,,,,,,,,,,,,,,,,,,,,,,,,,,,,
,,,,,,,,,,stimuli/images/PICTURE_95.png,HONEY,5ee19552fb6eba1caba328ae,2020-06-30_12h41.16.292,proactive,2020.1.2,Win32,60,5efb791ed4cb570da489e737,5efb87114e1b640ff5ae31ad,2,,,,,,suitcase,,,,,,0,49,49,44,1,5,1,,,,,,,,,,,,,,,,,,,,,,,,,,,,,,,,,,,,,,,,,,,,,,,,,,,,,,,,,,,,,,,,,,,,,,,,,,,
,,,,,,,,,,stimuli/images/PICTURE_285.png,LIFE,5ee19552fb6eba1caba328ae,2020-06-30_12h41.16.292,proactive,2020.1.2,Win32,60,5efb791ed4cb570da489e737,5efb87114e1b640ff5ae31ad,2,,,,,,carrot,,,,,,0,50,50,33,1,4,1,,,,,,,,,,,,,,,,,,,,,,,,,,,,,,,,,,,,,,,,,,,,,,,,,,,,,,,,,,,,,,,,,,,,,,,,,,,
,,,,,,,,,,stimuli/images/PICTURE_339.png,CLIENT,5ee19552fb6eba1caba328ae,2020-06-30_12h41.16.292,proactive,2020.1.2,Win32,60,5efb791ed4cb570da489e737,5efb87114e1b640ff5ae31ad,2,,,,,,backpack,,,,,,0,51,51,11,1,2,1,,,,,,,,,,,,,,,,,,,,,,,,,,,,,,,,,,,,,,,,,,,,,,,,,,,,,,,,,,,,,,,,,,,,,,,,,,,
,,,,,,,,,,stimuli/images/PICTURE_208.png,SYSTEM,5ee19552fb6eba1caba328ae,2020-06-30_12h41.16.292,proactive,2020.1.2,Win32,60,5efb791ed4cb570da489e737,5efb87114e1b640ff5ae31ad,2,,,,,,microphone,,,,,,0,52,52,32,1,4,1,,,,,,,,,,,,,,,,,,,,,,,,,,,,,,,,,,,,,,,,,,,,,,,,,,,,,,,,,,,,,,,,,,,,,,,,,,,
,,,,,,,,,,stimuli/images/PICTURE_327.png,CASINO,5ee19552fb6eba1caba328ae,2020-06-30_12h41.16.292,proactive,2020.1.2,Win32,60,5efb791ed4cb570da489e737,5efb87114e1b640ff5ae31ad,2,,,,,,helmet,,,,,,0,53,53,20,1,3,1,,,,,,,,,,,,,,,,,,,,,,,,,,,,,,,,,,,,,,,,,,,,,,,,,,,,,,,,,,,,,,,,,,,,,,,,,,,
,,,,,,,,,,stimuli/images/PICTURE_68.png,MILE,5ee19552fb6eba1caba328ae,2020-06-30_12h41.16.292,proactive,2020.1.2,Win32,60,5efb791ed4cb570da489e737,5efb87114e1b640ff5ae31ad,2,,,,,,candle,,,,,,0,54,54,51,1,6,1,,,,,,,,,,,,,,,,,,,,,,,,,,,,,,,,,,,,,,,,,,,,,,,,,,,,,,,,,,,,,,,,,,,,,,,,,,,
,,,,,,,,,,stimuli/images/PICTURE_405.png,YEAR,5ee19552fb6eba1caba328ae,2020-06-30_12h41.16.292,proactive,2020.1.2,Win32,60,5efb791ed4cb570da489e737,5efb87114e1b640ff5ae31ad,2,,,,,,anchor,,,,,,0,55,55,34,1,4,1,,,,,,,,,,,,,,,,,,,,,,,,,,,,,,,,,,,,,,,,,,,,,,,,,,,,,,,,,,,,,,,,,,,,,,,,,,,
,,,,,,,,,,stimuli/images/PICTURE_449.png,DUDE,5ee19552fb6eba1caba328ae,2020-06-30_12h41.16.292,proactive,2020.1.2,Win32,60,5efb791ed4cb570da489e737,5efb87114e1b640ff5ae31ad,2,,,,,,bench,,,,,,0,56,56,17,1,2,1,,,,,,,,,,,,,,,,,,,,,,,,,,,,,,,,,,,,,,,,,,,,,,,,,,,,,,,,,,,,,,,,,,,,,,,,,,,
,,,,,,,,,,stimuli/images/PICTURE_147.png,YEAR,5ee19552fb6eba1caba328ae,2020-06-30_12h41.16.292,proactive,2020.1.2,Win32,60,5efb791ed4cb570da489e737,5efb87114e1b640ff5ae31ad,2,,,,,,hanger,,,,,,0,57,57,21,1,3,1,,,,,,,,,,,,,,,,,,,,,,,,,,,,,,,,,,,,,,,,,,,,,,,,,,,,,,,,,,,,,,,,,,,,,,,,,,,
,,,,,,,,,,stimuli/images/PICTURE_85.png,TOILET,5ee19552fb6eba1caba328ae,2020-06-30_12h41.16.292,proactive,2020.1.2,Win32,60,5efb791ed4cb570da489e737,5efb87114e1b640ff5ae31ad,2,,,,,,diamond,,,,,,0,58,58,48,1,5,1,,,,,,,,,,,,,,,,,,,,,,,,,,,,,,,,,,,,,,,,,,,,,,,,,,,,,,,,,,,,,,,,,,,,,,,,,,,
,,?,0.002,0,,,,,,stimuli/images/PICTURE_208.png,SYSTEM,5ee19552fb6eba1caba328ae,2020-06-30_12h41.16.292,proactive,2020.1.2,Win32,60,5efb791ed4cb570da489e737,5efb87114e1b640ff5ae31ad,2,,,,,,microphone,,,,,,,,,,,4,1,0,0,0,32,1,,,,,,,,,,,,,,,,,,,,,,,,,,,,,,,,,,,,,,,,,,,,,,,,,,,,,,,,,,,,,,,,,,,,,,
,,?,0.002,0,,,,,,stimuli/images/PICTURE_297.png,RIVER,5ee19552fb6eba1caba328ae,2020-06-30_12h41.16.292,proactive,2020.1.2,Win32,60,5efb791ed4cb570da489e737,5efb87114e1b640ff5ae31ad,2,,,,,,aeroplane,,,,,,,,,,,4,1,0,1,1,39,1,,,,,,,,,,,,,,,,,,,,,,,,,,,,,,,,,,,,,,,,,,,,,,,,,,,,,,,,,,,,,,,,,,,,,,
,,?,0.001,0,,,,,,stimuli/images/PICTURE_405.png,PLENTY,5ee19552fb6eba1caba328ae,2020-06-30_12h41.16.292,proactive,2020.1.2,Win32,60,5efb791ed4cb570da489e737,5efb87114e1b640ff5ae31ad,2,,,,,,anchor,,,,,,,,,,,3,1,0,2,2,23,1,,,,,,,,,,,,,,,,,,,,,,,,,,,,,,,,,,,,,,,,,,,,,,,,,,,,,,,,,,,,,,,,,,,,,,
,,?,0.002,0,,,,,,stimuli/images/PICTURE_327.png,CASINO,5ee19552fb6eba1caba328ae,2020-06-30_12h41.16.292,proactive,2020.1.2,Win32,60,5efb791ed4cb570da489e737,5efb87114e1b640ff5ae31ad,2,,,,,,helmet,,,,,,,,,,,3,1,0,3,3,20,1,,,,,,,,,,,,,,,,,,,,,,,,,,,,,,,,,,,,,,,,,,,,,,,,,,,,,,,,,,,,,,,,,,,,,,
,,?,0.002,0,,,,,,stimuli/images/PICTURE_340.png,VALLEY,5ee19552fb6eba1caba328ae,2020-06-30_12h41.16.292,proactive,2020.1.2,Win32,60,5efb791ed4cb570da489e737,5efb87114e1b640ff5ae31ad,2,,,,,,mirror,,,,,,,,,,,6,1,0,4,4,54,1,,,,,,,,,,,,,,,,,,,,,,,,,,,,,,,,,,,,,,,,,,,,,,,,,,,,,,,,,,,,,,,,,,,,,,
,,?,0.002,0,,,,,,stimuli/images/PICTURE_675.png,SALE,5ee19552fb6eba1caba328ae,2020-06-30_12h41.16.292,proactive,2020.1.2,Win32,60,5efb791ed4cb570da489e737,5efb87114e1b640ff5ae31ad,2,,,,,,windmill,,,,,,,,,,,5,1,0,5,5,47,1,,,,,,,,,,,,,,,,,,,,,,,,,,,,,,,,,,,,,,,,,,,,,,,,,,,,,,,,,,,,,,,,,,,,,,
,,?,0.001,0,,,,,,stimuli/images/PICTURE_750.png,HOTEL,5ee19552fb6eba1caba328ae,2020-06-30_12h41.16.292,proactive,2020.1.2,Win32,60,5efb791ed4cb570da489e737,5efb87114e1b640ff5ae31ad,2,,,,,,kettle,,,,,,,,,,,3,1,0,6,6,27,1,,,,,,,,,,,,,,,,,,,,,,,,,,,,,,,,,,,,,,,,,,,,,,,,,,,,,,,,,,,,,,,,,,,,,,
,,?,0.002,0,,,,,,stimuli/images/PICTURE_487.png,GIRL,5ee19552fb6eba1caba328ae,2020-06-30_12h41.16.292,proactive,2020.1.2,Win32,60,5efb791ed4cb570da489e737,5efb87114e1b640ff5ae31ad,2,,,,,,basket,,,,,,,,,,,5,1,0,7,7,45,1,,,,,,,,,,,,,,,,,,,,,,,,,,,,,,,,,,,,,,,,,,,,,,,,,,,,,,,,,,,,,,,,,,,,,,
,,?,0.001,0,,,,,,stimuli/images/PICTURE_504.png,ARTIST,5ee19552fb6eba1caba328ae,2020-06-30_12h41.16.292,proactive,2020.1.2,Win32,60,5efb791ed4cb570da489e737,5efb87114e1b640ff5ae31ad,2,,,,,,wheel,,,,,,,,,,,5,1,0,8,8,49,1,,,,,,,,,,,,,,,,,,,,,,,,,,,,,,,,,,,,,,,,,,,,,,,,,,,,,,,,,,,,,,,,,,,,,,
,,FLIGHT,5.315,1,,,,,,stimuli/images/PICTURE_2.png,FLIGHT,5ee19552fb6eba1caba328ae,2020-06-30_12h41.16.292,proactive,2020.1.2,Win32,60,5efb791ed4cb570da489e737,5efb87114e1b640ff5ae31ad,2,,,,,,tyre,,,,,,,,,,,2,1,0,9,9,15,1,,,,,,,,,,,,,,,,,,,,,,,,,,,,,,,,,,,,,,,,,,,,,,,,,,,,,,,,,,,,,,,,,,,,,,
,,?,0.004,0,,,,,,stimuli/images/PICTURE_68.png,MILE,5ee19552fb6eba1caba328ae,2020-06-30_12h41.16.292,proactive,2020.1.2,Win32,60,5efb791ed4cb570da489e737,5efb87114e1b640ff5ae31ad,2,,,,,,candle,,,,,,,,,,,6,1,0,10,10,51,1,,,,,,,,,,,,,,,,,,,,,,,,,,,,,,,,,,,,,,,,,,,,,,,,,,,,,,,,,,,,,,,,,,,,,,
,,?,0.003,0,,,,,,stimuli/images/PICTURE_108.png,POLICY,5ee19552fb6eba1caba328ae,2020-06-30_12h41.16.292,proactive,2020.1.2,Win32,60,5efb791ed4cb570da489e737,5efb87114e1b640ff5ae31ad,2,,,,,,calendar,,,,,,,,,,,3,1,0,11,11,22,1,,,,,,,,,,,,,,,,,,,,,,,,,,,,,,,,,,,,,,,,,,,,,,,,,,,,,,,,,,,,,,,,,,,,,,
,,?,0.014,0,,,,,,stimuli/images/PICTURE_467.png,POLICY,5ee19552fb6eba1caba328ae,2020-06-30_12h41.16.292,proactive,2020.1.2,Win32,60,5efb791ed4cb570da489e737,5efb87114e1b640ff5ae31ad,2,,,,,,peg,,,,,,,,,,,6,1,0,12,12,53,1,,,,,,,,,,,,,,,,,,,,,,,,,,,,,,,,,,,,,,,,,,,,,,,,,,,,,,,,,,,,,,,,,,,,,,
,,?,0.003,0,,,,,,stimuli/images/PICTURE_504.png,COPS,5ee19552fb6eba1caba328ae,2020-06-30_12h41.16.292,proactive,2020.1.2,Win32,60,5efb791ed4cb570da489e737,5efb87114e1b640ff5ae31ad,2,,,,,,wheel,,,,,,,,,,,6,1,0,13,13,52,1,,,,,,,,,,,,,,,,,,,,,,,,,,,,,,,,,,,,,,,,,,,,,,,,,,,,,,,,,,,,,,,,,,,,,,
,,?,0.005,0,,,,,,stimuli/images/PICTURE_147.png,YEAR,5ee19552fb6eba1caba328ae,2020-06-30_12h41.16.292,proactive,2020.1.2,Win32,60,5efb791ed4cb570da489e737,5efb87114e1b640ff5ae31ad,2,,,,,,hanger,,,,,,,,,,,3,1,0,14,14,21,1,,,,,,,,,,,,,,,,,,,,,,,,,,,,,,,,,,,,,,,,,,,,,,,,,,,,,,,,,,,,,,,,,,,,,,
,,?,0.002,0,,,,,,stimuli/images/PICTURE_85.png,NATION,5ee19552fb6eba1caba328ae,2020-06-30_12h41.16.292,proactive,2020.1.2,Win32,60,5efb791ed4cb570da489e737,5efb87114e1b640ff5ae31ad,2,,,,,,diamond,,,,,,,,,,,1,1,0,15,15,5,1,,,,,,,,,,,,,,,,,,,,,,,,,,,,,,,,,,,,,,,,,,,,,,,,,,,,,,,,,,,,,,,,,,,,,,
,,?,0.002,0,,,,,,stimuli/images/PICTURE_564.png,BATH,5ee19552fb6eba1caba328ae,2020-06-30_12h41.16.292,proactive,2020.1.2,Win32,60,5efb791ed4cb570da489e737,5efb87114e1b640ff5ae31ad,2,,,,,,spoon,,,,,,,,,,,3,1,0,16,16,26,1,,,,,,,,,,,,,,,,,,,,,,,,,,,,,,,,,,,,,,,,,,,,,,,,,,,,,,,,,,,,,,,,,,,,,,
,,GLASS,3.649,1,,,,,,stimuli/images/PICTURE_491.png,GLASS,5ee19552fb6eba1caba328ae,2020-06-30_12h41.16.292,proactive,2020.1.2,Win32,60,5efb791ed4cb570da489e737,5efb87114e1b640ff5ae31ad,2,,,,,,rug,,,,,,,,,,,2,1,0,17,17,14,1,,,,,,,,,,,,,,,,,,,,,,,,,,,,,,,,,,,,,,,,,,,,,,,,,,,,,,,,,,,,,,,,,,,,,,
,,?,0.004,0,,,,,,stimuli/images/PICTURE_296.png,LIFE,5ee19552fb6eba1caba328ae,2020-06-30_12h41.16.292,proactive,2020.1.2,Win32,60,5efb791ed4cb570da489e737,5efb87114e1b640ff5ae31ad,2,,,,,,bolt,,,,,,,,,,,6,1,0,18,18,57,1,,,,,,,,,,,,,,,,,,,,,,,,,,,,,,,,,,,,,,,,,,,,,,,,,,,,,,,,,,,,,,,,,,,,,,
,,?,0.002,0,,,,,,stimuli/images/PICTURE_108.png,FLIGHT,5ee19552fb6eba1caba328ae,2020-06-30_12h41.16.292,proactive,2020.1.2,Win32,60,5efb791ed4cb570da489e737,5efb87114e1b640ff5ae31ad,2,,,,,,calendar,,,,,,,,,,,6,1,0,19,19,59,1,,,,,,,,,,,,,,,,,,,,,,,,,,,,,,,,,,,,,,,,,,,,,,,,,,,,,,,,,,,,,,,,,,,,,,
,,?,0.001,0,,,,,,stimuli/images/PICTURE_68.png,ROOF,5ee19552fb6eba1caba328ae,2020-06-30_12h41.16.292,proactive,2020.1.2,Win32,60,5efb791ed4cb570da489e737,5efb87114e1b640ff5ae31ad,2,,,,,,candle,,,,,,,,,,,4,1,0,20,20,38,1,,,,,,,,,,,,,,,,,,,,,,,,,,,,,,,,,,,,,,,,,,,,,,,,,,,,,,,,,,,,,,,,,,,,,,
,,?,0.006,0,,,,,,stimuli/images/PICTURE_95.png,BOYS,5ee19552fb6eba1caba328ae,2020-06-30_12h41.16.292,proactive,2020.1.2,Win32,60,5efb791ed4cb570da489e737,5efb87114e1b640ff5ae31ad,2,,,,,,suitcase,,,,,,,,,,,1,1,0,21,21,1,1,,,,,,,,,,,,,,,,,,,,,,,,,,,,,,,,,,,,,,,,,,,,,,,,,,,,,,,,,,,,,,,,,,,,,,
,,?,0.002,0,,,,,,stimuli/images/PICTURE_95.png,HONEY,5ee19552fb6eba1caba328ae,2020-06-30_12h41.16.292,proactive,2020.1.2,Win32,60,5efb791ed4cb570da489e737,5efb87114e1b640ff5ae31ad,2,,,,,,suitcase,,,,,,,,,,,5,1,0,22,22,44,1,,,,,,,,,,,,,,,,,,,,,,,,,,,,,,,,,,,,,,,,,,,,,,,,,,,,,,,,,,,,,,,,,,,,,,
,,?,0.003,0,,,,,,stimuli/images/PICTURE_285.png,LIFE,5ee19552fb6eba1caba328ae,2020-06-30_12h41.16.292,proactive,2020.1.2,Win32,60,5efb791ed4cb570da489e737,5efb87114e1b640ff5ae31ad,2,,,,,,carrot,,,,,,,,,,,4,1,0,23,23,33,1,,,,,,,,,,,,,,,,,,,,,,,,,,,,,,,,,,,,,,,,,,,,,,,,,,,,,,,,,,,,,,,,,,,,,,
,,?,0.001,0,,,,,,stimuli/images/PICTURE_147.png,WOMEN,5ee19552fb6eba1caba328ae,2020-06-30_12h41.16.292,proactive,2020.1.2,Win32,60,5efb791ed4cb570da489e737,5efb87114e1b640ff5ae31ad,2,,,,,,hanger,,,,,,,,,,,1,1,0,24,24,7,1,,,,,,,,,,,,,,,,,,,,,,,,,,,,,,,,,,,,,,,,,,,,,,,,,,,,,,,,,,,,,,,,,,,,,,
,,AGENT,4.841,1,,,,,,stimuli/images/PICTURE_469.png,AGENT,5ee19552fb6eba1caba328ae,2020-06-30_12h41.16.292,proactive,2020.1.2,Win32,60,5efb791ed4cb570da489e737,5efb87114e1b640ff5ae31ad,2,,,,,,stool,,,,,,,,,,,2,1,0,25,25,16,1,,,,,,,,,,,,,,,,,,,,,,,,,,,,,,,,,,,,,,,,,,,,,,,,,,,,,,,,,,,,,,,,,,,,,,
,,?,0.003,0,,,,,,stimuli/images/PICTURE_233.png,LOTS,5ee19552fb6eba1caba328ae,2020-06-30_12h41.16.292,proactive,2020.1.2,Win32,60,5efb791ed4cb570da489e737,5efb87114e1b640ff5ae31ad,2,,,,,,salt,,,,,,,,,,,5,1,0,26,26,42,1,,,,,,,,,,,,,,,,,,,,,,,,,,,,,,,,,,,,,,,,,,,,,,,,,,,,,,,,,,,,,,,,,,,,,,
,,?,0.003,0,,,,,,stimuli/images/PICTURE_383.png,SERIES,5ee19552fb6eba1caba328ae,2020-06-30_12h41.16.292,proactive,2020.1.2,Win32,60,5efb791ed4cb570da489e737,5efb87114e1b640ff5ae31ad,2,,,,,,coin,,,,,,,,,,,5,1,0,27,27,46,1,,,,,,,,,,,,,,,,,,,,,,,,,,,,,,,,,,,,,,,,,,,,,,,,,,,,,,,,,,,,,,,,,,,,,,
,,?,0.002,0,,,,,,stimuli/images/PICTURE_33.png,FRIEND,5ee19552fb6eba1caba328ae,2020-06-30_12h41.16.292,proactive,2020.1.2,Win32,60,5efb791ed4cb570da489e737,5efb87114e1b640ff5ae31ad,2,,,,,,frame,,,,,,,,,,,1,1,0,28,28,8,1,,,,,,,,,,,,,,,,,,,,,,,,,,,,,,,,,,,,,,,,,,,,,,,,,,,,,,,,,,,,,,,,,,,,,,
,,?,0.002,0,,,,,,stimuli/images/PICTURE_340.png,LETTER,5ee19552fb6eba1caba328ae,2020-06-30_12h41.16.292,proactive,2020.1.2,Win32,60,5efb791ed4cb570da489e737,5efb87114e1b640ff5ae31ad,2,,,,,,mirror,,,,,,,,,,,3,1,0,29,29,24,1,,,,,,,,,,,,,,,,,,,,,,,,,,,,,,,,,,,,,,,,,,,,,,,,,,,,,,,,,,,,,,,,,,,,,,
,,?,0.004,0,,,,,,stimuli/images/PICTURE_296.png,LOTS,5ee19552fb6eba1caba328ae,2020-06-30_12h41.16.292,proactive,2020.1.2,Win32,60,5efb791ed4cb570da489e737,5efb87114e1b640ff5ae31ad,2,,,,,,bolt,,,,,,,,,,,1,1,0,30,30,9,1,,,,,,,,,,,,,,,,,,,,,,,,,,,,,,,,,,,,,,,,,,,,,,,,,,,,,,,,,,,,,,,,,,,,,,
,,?,0.003,0,,,,,,stimuli/images/PICTURE_677.png,APPLE,5ee19552fb6eba1caba328ae,2020-06-30_12h41.16.292,proactive,2020.1.2,Win32,60,5efb791ed4cb570da489e737,5efb87114e1b640ff5ae31ad,2,,,,,,map,,,,,,,,,,,5,1,0,31,31,43,1,,,,,,,,,,,,,,,,,,,,,,,,,,,,,,,,,,,,,,,,,,,,,,,,,,,,,,,,,,,,,,,,,,,,,,
,,?,0.001,0,,,,,,stimuli/images/PICTURE_327.png,SERIES,5ee19552fb6eba1caba328ae,2020-06-30_12h41.16.292,proactive,2020.1.2,Win32,60,5efb791ed4cb570da489e737,5efb87114e1b640ff5ae31ad,2,,,,,,helmet,,,,,,,,,,,1,1,0,32,32,3,1,,,,,,,,,,,,,,,,,,,,,,,,,,,,,,,,,,,,,,,,,,,,,,,,,,,,,,,,,,,,,,,,,,,,,,
,,?,0.001,0,,,,,,stimuli/images/PICTURE_85.png,TOILET,5ee19552fb6eba1caba328ae,2020-06-30_12h41.16.292,proactive,2020.1.2,Win32,60,5efb791ed4cb570da489e737,5efb87114e1b640ff5ae31ad,2,,,,,,diamond,,,,,,,,,,,5,1,0,33,33,48,1,,,,,,,,,,,,,,,,,,,,,,,,,,,,,,,,,,,,,,,,,,,,,,,,,,,,,,,,,,,,,,,,,,,,,,
,,?,0.001,0,,,,,,stimuli/images/PICTURE_380.png,CANDY,5ee19552fb6eba1caba328ae,2020-06-30_12h41.16.292,proactive,2020.1.2,Win32,60,5efb791ed4cb570da489e737,5efb87114e1b640ff5ae31ad,2,,,,,,gorilla,,,,,,,,,,,1,1,0,34,34,0,1,,,,,,,,,,,,,,,,,,,,,,,,,,,,,,,,,,,,,,,,,,,,,,,,,,,,,,,,,,,,,,,,,,,,,,
,,?,0.001,0,,,,,,stimuli/images/PICTURE_308.png,FAMILY,5ee19552fb6eba1caba328ae,2020-06-30_12h41.16.292,proactive,2020.1.2,Win32,60,5efb791ed4cb570da489e737,5efb87114e1b640ff5ae31ad,2,,,,,,dice,,,,,,,,,,,4,1,0,35,35,36,1,,,,,,,,,,,,,,,,,,,,,,,,,,,,,,,,,,,,,,,,,,,,,,,,,,,,,,,,,,,,,,,,,,,,,,
,,YEAR,3.006,1,,,,,,stimuli/images/PICTURE_504.png,YEAR,5ee19552fb6eba1caba328ae,2020-06-30_12h41.16.292,proactive,2020.1.2,Win32,60,5efb791ed4cb570da489e737,5efb87114e1b640ff5ae31ad,2,,,,,,wheel,,,,,,,,,,,2,1,0,36,36,13,1,,,,,,,,,,,,,,,,,,,,,,,,,,,,,,,,,,,,,,,,,,,,,,,,,,,,,,,,,,,,,,,,,,,,,,
,,?,0.003,0,,,,,,stimuli/images/PICTURE_708.png,RECORD,5ee19552fb6eba1caba328ae,2020-06-30_12h41.16.292,proactive,2020.1.2,Win32,60,5efb791ed4cb570da489e737,5efb87114e1b640ff5ae31ad,2,,,,,,monkey,,,,,,,,,,,6,1,0,37,37,58,1,,,,,,,,,,,,,,,,,,,,,,,,,,,,,,,,,,,,,,,,,,,,,,,,,,,,,,,,,,,,,,,,,,,,,,
,,HONEY,3.936,1,,,,,,stimuli/images/PICTURE_380.png,HONEY,5ee19552fb6eba1caba328ae,2020-06-30_12h41.16.292,proactive,2020.1.2,Win32,60,5efb791ed4cb570da489e737,5efb87114e1b640ff5ae31ad,2,,,,,,gorilla,,,,,,,,,,,2,1,0,38,38,19,1,,,,,,,,,,,,,,,,,,,,,,,,,,,,,,,,,,,,,,,,,,,,,,,,,,,,,,,,,,,,,,,,,,,,,,
,,?,0.004,0,,,,,,stimuli/images/PICTURE_403.png,TOILET,5ee19552fb6eba1caba328ae,2020-06-30_12h41.16.292,proactive,2020.1.2,Win32,60,5efb791ed4cb570da489e737,5efb87114e1b640ff5ae31ad,2,,,,,,cathedral,,,,,,,,,,,3,1,0,39,39,25,1,,,,,,,,,,,,,,,,,,,,,,,,,,,,,,,,,,,,,,,,,,,,,,,,,,,,,,,,,,,,,,,,,,,,,,
,,RIVER,4.952,1,,,,,,stimuli/images/PICTURE_667.png,RIVER,5ee19552fb6eba1caba328ae,2020-06-30_12h41.16.292,proactive,2020.1.2,Win32,60,5efb791ed4cb570da489e737,5efb87114e1b640ff5ae31ad,2,,,,,,daisy,,,,,,,,,,,2,1,0,40,40,10,1,,,,,,,,,,,,,,,,,,,,,,,,,,,,,,,,,,,,,,,,,,,,,,,,,,,,,,,,,,,,,,,,,,,,,,
,,?,0.003,0,,,,,,stimuli/images/PICTURE_95.png,MILLER,5ee19552fb6eba1caba328ae,2020-06-30_12h41.16.292,proactive,2020.1.2,Win32,60,5efb791ed4cb570da489e737,5efb87114e1b640ff5ae31ad,2,,,,,,suitcase,,,,,,,,,,,6,1,0,41,41,56,1,,,,,,,,,,,,,,,,,,,,,,,,,,,,,,,,,,,,,,,,,,,,,,,,,,,,,,,,,,,,,,,,,,,,,,
,,?,0,0,,,,,,stimuli/images/PICTURE_177.png,WRITER,5ee19552fb6eba1caba328ae,2020-06-30_12h41.16.292,proactive,2020.1.2,Win32,60,5efb791ed4cb570da489e737,5efb87114e1b640ff5ae31ad,2,,,,,,mushroom,,,,,,,,,,,5,1,0,42,42,41,1,,,,,,,,,,,,,,,,,,,,,,,,,,,,,,,,,,,,,,,,,,,,,,,,,,,,,,,,,,,,,,,,,,,,,,
,,?,0.002,0,,,,,,stimuli/images/PICTURE_405.png,YEAR,5ee19552fb6eba1caba328ae,2020-06-30_12h41.16.292,proactive,2020.1.2,Win32,60,5efb791ed4cb570da489e737,5efb87114e1b640ff5ae31ad,2,,,,,,anchor,,,,,,,,,,,4,1,0,43,43,34,1,,,,,,,,,,,,,,,,,,,,,,,,,,,,,,,,,,,,,,,,,,,,,,,,,,,,,,,,,,,,,,,,,,,,,,
,,?,0.001,0,,,,,,stimuli/images/PICTURE_491.png,RIVER,5ee19552fb6eba1caba328ae,2020-06-30_12h41.16.292,proactive,2020.1.2,Win32,60,5efb791ed4cb570da489e737,5efb87114e1b640ff5ae31ad,2,,,,,,rug,,,,,,,,,,,1,1,0,44,44,6,1,,,,,,,,,,,,,,,,,,,,,,,,,,,,,,,,,,,,,,,,,,,,,,,,,,,,,,,,,,,,,,,,,,,,,,
,,TOILET,3.659,1,,,,,,stimuli/images/PICTURE_655.png,TOILET,5ee19552fb6eba1caba328ae,2020-06-30_12h41.16.292,proactive,2020.1.2,Win32,60,5efb791ed4cb570da489e737,5efb87114e1b640ff5ae31ad,2,,,,,,megaphone,,,,,,,,,,,2,1,0,45,45,12,1,,,,,,,,,,,,,,,,,,,,,,,,,,,,,,,,,,,,,,,,,,,,,,,,,,,,,,,,,,,,,,,,,,,,,,
,,?,0.004,0,,,,,,stimuli/images/PICTURE_685.png,PENNY,5ee19552fb6eba1caba328ae,2020-06-30_12h41.16.292,proactive,2020.1.2,Win32,60,5efb791ed4cb570da489e737,5efb87114e1b640ff5ae31ad,2,,,,,,goose,,,,,,,,,,,1,1,0,46,46,4,1,,,,,,,,,,,,,,,,,,,,,,,,,,,,,,,,,,,,,,,,,,,,,,,,,,,,,,,,,,,,,,,,,,,,,,
,,?,0.001,0,,,,,,stimuli/images/PICTURE_203.png,GODS,5ee19552fb6eba1caba328ae,2020-06-30_12h41.16.292,proactive,2020.1.2,Win32,60,5efb791ed4cb570da489e737,5efb87114e1b640ff5ae31ad,2,,,,,,cap,,,,,,,,,,,4,1,0,47,47,30,1,,,,,,,,,,,,,,,,,,,,,,,,,,,,,,,,,,,,,,,,,,,,,,,,,,,,,,,,,,,,,,,,,,,,,,
,,?,0,0,,,,,,stimuli/images/PICTURE_403.png,RIVER,5ee19552fb6eba1caba328ae,2020-06-30_12h41.16.292,proactive,2020.1.2,Win32,60,5efb791ed4cb570da489e737,5efb87114e1b640ff5ae31ad,2,,,,,,cathedral,,,,,,,,,,,5,1,0,48,48,40,1,,,,,,,,,,,,,,,,,,,,,,,,,,,,,,,,,,,,,,,,,,,,,,,,,,,,,,,,,,,,,,,,,,,,,,
,,?,0.002,0,,,,,,stimuli/images/PICTURE_42.png,BOYS,5ee19552fb6eba1caba328ae,2020-06-30_12h41.16.292,proactive,2020.1.2,Win32,60,5efb791ed4cb570da489e737,5efb87114e1b640ff5ae31ad,2,,,,,,pear,,,,,,,,,,,6,1,0,49,49,55,1,,,,,,,,,,,,,,,,,,,,,,,,,,,,,,,,,,,,,,,,,,,,,,,,,,,,,,,,,,,,,,,,,,,,,,
,,?,0.001,0,,,,,,stimuli/images/PICTURE_57.png,MOMENT,5ee19552fb6eba1caba328ae,2020-06-30_12h41.16.292,proactive,2020.1.2,Win32,60,5efb791ed4cb570da489e737,5efb87114e1b640ff5ae31ad,2,,,,,,stamp,,,,,,,,,,,4,1,0,50,50,37,1,,,,,,,,,,,,,,,,,,,,,,,,,,,,,,,,,,,,,,,,,,,,,,,,,,,,,,,,,,,,,,,,,,,,,,
,,DUDE,4.234,1,,,,,,stimuli/images/PICTURE_449.png,DUDE,5ee19552fb6eba1caba328ae,2020-06-30_12h41.16.292,proactive,2020.1.2,Win32,60,5efb791ed4cb570da489e737,5efb87114e1b640ff5ae31ad,2,,,,,,bench,,,,,,,,,,,2,1,0,51,51,17,1,,,,,,,,,,,,,,,,,,,,,,,,,,,,,,,,,,,,,,,,,,,,,,,,,,,,,,,,,,,,,,,,,,,,,,
,,?,0.003,0,,,,,,stimuli/images/PICTURE_32.png,KIND,5ee19552fb6eba1caba328ae,2020-06-30_12h41.16.292,proactive,2020.1.2,Win32,60,5efb791ed4cb570da489e737,5efb87114e1b640ff5ae31ad,2,,,,,,crown,,,,,,,,,,,4,1,0,52,52,35,1,,,,,,,,,,,,,,,,,,,,,,,,,,,,,,,,,,,,,,,,,,,,,,,,,,,,,,,,,,,,,,,,,,,,,,
,,?,0.002,0,,,,,,stimuli/images/PICTURE_744.png,WEAPON,5ee19552fb6eba1caba328ae,2020-06-30_12h41.16.292,proactive,2020.1.2,Win32,60,5efb791ed4cb570da489e737,5efb87114e1b640ff5ae31ad,2,,,,,,ring,,,,,,,,,,,6,1,0,53,53,50,1,,,,,,,,,,,,,,,,,,,,,,,,,,,,,,,,,,,,,,,,,,,,,,,,,,,,,,,,,,,,,,,,,,,,,,
,,?,0.003,0,,,,,,stimuli/images/PICTURE_383.png,WRITER,5ee19552fb6eba1caba328ae,2020-06-30_12h41.16.292,proactive,2020.1.2,Win32,60,5efb791ed4cb570da489e737,5efb87114e1b640ff5ae31ad,2,,,,,,coin,,,,,,,,,,,3,1,0,54,54,28,1,,,,,,,,,,,,,,,,,,,,,,,,,,,,,,,,,,,,,,,,,,,,,,,,,,,,,,,,,,,,,,,,,,,,,,
,,?,0.004,0,,,,,,stimuli/images/PICTURE_403.png,WRITER,5ee19552fb6eba1caba328ae,2020-06-30_12h41.16.292,proactive,2020.1.2,Win32,60,5efb791ed4cb570da489e737,5efb87114e1b640ff5ae31ad,2,,,,,,cathedral,,,,,,,,,,,4,1,0,55,55,31,1,,,,,,,,,,,,,,,,,,,,,,,,,,,,,,,,,,,,,,,,,,,,,,,,,,,,,,,,,,,,,,,,,,,,,,
,,?,0.002,0,,,,,,stimuli/images/PICTURE_654.png,MONTH,5ee19552fb6eba1caba328ae,2020-06-30_12h41.16.292,proactive,2020.1.2,Win32,60,5efb791ed4cb570da489e737,5efb87114e1b640ff5ae31ad,2,,,,,,pencil,,,,,,,,,,,3,1,0,56,56,29,1,,,,,,,,,,,,,,,,,,,,,,,,,,,,,,,,,,,,,,,,,,,,,,,,,,,,,,,,,,,,,,,,,,,,,,
,,CLIENT,3.94,1,,,,,,stimuli/images/PICTURE_339.png,CLIENT,5ee19552fb6eba1caba328ae,2020-06-30_12h41.16.292,proactive,2020.1.2,Win32,60,5efb791ed4cb570da489e737,5efb87114e1b640ff5ae31ad,2,,,,,,backpack,,,,,,,,,,,2,1,0,57,57,11,1,,,,,,,,,,,,,,,,,,,,,,,,,,,,,,,,,,,,,,,,,,,,,,,,,,,,,,,,,,,,,,,,,,,,,,
,,?,0.003,0,,,,,,stimuli/images/PICTURE_203.png,NIGHT,5ee19552fb6eba1caba328ae,2020-06-30_12h41.16.292,proactive,2020.1.2,Win32,60,5efb791ed4cb570da489e737,5efb87114e1b640ff5ae31ad,2,,,,,,cap,,,,,,,,,,,1,1,0,58,58,2,1,,,,,,,,,,,,,,,,,,,,,,,,,,,,,,,,,,,,,,,,,,,,,,,,,,,,,,,,,,,,,,,,,,,,,,
,,PILLS,4.005,1,,,,,,stimuli/images/PICTURE_32.png,PILLS,5ee19552fb6eba1caba328ae,2020-06-30_12h41.16.292,proactive,2020.1.2,Win32,60,5efb791ed4cb570da489e737,5efb87114e1b640ff5ae31ad,2,,,,,,crown,,,,,,,,,,,2,1,0,59,59,18,1,,,,,,,,,,,,,,,,,,,,,,,,,,,,,,,,,,,,,,,,,,,,,,,,,,,,,,,,,,,,,,,,,,,,,,
,,,,,,,,,,,,5ee19552fb6eba1caba328ae,2020-06-30_12h41.16.292,proactive,2020.1.2,Win32,60,5efb791ed4cb570da489e737,5efb87114e1b640ff5ae31ad,2,,,,,,,,,,,,,,,,,,,,,,,,0,0,0,1,1,stimuli/learn-block2.csv,,,,,,,,,,,,,,,,,,,,,,,,,,,,,,,,,,,,,,,,,,,,,,,,,,,,,,,,,,,,,,,,
,,,,,,,,,,stimuli/images/PICTURE_215.png,PLENTY,5ee19552fb6eba1caba328ae,2020-06-30_12h41.16.292,proactive,2020.1.2,Win32,60,5efb791ed4cb570da489e737,5efb87114e1b640ff5ae31ad,2,,,,,,boot,,,,,,0,0,0,37,1,4,0,,,,,,,,,,,,,,,,,,,,,,,,,,,,,,,,,,,,,,,,,,,,,,,,,,,,,,,,,,,,,,,,,,,,,,,,,,,
,,,,,,,,,,stimuli/images/PICTURE_32.png,JUNGLE,5ee19552fb6eba1caba328ae,2020-06-30_12h41.16.292,proactive,2020.1.2,Win32,60,5efb791ed4cb570da489e737,5efb87114e1b640ff5ae31ad,2,,,,,,crown,,,,,,0,1,1,45,1,5,0,,,,,,,,,,,,,,,,,,,,,,,,,,,,,,,,,,,,,,,,,,,,,,,,,,,,,,,,,,,,,,,,,,,,,,,,,,,
,,,,,,,,,,stimuli/images/PICTURE_744.png,SAKE,5ee19552fb6eba1caba328ae,2020-06-30_12h41.16.292,proactive,2020.1.2,Win32,60,5efb791ed4cb570da489e737,5efb87114e1b640ff5ae31ad,2,,,,,,ring,,,,,,0,2,2,17,1,2,0,,,,,,,,,,,,,,,,,,,,,,,,,,,,,,,,,,,,,,,,,,,,,,,,,,,,,,,,,,,,,,,,,,,,,,,,,,,
,,,,,,,,,,stimuli/images/PICTURE_314.png,SAKE,5ee19552fb6eba1caba328ae,2020-06-30_12h41.16.292,proactive,2020.1.2,Win32,60,5efb791ed4cb570da489e737,5efb87114e1b640ff5ae31ad,2,,,,,,perfume,,,,,,0,3,3,7,1,1,0,,,,,,,,,,,,,,,,,,,,,,,,,,,,,,,,,,,,,,,,,,,,,,,,,,,,,,,,,,,,,,,,,,,,,,,,,,,
,,,,,,,,,,stimuli/images/PICTURE_467.png,DEMON,5ee19552fb6eba1caba328ae,2020-06-30_12h41.16.292,proactive,2020.1.2,Win32,60,5efb791ed4cb570da489e737,5efb87114e1b640ff5ae31ad,2,,,,,,peg,,,,,,0,4,4,23,1,3,0,,,,,,,,,,,,,,,,,,,,,,,,,,,,,,,,,,,,,,,,,,,,,,,,,,,,,,,,,,,,,,,,,,,,,,,,,,,
,,,,,,,,,,stimuli/images/PICTURE_356.png,DANGER,5ee19552fb6eba1caba328ae,2020-06-30_12h41.16.292,proactive,2020.1.2,Win32,60,5efb791ed4cb570da489e737,5efb87114e1b640ff5ae31ad,2,,,,,,pawn,,,,,,0,5,5,55,1,6,0,,,,,,,,,,,,,,,,,,,,,,,,,,,,,,,,,,,,,,,,,,,,,,,,,,,,,,,,,,,,,,,,,,,,,,,,,,,
,,,,,,,,,,stimuli/images/PICTURE_327.png,BEAUTY,5ee19552fb6eba1caba328ae,2020-06-30_12h41.16.292,proactive,2020.1.2,Win32,60,5efb791ed4cb570da489e737,5efb87114e1b640ff5ae31ad,2,,,,,,helmet,,,,,,0,6,6,48,1,5,0,,,,,,,,,,,,,,,,,,,,,,,,,,,,,,,,,,,,,,,,,,,,,,,,,,,,,,,,,,,,,,,,,,,,,,,,,,,
,,,,,,,,,,stimuli/images/PICTURE_208.png,LOTS,5ee19552fb6eba1caba328ae,2020-06-30_12h41.16.292,proactive,2020.1.2,Win32,60,5efb791ed4cb570da489e737,5efb87114e1b640ff5ae31ad,2,,,,,,microphone,,,,,,0,7,7,10,1,2,0,,,,,,,,,,,,,,,,,,,,,,,,,,,,,,,,,,,,,,,,,,,,,,,,,,,,,,,,,,,,,,,,,,,,,,,,,,,
,,,,,,,,,,stimuli/images/PICTURE_453.png,DUDE,5ee19552fb6eba1caba328ae,2020-06-30_12h41.16.292,proactive,2020.1.2,Win32,60,5efb791ed4cb570da489e737,5efb87114e1b640ff5ae31ad,2,,,,,,scissors,,,,,,0,8,8,27,1,3,0,,,,,,,,,,,,,,,,,,,,,,,,,,,,,,,,,,,,,,,,,,,,,,,,,,,,,,,,,,,,,,,,,,,,,,,,,,,
,,,,,,,,,,stimuli/images/PICTURE_504.png,BODY,5ee19552fb6eba1caba328ae,2020-06-30_12h41.16.292,proactive,2020.1.2,Win32,60,5efb791ed4cb570da489e737,5efb87114e1b640ff5ae31ad,2,,,,,,wheel,,,,,,0,9,9,8,1,1,0,,,,,,,,,,,,,,,,,,,,,,,,,,,,,,,,,,,,,,,,,,,,,,,,,,,,,,,,,,,,,,,,,,,,,,,,,,,
,,,,,,,,,,stimuli/images/PICTURE_667.png,BATH,5ee19552fb6eba1caba328ae,2020-06-30_12h41.16.292,proactive,2020.1.2,Win32,60,5efb791ed4cb570da489e737,5efb87114e1b640ff5ae31ad,2,,,,,,daisy,,,,,,0,10,10,4,1,1,0,,,,,,,,,,,,,,,,,,,,,,,,,,,,,,,,,,,,,,,,,,,,,,,,,,,,,,,,,,,,,,,,,,,,,,,,,,,
,,,,,,,,,,stimuli/images/PICTURE_302.png,FAMILY,5ee19552fb6eba1caba328ae,2020-06-30_12h41.16.292,proactive,2020.1.2,Win32,60,5efb791ed4cb570da489e737,5efb87114e1b640ff5ae31ad,2,,,,,,taxi,,,,,,0,11,11,18,1,2,0,,,,,,,,,,,,,,,,,,,,,,,,,,,,,,,,,,,,,,,,,,,,,,,,,,,,,,,,,,,,,,,,,,,,,,,,,,,
,,,,,,,,,,stimuli/images/PICTURE_708.png,YARD,5ee19552fb6eba1caba328ae,2020-06-30_12h41.16.292,proactive,2020.1.2,Win32,60,5efb791ed4cb570da489e737,5efb87114e1b640ff5ae31ad,2,,,,,,monkey,,,,,,0,12,12,29,1,3,0,,,,,,,,,,,,,,,,,,,,,,,,,,,,,,,,,,,,,,,,,,,,,,,,,,,,,,,,,,,,,,,,,,,,,,,,,,,
,,,,,,,,,,stimuli/images/PICTURE_285.png,ADVICE,5ee19552fb6eba1caba328ae,2020-06-30_12h41.16.292,proactive,2020.1.2,Win32,60,5efb791ed4cb570da489e737,5efb87114e1b640ff5ae31ad,2,,,,,,carrot,,,,,,0,13,13,12,1,2,0,,,,,,,,,,,,,,,,,,,,,,,,,,,,,,,,,,,,,,,,,,,,,,,,,,,,,,,,,,,,,,,,,,,,,,,,,,,
,,,,,,,,,,stimuli/images/PICTURE_208.png,THING,5ee19552fb6eba1caba328ae,2020-06-30_12h41.16.292,proactive,2020.1.2,Win32,60,5efb791ed4cb570da489e737,5efb87114e1b640ff5ae31ad,2,,,,,,microphone,,,,,,0,14,14,47,1,5,0,,,,,,,,,,,,,,,,,,,,,,,,,,,,,,,,,,,,,,,,,,,,,,,,,,,,,,,,,,,,,,,,,,,,,,,,,,,
,,,,,,,,,,stimuli/images/PICTURE_348.png,SPEECH,5ee19552fb6eba1caba328ae,2020-06-30_12h41.16.292,proactive,2020.1.2,Win32,60,5efb791ed4cb570da489e737,5efb87114e1b640ff5ae31ad,2,,,,,,pepper,,,,,,0,15,15,20,1,3,0,,,,,,,,,,,,,,,,,,,,,,,,,,,,,,,,,,,,,,,,,,,,,,,,,,,,,,,,,,,,,,,,,,,,,,,,,,,
,,,,,,,,,,stimuli/images/PICTURE_95.png,STYLE,5ee19552fb6eba1caba328ae,2020-06-30_12h41.16.292,proactive,2020.1.2,Win32,60,5efb791ed4cb570da489e737,5efb87114e1b640ff5ae31ad,2,,,,,,suitcase,,,,,,0,16,16,25,1,3,0,,,,,,,,,,,,,,,,,,,,,,,,,,,,,,,,,,,,,,,,,,,,,,,,,,,,,,,,,,,,,,,,,,,,,,,,,,,
,,,,,,,,,,stimuli/images/PICTURE_177.png,CARS,5ee19552fb6eba1caba328ae,2020-06-30_12h41.16.292,proactive,2020.1.2,Win32,60,5efb791ed4cb570da489e737,5efb87114e1b640ff5ae31ad,2,,,,,,mushroom,,,,,,0,17,17,35,1,4,0,,,,,,,,,,,,,,,,,,,,,,,,,,,,,,,,,,,,,,,,,,,,,,,,,,,,,,,,,,,,,,,,,,,,,,,,,,,
,,,,,,,,,,stimuli/images/PICTURE_85.png,THING,5ee19552fb6eba1caba328ae,2020-06-30_12h41.16.292,proactive,2020.1.2,Win32,60,5efb791ed4cb570da489e737,5efb87114e1b640ff5ae31ad,2,,,,,,diamond,,,,,,0,18,18,15,1,2,0,,,,,,,,,,,,,,,,,,,,,,,,,,,,,,,,,,,,,,,,,,,,,,,,,,,,,,,,,,,,,,,,,,,,,,,,,,,
,,,,,,,,,,stimuli/images/PICTURE_487.png,FLIGHT,5ee19552fb6eba1caba328ae,2020-06-30_12h41.16.292,proactive,2020.1.2,Win32,60,5efb791ed4cb570da489e737,5efb87114e1b640ff5ae31ad,2,,,,,,basket,,,,,,0,19,19,9,1,1,0,,,,,,,,,,,,,,,,,,,,,,,,,,,,,,,,,,,,,,,,,,,,,,,,,,,,,,,,,,,,,,,,,,,,,,,,,,,
,,,,,,,,,,stimuli/images/PICTURE_147.png,MOMENT,5ee19552fb6eba1caba328ae,2020-06-30_12h41.16.292,proactive,2020.1.2,Win32,60,5efb791ed4cb570da489e737,5efb87114e1b640ff5ae31ad,2,,,,,,hanger,,,,,,0,20,20,51,1,6,0,,,,,,,,,,,,,,,,,,,,,,,,,,,,,,,,,,,,,,,,,,,,,,,,,,,,,,,,,,,,,,,,,,,,,,,,,,,
,,,,,,,,,,stimuli/images/PICTURE_688.png,CASINO,5ee19552fb6eba1caba328ae,2020-06-30_12h41.16.292,proactive,2020.1.2,Win32,60,5efb791ed4cb570da489e737,5efb87114e1b640ff5ae31ad,2,,,,,,runner,,,,,,0,21,21,2,1,1,0,,,,,,,,,,,,,,,,,,,,,,,,,,,,,,,,,,,,,,,,,,,,,,,,,,,,,,,,,,,,,,,,,,,,,,,,,,,
,,,,,,,,,,stimuli/images/PICTURE_667.png,PLENTY,5ee19552fb6eba1caba328ae,2020-06-30_12h41.16.292,proactive,2020.1.2,Win32,60,5efb791ed4cb570da489e737,5efb87114e1b640ff5ae31ad,2,,,,,,daisy,,,,,,0,22,22,41,1,5,0,,,,,,,,,,,,,,,,,,,,,,,,,,,,,,,,,,,,,,,,,,,,,,,,,,,,,,,,,,,,,,,,,,,,,,,,,,,
,,,,,,,,,,stimuli/images/PICTURE_314.png,GODS,5ee19552fb6eba1caba328ae,2020-06-30_12h41.16.292,proactive,2020.1.2,Win32,60,5efb791ed4cb570da489e737,5efb87114e1b640ff5ae31ad,2,,,,,,perfume,,,,,,0,23,23,11,1,2,0,,,,,,,,,,,,,,,,,,,,,,,,,,,,,,,,,,,,,,,,,,,,,,,,,,,,,,,,,,,,,,,,,,,,,,,,,,,
,,,,,,,,,,stimuli/images/PICTURE_488.png,STYLE,5ee19552fb6eba1caba328ae,2020-06-30_12h41.16.292,proactive,2020.1.2,Win32,60,5efb791ed4cb570da489e737,5efb87114e1b640ff5ae31ad,2,,,,,,sun,,,,,,0,24,24,33,1,4,0,,,,,,,,,,,,,,,,,,,,,,,,,,,,,,,,,,,,,,,,,,,,,,,,,,,,,,,,,,,,,,,,,,,,,,,,,,,
,,,,,,,,,,stimuli/images/PICTURE_380.png,DEATH,5ee19552fb6eba1caba328ae,2020-06-30_12h41.16.292,proactive,2020.1.2,Win32,60,5efb791ed4cb570da489e737,5efb87114e1b640ff5ae31ad,2,,,,,,gorilla,,,,,,0,25,25,49,1,5,0,,,,,,,,,,,,,,,,,,,,,,,,,,,,,,,,,,,,,,,,,,,,,,,,,,,,,,,,,,,,,,,,,,,,,,,,,,,
,,,,,,,,,,stimuli/images/PICTURE_708.png,CLIENT,5ee19552fb6eba1caba328ae,2020-06-30_12h41.16.292,proactive,2020.1.2,Win32,60,5efb791ed4cb570da489e737,5efb87114e1b640ff5ae31ad,2,,,,,,monkey,,,,,,0,26,26,5,1,1,0,,,,,,,,,,,,,,,,,,,,,,,,,,,,,,,,,,,,,,,,,,,,,,,,,,,,,,,,,,,,,,,,,,,,,,,,,,,
,,,,,,,,,,stimuli/images/PICTURE_311.png,BEAUTY,5ee19552fb6eba1caba328ae,2020-06-30_12h41.16.292,proactive,2020.1.2,Win32,60,5efb791ed4cb570da489e737,5efb87114e1b640ff5ae31ad,2,,,,,,razor,,,,,,0,27,27,13,1,2,0,,,,,,,,,,,,,,,,,,,,,,,,,,,,,,,,,,,,,,,,,,,,,,,,,,,,,,,,,,,,,,,,,,,,,,,,,,,
,,,,,,,,,,stimuli/images/PICTURE_491.png,ROOF,5ee19552fb6eba1caba328ae,2020-06-30_12h41.16.292,proactive,2020.1.2,Win32,60,5efb791ed4cb570da489e737,5efb87114e1b640ff5ae31ad,2,,,,,,rug,,,,,,0,28,28,24,1,3,0,,,,,,,,,,,,,,,,,,,,,,,,,,,,,,,,,,,,,,,,,,,,,,,,,,,,,,,,,,,,,,,,,,,,,,,,,,,
,,,,,,,,,,stimuli/images/PICTURE_491.png,WRITER,5ee19552fb6eba1caba328ae,2020-06-30_12h41.16.292,proactive,2020.1.2,Win32,60,5efb791ed4cb570da489e737,5efb87114e1b640ff5ae31ad,2,,,,,,rug,,,,,,0,29,29,57,1,6,0,,,,,,,,,,,,,,,,,,,,,,,,,,,,,,,,,,,,,,,,,,,,,,,,,,,,,,,,,,,,,,,,,,,,,,,,,,,
,,,,,,,,,,stimuli/images/PICTURE_469.png,LETTER,5ee19552fb6eba1caba328ae,2020-06-30_12h41.16.292,proactive,2020.1.2,Win32,60,5efb791ed4cb570da489e737,5efb87114e1b640ff5ae31ad,2,,,,,,stool,,,,,,0,30,30,42,1,5,0,,,,,,,,,,,,,,,,,,,,,,,,,,,,,,,,,,,,,,,,,,,,,,,,,,,,,,,,,,,,,,,,,,,,,,,,,,,
,,,,,,,,,,stimuli/images/PICTURE_744.png,SYSTEM,5ee19552fb6eba1caba328ae,2020-06-30_12h41.16.292,proactive,2020.1.2,Win32,60,5efb791ed4cb570da489e737,5efb87114e1b640ff5ae31ad,2,,,,,,ring,,,,,,0,31,31,43,1,5,0,,,,,,,,,,,,,,,,,,,,,,,,,,,,,,,,,,,,,,,,,,,,,,,,,,,,,,,,,,,,,,,,,,,,,,,,,,,
,,,,,,,,,,stimuli/images/PICTURE_339.png,PLENTY,5ee19552fb6eba1caba328ae,2020-06-30_12h41.16.292,proactive,2020.1.2,Win32,60,5efb791ed4cb570da489e737,5efb87114e1b640ff5ae31ad,2,,,,,,backpack,,,,,,0,32,32,0,1,1,0,,,,,,,,,,,,,,,,,,,,,,,,,,,,,,,,,,,,,,,,,,,,,,,,,,,,,,,,,,,,,,,,,,,,,,,,,,,
,,,,,,,,,,stimuli/images/PICTURE_509.png,PHOTO,5ee19552fb6eba1caba328ae,2020-06-30_12h41.16.292,proactive,2020.1.2,Win32,60,5efb791ed4cb570da489e737,5efb87114e1b640ff5ae31ad,2,,,,,,telephone,,,,,,0,33,33,21,1,3,0,,,,,,,,,,,,,,,,,,,,,,,,,,,,,,,,,,,,,,,,,,,,,,,,,,,,,,,,,,,,,,,,,,,,,,,,,,,
,,,,,,,,,,stimuli/images/PICTURE_708.png,PENNY,5ee19552fb6eba1caba328ae,2020-06-30_12h41.16.292,proactive,2020.1.2,Win32,60,5efb791ed4cb570da489e737,5efb87114e1b640ff5ae31ad,2,,,,,,monkey,,,,,,0,34,34,31,1,4,0,,,,,,,,,,,,,,,,,,,,,,,,,,,,,,,,,,,,,,,,,,,,,,,,,,,,,,,,,,,,,,,,,,,,,,,,,,,
,,,,,,,,,,stimuli/images/PICTURE_675.png,WEAPON,5ee19552fb6eba1caba328ae,2020-06-30_12h41.16.292,proactive,2020.1.2,Win32,60,5efb791ed4cb570da489e737,5efb87114e1b640ff5ae31ad,2,,,,,,windmill,,,,,,0,35,35,32,1,4,0,,,,,,,,,,,,,,,,,,,,,,,,,,,,,,,,,,,,,,,,,,,,,,,,,,,,,,,,,,,,,,,,,,,,,,,,,,,
,,,,,,,,,,stimuli/images/PICTURE_380.png,PHOTO,5ee19552fb6eba1caba328ae,2020-06-30_12h41.16.292,proactive,2020.1.2,Win32,60,5efb791ed4cb570da489e737,5efb87114e1b640ff5ae31ad,2,,,,,,gorilla,,,,,,0,36,36,52,1,6,0,,,,,,,,,,,,,,,,,,,,,,,,,,,,,,,,,,,,,,,,,,,,,,,,,,,,,,,,,,,,,,,,,,,,,,,,,,,
,,,,,,,,,,stimuli/images/PICTURE_68.png,MILE,5ee19552fb6eba1caba328ae,2020-06-30_12h41.16.292,proactive,2020.1.2,Win32,60,5efb791ed4cb570da489e737,5efb87114e1b640ff5ae31ad,2,,,,,,candle,,,,,,0,37,37,44,1,5,0,,,,,,,,,,,,,,,,,,,,,,,,,,,,,,,,,,,,,,,,,,,,,,,,,,,,,,,,,,,,,,,,,,,,,,,,,,,
,,,,,,,,,,stimuli/images/PICTURE_123.png,ADVICE,5ee19552fb6eba1caba328ae,2020-06-30_12h41.16.292,proactive,2020.1.2,Win32,60,5efb791ed4cb570da489e737,5efb87114e1b640ff5ae31ad,2,,,,,,dart,,,,,,0,38,38,50,1,6,0,,,,,,,,,,,,,,,,,,,,,,,,,,,,,,,,,,,,,,,,,,,,,,,,,,,,,,,,,,,,,,,,,,,,,,,,,,,
,,,,,,,,,,stimuli/images/PICTURE_677.png,MILE,5ee19552fb6eba1caba328ae,2020-06-30_12h41.16.292,proactive,2020.1.2,Win32,60,5efb791ed4cb570da489e737,5efb87114e1b640ff5ae31ad,2,,,,,,map,,,,,,0,39,39,30,1,4,0,,,,,,,,,,,,,,,,,,,,,,,,,,,,,,,,,,,,,,,,,,,,,,,,,,,,,,,,,,,,,,,,,,,,,,,,,,,
,,,,,,,,,,stimuli/images/PICTURE_449.png,THING,5ee19552fb6eba1caba328ae,2020-06-30_12h41.16.292,proactive,2020.1.2,Win32,60,5efb791ed4cb570da489e737,5efb87114e1b640ff5ae31ad,2,,,,,,bench,,,,,,0,40,40,59,1,6,0,,,,,,,,,,,,,,,,,,,,,,,,,,,,,,,,,,,,,,,,,,,,,,,,,,,,,,,,,,,,,,,,,,,,,,,,,,,
,,,,,,,,,,stimuli/images/PICTURE_654.png,VALLEY,5ee19552fb6eba1caba328ae,2020-06-30_12h41.16.292,proactive,2020.1.2,Win32,60,5efb791ed4cb570da489e737,5efb87114e1b640ff5ae31ad,2,,,,,,pencil,,,,,,0,41,41,1,1,1,0,,,,,,,,,,,,,,,,,,,,,,,,,,,,,,,,,,,,,,,,,,,,,,,,,,,,,,,,,,,,,,,,,,,,,,,,,,,
,,,,,,,,,,stimuli/images/PICTURE_203.png,ARTIST,5ee19552fb6eba1caba328ae,2020-06-30_12h41.16.292,proactive,2020.1.2,Win32,60,5efb791ed4cb570da489e737,5efb87114e1b640ff5ae31ad,2,,,,,,cap,,,,,,0,42,42,26,1,3,0,,,,,,,,,,,,,,,,,,,,,,,,,,,,,,,,,,,,,,,,,,,,,,,,,,,,,,,,,,,,,,,,,,,,,,,,,,,
,,,,,,,,,,stimuli/images/PICTURE_255.png,AREA,5ee19552fb6eba1caba328ae,2020-06-30_12h41.16.292,proactive,2020.1.2,Win32,60,5efb791ed4cb570da489e737,5efb87114e1b640ff5ae31ad,2,,,,,,shovel,,,,,,0,43,43,22,1,3,0,,,,,,,,,,,,,,,,,,,,,,,,,,,,,,,,,,,,,,,,,,,,,,,,,,,,,,,,,,,,,,,,,,,,,,,,,,,
,,,,,,,,,,stimuli/images/PICTURE_470.png,CASINO,5ee19552fb6eba1caba328ae,2020-06-30_12h41.16.292,proactive,2020.1.2,Win32,60,5efb791ed4cb570da489e737,5efb87114e1b640ff5ae31ad,2,,,,,,motorbike,,,,,,0,44,44,36,1,4,0,,,,,,,,,,,,,,,,,,,,,,,,,,,,,,,,,,,,,,,,,,,,,,,,,,,,,,,,,,,,,,,,,,,,,,,,,,,
,,,,,,,,,,stimuli/images/PICTURE_233.png,IDEAS,5ee19552fb6eba1caba328ae,2020-06-30_12h41.16.292,proactive,2020.1.2,Win32,60,5efb791ed4cb570da489e737,5efb87114e1b640ff5ae31ad,2,,,,,,salt,,,,,,0,45,45,28,1,3,0,,,,,,,,,,,,,,,,,,,,,,,,,,,,,,,,,,,,,,,,,,,,,,,,,,,,,,,,,,,,,,,,,,,,,,,,,,,
,,,,,,,,,,stimuli/images/PICTURE_151.png,GIRL,5ee19552fb6eba1caba328ae,2020-06-30_12h41.16.292,proactive,2020.1.2,Win32,60,5efb791ed4cb570da489e737,5efb87114e1b640ff5ae31ad,2,,,,,,tray,,,,,,0,46,46,19,1,2,0,,,,,,,,,,,,,,,,,,,,,,,,,,,,,,,,,,,,,,,,,,,,,,,,,,,,,,,,,,,,,,,,,,,,,,,,,,,
,,,,,,,,,,stimuli/images/PICTURE_308.png,ESTATE,5ee19552fb6eba1caba328ae,2020-06-30_12h41.16.292,proactive,2020.1.2,Win32,60,5efb791ed4cb570da489e737,5efb87114e1b640ff5ae31ad,2,,,,,,dice,,,,,,0,47,47,46,1,5,0,,,,,,,,,,,,,,,,,,,,,,,,,,,,,,,,,,,,,,,,,,,,,,,,,,,,,,,,,,,,,,,,,,,,,,,,,,,
,,,,,,,,,,stimuli/images/PICTURE_160.png,LEADER,5ee19552fb6eba1caba328ae,2020-06-30_12h41.16.292,proactive,2020.1.2,Win32,60,5efb791ed4cb570da489e737,5efb87114e1b640ff5ae31ad,2,,,,,,wheelbarrow,,,,,,0,48,48,3,1,1,0,,,,,,,,,,,,,,,,,,,,,,,,,,,,,,,,,,,,,,,,,,,,,,,,,,,,,,,,,,,,,,,,,,,,,,,,,,,
,,,,,,,,,,stimuli/images/PICTURE_208.png,MONTH,5ee19552fb6eba1caba328ae,2020-06-30_12h41.16.292,proactive,2020.1.2,Win32,60,5efb791ed4cb570da489e737,5efb87114e1b640ff5ae31ad,2,,,,,,microphone,,,,,,0,49,49,53,1,6,0,,,,,,,,,,,,,,,,,,,,,,,,,,,,,,,,,,,,,,,,,,,,,,,,,,,,,,,,,,,,,,,,,,,,,,,,,,,
,,,,,,,,,,stimuli/images/PICTURE_688.png,WOMEN,5ee19552fb6eba1caba328ae,2020-06-30_12h41.16.292,proactive,2020.1.2,Win32,60,5efb791ed4cb570da489e737,5efb87114e1b640ff5ae31ad,2,,,,,,runner,,,,,,0,50,50,14,1,2,0,,,,,,,,,,,,,,,,,,,,,,,,,,,,,,,,,,,,,,,,,,,,,,,,,,,,,,,,,,,,,,,,,,,,,,,,,,,
,,,,,,,,,,stimuli/images/PICTURE_469.png,ARTIST,5ee19552fb6eba1caba328ae,2020-06-30_12h41.16.292,proactive,2020.1.2,Win32,60,5efb791ed4cb570da489e737,5efb87114e1b640ff5ae31ad,2,,,,,,stool,,,,,,0,51,51,6,1,1,0,,,,,,,,,,,,,,,,,,,,,,,,,,,,,,,,,,,,,,,,,,,,,,,,,,,,,,,,,,,,,,,,,,,,,,,,,,,
,,,,,,,,,,stimuli/images/PICTURE_311.png,FRIEND,5ee19552fb6eba1caba328ae,2020-06-30_12h41.16.292,proactive,2020.1.2,Win32,60,5efb791ed4cb570da489e737,5efb87114e1b640ff5ae31ad,2,,,,,,razor,,,,,,0,52,52,34,1,4,0,,,,,,,,,,,,,,,,,,,,,,,,,,,,,,,,,,,,,,,,,,,,,,,,,,,,,,,,,,,,,,,,,,,,,,,,,,,
,,,,,,,,,,stimuli/images/PICTURE_453.png,PLENTY,5ee19552fb6eba1caba328ae,2020-06-30_12h41.16.292,proactive,2020.1.2,Win32,60,5efb791ed4cb570da489e737,5efb87114e1b640ff5ae31ad,2,,,,,,scissors,,,,,,0,53,53,56,1,6,0,,,,,,,,,,,,,,,,,,,,,,,,,,,,,,,,,,,,,,,,,,,,,,,,,,,,,,,,,,,,,,,,,,,,,,,,,,,
,,,,,,,,,,stimuli/images/PICTURE_160.png,FEET,5ee19552fb6eba1caba328ae,2020-06-30_12h41.16.292,proactive,2020.1.2,Win32,60,5efb791ed4cb570da489e737,5efb87114e1b640ff5ae31ad,2,,,,,,wheelbarrow,,,,,,0,54,54,58,1,6,0,,,,,,,,,,,,,,,,,,,,,,,,,,,,,,,,,,,,,,,,,,,,,,,,,,,,,,,,,,,,,,,,,,,,,,,,,,,
,,,,,,,,,,stimuli/images/PICTURE_248.png,DOZEN,5ee19552fb6eba1caba328ae,2020-06-30_12h41.16.292,proactive,2020.1.2,Win32,60,5efb791ed4cb570da489e737,5efb87114e1b640ff5ae31ad,2,,,,,,cart,,,,,,0,55,55,39,1,4,0,,,,,,,,,,,,,,,,,,,,,,,,,,,,,,,,,,,,,,,,,,,,,,,,,,,,,,,,,,,,,,,,,,,,,,,,,,,
,,,,,,,,,,stimuli/images/PICTURE_692.png,MONTH,5ee19552fb6eba1caba328ae,2020-06-30_12h41.16.292,proactive,2020.1.2,Win32,60,5efb791ed4cb570da489e737,5efb87114e1b640ff5ae31ad,2,,,,,,cherry,,,,,,0,56,56,16,1,2,0,,,,,,,,,,,,,,,,,,,,,,,,,,,,,,,,,,,,,,,,,,,,,,,,,,,,,,,,,,,,,,,,,,,,,,,,,,,
,,,,,,,,,,stimuli/images/PICTURE_308.png,KIND,5ee19552fb6eba1caba328ae,2020-06-30_12h41.16.292,proactive,2020.1.2,Win32,60,5efb791ed4cb570da489e737,5efb87114e1b640ff5ae31ad,2,,,,,,dice,,,,,,0,57,57,54,1,6,0,,,,,,,,,,,,,,,,,,,,,,,,,,,,,,,,,,,,,,,,,,,,,,,,,,,,,,,,,,,,,,,,,,,,,,,,,,,
,,,,,,,,,,stimuli/images/PICTURE_123.png,ADVICE,5ee19552fb6eba1caba328ae,2020-06-30_12h41.16.292,proactive,2020.1.2,Win32,60,5efb791ed4cb570da489e737,5efb87114e1b640ff5ae31ad,2,,,,,,dart,,,,,,0,58,58,40,1,5,0,,,,,,,,,,,,,,,,,,,,,,,,,,,,,,,,,,,,,,,,,,,,,,,,,,,,,,,,,,,,,,,,,,,,,,,,,,,
,,?,0.001,0,,,,,,stimuli/images/PICTURE_744.png,SYSTEM,5ee19552fb6eba1caba328ae,2020-06-30_12h41.16.292,proactive,2020.1.2,Win32,60,5efb791ed4cb570da489e737,5efb87114e1b640ff5ae31ad,2,,,,,,ring,,,,,,,,,,,5,0,0,0,0,43,1,,,,,,,,,,,,,,,,,,,,,,,,,,,,,,,,,,,,,,,,,,,,,,,,,,,,,,,,,,,,,,,,,,,,,,
,,?,0.002,0,,,,,,stimuli/images/PICTURE_667.png,BATH,5ee19552fb6eba1caba328ae,2020-06-30_12h41.16.292,proactive,2020.1.2,Win32,60,5efb791ed4cb570da489e737,5efb87114e1b640ff5ae31ad,2,,,,,,daisy,,,,,,,,,,,1,0,0,1,1,4,1,,,,,,,,,,,,,,,,,,,,,,,,,,,,,,,,,,,,,,,,,,,,,,,,,,,,,,,,,,,,,,,,,,,,,,
,,?,0.001,0,,,,,,stimuli/images/PICTURE_467.png,DEMON,5ee19552fb6eba1caba328ae,2020-06-30_12h41.16.292,proactive,2020.1.2,Win32,60,5efb791ed4cb570da489e737,5efb87114e1b640ff5ae31ad,2,,,,,,peg,,,,,,,,,,,3,0,0,2,2,23,1,,,,,,,,,,,,,,,,,,,,,,,,,,,,,,,,,,,,,,,,,,,,,,,,,,,,,,,,,,,,,,,,,,,,,,
,,?,0.001,0,,,,,,stimuli/images/PICTURE_123.png,ADVICE,5ee19552fb6eba1caba328ae,2020-06-30_12h41.16.292,proactive,2020.1.2,Win32,60,5efb791ed4cb570da489e737,5efb87114e1b640ff5ae31ad,2,,,,,,dart,,,,,,,,,,,6,0,0,3,3,50,1,,,,,,,,,,,,,,,,,,,,,,,,,,,,,,,,,,,,,,,,,,,,,,,,,,,,,,,,,,,,,,,,,,,,,,
,,LOTS,5.055,1,,,,,,stimuli/images/PICTURE_208.png,LOTS,5ee19552fb6eba1caba328ae,2020-06-30_12h41.16.292,proactive,2020.1.2,Win32,60,5efb791ed4cb570da489e737,5efb87114e1b640ff5ae31ad,2,,,,,,microphone,,,,,,,,,,,2,0,0,4,4,10,1,,,,,,,,,,,,,,,,,,,,,,,,,,,,,,,,,,,,,,,,,,,,,,,,,,,,,,,,,,,,,,,,,,,,,,
,,?,0.003,0,,,,,,stimuli/images/PICTURE_688.png,CASINO,5ee19552fb6eba1caba328ae,2020-06-30_12h41.16.292,proactive,2020.1.2,Win32,60,5efb791ed4cb570da489e737,5efb87114e1b640ff5ae31ad,2,,,,,,runner,,,,,,,,,,,1,0,0,5,5,2,1,,,,,,,,,,,,,,,,,,,,,,,,,,,,,,,,,,,,,,,,,,,,,,,,,,,,,,,,,,,,,,,,,,,,,,
,,?,0.001,0,,,,,,stimuli/images/PICTURE_311.png,FRIEND,5ee19552fb6eba1caba328ae,2020-06-30_12h41.16.292,proactive,2020.1.2,Win32,60,5efb791ed4cb570da489e737,5efb87114e1b640ff5ae31ad,2,,,,,,razor,,,,,,,,,,,4,0,0,6,6,34,1,,,,,,,,,,,,,,,,,,,,,,,,,,,,,,,,,,,,,,,,,,,,,,,,,,,,,,,,,,,,,,,,,,,,,,
,,?,0.002,0,,,,,,stimuli/images/PICTURE_491.png,WRITER,5ee19552fb6eba1caba328ae,2020-06-30_12h41.16.292,proactive,2020.1.2,Win32,60,5efb791ed4cb570da489e737,5efb87114e1b640ff5ae31ad,2,,,,,,rug,,,,,,,,,,,6,0,0,7,7,57,1,,,,,,,,,,,,,,,,,,,,,,,,,,,,,,,,,,,,,,,,,,,,,,,,,,,,,,,,,,,,,,,,,,,,,,
,,WOMAN,5.829,0,,,,,,stimuli/images/PICTURE_688.png,WOMEN,5ee19552fb6eba1caba328ae,2020-06-30_12h41.16.292,proactive,2020.1.2,Win32,60,5efb791ed4cb570da489e737,5efb87114e1b640ff5ae31ad,2,,,,,,runner,,,,,,,,,,,2,0,0,8,8,14,1,,,,,,,,,,,,,,,,,,,,,,,,,,,,,,,,,,,,,,,,,,,,,,,,,,,,,,,,,,,,,,,,,,,,,,
,,?,0.003,0,,,,,,stimuli/images/PICTURE_248.png,DOZEN,5ee19552fb6eba1caba328ae,2020-06-30_12h41.16.292,proactive,2020.1.2,Win32,60,5efb791ed4cb570da489e737,5efb87114e1b640ff5ae31ad,2,,,,,,cart,,,,,,,,,,,4,0,0,9,9,39,1,,,,,,,,,,,,,,,,,,,,,,,,,,,,,,,,,,,,,,,,,,,,,,,,,,,,,,,,,,,,,,,,,,,,,,
,,?,0.002,0,,,,,,stimuli/images/PICTURE_123.png,ADVICE,5ee19552fb6eba1caba328ae,2020-06-30_12h41.16.292,proactive,2020.1.2,Win32,60,5efb791ed4cb570da489e737,5efb87114e1b640ff5ae31ad,2,,,,,,dart,,,,,,,,,,,5,0,0,10,10,40,1,,,,,,,,,,,,,,,,,,,,,,,,,,,,,,,,,,,,,,,,,,,,,,,,,,,,,,,,,,,,,,,,,,,,,,
,,?,0.003,0,,,,,,stimuli/images/PICTURE_68.png,MILE,5ee19552fb6eba1caba328ae,2020-06-30_12h41.16.292,proactive,2020.1.2,Win32,60,5efb791ed4cb570da489e737,5efb87114e1b640ff5ae31ad,2,,,,,,candle,,,,,,,,,,,5,0,0,11,11,44,1,,,,,,,,,,,,,,,,,,,,,,,,,,,,,,,,,,,,,,,,,,,,,,,,,,,,,,,,,,,,,,,,,,,,,,
,,?,0.001,0,,,,,,stimuli/images/PICTURE_160.png,FEET,5ee19552fb6eba1caba328ae,2020-06-30_12h41.16.292,proactive,2020.1.2,Win32,60,5efb791ed4cb570da489e737,5efb87114e1b640ff5ae31ad,2,,,,,,wheelbarrow,,,,,,,,,,,6,0,0,12,12,58,1,,,,,,,,,,,,,,,,,,,,,,,,,,,,,,,,,,,,,,,,,,,,,,,,,,,,,,,,,,,,,,,,,,,,,,
,,?,0.002,0,,,,,,stimuli/images/PICTURE_677.png,MILE,5ee19552fb6eba1caba328ae,2020-06-30_12h41.16.292,proactive,2020.1.2,Win32,60,5efb791ed4cb570da489e737,5efb87114e1b640ff5ae31ad,2,,,,,,map,,,,,,,,,,,4,0,0,13,13,30,1,,,,,,,,,,,,,,,,,,,,,,,,,,,,,,,,,,,,,,,,,,,,,,,,,,,,,,,,,,,,,,,,,,,,,,
,,?,0.002,0,,,,,,stimuli/images/PICTURE_470.png,CASINO,5ee19552fb6eba1caba328ae,2020-06-30_12h41.16.292,proactive,2020.1.2,Win32,60,5efb791ed4cb570da489e737,5efb87114e1b640ff5ae31ad,2,,,,,,motorbike,,,,,,,,,,,4,0,0,14,14,36,1,,,,,,,,,,,,,,,,,,,,,,,,,,,,,,,,,,,,,,,,,,,,,,,,,,,,,,,,,,,,,,,,,,,,,,
,,?,0.003,0,,,,,,stimuli/images/PICTURE_491.png,ROOF,5ee19552fb6eba1caba328ae,2020-06-30_12h41.16.292,proactive,2020.1.2,Win32,60,5efb791ed4cb570da489e737,5efb87114e1b640ff5ae31ad,2,,,,,,rug,,,,,,,,,,,3,0,0,15,15,24,1,,,,,,,,,,,,,,,,,,,,,,,,,,,,,,,,,,,,,,,,,,,,,,,,,,,,,,,,,,,,,,,,,,,,,,
,,?,0,0,,,,,,stimuli/images/PICTURE_708.png,PENNY,5ee19552fb6eba1caba328ae,2020-06-30_12h41.16.292,proactive,2020.1.2,Win32,60,5efb791ed4cb570da489e737,5efb87114e1b640ff5ae31ad,2,,,,,,monkey,,,,,,,,,,,4,0,0,16,16,31,1,,,,,,,,,,,,,,,,,,,,,,,,,,,,,,,,,,,,,,,,,,,,,,,,,,,,,,,,,,,,,,,,,,,,,,
,,?,0.002,0,,,,,,stimuli/images/PICTURE_488.png,STYLE,5ee19552fb6eba1caba328ae,2020-06-30_12h41.16.292,proactive,2020.1.2,Win32,60,5efb791ed4cb570da489e737,5efb87114e1b640ff5ae31ad,2,,,,,,sun,,,,,,,,,,,4,0,0,17,17,33,1,,,,,,,,,,,,,,,,,,,,,,,,,,,,,,,,,,,,,,,,,,,,,,,,,,,,,,,,,,,,,,,,,,,,,,
,,SAKE,7.135,1,,,,,,stimuli/images/PICTURE_744.png,SAKE,5ee19552fb6eba1caba328ae,2020-06-30_12h41.16.292,proactive,2020.1.2,Win32,60,5efb791ed4cb570da489e737,5efb87114e1b640ff5ae31ad,2,,,,,,ring,,,,,,,,,,,2,0,0,18,18,17,1,,,,,,,,,,,,,,,,,,,,,,,,,,,,,,,,,,,,,,,,,,,,,,,,,,,,,,,,,,,,,,,,,,,,,,
,,?,0.004,0,,,,,,stimuli/images/PICTURE_95.png,STYLE,5ee19552fb6eba1caba328ae,2020-06-30_12h41.16.292,proactive,2020.1.2,Win32,60,5efb791ed4cb570da489e737,5efb87114e1b640ff5ae31ad,2,,,,,,suitcase,,,,,,,,,,,3,0,0,19,19,25,1,,,,,,,,,,,,,,,,,,,,,,,,,,,,,,,,,,,,,,,,,,,,,,,,,,,,,,,,,,,,,,,,,,,,,,
,,?,0.001,0,,,,,,stimuli/images/PICTURE_233.png,IDEAS,5ee19552fb6eba1caba328ae,2020-06-30_12h41.16.292,proactive,2020.1.2,Win32,60,5efb791ed4cb570da489e737,5efb87114e1b640ff5ae31ad,2,,,,,,salt,,,,,,,,,,,3,0,0,20,20,28,1,,,,,,,,,,,,,,,,,,,,,,,,,,,,,,,,,,,,,,,,,,,,,,,,,,,,,,,,,,,,,,,,,,,,,,
,,?,0.001,0,,,,,,stimuli/images/PICTURE_453.png,PLENTY,5ee19552fb6eba1caba328ae,2020-06-30_12h41.16.292,proactive,2020.1.2,Win32,60,5efb791ed4cb570da489e737,5efb87114e1b640ff5ae31ad,2,,,,,,scissors,,,,,,,,,,,6,0,0,21,21,56,1,,,,,,,,,,,,,,,,,,,,,,,,,,,,,,,,,,,,,,,,,,,,,,,,,,,,,,,,,,,,,,,,,,,,,,
,,FAMILY,3.649,1,,,,,,stimuli/images/PICTURE_302.png,FAMILY,5ee19552fb6eba1caba328ae,2020-06-30_12h41.16.292,proactive,2020.1.2,Win32,60,5efb791ed4cb570da489e737,5efb87114e1b640ff5ae31ad,2,,,,,,taxi,,,,,,,,,,,2,0,0,22,22,18,1,,,,,,,,,,,,,,,,,,,,,,,,,,,,,,,,,,,,,,,,,,,,,,,,,,,,,,,,,,,,,,,,,,,,,,
,,?,0.003,0,,,,,,stimuli/images/PICTURE_348.png,SPEECH,5ee19552fb6eba1caba328ae,2020-06-30_12h41.16.292,proactive,2020.1.2,Win32,60,5efb791ed4cb570da489e737,5efb87114e1b640ff5ae31ad,2,,,,,,pepper,,,,,,,,,,,3,0,0,23,23,20,1,,,,,,,,,,,,,,,,,,,,,,,,,,,,,,,,,,,,,,,,,,,,,,,,,,,,,,,,,,,,,,,,,,,,,,
,,?,0.001,0,,,,,,stimuli/images/PICTURE_675.png,WEAPON,5ee19552fb6eba1caba328ae,2020-06-30_12h41.16.292,proactive,2020.1.2,Win32,60,5efb791ed4cb570da489e737,5efb87114e1b640ff5ae31ad,2,,,,,,windmill,,,,,,,,,,,4,0,0,24,24,32,1,,,,,,,,,,,,,,,,,,,,,,,,,,,,,,,,,,,,,,,,,,,,,,,,,,,,,,,,,,,,,,,,,,,,,,
,,?,0.001,0,,,,,,stimuli/images/PICTURE_708.png,CLIENT,5ee19552fb6eba1caba328ae,2020-06-30_12h41.16.292,proactive,2020.1.2,Win32,60,5efb791ed4cb570da489e737,5efb87114e1b640ff5ae31ad,2,,,,,,monkey,,,,,,,,,,,1,0,0,25,25,5,1,,,,,,,,,,,,,,,,,,,,,,,,,,,,,,,,,,,,,,,,,,,,,,,,,,,,,,,,,,,,,,,,,,,,,,
,,?,0.003,0,,,,,,stimuli/images/PICTURE_667.png,PLENTY,5ee19552fb6eba1caba328ae,2020-06-30_12h41.16.292,proactive,2020.1.2,Win32,60,5efb791ed4cb570da489e737,5efb87114e1b640ff5ae31ad,2,,,,,,daisy,,,,,,,,,,,5,0,0,26,26,41,1,,,,,,,,,,,,,,,,,,,,,,,,,,,,,,,,,,,,,,,,,,,,,,,,,,,,,,,,,,,,,,,,,,,,,,
,,?,0.001,0,,,,,,stimuli/images/PICTURE_203.png,ARTIST,5ee19552fb6eba1caba328ae,2020-06-30_12h41.16.292,proactive,2020.1.2,Win32,60,5efb791ed4cb570da489e737,5efb87114e1b640ff5ae31ad,2,,,,,,cap,,,,,,,,,,,3,0,0,27,27,26,1,,,,,,,,,,,,,,,,,,,,,,,,,,,,,,,,,,,,,,,,,,,,,,,,,,,,,,,,,,,,,,,,,,,,,,
,,?,0.001,0,,,,,,stimuli/images/PICTURE_215.png,PLENTY,5ee19552fb6eba1caba328ae,2020-06-30_12h41.16.292,proactive,2020.1.2,Win32,60,5efb791ed4cb570da489e737,5efb87114e1b640ff5ae31ad,2,,,,,,boot,,,,,,,,,,,4,0,0,28,28,37,1,,,,,,,,,,,,,,,,,,,,,,,,,,,,,,,,,,,,,,,,,,,,,,,,,,,,,,,,,,,,,,,,,,,,,,
,,?,0.001,0,,,,,,stimuli/images/PICTURE_255.png,AREA,5ee19552fb6eba1caba328ae,2020-06-30_12h41.16.292,proactive,2020.1.2,Win32,60,5efb791ed4cb570da489e737,5efb87114e1b640ff5ae31ad,2,,,,,,shovel,,,,,,,,,,,3,0,0,29,29,22,1,,,,,,,,,,,,,,,,,,,,,,,,,,,,,,,,,,,,,,,,,,,,,,,,,,,,,,,,,,,,,,,,,,,,,,
,,?,0.002,0,,,,,,stimuli/images/PICTURE_314.png,SAKE,5ee19552fb6eba1caba328ae,2020-06-30_12h41.16.292,proactive,2020.1.2,Win32,60,5efb791ed4cb570da489e737,5efb87114e1b640ff5ae31ad,2,,,,,,perfume,,,,,,,,,,,1,0,0,30,30,7,1,,,,,,,,,,,,,,,,,,,,,,,,,,,,,,,,,,,,,,,,,,,,,,,,,,,,,,,,,,,,,,,,,,,,,,
,,?,0.001,0,,,,,,stimuli/images/PICTURE_160.png,LEADER,5ee19552fb6eba1caba328ae,2020-06-30_12h41.16.292,proactive,2020.1.2,Win32,60,5efb791ed4cb570da489e737,5efb87114e1b640ff5ae31ad,2,,,,,,wheelbarrow,,,,,,,,,,,1,0,0,31,31,3,1,,,,,,,,,,,,,,,,,,,,,,,,,,,,,,,,,,,,,,,,,,,,,,,,,,,,,,,,,,,,,,,,,,,,,,
,,?,0.002,0,,,,,,stimuli/images/PICTURE_469.png,LETTER,5ee19552fb6eba1caba328ae,2020-06-30_12h41.16.292,proactive,2020.1.2,Win32,60,5efb791ed4cb570da489e737,5efb87114e1b640ff5ae31ad,2,,,,,,stool,,,,,,,,,,,5,0,0,32,32,42,1,,,,,,,,,,,,,,,,,,,,,,,,,,,,,,,,,,,,,,,,,,,,,,,,,,,,,,,,,,,,,,,,,,,,,,
,,?,0.001,0,,,,,,stimuli/images/PICTURE_308.png,KIND,5ee19552fb6eba1caba328ae,2020-06-30_12h41.16.292,proactive,2020.1.2,Win32,60,5efb791ed4cb570da489e737,5efb87114e1b640ff5ae31ad,2,,,,,,dice,,,,,,,,,,,6,0,0,33,33,54,1,,,,,,,,,,,,,,,,,,,,,,,,,,,,,,,,,,,,,,,,,,,,,,,,,,,,,,,,,,,,,,,,,,,,,,
,,BEAUTY,4.91,1,,,,,,stimuli/images/PICTURE_311.png,BEAUTY,5ee19552fb6eba1caba328ae,2020-06-30_12h41.16.292,proactive,2020.1.2,Win32,60,5efb791ed4cb570da489e737,5efb87114e1b640ff5ae31ad,2,,,,,,razor,,,,,,,,,,,2,0,0,34,34,13,1,,,,,,,,,,,,,,,,,,,,,,,,,,,,,,,,,,,,,,,,,,,,,,,,,,,,,,,,,,,,,,,,,,,,,,
,,THING,4.577,1,,,,,,stimuli/images/PICTURE_85.png,THING,5ee19552fb6eba1caba328ae,2020-06-30_12h41.16.292,proactive,2020.1.2,Win32,60,5efb791ed4cb570da489e737,5efb87114e1b640ff5ae31ad,2,,,,,,diamond,,,,,,,,,,,2,0,0,35,35,15,1,,,,,,,,,,,,,,,,,,,,,,,,,,,,,,,,,,,,,,,,,,,,,,,,,,,,,,,,,,,,,,,,,,,,,,
,,GIRL,7.058,1,,,,,,stimuli/images/PICTURE_151.png,GIRL,5ee19552fb6eba1caba328ae,2020-06-30_12h41.16.292,proactive,2020.1.2,Win32,60,5efb791ed4cb570da489e737,5efb87114e1b640ff5ae31ad,2,,,,,,tray,,,,,,,,,,,2,0,0,36,36,19,1,,,,,,,,,,,,,,,,,,,,,,,,,,,,,,,,,,,,,,,,,,,,,,,,,,,,,,,,,,,,,,,,,,,,,,
,,?,0.005,0,,,,,,stimuli/images/PICTURE_32.png,JUNGLE,5ee19552fb6eba1caba328ae,2020-06-30_12h41.16.292,proactive,2020.1.2,Win32,60,5efb791ed4cb570da489e737,5efb87114e1b640ff5ae31ad,2,,,,,,crown,,,,,,,,,,,5,0,0,37,37,45,1,,,,,,,,,,,,,,,,,,,,,,,,,,,,,,,,,,,,,,,,,,,,,,,,,,,,,,,,,,,,,,,,,,,,,,
,,?,0.008,0,,,,,,stimuli/images/PICTURE_380.png,PHOTO,5ee19552fb6eba1caba328ae,2020-06-30_12h41.16.292,proactive,2020.1.2,Win32,60,5efb791ed4cb570da489e737,5efb87114e1b640ff5ae31ad,2,,,,,,gorilla,,,,,,,,,,,6,0,0,38,38,52,1,,,,,,,,,,,,,,,,,,,,,,,,,,,,,,,,,,,,,,,,,,,,,,,,,,,,,,,,,,,,,,,,,,,,,,
,,?,0.002,0,,,,,,stimuli/images/PICTURE_308.png,ESTATE,5ee19552fb6eba1caba328ae,2020-06-30_12h41.16.292,proactive,2020.1.2,Win32,60,5efb791ed4cb570da489e737,5efb87114e1b640ff5ae31ad,2,,,,,,dice,,,,,,,,,,,5,0,0,39,39,46,1,,,,,,,,,,,,,,,,,,,,,,,,,,,,,,,,,,,,,,,,,,,,,,,,,,,,,,,,,,,,,,,,,,,,,,
,,?,0.003,0,,,,,,stimuli/images/PICTURE_487.png,FLIGHT,5ee19552fb6eba1caba328ae,2020-06-30_12h41.16.292,proactive,2020.1.2,Win32,60,5efb791ed4cb570da489e737,5efb87114e1b640ff5ae31ad,2,,,,,,basket,,,,,,,,,,,1,0,0,40,40,9,1,,,,,,,,,,,,,,,,,,,,,,,,,,,,,,,,,,,,,,,,,,,,,,,,,,,,,,,,,,,,,,,,,,,,,,
,,?,0.002,0,,,,,,stimuli/images/PICTURE_380.png,DEATH,5ee19552fb6eba1caba328ae,2020-06-30_12h41.16.292,proactive,2020.1.2,Win32,60,5efb791ed4cb570da489e737,5efb87114e1b640ff5ae31ad,2,,,,,,gorilla,,,,,,,,,,,5,0,0,41,41,49,1,,,,,,,,,,,,,,,,,,,,,,,,,,,,,,,,,,,,,,,,,,,,,,,,,,,,,,,,,,,,,,,,,,,,,,
,,?,0.001,0,,,,,,stimuli/images/PICTURE_449.png,THING,5ee19552fb6eba1caba328ae,2020-06-30_12h41.16.292,proactive,2020.1.2,Win32,60,5efb791ed4cb570da489e737,5efb87114e1b640ff5ae31ad,2,,,,,,bench,,,,,,,,,,,6,0,0,42,42,59,1,,,,,,,,,,,,,,,,,,,,,,,,,,,,,,,,,,,,,,,,,,,,,,,,,,,,,,,,,,,,,,,,,,,,,,
,,?,0.002,0,,,,,,stimuli/images/PICTURE_327.png,BEAUTY,5ee19552fb6eba1caba328ae,2020-06-30_12h41.16.292,proactive,2020.1.2,Win32,60,5efb791ed4cb570da489e737,5efb87114e1b640ff5ae31ad,2,,,,,,helmet,,,,,,,,,,,5,0,0,43,43,48,1,,,,,,,,,,,,,,,,,,,,,,,,,,,,,,,,,,,,,,,,,,,,,,,,,,,,,,,,,,,,,,,,,,,,,,
,,?,0.001,0,,,,,,stimuli/images/PICTURE_504.png,BODY,5ee19552fb6eba1caba328ae,2020-06-30_12h41.16.292,proactive,2020.1.2,Win32,60,5efb791ed4cb570da489e737,5efb87114e1b640ff5ae31ad,2,,,,,,wheel,,,,,,,,,,,1,0,0,44,44,8,1,,,,,,,,,,,,,,,,,,,,,,,,,,,,,,,,,,,,,,,,,,,,,,,,,,,,,,,,,,,,,,,,,,,,,,
,,GODS,8.912,1,,,,,,stimuli/images/PICTURE_314.png,GODS,5ee19552fb6eba1caba328ae,2020-06-30_12h41.16.292,proactive,2020.1.2,Win32,60,5efb791ed4cb570da489e737,5efb87114e1b640ff5ae31ad,2,,,,,,perfume,,,,,,,,,,,2,0,0,45,45,11,1,,,,,,,,,,,,,,,,,,,,,,,,,,,,,,,,,,,,,,,,,,,,,,,,,,,,,,,,,,,,,,,,,,,,,,
,,?,0.005,0,,,,,,stimuli/images/PICTURE_177.png,CARS,5ee19552fb6eba1caba328ae,2020-06-30_12h41.16.292,proactive,2020.1.2,Win32,60,5efb791ed4cb570da489e737,5efb87114e1b640ff5ae31ad,2,,,,,,mushroom,,,,,,,,,,,4,0,0,46,46,35,1,,,,,,,,,,,,,,,,,,,,,,,,,,,,,,,,,,,,,,,,,,,,,,,,,,,,,,,,,,,,,,,,,,,,,,
,,?,0.003,0,,,,,,stimuli/images/PICTURE_453.png,DUDE,5ee19552fb6eba1caba328ae,2020-06-30_12h41.16.292,proactive,2020.1.2,Win32,60,5efb791ed4cb570da489e737,5efb87114e1b640ff5ae31ad,2,,,,,,scissors,,,,,,,,,,,3,0,0,47,47,27,1,,,,,,,,,,,,,,,,,,,,,,,,,,,,,,,,,,,,,,,,,,,,,,,,,,,,,,,,,,,,,,,,,,,,,,
,,?,0.002,0,,,,,,stimuli/images/PICTURE_509.png,PHOTO,5ee19552fb6eba1caba328ae,2020-06-30_12h41.16.292,proactive,2020.1.2,Win32,60,5efb791ed4cb570da489e737,5efb87114e1b640ff5ae31ad,2,,,,,,telephone,,,,,,,,,,,3,0,0,48,48,21,1,,,,,,,,,,,,,,,,,,,,,,,,,,,,,,,,,,,,,,,,,,,,,,,,,,,,,,,,,,,,,,,,,,,,,,
,,?,0.002,0,,,,,,stimuli/images/PICTURE_208.png,MONTH,5ee19552fb6eba1caba328ae,2020-06-30_12h41.16.292,proactive,2020.1.2,Win32,60,5efb791ed4cb570da489e737,5efb87114e1b640ff5ae31ad,2,,,,,,microphone,,,,,,,,,,,6,0,0,49,49,53,1,,,,,,,,,,,,,,,,,,,,,,,,,,,,,,,,,,,,,,,,,,,,,,,,,,,,,,,,,,,,,,,,,,,,,,
,,?,0.001,0,,,,,,stimuli/images/PICTURE_356.png,DANGER,5ee19552fb6eba1caba328ae,2020-06-30_12h41.16.292,proactive,2020.1.2,Win32,60,5efb791ed4cb570da489e737,5efb87114e1b640ff5ae31ad,2,,,,,,pawn,,,,,,,,,,,6,0,0,50,50,55,1,,,,,,,,,,,,,,,,,,,,,,,,,,,,,,,,,,,,,,,,,,,,,,,,,,,,,,,,,,,,,,,,,,,,,,
,,?,0.002,0,,,,,,stimuli/images/PICTURE_233.png,WOMEN,5ee19552fb6eba1caba328ae,2020-06-30_12h41.16.292,proactive,2020.1.2,Win32,60,5efb791ed4cb570da489e737,5efb87114e1b640ff5ae31ad,2,,,,,,salt,,,,,,,,,,,4,0,0,51,51,38,1,,,,,,,,,,,,,,,,,,,,,,,,,,,,,,,,,,,,,,,,,,,,,,,,,,,,,,,,,,,,,,,,,,,,,,
,,?,0.002,0,,,,,,stimuli/images/PICTURE_654.png,VALLEY,5ee19552fb6eba1caba328ae,2020-06-30_12h41.16.292,proactive,2020.1.2,Win32,60,5efb791ed4cb570da489e737,5efb87114e1b640ff5ae31ad,2,,,,,,pencil,,,,,,,,,,,1,0,0,52,52,1,1,,,,,,,,,,,,,,,,,,,,,,,,,,,,,,,,,,,,,,,,,,,,,,,,,,,,,,,,,,,,,,,,,,,,,,
,,KILLER,5.576,0,,,,,,stimuli/images/PICTURE_692.png,MONTH,5ee19552fb6eba1caba328ae,2020-06-30_12h41.16.292,proactive,2020.1.2,Win32,60,5efb791ed4cb570da489e737,5efb87114e1b640ff5ae31ad,2,,,,,,cherry,,,,,,,,,,,2,0,0,53,53,16,1,,,,,,,,,,,,,,,,,,,,,,,,,,,,,,,,,,,,,,,,,,,,,,,,,,,,,,,,,,,,,,,,,,,,,,
,,?,0.005,0,,,,,,stimuli/images/PICTURE_708.png,YARD,5ee19552fb6eba1caba328ae,2020-06-30_12h41.16.292,proactive,2020.1.2,Win32,60,5efb791ed4cb570da489e737,5efb87114e1b640ff5ae31ad,2,,,,,,monkey,,,,,,,,,,,3,0,0,54,54,29,1,,,,,,,,,,,,,,,,,,,,,,,,,,,,,,,,,,,,,,,,,,,,,,,,,,,,,,,,,,,,,,,,,,,,,,
,,?,0.001,0,,,,,,stimuli/images/PICTURE_339.png,PLENTY,5ee19552fb6eba1caba328ae,2020-06-30_12h41.16.292,proactive,2020.1.2,Win32,60,5efb791ed4cb570da489e737,5efb87114e1b640ff5ae31ad,2,,,,,,backpack,,,,,,,,,,,1,0,0,55,55,0,1,,,,,,,,,,,,,,,,,,,,,,,,,,,,,,,,,,,,,,,,,,,,,,,,,,,,,,,,,,,,,,,,,,,,,,
,,?,0.002,0,,,,,,stimuli/images/PICTURE_208.png,THING,5ee19552fb6eba1caba328ae,2020-06-30_12h41.16.292,proactive,2020.1.2,Win32,60,5efb791ed4cb570da489e737,5efb87114e1b640ff5ae31ad,2,,,,,,microphone,,,,,,,,,,,5,0,0,56,56,47,1,,,,,,,,,,,,,,,,,,,,,,,,,,,,,,,,,,,,,,,,,,,,,,,,,,,,,,,,,,,,,,,,,,,,,,
,,?,0.004,0,,,,,,stimuli/images/PICTURE_469.png,ARTIST,5ee19552fb6eba1caba328ae,2020-06-30_12h41.16.292,proactive,2020.1.2,Win32,60,5efb791ed4cb570da489e737,5efb87114e1b640ff5ae31ad,2,,,,,,stool,,,,,,,,,,,1,0,0,57,57,6,1,,,,,,,,,,,,,,,,,,,,,,,,,,,,,,,,,,,,,,,,,,,,,,,,,,,,,,,,,,,,,,,,,,,,,,
,,?,0.001,0,,,,,,stimuli/images/PICTURE_147.png,MOMENT,5ee19552fb6eba1caba328ae,2020-06-30_12h41.16.292,proactive,2020.1.2,Win32,60,5efb791ed4cb570da489e737,5efb87114e1b640ff5ae31ad,2,,,,,,hanger,,,,,,,,,,,6,0,0,58,58,51,1,,,,,,,,,,,,,,,,,,,,,,,,,,,,,,,,,,,,,,,,,,,,,,,,,,,,,,,,,,,,,,,,,,,,,,
,,ADVICE,6.068,1,,,,,,stimuli/images/PICTURE_285.png,ADVICE,5ee19552fb6eba1caba328ae,2020-06-30_12h41.16.292,proactive,2020.1.2,Win32,60,5efb791ed4cb570da489e737,5efb87114e1b640ff5ae31ad,2,,,,,,carrot,,,,,,,,,,,2,0,0,59,59,12,1,,,,,,,,,,,,,,,,,,,,,,,,,,,,,,,,,,,,,,,,,,,,,,,,,,,,,,,,,,,,,,,,,,,,,,
,,,,,,,,,,,,5ee19552fb6eba1caba328ae,2020-06-30_12h41.16.292,proactive,2020.1.2,Win32,60,5efb791ed4cb570da489e737,5efb87114e1b640ff5ae31ad,2,,,,,,,,,,,,,,,,,,,,,,,,0,1,1,0,1,stimuli/learn-block1.csv,,,,,,,,,,,,,,,,,,,,,,,,,,,,,,,,,,,,,,,,,,,,,,,,,,,,,,,,,,,,,,,,
,,,,,,,,,,stimuli/images/PICTURE_356.png,CANDY,5ee19552fb6eba1caba328ae,2020-06-30_12h41.16.292,proactive,2020.1.2,Win32,60,5efb791ed4cb570da489e737,5efb87114e1b640ff5ae31ad,2,,,,,,pawn,,,,,,0,0,0,46,1,5,2,,,,,,,,,,,,,,,,,,,,,,,,,,,,,,,,,,,,,,,,,,,,,,,,,,,,,,,,,,,,,,,,,,,,,,,,,,,
,,,,,,,,,,stimuli/images/PICTURE_296.png,CLOCK,5ee19552fb6eba1caba328ae,2020-06-30_12h41.16.292,proactive,2020.1.2,Win32,60,5efb791ed4cb570da489e737,5efb87114e1b640ff5ae31ad,2,,,,,,bolt,,,,,,0,1,1,18,1,2,2,,,,,,,,,,,,,,,,,,,,,,,,,,,,,,,,,,,,,,,,,,,,,,,,,,,,,,,,,,,,,,,,,,,,,,,,,,,
,,,,,,,,,,stimuli/images/PICTURE_297.png,BODY,5ee19552fb6eba1caba328ae,2020-06-30_12h41.16.292,proactive,2020.1.2,Win32,60,5efb791ed4cb570da489e737,5efb87114e1b640ff5ae31ad,2,,,,,,aeroplane,,,,,,0,2,2,51,1,6,2,,,,,,,,,,,,,,,,,,,,,,,,,,,,,,,,,,,,,,,,,,,,,,,,,,,,,,,,,,,,,,,,,,,,,,,,,,,
,,,,,,,,,,stimuli/images/PICTURE_470.png,BEAUTY,5ee19552fb6eba1caba328ae,2020-06-30_12h41.16.292,proactive,2020.1.2,Win32,60,5efb791ed4cb570da489e737,5efb87114e1b640ff5ae31ad,2,,,,,,motorbike,,,,,,0,3,3,26,1,3,2,,,,,,,,,,,,,,,,,,,,,,,,,,,,,,,,,,,,,,,,,,,,,,,,,,,,,,,,,,,,,,,,,,,,,,,,,,,
,,,,,,,,,,stimuli/images/PICTURE_654.png,COPS,5ee19552fb6eba1caba328ae,2020-06-30_12h41.16.292,proactive,2020.1.2,Win32,60,5efb791ed4cb570da489e737,5efb87114e1b640ff5ae31ad,2,,,,,,pencil,,,,,,0,4,4,10,1,2,2,,,,,,,,,,,,,,,,,,,,,,,,,,,,,,,,,,,,,,,,,,,,,,,,,,,,,,,,,,,,,,,,,,,,,,,,,,,
,,,,,,,,,,stimuli/images/PICTURE_2.png,YARD,5ee19552fb6eba1caba328ae,2020-06-30_12h41.16.292,proactive,2020.1.2,Win32,60,5efb791ed4cb570da489e737,5efb87114e1b640ff5ae31ad,2,,,,,,tyre,,,,,,0,5,5,55,1,6,2,,,,,,,,,,,,,,,,,,,,,,,,,,,,,,,,,,,,,,,,,,,,,,,,,,,,,,,,,,,,,,,,,,,,,,,,,,,
,,,,,,,,,,stimuli/images/PICTURE_403.png,FAMILY,5ee19552fb6eba1caba328ae,2020-06-30_12h41.16.292,proactive,2020.1.2,Win32,60,5efb791ed4cb570da489e737,5efb87114e1b640ff5ae31ad,2,,,,,,cathedral,,,,,,0,6,6,9,1,1,2,,,,,,,,,,,,,,,,,,,,,,,,,,,,,,,,,,,,,,,,,,,,,,,,,,,,,,,,,,,,,,,,,,,,,,,,,,,
,,,,,,,,,,stimuli/images/PICTURE_470.png,MOMENT,5ee19552fb6eba1caba328ae,2020-06-30_12h41.16.292,proactive,2020.1.2,Win32,60,5efb791ed4cb570da489e737,5efb87114e1b640ff5ae31ad,2,,,,,,motorbike,,,,,,0,7,7,40,1,5,2,,,,,,,,,,,,,,,,,,,,,,,,,,,,,,,,,,,,,,,,,,,,,,,,,,,,,,,,,,,,,,,,,,,,,,,,,,,
,,,,,,,,,,stimuli/images/PICTURE_405.png,JUNGLE,5ee19552fb6eba1caba328ae,2020-06-30_12h41.16.292,proactive,2020.1.2,Win32,60,5efb791ed4cb570da489e737,5efb87114e1b640ff5ae31ad,2,,,,,,anchor,,,,,,0,8,8,58,1,6,2,,,,,,,,,,,,,,,,,,,,,,,,,,,,,,,,,,,,,,,,,,,,,,,,,,,,,,,,,,,,,,,,,,,,,,,,,,,
,,,,,,,,,,stimuli/images/PICTURE_57.png,NATION,5ee19552fb6eba1caba328ae,2020-06-30_12h41.16.292,proactive,2020.1.2,Win32,60,5efb791ed4cb570da489e737,5efb87114e1b640ff5ae31ad,2,,,,,,stamp,,,,,,0,9,9,21,1,3,2,,,,,,,,,,,,,,,,,,,,,,,,,,,,,,,,,,,,,,,,,,,,,,,,,,,,,,,,,,,,,,,,,,,,,,,,,,,
,,,,,,,,,,stimuli/images/PICTURE_487.png,ROOF,5ee19552fb6eba1caba328ae,2020-06-30_12h41.16.292,proactive,2020.1.2,Win32,60,5efb791ed4cb570da489e737,5efb87114e1b640ff5ae31ad,2,,,,,,basket,,,,,,0,10,10,50,1,6,2,,,,,,,,,,,,,,,,,,,,,,,,,,,,,,,,,,,,,,,,,,,,,,,,,,,,,,,,,,,,,,,,,,,,,,,,,,,
,,,,,,,,,,stimuli/images/PICTURE_123.png,SALE,5ee19552fb6eba1caba328ae,2020-06-30_12h41.16.292,proactive,2020.1.2,Win32,60,5efb791ed4cb570da489e737,5efb87114e1b640ff5ae31ad,2,,,,,,dart,,,,,,0,11,11,8,1,1,2,,,,,,,,,,,,,,,,,,,,,,,,,,,,,,,,,,,,,,,,,,,,,,,,,,,,,,,,,,,,,,,,,,,,,,,,,,,
,,,,,,,,,,stimuli/images/PICTURE_147.png,LEADER,5ee19552fb6eba1caba328ae,2020-06-30_12h41.16.292,proactive,2020.1.2,Win32,60,5efb791ed4cb570da489e737,5efb87114e1b640ff5ae31ad,2,,,,,,hanger,,,,,,0,12,12,33,1,4,2,,,,,,,,,,,,,,,,,,,,,,,,,,,,,,,,,,,,,,,,,,,,,,,,,,,,,,,,,,,,,,,,,,,,,,,,,,,
,,,,,,,,,,stimuli/images/PICTURE_453.png,FAMILY,5ee19552fb6eba1caba328ae,2020-06-30_12h41.16.292,proactive,2020.1.2,Win32,60,5efb791ed4cb570da489e737,5efb87114e1b640ff5ae31ad,2,,,,,,scissors,,,,,,0,13,13,48,1,5,2,,,,,,,,,,,,,,,,,,,,,,,,,,,,,,,,,,,,,,,,,,,,,,,,,,,,,,,,,,,,,,,,,,,,,,,,,,,
,,,,,,,,,,stimuli/images/PICTURE_160.png,HOTEL,5ee19552fb6eba1caba328ae,2020-06-30_12h41.16.292,proactive,2020.1.2,Win32,60,5efb791ed4cb570da489e737,5efb87114e1b640ff5ae31ad,2,,,,,,wheelbarrow,,,,,,0,14,14,16,1,2,2,,,,,,,,,,,,,,,,,,,,,,,,,,,,,,,,,,,,,,,,,,,,,,,,,,,,,,,,,,,,,,,,,,,,,,,,,,,
,,,,,,,,,,stimuli/images/PICTURE_215.png,LEADER,5ee19552fb6eba1caba328ae,2020-06-30_12h41.16.292,proactive,2020.1.2,Win32,60,5efb791ed4cb570da489e737,5efb87114e1b640ff5ae31ad,2,,,,,,boot,,,,,,0,15,15,43,1,5,2,,,,,,,,,,,,,,,,,,,,,,,,,,,,,,,,,,,,,,,,,,,,,,,,,,,,,,,,,,,,,,,,,,,,,,,,,,,
,,,,,,,,,,stimuli/images/PICTURE_504.png,HOUSE,5ee19552fb6eba1caba328ae,2020-06-30_12h41.16.292,proactive,2020.1.2,Win32,60,5efb791ed4cb570da489e737,5efb87114e1b640ff5ae31ad,2,,,,,,wheel,,,,,,0,16,16,36,1,4,2,,,,,,,,,,,,,,,,,,,,,,,,,,,,,,,,,,,,,,,,,,,,,,,,,,,,,,,,,,,,,,,,,,,,,,,,,,,
,,,,,,,,,,stimuli/images/PICTURE_208.png,SPIRIT,5ee19552fb6eba1caba328ae,2020-06-30_12h41.16.292,proactive,2020.1.2,Win32,60,5efb791ed4cb570da489e737,5efb87114e1b640ff5ae31ad,2,,,,,,microphone,,,,,,0,17,17,28,1,3,2,,,,,,,,,,,,,,,,,,,,,,,,,,,,,,,,,,,,,,,,,,,,,,,,,,,,,,,,,,,,,,,,,,,,,,,,,,,
,,,,,,,,,,stimuli/images/PICTURE_327.png,LEADER,5ee19552fb6eba1caba328ae,2020-06-30_12h41.16.292,proactive,2020.1.2,Win32,60,5efb791ed4cb570da489e737,5efb87114e1b640ff5ae31ad,2,,,,,,helmet,,,,,,0,18,18,17,1,2,2,,,,,,,,,,,,,,,,,,,,,,,,,,,,,,,,,,,,,,,,,,,,,,,,,,,,,,,,,,,,,,,,,,,,,,,,,,,
,,,,,,,,,,stimuli/images/PICTURE_141.png,CLIENT,5ee19552fb6eba1caba328ae,2020-06-30_12h41.16.292,proactive,2020.1.2,Win32,60,5efb791ed4cb570da489e737,5efb87114e1b640ff5ae31ad,2,,,,,,sunflower,,,,,,0,19,19,30,1,4,2,,,,,,,,,,,,,,,,,,,,,,,,,,,,,,,,,,,,,,,,,,,,,,,,,,,,,,,,,,,,,,,,,,,,,,,,,,,
,,,,,,,,,,stimuli/images/PICTURE_57.png,CASINO,5ee19552fb6eba1caba328ae,2020-06-30_12h41.16.292,proactive,2020.1.2,Win32,60,5efb791ed4cb570da489e737,5efb87114e1b640ff5ae31ad,2,,,,,,stamp,,,,,,0,20,20,12,1,2,2,,,,,,,,,,,,,,,,,,,,,,,,,,,,,,,,,,,,,,,,,,,,,,,,,,,,,,,,,,,,,,,,,,,,,,,,,,,
,,,,,,,,,,stimuli/images/PICTURE_32.png,LETTER,5ee19552fb6eba1caba328ae,2020-06-30_12h41.16.292,proactive,2020.1.2,Win32,60,5efb791ed4cb570da489e737,5efb87114e1b640ff5ae31ad,2,,,,,,crown,,,,,,0,21,21,56,1,6,2,,,,,,,,,,,,,,,,,,,,,,,,,,,,,,,,,,,,,,,,,,,,,,,,,,,,,,,,,,,,,,,,,,,,,,,,,,,
,,,,,,,,,,stimuli/images/PICTURE_255.png,PENNY,5ee19552fb6eba1caba328ae,2020-06-30_12h41.16.292,proactive,2020.1.2,Win32,60,5efb791ed4cb570da489e737,5efb87114e1b640ff5ae31ad,2,,,,,,shovel,,,,,,0,22,22,19,1,2,2,,,,,,,,,,,,,,,,,,,,,,,,,,,,,,,,,,,,,,,,,,,,,,,,,,,,,,,,,,,,,,,,,,,,,,,,,,,
,,,,,,,,,,stimuli/images/PICTURE_2.png,AREA,5ee19552fb6eba1caba328ae,2020-06-30_12h41.16.292,proactive,2020.1.2,Win32,60,5efb791ed4cb570da489e737,5efb87114e1b640ff5ae31ad,2,,,,,,tyre,,,,,,0,23,23,32,1,4,2,,,,,,,,,,,,,,,,,,,,,,,,,,,,,,,,,,,,,,,,,,,,,,,,,,,,,,,,,,,,,,,,,,,,,,,,,,,
,,,,,,,,,,stimuli/images/PICTURE_655.png,SALE,5ee19552fb6eba1caba328ae,2020-06-30_12h41.16.292,proactive,2020.1.2,Win32,60,5efb791ed4cb570da489e737,5efb87114e1b640ff5ae31ad,2,,,,,,megaphone,,,,,,0,24,24,57,1,6,2,,,,,,,,,,,,,,,,,,,,,,,,,,,,,,,,,,,,,,,,,,,,,,,,,,,,,,,,,,,,,,,,,,,,,,,,,,,
,,,,,,,,,,stimuli/images/PICTURE_688.png,CLOCK,5ee19552fb6eba1caba328ae,2020-06-30_12h41.16.292,proactive,2020.1.2,Win32,60,5efb791ed4cb570da489e737,5efb87114e1b640ff5ae31ad,2,,,,,,runner,,,,,,0,25,25,42,1,5,2,,,,,,,,,,,,,,,,,,,,,,,,,,,,,,,,,,,,,,,,,,,,,,,,,,,,,,,,,,,,,,,,,,,,,,,,,,,
,,,,,,,,,,stimuli/images/PICTURE_677.png,FAMILY,5ee19552fb6eba1caba328ae,2020-06-30_12h41.16.292,proactive,2020.1.2,Win32,60,5efb791ed4cb570da489e737,5efb87114e1b640ff5ae31ad,2,,,,,,map,,,,,,0,26,26,53,1,6,2,,,,,,,,,,,,,,,,,,,,,,,,,,,,,,,,,,,,,,,,,,,,,,,,,,,,,,,,,,,,,,,,,,,,,,,,,,,
,,,,,,,,,,stimuli/images/PICTURE_750.png,POLICY,5ee19552fb6eba1caba328ae,2020-06-30_12h41.16.292,proactive,2020.1.2,Win32,60,5efb791ed4cb570da489e737,5efb87114e1b640ff5ae31ad,2,,,,,,kettle,,,,,,0,27,27,44,1,5,2,,,,,,,,,,,,,,,,,,,,,,,,,,,,,,,,,,,,,,,,,,,,,,,,,,,,,,,,,,,,,,,,,,,,,,,,,,,
,,,,,,,,,,stimuli/images/PICTURE_487.png,POLICY,5ee19552fb6eba1caba328ae,2020-06-30_12h41.16.292,proactive,2020.1.2,Win32,60,5efb791ed4cb570da489e737,5efb87114e1b640ff5ae31ad,2,,,,,,basket,,,,,,0,28,28,34,1,4,2,,,,,,,,,,,,,,,,,,,,,,,,,,,,,,,,,,,,,,,,,,,,,,,,,,,,,,,,,,,,,,,,,,,,,,,,,,,
,,,,,,,,,,stimuli/images/PICTURE_348.png,TOILET,5ee19552fb6eba1caba328ae,2020-06-30_12h41.16.292,proactive,2020.1.2,Win32,60,5efb791ed4cb570da489e737,5efb87114e1b640ff5ae31ad,2,,,,,,pepper,,,,,,0,29,29,4,1,1,2,,,,,,,,,,,,,,,,,,,,,,,,,,,,,,,,,,,,,,,,,,,,,,,,,,,,,,,,,,,,,,,,,,,,,,,,,,,
,,,,,,,,,,stimuli/images/PICTURE_405.png,JUNGLE,5ee19552fb6eba1caba328ae,2020-06-30_12h41.16.292,proactive,2020.1.2,Win32,60,5efb791ed4cb570da489e737,5efb87114e1b640ff5ae31ad,2,,,,,,anchor,,,,,,0,30,30,13,1,2,2,,,,,,,,,,,,,,,,,,,,,,,,,,,,,,,,,,,,,,,,,,,,,,,,,,,,,,,,,,,,,,,,,,,,,,,,,,,
,,,,,,,,,,stimuli/images/PICTURE_95.png,NIGHT,5ee19552fb6eba1caba328ae,2020-06-30_12h41.16.292,proactive,2020.1.2,Win32,60,5efb791ed4cb570da489e737,5efb87114e1b640ff5ae31ad,2,,,,,,suitcase,,,,,,0,31,31,37,1,4,2,,,,,,,,,,,,,,,,,,,,,,,,,,,,,,,,,,,,,,,,,,,,,,,,,,,,,,,,,,,,,,,,,,,,,,,,,,,
,,,,,,,,,,stimuli/images/PICTURE_311.png,TOILET,5ee19552fb6eba1caba328ae,2020-06-30_12h41.16.292,proactive,2020.1.2,Win32,60,5efb791ed4cb570da489e737,5efb87114e1b640ff5ae31ad,2,,,,,,razor,,,,,,0,32,32,54,1,6,2,,,,,,,,,,,,,,,,,,,,,,,,,,,,,,,,,,,,,,,,,,,,,,,,,,,,,,,,,,,,,,,,,,,,,,,,,,,
,,,,,,,,,,stimuli/images/PICTURE_491.png,SERIES,5ee19552fb6eba1caba328ae,2020-06-30_12h41.16.292,proactive,2020.1.2,Win32,60,5efb791ed4cb570da489e737,5efb87114e1b640ff5ae31ad,2,,,,,,rug,,,,,,0,33,33,39,1,4,2,,,,,,,,,,,,,,,,,,,,,,,,,,,,,,,,,,,,,,,,,,,,,,,,,,,,,,,,,,,,,,,,,,,,,,,,,,,
,,,,,,,,,,stimuli/images/PICTURE_2.png,JUNGLE,5ee19552fb6eba1caba328ae,2020-06-30_12h41.16.292,proactive,2020.1.2,Win32,60,5efb791ed4cb570da489e737,5efb87114e1b640ff5ae31ad,2,,,,,,tyre,,,,,,0,34,34,1,1,1,2,,,,,,,,,,,,,,,,,,,,,,,,,,,,,,,,,,,,,,,,,,,,,,,,,,,,,,,,,,,,,,,,,,,,,,,,,,,
,,,,,,,,,,stimuli/images/PICTURE_708.png,VALLEY,5ee19552fb6eba1caba328ae,2020-06-30_12h41.16.292,proactive,2020.1.2,Win32,60,5efb791ed4cb570da489e737,5efb87114e1b640ff5ae31ad,2,,,,,,monkey,,,,,,0,35,35,45,1,5,2,,,,,,,,,,,,,,,,,,,,,,,,,,,,,,,,,,,,,,,,,,,,,,,,,,,,,,,,,,,,,,,,,,,,,,,,,,,
,,,,,,,,,,stimuli/images/PICTURE_654.png,YEAR,5ee19552fb6eba1caba328ae,2020-06-30_12h41.16.292,proactive,2020.1.2,Win32,60,5efb791ed4cb570da489e737,5efb87114e1b640ff5ae31ad,2,,,,,,pencil,,,,,,0,36,36,41,1,5,2,,,,,,,,,,,,,,,,,,,,,,,,,,,,,,,,,,,,,,,,,,,,,,,,,,,,,,,,,,,,,,,,,,,,,,,,,,,
,,,,,,,,,,stimuli/images/PICTURE_18.png,RIVER,5ee19552fb6eba1caba328ae,2020-06-30_12h41.16.292,proactive,2020.1.2,Win32,60,5efb791ed4cb570da489e737,5efb87114e1b640ff5ae31ad,2,,,,,,planet,,,,,,0,37,37,22,1,3,2,,,,,,,,,,,,,,,,,,,,,,,,,,,,,,,,,,,,,,,,,,,,,,,,,,,,,,,,,,,,,,,,,,,,,,,,,,,
,,,,,,,,,,stimuli/images/PICTURE_509.png,BATH,5ee19552fb6eba1caba328ae,2020-06-30_12h41.16.292,proactive,2020.1.2,Win32,60,5efb791ed4cb570da489e737,5efb87114e1b640ff5ae31ad,2,,,,,,telephone,,,,,,0,38,38,15,1,2,2,,,,,,,,,,,,,,,,,,,,,,,,,,,,,,,,,,,,,,,,,,,,,,,,,,,,,,,,,,,,,,,,,,,,,,,,,,,
,,,,,,,,,,stimuli/images/PICTURE_285.png,PRINCE,5ee19552fb6eba1caba328ae,2020-06-30_12h41.16.292,proactive,2020.1.2,Win32,60,5efb791ed4cb570da489e737,5efb87114e1b640ff5ae31ad,2,,,,,,carrot,,,,,,0,39,39,20,1,3,2,,,,,,,,,,,,,,,,,,,,,,,,,,,,,,,,,,,,,,,,,,,,,,,,,,,,,,,,,,,,,,,,,,,,,,,,,,,
,,,,,,,,,,stimuli/images/PICTURE_677.png,PHOTO,5ee19552fb6eba1caba328ae,2020-06-30_12h41.16.292,proactive,2020.1.2,Win32,60,5efb791ed4cb570da489e737,5efb87114e1b640ff5ae31ad,2,,,,,,map,,,,,,0,40,40,14,1,2,2,,,,,,,,,,,,,,,,,,,,,,,,,,,,,,,,,,,,,,,,,,,,,,,,,,,,,,,,,,,,,,,,,,,,,,,,,,,
,,,,,,,,,,stimuli/images/PICTURE_509.png,MILLER,5ee19552fb6eba1caba328ae,2020-06-30_12h41.16.292,proactive,2020.1.2,Win32,60,5efb791ed4cb570da489e737,5efb87114e1b640ff5ae31ad,2,,,,,,telephone,,,,,,0,41,41,49,1,5,2,,,,,,,,,,,,,,,,,,,,,,,,,,,,,,,,,,,,,,,,,,,,,,,,,,,,,,,,,,,,,,,,,,,,,,,,,,,
,,,,,,,,,,stimuli/images/PICTURE_692.png,DUDE,5ee19552fb6eba1caba328ae,2020-06-30_12h41.16.292,proactive,2020.1.2,Win32,60,5efb791ed4cb570da489e737,5efb87114e1b640ff5ae31ad,2,,,,,,cherry,,,,,,0,42,42,47,1,5,2,,,,,,,,,,,,,,,,,,,,,,,,,,,,,,,,,,,,,,,,,,,,,,,,,,,,,,,,,,,,,,,,,,,,,,,,,,,
,,,,,,,,,,stimuli/images/PICTURE_348.png,DUDE,5ee19552fb6eba1caba328ae,2020-06-30_12h41.16.292,proactive,2020.1.2,Win32,60,5efb791ed4cb570da489e737,5efb87114e1b640ff5ae31ad,2,,,,,,pepper,,,,,,0,43,43,59,1,6,2,,,,,,,,,,,,,,,,,,,,,,,,,,,,,,,,,,,,,,,,,,,,,,,,,,,,,,,,,,,,,,,,,,,,,,,,,,,
,,,,,,,,,,stimuli/images/PICTURE_177.png,HOUSE,5ee19552fb6eba1caba328ae,2020-06-30_12h41.16.292,proactive,2020.1.2,Win32,60,5efb791ed4cb570da489e737,5efb87114e1b640ff5ae31ad,2,,,,,,mushroom,,,,,,0,44,44,25,1,3,2,,,,,,,,,,,,,,,,,,,,,,,,,,,,,,,,,,,,,,,,,,,,,,,,,,,,,,,,,,,,,,,,,,,,,,,,,,,
,,,,,,,,,,stimuli/images/PICTURE_57.png,CANDY,5ee19552fb6eba1caba328ae,2020-06-30_12h41.16.292,proactive,2020.1.2,Win32,60,5efb791ed4cb570da489e737,5efb87114e1b640ff5ae31ad,2,,,,,,stamp,,,,,,0,45,45,52,1,6,2,,,,,,,,,,,,,,,,,,,,,,,,,,,,,,,,,,,,,,,,,,,,,,,,,,,,,,,,,,,,,,,,,,,,,,,,,,,
,,,,,,,,,,stimuli/images/PICTURE_509.png,SHOTS,5ee19552fb6eba1caba328ae,2020-06-30_12h41.16.292,proactive,2020.1.2,Win32,60,5efb791ed4cb570da489e737,5efb87114e1b640ff5ae31ad,2,,,,,,telephone,,,,,,0,46,46,7,1,1,2,,,,,,,,,,,,,,,,,,,,,,,,,,,,,,,,,,,,,,,,,,,,,,,,,,,,,,,,,,,,,,,,,,,,,,,,,,,
,,,,,,,,,,stimuli/images/PICTURE_33.png,COPS,5ee19552fb6eba1caba328ae,2020-06-30_12h41.16.292,proactive,2020.1.2,Win32,60,5efb791ed4cb570da489e737,5efb87114e1b640ff5ae31ad,2,,,,,,frame,,,,,,0,47,47,29,1,3,2,,,,,,,,,,,,,,,,,,,,,,,,,,,,,,,,,,,,,,,,,,,,,,,,,,,,,,,,,,,,,,,,,,,,,,,,,,,
,,,,,,,,,,stimuli/images/PICTURE_452.png,COPS,5ee19552fb6eba1caba328ae,2020-06-30_12h41.16.292,proactive,2020.1.2,Win32,60,5efb791ed4cb570da489e737,5efb87114e1b640ff5ae31ad,2,,,,,,watch,,,,,,0,48,48,0,1,1,2,,,,,,,,,,,,,,,,,,,,,,,,,,,,,,,,,,,,,,,,,,,,,,,,,,,,,,,,,,,,,,,,,,,,,,,,,,,
,,,,,,,,,,stimuli/images/PICTURE_314.png,SPEECH,5ee19552fb6eba1caba328ae,2020-06-30_12h41.16.292,proactive,2020.1.2,Win32,60,5efb791ed4cb570da489e737,5efb87114e1b640ff5ae31ad,2,,,,,,perfume,,,,,,0,49,49,35,1,4,2,,,,,,,,,,,,,,,,,,,,,,,,,,,,,,,,,,,,,,,,,,,,,,,,,,,,,,,,,,,,,,,,,,,,,,,,,,,
,,,,,,,,,,stimuli/images/PICTURE_311.png,FLESH,5ee19552fb6eba1caba328ae,2020-06-30_12h41.16.292,proactive,2020.1.2,Win32,60,5efb791ed4cb570da489e737,5efb87114e1b640ff5ae31ad,2,,,,,,razor,,,,,,0,50,50,3,1,1,2,,,,,,,,,,,,,,,,,,,,,,,,,,,,,,,,,,,,,,,,,,,,,,,,,,,,,,,,,,,,,,,,,,,,,,,,,,,
,,,,,,,,,,stimuli/images/PICTURE_215.png,BOYS,5ee19552fb6eba1caba328ae,2020-06-30_12h41.16.292,proactive,2020.1.2,Win32,60,5efb791ed4cb570da489e737,5efb87114e1b640ff5ae31ad,2,,,,,,boot,,,,,,0,51,51,24,1,3,2,,,,,,,,,,,,,,,,,,,,,,,,,,,,,,,,,,,,,,,,,,,,,,,,,,,,,,,,,,,,,,,,,,,,,,,,,,,
,,,,,,,,,,stimuli/images/PICTURE_93.png,GIRL,5ee19552fb6eba1caba328ae,2020-06-30_12h41.16.292,proactive,2020.1.2,Win32,60,5efb791ed4cb570da489e737,5efb87114e1b640ff5ae31ad,2,,,,,,skateboard,,,,,,0,52,52,31,1,4,2,,,,,,,,,,,,,,,,,,,,,,,,,,,,,,,,,,,,,,,,,,,,,,,,,,,,,,,,,,,,,,,,,,,,,,,,,,,
,,,,,,,,,,stimuli/images/PICTURE_564.png,PLENTY,5ee19552fb6eba1caba328ae,2020-06-30_12h41.16.292,proactive,2020.1.2,Win32,60,5efb791ed4cb570da489e737,5efb87114e1b640ff5ae31ad,2,,,,,,spoon,,,,,,0,53,53,11,1,2,2,,,,,,,,,,,,,,,,,,,,,,,,,,,,,,,,,,,,,,,,,,,,,,,,,,,,,,,,,,,,,,,,,,,,,,,,,,,
,,,,,,,,,,stimuli/images/PICTURE_285.png,WRITER,5ee19552fb6eba1caba328ae,2020-06-30_12h41.16.292,proactive,2020.1.2,Win32,60,5efb791ed4cb570da489e737,5efb87114e1b640ff5ae31ad,2,,,,,,carrot,,,,,,0,54,54,6,1,1,2,,,,,,,,,,,,,,,,,,,,,,,,,,,,,,,,,,,,,,,,,,,,,,,,,,,,,,,,,,,,,,,,,,,,,,,,,,,
,,,,,,,,,,stimuli/images/PICTURE_509.png,APPLE,5ee19552fb6eba1caba328ae,2020-06-30_12h41.16.292,proactive,2020.1.2,Win32,60,5efb791ed4cb570da489e737,5efb87114e1b640ff5ae31ad,2,,,,,,telephone,,,,,,0,55,55,38,1,4,2,,,,,,,,,,,,,,,,,,,,,,,,,,,,,,,,,,,,,,,,,,,,,,,,,,,,,,,,,,,,,,,,,,,,,,,,,,,
,,,,,,,,,,stimuli/images/PICTURE_667.png,GLASS,5ee19552fb6eba1caba328ae,2020-06-30_12h41.16.292,proactive,2020.1.2,Win32,60,5efb791ed4cb570da489e737,5efb87114e1b640ff5ae31ad,2,,,,,,daisy,,,,,,0,56,56,27,1,3,2,,,,,,,,,,,,,,,,,,,,,,,,,,,,,,,,,,,,,,,,,,,,,,,,,,,,,,,,,,,,,,,,,,,,,,,,,,,
,,,,,,,,,,stimuli/images/PICTURE_68.png,KIND,5ee19552fb6eba1caba328ae,2020-06-30_12h41.16.292,proactive,2020.1.2,Win32,60,5efb791ed4cb570da489e737,5efb87114e1b640ff5ae31ad,2,,,,,,candle,,,,,,0,57,57,23,1,3,2,,,,,,,,,,,,,,,,,,,,,,,,,,,,,,,,,,,,,,,,,,,,,,,,,,,,,,,,,,,,,,,,,,,,,,,,,,,
,,,,,,,,,,stimuli/images/PICTURE_215.png,FOOD,5ee19552fb6eba1caba328ae,2020-06-30_12h41.16.292,proactive,2020.1.2,Win32,60,5efb791ed4cb570da489e737,5efb87114e1b640ff5ae31ad,2,,,,,,boot,,,,,,0,58,58,5,1,1,2,,,,,,,,,,,,,,,,,,,,,,,,,,,,,,,,,,,,,,,,,,,,,,,,,,,,,,,,,,,,,,,,,,,,,,,,,,,
,,?,0.003,0,,,,,,stimuli/images/PICTURE_750.png,POLICY,5ee19552fb6eba1caba328ae,2020-06-30_12h41.16.292,proactive,2020.1.2,Win32,60,5efb791ed4cb570da489e737,5efb87114e1b640ff5ae31ad,2,,,,,,kettle,,,,,,,,,,,5,2,0,0,0,44,1,,,,,,,,,,,,,,,,,,,,,,,,,,,,,,,,,,,,,,,,,,,,,,,,,,,,,,,,,,,,,,,,,,,,,,
,,?,0.003,0,,,,,,stimuli/images/PICTURE_2.png,JUNGLE,5ee19552fb6eba1caba328ae,2020-06-30_12h41.16.292,proactive,2020.1.2,Win32,60,5efb791ed4cb570da489e737,5efb87114e1b640ff5ae31ad,2,,,,,,tyre,,,,,,,,,,,1,2,0,1,1,1,1,,,,,,,,,,,,,,,,,,,,,,,,,,,,,,,,,,,,,,,,,,,,,,,,,,,,,,,,,,,,,,,,,,,,,,
,,BATH,3.298,1,,,,,,stimuli/images/PICTURE_509.png,BATH,5ee19552fb6eba1caba328ae,2020-06-30_12h41.16.292,proactive,2020.1.2,Win32,60,5efb791ed4cb570da489e737,5efb87114e1b640ff5ae31ad,2,,,,,,telephone,,,,,,,,,,,2,2,0,2,2,15,1,,,,,,,,,,,,,,,,,,,,,,,,,,,,,,,,,,,,,,,,,,,,,,,,,,,,,,,,,,,,,,,,,,,,,,
,,?,0.003,0,,,,,,stimuli/images/PICTURE_403.png,FAMILY,5ee19552fb6eba1caba328ae,2020-06-30_12h41.16.292,proactive,2020.1.2,Win32,60,5efb791ed4cb570da489e737,5efb87114e1b640ff5ae31ad,2,,,,,,cathedral,,,,,,,,,,,1,2,0,3,3,9,1,,,,,,,,,,,,,,,,,,,,,,,,,,,,,,,,,,,,,,,,,,,,,,,,,,,,,,,,,,,,,,,,,,,,,,
,,?,0.002,0,,,,,,stimuli/images/PICTURE_655.png,SALE,5ee19552fb6eba1caba328ae,2020-06-30_12h41.16.292,proactive,2020.1.2,Win32,60,5efb791ed4cb570da489e737,5efb87114e1b640ff5ae31ad,2,,,,,,megaphone,,,,,,,,,,,6,2,0,4,4,57,1,,,,,,,,,,,,,,,,,,,,,,,,,,,,,,,,,,,,,,,,,,,,,,,,,,,,,,,,,,,,,,,,,,,,,,
,,?,0.002,0,,,,,,stimuli/images/PICTURE_68.png,KIND,5ee19552fb6eba1caba328ae,2020-06-30_12h41.16.292,proactive,2020.1.2,Win32,60,5efb791ed4cb570da489e737,5efb87114e1b640ff5ae31ad,2,,,,,,candle,,,,,,,,,,,3,2,0,5,5,23,1,,,,,,,,,,,,,,,,,,,,,,,,,,,,,,,,,,,,,,,,,,,,,,,,,,,,,,,,,,,,,,,,,,,,,,
,,?,0.002,0,,,,,,stimuli/images/PICTURE_504.png,HOUSE,5ee19552fb6eba1caba328ae,2020-06-30_12h41.16.292,proactive,2020.1.2,Win32,60,5efb791ed4cb570da489e737,5efb87114e1b640ff5ae31ad,2,,,,,,wheel,,,,,,,,,,,4,2,0,6,6,36,1,,,,,,,,,,,,,,,,,,,,,,,,,,,,,,,,,,,,,,,,,,,,,,,,,,,,,,,,,,,,,,,,,,,,,,
,,?,10.002,0,,,,,,stimuli/images/PICTURE_57.png,CASINO,5ee19552fb6eba1caba328ae,2020-06-30_12h41.16.292,proactive,2020.1.2,Win32,60,5efb791ed4cb570da489e737,5efb87114e1b640ff5ae31ad,2,,,,,,stamp,,,,,,,,,,,2,2,0,7,7,12,1,,,,,,,,,,,,,,,,,,,,,,,,,,,,,,,,,,,,,,,,,,,,,,,,,,,,,,,,,,,,,,,,,,,,,,
,,?,0.002,0,,,,,,stimuli/images/PICTURE_654.png,YEAR,5ee19552fb6eba1caba328ae,2020-06-30_12h41.16.292,proactive,2020.1.2,Win32,60,5efb791ed4cb570da489e737,5efb87114e1b640ff5ae31ad,2,,,,,,pencil,,,,,,,,,,,5,2,0,8,8,41,1,,,,,,,,,,,,,,,,,,,,,,,,,,,,,,,,,,,,,,,,,,,,,,,,,,,,,,,,,,,,,,,,,,,,,,
,,?,0,0,,,,,,stimuli/images/PICTURE_356.png,CANDY,5ee19552fb6eba1caba328ae,2020-06-30_12h41.16.292,proactive,2020.1.2,Win32,60,5efb791ed4cb570da489e737,5efb87114e1b640ff5ae31ad,2,,,,,,pawn,,,,,,,,,,,5,2,0,9,9,46,1,,,,,,,,,,,,,,,,,,,,,,,,,,,,,,,,,,,,,,,,,,,,,,,,,,,,,,,,,,,,,,,,,,,,,,
,,PLENTY,3.885,1,,,,,,stimuli/images/PICTURE_564.png,PLENTY,5ee19552fb6eba1caba328ae,2020-06-30_12h41.16.292,proactive,2020.1.2,Win32,60,5efb791ed4cb570da489e737,5efb87114e1b640ff5ae31ad,2,,,,,,spoon,,,,,,,,,,,2,2,0,10,10,11,1,,,,,,,,,,,,,,,,,,,,,,,,,,,,,,,,,,,,,,,,,,,,,,,,,,,,,,,,,,,,,,,,,,,,,,
,,?,0.005,0,,,,,,stimuli/images/PICTURE_348.png,TOILET,5ee19552fb6eba1caba328ae,2020-06-30_12h41.16.292,proactive,2020.1.2,Win32,60,5efb791ed4cb570da489e737,5efb87114e1b640ff5ae31ad,2,,,,,,pepper,,,,,,,,,,,1,2,0,11,11,4,1,,,,,,,,,,,,,,,,,,,,,,,,,,,,,,,,,,,,,,,,,,,,,,,,,,,,,,,,,,,,,,,,,,,,,,
,,?,0.003,0,,,,,,stimuli/images/PICTURE_487.png,POLICY,5ee19552fb6eba1caba328ae,2020-06-30_12h41.16.292,proactive,2020.1.2,Win32,60,5efb791ed4cb570da489e737,5efb87114e1b640ff5ae31ad,2,,,,,,basket,,,,,,,,,,,4,2,0,12,12,34,1,,,,,,,,,,,,,,,,,,,,,,,,,,,,,,,,,,,,,,,,,,,,,,,,,,,,,,,,,,,,,,,,,,,,,,
,,?,0.001,0,,,,,,stimuli/images/PICTURE_491.png,SERIES,5ee19552fb6eba1caba328ae,2020-06-30_12h41.16.292,proactive,2020.1.2,Win32,60,5efb791ed4cb570da489e737,5efb87114e1b640ff5ae31ad,2,,,,,,rug,,,,,,,,,,,4,2,0,13,13,39,1,,,,,,,,,,,,,,,,,,,,,,,,,,,,,,,,,,,,,,,,,,,,,,,,,,,,,,,,,,,,,,,,,,,,,,
,,PENNY,7.194,1,,,,,,stimuli/images/PICTURE_255.png,PENNY,5ee19552fb6eba1caba328ae,2020-06-30_12h41.16.292,proactive,2020.1.2,Win32,60,5efb791ed4cb570da489e737,5efb87114e1b640ff5ae31ad,2,,,,,,shovel,,,,,,,,,,,2,2,0,14,14,19,1,,,,,,,,,,,,,,,,,,,,,,,,,,,,,,,,,,,,,,,,,,,,,,,,,,,,,,,,,,,,,,,,,,,,,,
,,?,0.003,0,,,,,,stimuli/images/PICTURE_141.png,CLIENT,5ee19552fb6eba1caba328ae,2020-06-30_12h41.16.292,proactive,2020.1.2,Win32,60,5efb791ed4cb570da489e737,5efb87114e1b640ff5ae31ad,2,,,,,,sunflower,,,,,,,,,,,4,2,0,15,15,30,1,,,,,,,,,,,,,,,,,,,,,,,,,,,,,,,,,,,,,,,,,,,,,,,,,,,,,,,,,,,,,,,,,,,,,,
,,?,0.002,0,,,,,,stimuli/images/PICTURE_470.png,MOMENT,5ee19552fb6eba1caba328ae,2020-06-30_12h41.16.292,proactive,2020.1.2,Win32,60,5efb791ed4cb570da489e737,5efb87114e1b640ff5ae31ad,2,,,,,,motorbike,,,,,,,,,,,5,2,0,16,16,40,1,,,,,,,,,,,,,,,,,,,,,,,,,,,,,,,,,,,,,,,,,,,,,,,,,,,,,,,,,,,,,,,,,,,,,,
,,HOTEL,3.186,1,,,,,,stimuli/images/PICTURE_160.png,HOTEL,5ee19552fb6eba1caba328ae,2020-06-30_12h41.16.292,proactive,2020.1.2,Win32,60,5efb791ed4cb570da489e737,5efb87114e1b640ff5ae31ad,2,,,,,,wheelbarrow,,,,,,,,,,,2,2,0,17,17,16,1,,,,,,,,,,,,,,,,,,,,,,,,,,,,,,,,,,,,,,,,,,,,,,,,,,,,,,,,,,,,,,,,,,,,,,
,,?,0.003,0,,,,,,stimuli/images/PICTURE_33.png,COPS,5ee19552fb6eba1caba328ae,2020-06-30_12h41.16.292,proactive,2020.1.2,Win32,60,5efb791ed4cb570da489e737,5efb87114e1b640ff5ae31ad,2,,,,,,frame,,,,,,,,,,,3,2,0,18,18,29,1,,,,,,,,,,,,,,,,,,,,,,,,,,,,,,,,,,,,,,,,,,,,,,,,,,,,,,,,,,,,,,,,,,,,,,
,,?,0.001,0,,,,,,stimuli/images/PICTURE_285.png,PRINCE,5ee19552fb6eba1caba328ae,2020-06-30_12h41.16.292,proactive,2020.1.2,Win32,60,5efb791ed4cb570da489e737,5efb87114e1b640ff5ae31ad,2,,,,,,carrot,,,,,,,,,,,3,2,0,19,19,20,1,,,,,,,,,,,,,,,,,,,,,,,,,,,,,,,,,,,,,,,,,,,,,,,,,,,,,,,,,,,,,,,,,,,,,,
,,PHOTO,3.531,1,,,,,,stimuli/images/PICTURE_677.png,PHOTO,5ee19552fb6eba1caba328ae,2020-06-30_12h41.16.292,proactive,2020.1.2,Win32,60,5efb791ed4cb570da489e737,5efb87114e1b640ff5ae31ad,2,,,,,,map,,,,,,,,,,,2,2,0,20,20,14,1,,,,,,,,,,,,,,,,,,,,,,,,,,,,,,,,,,,,,,,,,,,,,,,,,,,,,,,,,,,,,,,,,,,,,,
,,?,0.006,0,,,,,,stimuli/images/PICTURE_57.png,CANDY,5ee19552fb6eba1caba328ae,2020-06-30_12h41.16.292,proactive,2020.1.2,Win32,60,5efb791ed4cb570da489e737,5efb87114e1b640ff5ae31ad,2,,,,,,stamp,,,,,,,,,,,6,2,0,21,21,52,1,,,,,,,,,,,,,,,,,,,,,,,,,,,,,,,,,,,,,,,,,,,,,,,,,,,,,,,,,,,,,,,,,,,,,,
,,JUNGLE,3.986,1,,,,,,stimuli/images/PICTURE_405.png,JUNGLE,5ee19552fb6eba1caba328ae,2020-06-30_12h41.16.292,proactive,2020.1.2,Win32,60,5efb791ed4cb570da489e737,5efb87114e1b640ff5ae31ad,2,,,,,,anchor,,,,,,,,,,,2,2,0,22,22,13,1,,,,,,,,,,,,,,,,,,,,,,,,,,,,,,,,,,,,,,,,,,,,,,,,,,,,,,,,,,,,,,,,,,,,,,
,,?,0.002,0,,,,,,stimuli/images/PICTURE_470.png,BEAUTY,5ee19552fb6eba1caba328ae,2020-06-30_12h41.16.292,proactive,2020.1.2,Win32,60,5efb791ed4cb570da489e737,5efb87114e1b640ff5ae31ad,2,,,,,,motorbike,,,,,,,,,,,3,2,0,23,23,26,1,,,,,,,,,,,,,,,,,,,,,,,,,,,,,,,,,,,,,,,,,,,,,,,,,,,,,,,,,,,,,,,,,,,,,,
,,?,0.002,0,,,,,,stimuli/images/PICTURE_311.png,FLESH,5ee19552fb6eba1caba328ae,2020-06-30_12h41.16.292,proactive,2020.1.2,Win32,60,5efb791ed4cb570da489e737,5efb87114e1b640ff5ae31ad,2,,,,,,razor,,,,,,,,,,,1,2,0,24,24,3,1,,,,,,,,,,,,,,,,,,,,,,,,,,,,,,,,,,,,,,,,,,,,,,,,,,,,,,,,,,,,,,,,,,,,,,
,,?,0.001,0,,,,,,stimuli/images/PICTURE_405.png,JUNGLE,5ee19552fb6eba1caba328ae,2020-06-30_12h41.16.292,proactive,2020.1.2,Win32,60,5efb791ed4cb570da489e737,5efb87114e1b640ff5ae31ad,2,,,,,,anchor,,,,,,,,,,,6,2,0,25,25,58,1,,,,,,,,,,,,,,,,,,,,,,,,,,,,,,,,,,,,,,,,,,,,,,,,,,,,,,,,,,,,,,,,,,,,,,
,,?,0.001,0,,,,,,stimuli/images/PICTURE_2.png,YARD,5ee19552fb6eba1caba328ae,2020-06-30_12h41.16.292,proactive,2020.1.2,Win32,60,5efb791ed4cb570da489e737,5efb87114e1b640ff5ae31ad,2,,,,,,tyre,,,,,,,,,,,6,2,0,26,26,55,1,,,,,,,,,,,,,,,,,,,,,,,,,,,,,,,,,,,,,,,,,,,,,,,,,,,,,,,,,,,,,,,,,,,,,,
,,?,0.003,0,,,,,,stimuli/images/PICTURE_708.png,VALLEY,5ee19552fb6eba1caba328ae,2020-06-30_12h41.16.292,proactive,2020.1.2,Win32,60,5efb791ed4cb570da489e737,5efb87114e1b640ff5ae31ad,2,,,,,,monkey,,,,,,,,,,,5,2,0,27,27,45,1,,,,,,,,,,,,,,,,,,,,,,,,,,,,,,,,,,,,,,,,,,,,,,,,,,,,,,,,,,,,,,,,,,,,,,
,,?,0.001,0,,,,,,stimuli/images/PICTURE_453.png,FAMILY,5ee19552fb6eba1caba328ae,2020-06-30_12h41.16.292,proactive,2020.1.2,Win32,60,5efb791ed4cb570da489e737,5efb87114e1b640ff5ae31ad,2,,,,,,scissors,,,,,,,,,,,5,2,0,28,28,48,1,,,,,,,,,,,,,,,,,,,,,,,,,,,,,,,,,,,,,,,,,,,,,,,,,,,,,,,,,,,,,,,,,,,,,,
,,?,0.001,0,,,,,,stimuli/images/PICTURE_297.png,BODY,5ee19552fb6eba1caba328ae,2020-06-30_12h41.16.292,proactive,2020.1.2,Win32,60,5efb791ed4cb570da489e737,5efb87114e1b640ff5ae31ad,2,,,,,,aeroplane,,,,,,,,,,,6,2,0,29,29,51,1,,,,,,,,,,,,,,,,,,,,,,,,,,,,,,,,,,,,,,,,,,,,,,,,,,,,,,,,,,,,,,,,,,,,,,
,,?,0.001,0,,,,,,stimuli/images/PICTURE_32.png,LETTER,5ee19552fb6eba1caba328ae,2020-06-30_12h41.16.292,proactive,2020.1.2,Win32,60,5efb791ed4cb570da489e737,5efb87114e1b640ff5ae31ad,2,,,,,,crown,,,,,,,,,,,6,2,0,30,30,56,1,,,,,,,,,,,,,,,,,,,,,,,,,,,,,,,,,,,,,,,,,,,,,,,,,,,,,,,,,,,,,,,,,,,,,,
