consent_key.keys,consent_key.rt,recalled,recalled_rt,recall_acc,example_recall.thisRepN,example_recall.thisTrialN,example_recall.thisN,example_recall.thisIndex,example_recall.ran,file,word,participant,please enter your date of birth (dd/mm/yyyy),date,expName,psychopyVersion,OS,frameRate,STUDY_ID,SESSION_ID,list,prac_learn_study_loop.thisRepN,prac_learn_study_loop.thisTrialN,prac_learn_study_loop.thisN,prac_learn_study_loop.thisIndex,prac_learn_study_loop.ran,image,prac_learn_test_loop.thisRepN,prac_learn_test_loop.thisTrialN,prac_learn_test_loop.thisN,prac_learn_test_loop.thisIndex,prac_learn_test_loop.ran,learn_study_loop.thisRepN,learn_study_loop.thisTrialN,learn_study_loop.thisN,learn_study_loop.thisIndex,learn_study_loop.ran,list_no,block_no,learn_test_loop.thisRepN,learn_test_loop.thisTrialN,learn_test_loop.thisN,learn_test_loop.thisIndex,learn_test_loop.ran,learn_blocks.thisRepN,learn_blocks.thisTrialN,learn_blocks.thisN,learn_blocks.thisIndex,learn_blocks.ran,block_csv,key_resp_13.keys,key_resp_13.rt,learn_blocks_loop.thisRepN,learn_blocks_loop.thisTrialN,learn_blocks_loop.thisN,learn_blocks_loop.thisIndex,learn_blocks_loop.ran,final_learn_test.thisRepN,final_learn_test.thisTrialN,final_learn_test.thisN,final_learn_test.thisIndex,final_learn_test.ran,prac_wm_test_loop.thisRepN,prac_wm_test_loop.thisTrialN,prac_wm_test_loop.thisN,prac_wm_test_loop.thisIndex,prac_wm_test_loop.ran,wm_recalled1,wm_recall_rt1,wm_probed1,wm_recall_acc1,wm_recalled2,wm_recall_rt2,wm_probed2,wm_recall_acc2,wm_recalled3,wm_recall_rt3,wm_probed3,wm_recall_acc3,wm_recalled4,wm_recall_rt4,wm_probed4,wm_recall_acc4,prac_wm_trial_loop.thisRepN,prac_wm_trial_loop.thisTrialN,prac_wm_trial_loop.thisN,prac_wm_trial_loop.thisIndex,prac_wm_trial_loop.ran,word1,image1,file1,item_type1,word2,image2,file2,item_type2,word4,image4,file4,item_type4,word3,image3,file3,item_type3,wm_test_loop.thisRepN,wm_test_loop.thisTrialN,wm_test_loop.thisN,wm_test_loop.thisIndex,wm_test_loop.ran,wm_trial_loop.thisRepN,wm_trial_loop.thisTrialN,wm_trial_loop.thisN,wm_trial_loop.thisIndex,wm_trial_loop.ran
y,73.23535,TOUGH,3.97799,1,0,0,0,0,1,stimuli/images/PICTURE_747.png,TOUGH,5ee9c6eb82a6e436011ecc86,16/06/2002,2020-07-08_17h18.35.611,proactive,2020.1.2,Win32,60,5f035e5afe130c270d6ae6dd,5f05f1c9f8e03d0d9ee308cb,5,,,,,,,,,,,,,,,,,,,,,,,,,,,,,,,,,,,,,,,,,,,,,,,,,,,,,,,,,,,,,,,,,,,,,,,,,,,,,,,,,,,,,,,,,,,,,
,,,,,,,,,,stimuli/images/PICTURE_378.png,LOSS,5ee9c6eb82a6e436011ecc86,16/06/2002,2020-07-08_17h18.35.611,proactive,2020.1.2,Win32,60,5f035e5afe130c270d6ae6dd,5f05f1c9f8e03d0d9ee308cb,5,0,0,0,2,1,lobster,,,,,,,,,,,,,,,,,,,,,,,,,,,,,,,,,,,,,,,,,,,,,,,,,,,,,,,,,,,,,,,,,,,,,,,,,,,,,,,,,,,,,,,
,,,,,,,,,,stimuli/images/PICTURE_727.png,CELL,5ee9c6eb82a6e436011ecc86,16/06/2002,2020-07-08_17h18.35.611,proactive,2020.1.2,Win32,60,5f035e5afe130c270d6ae6dd,5f05f1c9f8e03d0d9ee308cb,5,0,1,1,1,1,hose,,,,,,,,,,,,,,,,,,,,,,,,,,,,,,,,,,,,,,,,,,,,,,,,,,,,,,,,,,,,,,,,,,,,,,,,,,,,,,,,,,,,,,,
,,,,,,,,,,stimuli/images/PICTURE_697.png,KILLER,5ee9c6eb82a6e436011ecc86,16/06/2002,2020-07-08_17h18.35.611,proactive,2020.1.2,Win32,60,5f035e5afe130c270d6ae6dd,5f05f1c9f8e03d0d9ee308cb,5,0,2,2,4,1,peach,,,,,,,,,,,,,,,,,,,,,,,,,,,,,,,,,,,,,,,,,,,,,,,,,,,,,,,,,,,,,,,,,,,,,,,,,,,,,,,,,,,,,,,
,,,,,,,,,,stimuli/images/PICTURE_269.png,GENIUS,5ee9c6eb82a6e436011ecc86,16/06/2002,2020-07-08_17h18.35.611,proactive,2020.1.2,Win32,60,5f035e5afe130c270d6ae6dd,5f05f1c9f8e03d0d9ee308cb,5,0,3,3,0,1,chameleon,,,,,,,,,,,,,,,,,,,,,,,,,,,,,,,,,,,,,,,,,,,,,,,,,,,,,,,,,,,,,,,,,,,,,,,,,,,,,,,,,,,,,,,
,,DEVIL,2.98525,1,,,,,,stimuli/images/PICTURE_658.png,DEVIL,5ee9c6eb82a6e436011ecc86,16/06/2002,2020-07-08_17h18.35.611,proactive,2020.1.2,Win32,60,5f035e5afe130c270d6ae6dd,5f05f1c9f8e03d0d9ee308cb,5,,,,,,crow,0,0,0,3,1,,,,,,,,,,,,,,,,,,,,,,,,,,,,,,,,,,,,,,,,,,,,,,,,,,,,,,,,,,,,,,,,,,,,,,,,,,,,,,,,,,
,,LOSS,1.88681,1,,,,,,stimuli/images/PICTURE_378.png,LOSS,5ee9c6eb82a6e436011ecc86,16/06/2002,2020-07-08_17h18.35.611,proactive,2020.1.2,Win32,60,5f035e5afe130c270d6ae6dd,5f05f1c9f8e03d0d9ee308cb,5,,,,,,lobster,0,1,1,2,1,,,,,,,,,,,,,,,,,,,,,,,,,,,,,,,,,,,,,,,,,,,,,,,,,,,,,,,,,,,,,,,,,,,,,,,,,,,,,,,,,,
,,CELL,1.818645,1,,,,,,stimuli/images/PICTURE_727.png,CELL,5ee9c6eb82a6e436011ecc86,16/06/2002,2020-07-08_17h18.35.611,proactive,2020.1.2,Win32,60,5f035e5afe130c270d6ae6dd,5f05f1c9f8e03d0d9ee308cb,5,,,,,,hose,0,2,2,1,1,,,,,,,,,,,,,,,,,,,,,,,,,,,,,,,,,,,,,,,,,,,,,,,,,,,,,,,,,,,,,,,,,,,,,,,,,,,,,,,,,,
,,KILLER,1.935215,1,,,,,,stimuli/images/PICTURE_697.png,KILLER,5ee9c6eb82a6e436011ecc86,16/06/2002,2020-07-08_17h18.35.611,proactive,2020.1.2,Win32,60,5f035e5afe130c270d6ae6dd,5f05f1c9f8e03d0d9ee308cb,5,,,,,,peach,0,3,3,4,1,,,,,,,,,,,,,,,,,,,,,,,,,,,,,,,,,,,,,,,,,,,,,,,,,,,,,,,,,,,,,,,,,,,,,,,,,,,,,,,,,,
,,GENIUS,2.55481,1,,,,,,stimuli/images/PICTURE_269.png,GENIUS,5ee9c6eb82a6e436011ecc86,16/06/2002,2020-07-08_17h18.35.611,proactive,2020.1.2,Win32,60,5f035e5afe130c270d6ae6dd,5f05f1c9f8e03d0d9ee308cb,5,,,,,,chameleon,0,4,4,0,1,,,,,,,,,,,,,,,,,,,,,,,,,,,,,,,,,,,,,,,,,,,,,,,,,,,,,,,,,,,,,,,,,,,,,,,,,,,,,,,,,,
,,,,,,,,,,stimuli/images/PICTURE_356.png,CANDY,5ee9c6eb82a6e436011ecc86,16/06/2002,2020-07-08_17h18.35.611,proactive,2020.1.2,Win32,60,5f035e5afe130c270d6ae6dd,5f05f1c9f8e03d0d9ee308cb,5,,,,,,pawn,,,,,,0,0,0,46,1,5,2,,,,,,,,,,,,,,,,,,,,,,,,,,,,,,,,,,,,,,,,,,,,,,,,,,,,,,,,,,,,,,,,,,,,,,,,,,,
,,,,,,,,,,stimuli/images/PICTURE_285.png,WRITER,5ee9c6eb82a6e436011ecc86,16/06/2002,2020-07-08_17h18.35.611,proactive,2020.1.2,Win32,60,5f035e5afe130c270d6ae6dd,5f05f1c9f8e03d0d9ee308cb,5,,,,,,carrot,,,,,,0,1,1,6,1,1,2,,,,,,,,,,,,,,,,,,,,,,,,,,,,,,,,,,,,,,,,,,,,,,,,,,,,,,,,,,,,,,,,,,,,,,,,,,,
,,,,,,,,,,stimuli/images/PICTURE_2.png,YARD,5ee9c6eb82a6e436011ecc86,16/06/2002,2020-07-08_17h18.35.611,proactive,2020.1.2,Win32,60,5f035e5afe130c270d6ae6dd,5f05f1c9f8e03d0d9ee308cb,5,,,,,,tyre,,,,,,0,2,2,55,1,6,2,,,,,,,,,,,,,,,,,,,,,,,,,,,,,,,,,,,,,,,,,,,,,,,,,,,,,,,,,,,,,,,,,,,,,,,,,,,
,,,,,,,,,,stimuli/images/PICTURE_708.png,VALLEY,5ee9c6eb82a6e436011ecc86,16/06/2002,2020-07-08_17h18.35.611,proactive,2020.1.2,Win32,60,5f035e5afe130c270d6ae6dd,5f05f1c9f8e03d0d9ee308cb,5,,,,,,monkey,,,,,,0,3,3,45,1,5,2,,,,,,,,,,,,,,,,,,,,,,,,,,,,,,,,,,,,,,,,,,,,,,,,,,,,,,,,,,,,,,,,,,,,,,,,,,,
,,,,,,,,,,stimuli/images/PICTURE_123.png,SALE,5ee9c6eb82a6e436011ecc86,16/06/2002,2020-07-08_17h18.35.611,proactive,2020.1.2,Win32,60,5f035e5afe130c270d6ae6dd,5f05f1c9f8e03d0d9ee308cb,5,,,,,,dart,,,,,,0,4,4,8,1,1,2,,,,,,,,,,,,,,,,,,,,,,,,,,,,,,,,,,,,,,,,,,,,,,,,,,,,,,,,,,,,,,,,,,,,,,,,,,,
,,,,,,,,,,stimuli/images/PICTURE_177.png,HOUSE,5ee9c6eb82a6e436011ecc86,16/06/2002,2020-07-08_17h18.35.611,proactive,2020.1.2,Win32,60,5f035e5afe130c270d6ae6dd,5f05f1c9f8e03d0d9ee308cb,5,,,,,,mushroom,,,,,,0,5,5,25,1,3,2,,,,,,,,,,,,,,,,,,,,,,,,,,,,,,,,,,,,,,,,,,,,,,,,,,,,,,,,,,,,,,,,,,,,,,,,,,,
,,,,,,,,,,stimuli/images/PICTURE_453.png,FAMILY,5ee9c6eb82a6e436011ecc86,16/06/2002,2020-07-08_17h18.35.611,proactive,2020.1.2,Win32,60,5f035e5afe130c270d6ae6dd,5f05f1c9f8e03d0d9ee308cb,5,,,,,,scissors,,,,,,0,6,6,48,1,5,2,,,,,,,,,,,,,,,,,,,,,,,,,,,,,,,,,,,,,,,,,,,,,,,,,,,,,,,,,,,,,,,,,,,,,,,,,,,
,,,,,,,,,,stimuli/images/PICTURE_654.png,COPS,5ee9c6eb82a6e436011ecc86,16/06/2002,2020-07-08_17h18.35.611,proactive,2020.1.2,Win32,60,5f035e5afe130c270d6ae6dd,5f05f1c9f8e03d0d9ee308cb,5,,,,,,pencil,,,,,,0,7,7,10,1,2,2,,,,,,,,,,,,,,,,,,,,,,,,,,,,,,,,,,,,,,,,,,,,,,,,,,,,,,,,,,,,,,,,,,,,,,,,,,,
,,,,,,,,,,stimuli/images/PICTURE_470.png,MOMENT,5ee9c6eb82a6e436011ecc86,16/06/2002,2020-07-08_17h18.35.611,proactive,2020.1.2,Win32,60,5f035e5afe130c270d6ae6dd,5f05f1c9f8e03d0d9ee308cb,5,,,,,,motorbike,,,,,,0,8,8,40,1,5,2,,,,,,,,,,,,,,,,,,,,,,,,,,,,,,,,,,,,,,,,,,,,,,,,,,,,,,,,,,,,,,,,,,,,,,,,,,,
,,,,,,,,,,stimuli/images/PICTURE_405.png,JUNGLE,5ee9c6eb82a6e436011ecc86,16/06/2002,2020-07-08_17h18.35.611,proactive,2020.1.2,Win32,60,5f035e5afe130c270d6ae6dd,5f05f1c9f8e03d0d9ee308cb,5,,,,,,anchor,,,,,,0,9,9,58,1,6,2,,,,,,,,,,,,,,,,,,,,,,,,,,,,,,,,,,,,,,,,,,,,,,,,,,,,,,,,,,,,,,,,,,,,,,,,,,,
,,,,,,,,,,stimuli/images/PICTURE_57.png,CANDY,5ee9c6eb82a6e436011ecc86,16/06/2002,2020-07-08_17h18.35.611,proactive,2020.1.2,Win32,60,5f035e5afe130c270d6ae6dd,5f05f1c9f8e03d0d9ee308cb,5,,,,,,stamp,,,,,,0,10,10,52,1,6,2,,,,,,,,,,,,,,,,,,,,,,,,,,,,,,,,,,,,,,,,,,,,,,,,,,,,,,,,,,,,,,,,,,,,,,,,,,,
,,,,,,,,,,stimuli/images/PICTURE_655.png,SALE,5ee9c6eb82a6e436011ecc86,16/06/2002,2020-07-08_17h18.35.611,proactive,2020.1.2,Win32,60,5f035e5afe130c270d6ae6dd,5f05f1c9f8e03d0d9ee308cb,5,,,,,,megaphone,,,,,,0,11,11,57,1,6,2,,,,,,,,,,,,,,,,,,,,,,,,,,,,,,,,,,,,,,,,,,,,,,,,,,,,,,,,,,,,,,,,,,,,,,,,,,,
,,,,,,,,,,stimuli/images/PICTURE_160.png,HOTEL,5ee9c6eb82a6e436011ecc86,16/06/2002,2020-07-08_17h18.35.611,proactive,2020.1.2,Win32,60,5f035e5afe130c270d6ae6dd,5f05f1c9f8e03d0d9ee308cb,5,,,,,,wheelbarrow,,,,,,0,12,12,16,1,2,2,,,,,,,,,,,,,,,,,,,,,,,,,,,,,,,,,,,,,,,,,,,,,,,,,,,,,,,,,,,,,,,,,,,,,,,,,,,
,,,,,,,,,,stimuli/images/PICTURE_688.png,CLOCK,5ee9c6eb82a6e436011ecc86,16/06/2002,2020-07-08_17h18.35.611,proactive,2020.1.2,Win32,60,5f035e5afe130c270d6ae6dd,5f05f1c9f8e03d0d9ee308cb,5,,,,,,runner,,,,,,0,13,13,42,1,5,2,,,,,,,,,,,,,,,,,,,,,,,,,,,,,,,,,,,,,,,,,,,,,,,,,,,,,,,,,,,,,,,,,,,,,,,,,,,
,,,,,,,,,,stimuli/images/PICTURE_677.png,PHOTO,5ee9c6eb82a6e436011ecc86,16/06/2002,2020-07-08_17h18.35.611,proactive,2020.1.2,Win32,60,5f035e5afe130c270d6ae6dd,5f05f1c9f8e03d0d9ee308cb,5,,,,,,map,,,,,,0,14,14,14,1,2,2,,,,,,,,,,,,,,,,,,,,,,,,,,,,,,,,,,,,,,,,,,,,,,,,,,,,,,,,,,,,,,,,,,,,,,,,,,,
,,,,,,,,,,stimuli/images/PICTURE_491.png,SERIES,5ee9c6eb82a6e436011ecc86,16/06/2002,2020-07-08_17h18.35.611,proactive,2020.1.2,Win32,60,5f035e5afe130c270d6ae6dd,5f05f1c9f8e03d0d9ee308cb,5,,,,,,rug,,,,,,0,15,15,39,1,4,2,,,,,,,,,,,,,,,,,,,,,,,,,,,,,,,,,,,,,,,,,,,,,,,,,,,,,,,,,,,,,,,,,,,,,,,,,,,
,,,,,,,,,,stimuli/images/PICTURE_285.png,PRINCE,5ee9c6eb82a6e436011ecc86,16/06/2002,2020-07-08_17h18.35.611,proactive,2020.1.2,Win32,60,5f035e5afe130c270d6ae6dd,5f05f1c9f8e03d0d9ee308cb,5,,,,,,carrot,,,,,,0,16,16,20,1,3,2,,,,,,,,,,,,,,,,,,,,,,,,,,,,,,,,,,,,,,,,,,,,,,,,,,,,,,,,,,,,,,,,,,,,,,,,,,,
,,,,,,,,,,stimuli/images/PICTURE_470.png,BEAUTY,5ee9c6eb82a6e436011ecc86,16/06/2002,2020-07-08_17h18.35.611,proactive,2020.1.2,Win32,60,5f035e5afe130c270d6ae6dd,5f05f1c9f8e03d0d9ee308cb,5,,,,,,motorbike,,,,,,0,17,17,26,1,3,2,,,,,,,,,,,,,,,,,,,,,,,,,,,,,,,,,,,,,,,,,,,,,,,,,,,,,,,,,,,,,,,,,,,,,,,,,,,
,,,,,,,,,,stimuli/images/PICTURE_667.png,GLASS,5ee9c6eb82a6e436011ecc86,16/06/2002,2020-07-08_17h18.35.611,proactive,2020.1.2,Win32,60,5f035e5afe130c270d6ae6dd,5f05f1c9f8e03d0d9ee308cb,5,,,,,,daisy,,,,,,0,18,18,27,1,3,2,,,,,,,,,,,,,,,,,,,,,,,,,,,,,,,,,,,,,,,,,,,,,,,,,,,,,,,,,,,,,,,,,,,,,,,,,,,
,,,,,,,,,,stimuli/images/PICTURE_750.png,POLICY,5ee9c6eb82a6e436011ecc86,16/06/2002,2020-07-08_17h18.35.611,proactive,2020.1.2,Win32,60,5f035e5afe130c270d6ae6dd,5f05f1c9f8e03d0d9ee308cb,5,,,,,,kettle,,,,,,0,19,19,44,1,5,2,,,,,,,,,,,,,,,,,,,,,,,,,,,,,,,,,,,,,,,,,,,,,,,,,,,,,,,,,,,,,,,,,,,,,,,,,,,
,,,,,,,,,,stimuli/images/PICTURE_405.png,HOUSE,5ee9c6eb82a6e436011ecc86,16/06/2002,2020-07-08_17h18.35.611,proactive,2020.1.2,Win32,60,5f035e5afe130c270d6ae6dd,5f05f1c9f8e03d0d9ee308cb,5,,,,,,anchor,,,,,,0,20,20,2,1,1,2,,,,,,,,,,,,,,,,,,,,,,,,,,,,,,,,,,,,,,,,,,,,,,,,,,,,,,,,,,,,,,,,,,,,,,,,,,,
,,,,,,,,,,stimuli/images/PICTURE_509.png,SHOTS,5ee9c6eb82a6e436011ecc86,16/06/2002,2020-07-08_17h18.35.611,proactive,2020.1.2,Win32,60,5f035e5afe130c270d6ae6dd,5f05f1c9f8e03d0d9ee308cb,5,,,,,,telephone,,,,,,0,21,21,7,1,1,2,,,,,,,,,,,,,,,,,,,,,,,,,,,,,,,,,,,,,,,,,,,,,,,,,,,,,,,,,,,,,,,,,,,,,,,,,,,
,,,,,,,,,,stimuli/images/PICTURE_2.png,AREA,5ee9c6eb82a6e436011ecc86,16/06/2002,2020-07-08_17h18.35.611,proactive,2020.1.2,Win32,60,5f035e5afe130c270d6ae6dd,5f05f1c9f8e03d0d9ee308cb,5,,,,,,tyre,,,,,,0,22,22,32,1,4,2,,,,,,,,,,,,,,,,,,,,,,,,,,,,,,,,,,,,,,,,,,,,,,,,,,,,,,,,,,,,,,,,,,,,,,,,,,,
,,,,,,,,,,stimuli/images/PICTURE_487.png,POLICY,5ee9c6eb82a6e436011ecc86,16/06/2002,2020-07-08_17h18.35.611,proactive,2020.1.2,Win32,60,5f035e5afe130c270d6ae6dd,5f05f1c9f8e03d0d9ee308cb,5,,,,,,basket,,,,,,0,23,23,34,1,4,2,,,,,,,,,,,,,,,,,,,,,,,,,,,,,,,,,,,,,,,,,,,,,,,,,,,,,,,,,,,,,,,,,,,,,,,,,,,
,,,,,,,,,,stimuli/images/PICTURE_208.png,SPIRIT,5ee9c6eb82a6e436011ecc86,16/06/2002,2020-07-08_17h18.35.611,proactive,2020.1.2,Win32,60,5f035e5afe130c270d6ae6dd,5f05f1c9f8e03d0d9ee308cb,5,,,,,,microphone,,,,,,0,24,24,28,1,3,2,,,,,,,,,,,,,,,,,,,,,,,,,,,,,,,,,,,,,,,,,,,,,,,,,,,,,,,,,,,,,,,,,,,,,,,,,,,
,,,,,,,,,,stimuli/images/PICTURE_311.png,FLESH,5ee9c6eb82a6e436011ecc86,16/06/2002,2020-07-08_17h18.35.611,proactive,2020.1.2,Win32,60,5f035e5afe130c270d6ae6dd,5f05f1c9f8e03d0d9ee308cb,5,,,,,,razor,,,,,,0,25,25,3,1,1,2,,,,,,,,,,,,,,,,,,,,,,,,,,,,,,,,,,,,,,,,,,,,,,,,,,,,,,,,,,,,,,,,,,,,,,,,,,,
,,,,,,,,,,stimuli/images/PICTURE_147.png,LEADER,5ee9c6eb82a6e436011ecc86,16/06/2002,2020-07-08_17h18.35.611,proactive,2020.1.2,Win32,60,5f035e5afe130c270d6ae6dd,5f05f1c9f8e03d0d9ee308cb,5,,,,,,hanger,,,,,,0,26,26,33,1,4,2,,,,,,,,,,,,,,,,,,,,,,,,,,,,,,,,,,,,,,,,,,,,,,,,,,,,,,,,,,,,,,,,,,,,,,,,,,,
,,,,,,,,,,stimuli/images/PICTURE_311.png,TOILET,5ee9c6eb82a6e436011ecc86,16/06/2002,2020-07-08_17h18.35.611,proactive,2020.1.2,Win32,60,5f035e5afe130c270d6ae6dd,5f05f1c9f8e03d0d9ee308cb,5,,,,,,razor,,,,,,0,27,27,54,1,6,2,,,,,,,,,,,,,,,,,,,,,,,,,,,,,,,,,,,,,,,,,,,,,,,,,,,,,,,,,,,,,,,,,,,,,,,,,,,
,,,,,,,,,,stimuli/images/PICTURE_487.png,ROOF,5ee9c6eb82a6e436011ecc86,16/06/2002,2020-07-08_17h18.35.611,proactive,2020.1.2,Win32,60,5f035e5afe130c270d6ae6dd,5f05f1c9f8e03d0d9ee308cb,5,,,,,,basket,,,,,,0,28,28,50,1,6,2,,,,,,,,,,,,,,,,,,,,,,,,,,,,,,,,,,,,,,,,,,,,,,,,,,,,,,,,,,,,,,,,,,,,,,,,,,,
,,,,,,,,,,stimuli/images/PICTURE_68.png,KIND,5ee9c6eb82a6e436011ecc86,16/06/2002,2020-07-08_17h18.35.611,proactive,2020.1.2,Win32,60,5f035e5afe130c270d6ae6dd,5f05f1c9f8e03d0d9ee308cb,5,,,,,,candle,,,,,,0,29,29,23,1,3,2,,,,,,,,,,,,,,,,,,,,,,,,,,,,,,,,,,,,,,,,,,,,,,,,,,,,,,,,,,,,,,,,,,,,,,,,,,,
,,,,,,,,,,stimuli/images/PICTURE_2.png,JUNGLE,5ee9c6eb82a6e436011ecc86,16/06/2002,2020-07-08_17h18.35.611,proactive,2020.1.2,Win32,60,5f035e5afe130c270d6ae6dd,5f05f1c9f8e03d0d9ee308cb,5,,,,,,tyre,,,,,,0,30,30,1,1,1,2,,,,,,,,,,,,,,,,,,,,,,,,,,,,,,,,,,,,,,,,,,,,,,,,,,,,,,,,,,,,,,,,,,,,,,,,,,,
,,,,,,,,,,stimuli/images/PICTURE_654.png,YEAR,5ee9c6eb82a6e436011ecc86,16/06/2002,2020-07-08_17h18.35.611,proactive,2020.1.2,Win32,60,5f035e5afe130c270d6ae6dd,5f05f1c9f8e03d0d9ee308cb,5,,,,,,pencil,,,,,,0,31,31,41,1,5,2,,,,,,,,,,,,,,,,,,,,,,,,,,,,,,,,,,,,,,,,,,,,,,,,,,,,,,,,,,,,,,,,,,,,,,,,,,,
,,,,,,,,,,stimuli/images/PICTURE_57.png,CASINO,5ee9c6eb82a6e436011ecc86,16/06/2002,2020-07-08_17h18.35.611,proactive,2020.1.2,Win32,60,5f035e5afe130c270d6ae6dd,5f05f1c9f8e03d0d9ee308cb,5,,,,,,stamp,,,,,,0,32,32,12,1,2,2,,,,,,,,,,,,,,,,,,,,,,,,,,,,,,,,,,,,,,,,,,,,,,,,,,,,,,,,,,,,,,,,,,,,,,,,,,,
,,,,,,,,,,stimuli/images/PICTURE_57.png,NATION,5ee9c6eb82a6e436011ecc86,16/06/2002,2020-07-08_17h18.35.611,proactive,2020.1.2,Win32,60,5f035e5afe130c270d6ae6dd,5f05f1c9f8e03d0d9ee308cb,5,,,,,,stamp,,,,,,0,33,33,21,1,3,2,,,,,,,,,,,,,,,,,,,,,,,,,,,,,,,,,,,,,,,,,,,,,,,,,,,,,,,,,,,,,,,,,,,,,,,,,,,
,,,,,,,,,,stimuli/images/PICTURE_509.png,MILLER,5ee9c6eb82a6e436011ecc86,16/06/2002,2020-07-08_17h18.35.611,proactive,2020.1.2,Win32,60,5f035e5afe130c270d6ae6dd,5f05f1c9f8e03d0d9ee308cb,5,,,,,,telephone,,,,,,0,34,34,49,1,5,2,,,,,,,,,,,,,,,,,,,,,,,,,,,,,,,,,,,,,,,,,,,,,,,,,,,,,,,,,,,,,,,,,,,,,,,,,,,
,,,,,,,,,,stimuli/images/PICTURE_564.png,PLENTY,5ee9c6eb82a6e436011ecc86,16/06/2002,2020-07-08_17h18.35.611,proactive,2020.1.2,Win32,60,5f035e5afe130c270d6ae6dd,5f05f1c9f8e03d0d9ee308cb,5,,,,,,spoon,,,,,,0,35,35,11,1,2,2,,,,,,,,,,,,,,,,,,,,,,,,,,,,,,,,,,,,,,,,,,,,,,,,,,,,,,,,,,,,,,,,,,,,,,,,,,,
,,,,,,,,,,stimuli/images/PICTURE_509.png,APPLE,5ee9c6eb82a6e436011ecc86,16/06/2002,2020-07-08_17h18.35.611,proactive,2020.1.2,Win32,60,5f035e5afe130c270d6ae6dd,5f05f1c9f8e03d0d9ee308cb,5,,,,,,telephone,,,,,,0,36,36,38,1,4,2,,,,,,,,,,,,,,,,,,,,,,,,,,,,,,,,,,,,,,,,,,,,,,,,,,,,,,,,,,,,,,,,,,,,,,,,,,,
,,,,,,,,,,stimuli/images/PICTURE_215.png,FOOD,5ee9c6eb82a6e436011ecc86,16/06/2002,2020-07-08_17h18.35.611,proactive,2020.1.2,Win32,60,5f035e5afe130c270d6ae6dd,5f05f1c9f8e03d0d9ee308cb,5,,,,,,boot,,,,,,0,37,37,5,1,1,2,,,,,,,,,,,,,,,,,,,,,,,,,,,,,,,,,,,,,,,,,,,,,,,,,,,,,,,,,,,,,,,,,,,,,,,,,,,
,,,,,,,,,,stimuli/images/PICTURE_403.png,FAMILY,5ee9c6eb82a6e436011ecc86,16/06/2002,2020-07-08_17h18.35.611,proactive,2020.1.2,Win32,60,5f035e5afe130c270d6ae6dd,5f05f1c9f8e03d0d9ee308cb,5,,,,,,cathedral,,,,,,0,38,38,9,1,1,2,,,,,,,,,,,,,,,,,,,,,,,,,,,,,,,,,,,,,,,,,,,,,,,,,,,,,,,,,,,,,,,,,,,,,,,,,,,
,,,,,,,,,,stimuli/images/PICTURE_504.png,HOUSE,5ee9c6eb82a6e436011ecc86,16/06/2002,2020-07-08_17h18.35.611,proactive,2020.1.2,Win32,60,5f035e5afe130c270d6ae6dd,5f05f1c9f8e03d0d9ee308cb,5,,,,,,wheel,,,,,,0,39,39,36,1,4,2,,,,,,,,,,,,,,,,,,,,,,,,,,,,,,,,,,,,,,,,,,,,,,,,,,,,,,,,,,,,,,,,,,,,,,,,,,,
,,,,,,,,,,stimuli/images/PICTURE_692.png,DUDE,5ee9c6eb82a6e436011ecc86,16/06/2002,2020-07-08_17h18.35.611,proactive,2020.1.2,Win32,60,5f035e5afe130c270d6ae6dd,5f05f1c9f8e03d0d9ee308cb,5,,,,,,cherry,,,,,,0,40,40,47,1,5,2,,,,,,,,,,,,,,,,,,,,,,,,,,,,,,,,,,,,,,,,,,,,,,,,,,,,,,,,,,,,,,,,,,,,,,,,,,,
,,,,,,,,,,stimuli/images/PICTURE_32.png,LETTER,5ee9c6eb82a6e436011ecc86,16/06/2002,2020-07-08_17h18.35.611,proactive,2020.1.2,Win32,60,5f035e5afe130c270d6ae6dd,5f05f1c9f8e03d0d9ee308cb,5,,,,,,crown,,,,,,0,41,41,56,1,6,2,,,,,,,,,,,,,,,,,,,,,,,,,,,,,,,,,,,,,,,,,,,,,,,,,,,,,,,,,,,,,,,,,,,,,,,,,,,
,,,,,,,,,,stimuli/images/PICTURE_255.png,PENNY,5ee9c6eb82a6e436011ecc86,16/06/2002,2020-07-08_17h18.35.611,proactive,2020.1.2,Win32,60,5f035e5afe130c270d6ae6dd,5f05f1c9f8e03d0d9ee308cb,5,,,,,,shovel,,,,,,0,42,42,19,1,2,2,,,,,,,,,,,,,,,,,,,,,,,,,,,,,,,,,,,,,,,,,,,,,,,,,,,,,,,,,,,,,,,,,,,,,,,,,,,
,,,,,,,,,,stimuli/images/PICTURE_348.png,DUDE,5ee9c6eb82a6e436011ecc86,16/06/2002,2020-07-08_17h18.35.611,proactive,2020.1.2,Win32,60,5f035e5afe130c270d6ae6dd,5f05f1c9f8e03d0d9ee308cb,5,,,,,,pepper,,,,,,0,43,43,59,1,6,2,,,,,,,,,,,,,,,,,,,,,,,,,,,,,,,,,,,,,,,,,,,,,,,,,,,,,,,,,,,,,,,,,,,,,,,,,,,
,,,,,,,,,,stimuli/images/PICTURE_297.png,BODY,5ee9c6eb82a6e436011ecc86,16/06/2002,2020-07-08_17h18.35.611,proactive,2020.1.2,Win32,60,5f035e5afe130c270d6ae6dd,5f05f1c9f8e03d0d9ee308cb,5,,,,,,aeroplane,,,,,,0,44,44,51,1,6,2,,,,,,,,,,,,,,,,,,,,,,,,,,,,,,,,,,,,,,,,,,,,,,,,,,,,,,,,,,,,,,,,,,,,,,,,,,,
,,,,,,,,,,stimuli/images/PICTURE_509.png,BATH,5ee9c6eb82a6e436011ecc86,16/06/2002,2020-07-08_17h18.35.611,proactive,2020.1.2,Win32,60,5f035e5afe130c270d6ae6dd,5f05f1c9f8e03d0d9ee308cb,5,,,,,,telephone,,,,,,0,45,45,15,1,2,2,,,,,,,,,,,,,,,,,,,,,,,,,,,,,,,,,,,,,,,,,,,,,,,,,,,,,,,,,,,,,,,,,,,,,,,,,,,
,,,,,,,,,,stimuli/images/PICTURE_677.png,FAMILY,5ee9c6eb82a6e436011ecc86,16/06/2002,2020-07-08_17h18.35.611,proactive,2020.1.2,Win32,60,5f035e5afe130c270d6ae6dd,5f05f1c9f8e03d0d9ee308cb,5,,,,,,map,,,,,,0,46,46,53,1,6,2,,,,,,,,,,,,,,,,,,,,,,,,,,,,,,,,,,,,,,,,,,,,,,,,,,,,,,,,,,,,,,,,,,,,,,,,,,,
,,,,,,,,,,stimuli/images/PICTURE_141.png,CLIENT,5ee9c6eb82a6e436011ecc86,16/06/2002,2020-07-08_17h18.35.611,proactive,2020.1.2,Win32,60,5f035e5afe130c270d6ae6dd,5f05f1c9f8e03d0d9ee308cb,5,,,,,,sunflower,,,,,,0,47,47,30,1,4,2,,,,,,,,,,,,,,,,,,,,,,,,,,,,,,,,,,,,,,,,,,,,,,,,,,,,,,,,,,,,,,,,,,,,,,,,,,,
,,,,,,,,,,stimuli/images/PICTURE_348.png,TOILET,5ee9c6eb82a6e436011ecc86,16/06/2002,2020-07-08_17h18.35.611,proactive,2020.1.2,Win32,60,5f035e5afe130c270d6ae6dd,5f05f1c9f8e03d0d9ee308cb,5,,,,,,pepper,,,,,,0,48,48,4,1,1,2,,,,,,,,,,,,,,,,,,,,,,,,,,,,,,,,,,,,,,,,,,,,,,,,,,,,,,,,,,,,,,,,,,,,,,,,,,,
,,,,,,,,,,stimuli/images/PICTURE_93.png,GIRL,5ee9c6eb82a6e436011ecc86,16/06/2002,2020-07-08_17h18.35.611,proactive,2020.1.2,Win32,60,5f035e5afe130c270d6ae6dd,5f05f1c9f8e03d0d9ee308cb,5,,,,,,skateboard,,,,,,0,49,49,31,1,4,2,,,,,,,,,,,,,,,,,,,,,,,,,,,,,,,,,,,,,,,,,,,,,,,,,,,,,,,,,,,,,,,,,,,,,,,,,,,
,,,,,,,,,,stimuli/images/PICTURE_314.png,SPEECH,5ee9c6eb82a6e436011ecc86,16/06/2002,2020-07-08_17h18.35.611,proactive,2020.1.2,Win32,60,5f035e5afe130c270d6ae6dd,5f05f1c9f8e03d0d9ee308cb,5,,,,,,perfume,,,,,,0,50,50,35,1,4,2,,,,,,,,,,,,,,,,,,,,,,,,,,,,,,,,,,,,,,,,,,,,,,,,,,,,,,,,,,,,,,,,,,,,,,,,,,,
,,,,,,,,,,stimuli/images/PICTURE_327.png,LEADER,5ee9c6eb82a6e436011ecc86,16/06/2002,2020-07-08_17h18.35.611,proactive,2020.1.2,Win32,60,5f035e5afe130c270d6ae6dd,5f05f1c9f8e03d0d9ee308cb,5,,,,,,helmet,,,,,,0,51,51,17,1,2,2,,,,,,,,,,,,,,,,,,,,,,,,,,,,,,,,,,,,,,,,,,,,,,,,,,,,,,,,,,,,,,,,,,,,,,,,,,,
,,,,,,,,,,stimuli/images/PICTURE_18.png,RIVER,5ee9c6eb82a6e436011ecc86,16/06/2002,2020-07-08_17h18.35.611,proactive,2020.1.2,Win32,60,5f035e5afe130c270d6ae6dd,5f05f1c9f8e03d0d9ee308cb,5,,,,,,planet,,,,,,0,52,52,22,1,3,2,,,,,,,,,,,,,,,,,,,,,,,,,,,,,,,,,,,,,,,,,,,,,,,,,,,,,,,,,,,,,,,,,,,,,,,,,,,
,,,,,,,,,,stimuli/images/PICTURE_95.png,NIGHT,5ee9c6eb82a6e436011ecc86,16/06/2002,2020-07-08_17h18.35.611,proactive,2020.1.2,Win32,60,5f035e5afe130c270d6ae6dd,5f05f1c9f8e03d0d9ee308cb,5,,,,,,suitcase,,,,,,0,53,53,37,1,4,2,,,,,,,,,,,,,,,,,,,,,,,,,,,,,,,,,,,,,,,,,,,,,,,,,,,,,,,,,,,,,,,,,,,,,,,,,,,
,,,,,,,,,,stimuli/images/PICTURE_405.png,JUNGLE,5ee9c6eb82a6e436011ecc86,16/06/2002,2020-07-08_17h18.35.611,proactive,2020.1.2,Win32,60,5f035e5afe130c270d6ae6dd,5f05f1c9f8e03d0d9ee308cb,5,,,,,,anchor,,,,,,0,54,54,13,1,2,2,,,,,,,,,,,,,,,,,,,,,,,,,,,,,,,,,,,,,,,,,,,,,,,,,,,,,,,,,,,,,,,,,,,,,,,,,,,
,,,,,,,,,,stimuli/images/PICTURE_33.png,COPS,5ee9c6eb82a6e436011ecc86,16/06/2002,2020-07-08_17h18.35.611,proactive,2020.1.2,Win32,60,5f035e5afe130c270d6ae6dd,5f05f1c9f8e03d0d9ee308cb,5,,,,,,frame,,,,,,0,55,55,29,1,3,2,,,,,,,,,,,,,,,,,,,,,,,,,,,,,,,,,,,,,,,,,,,,,,,,,,,,,,,,,,,,,,,,,,,,,,,,,,,
,,,,,,,,,,stimuli/images/PICTURE_296.png,CLOCK,5ee9c6eb82a6e436011ecc86,16/06/2002,2020-07-08_17h18.35.611,proactive,2020.1.2,Win32,60,5f035e5afe130c270d6ae6dd,5f05f1c9f8e03d0d9ee308cb,5,,,,,,bolt,,,,,,0,56,56,18,1,2,2,,,,,,,,,,,,,,,,,,,,,,,,,,,,,,,,,,,,,,,,,,,,,,,,,,,,,,,,,,,,,,,,,,,,,,,,,,,
,,,,,,,,,,stimuli/images/PICTURE_215.png,LEADER,5ee9c6eb82a6e436011ecc86,16/06/2002,2020-07-08_17h18.35.611,proactive,2020.1.2,Win32,60,5f035e5afe130c270d6ae6dd,5f05f1c9f8e03d0d9ee308cb,5,,,,,,boot,,,,,,0,57,57,43,1,5,2,,,,,,,,,,,,,,,,,,,,,,,,,,,,,,,,,,,,,,,,,,,,,,,,,,,,,,,,,,,,,,,,,,,,,,,,,,,
,,,,,,,,,,stimuli/images/PICTURE_452.png,COPS,5ee9c6eb82a6e436011ecc86,16/06/2002,2020-07-08_17h18.35.611,proactive,2020.1.2,Win32,60,5f035e5afe130c270d6ae6dd,5f05f1c9f8e03d0d9ee308cb,5,,,,,,watch,,,,,,0,58,58,0,1,1,2,,,,,,,,,,,,,,,,,,,,,,,,,,,,,,,,,,,,,,,,,,,,,,,,,,,,,,,,,,,,,,,,,,,,,,,,,,,
,,?,0.00316,0,,,,,,stimuli/images/PICTURE_348.png,TOILET,5ee9c6eb82a6e436011ecc86,16/06/2002,2020-07-08_17h18.35.611,proactive,2020.1.2,Win32,60,5f035e5afe130c270d6ae6dd,5f05f1c9f8e03d0d9ee308cb,5,,,,,,pepper,,,,,,,,,,,1,2,0,0,0,4,1,,,,,,,,,,,,,,,,,,,,,,,,,,,,,,,,,,,,,,,,,,,,,,,,,,,,,,,,,,,,,,,,,,,,,,
,,?,0.001225,0,,,,,,stimuli/images/PICTURE_405.png,HOUSE,5ee9c6eb82a6e436011ecc86,16/06/2002,2020-07-08_17h18.35.611,proactive,2020.1.2,Win32,60,5f035e5afe130c270d6ae6dd,5f05f1c9f8e03d0d9ee308cb,5,,,,,,anchor,,,,,,,,,,,1,2,0,1,1,2,1,,,,,,,,,,,,,,,,,,,,,,,,,,,,,,,,,,,,,,,,,,,,,,,,,,,,,,,,,,,,,,,,,,,,,,
,,FAMILY,5.70239,1,,,,,,stimuli/images/PICTURE_453.png,FAMILY,5ee9c6eb82a6e436011ecc86,16/06/2002,2020-07-08_17h18.35.611,proactive,2020.1.2,Win32,60,5f035e5afe130c270d6ae6dd,5f05f1c9f8e03d0d9ee308cb,5,,,,,,scissors,,,,,,,,,,,5,2,0,2,2,48,1,,,,,,,,,,,,,,,,,,,,,,,,,,,,,,,,,,,,,,,,,,,,,,,,,,,,,,,,,,,,,,,,,,,,,,
,,?,0.002365,0,,,,,,stimuli/images/PICTURE_667.png,GLASS,5ee9c6eb82a6e436011ecc86,16/06/2002,2020-07-08_17h18.35.611,proactive,2020.1.2,Win32,60,5f035e5afe130c270d6ae6dd,5f05f1c9f8e03d0d9ee308cb,5,,,,,,daisy,,,,,,,,,,,3,2,0,3,3,27,1,,,,,,,,,,,,,,,,,,,,,,,,,,,,,,,,,,,,,,,,,,,,,,,,,,,,,,,,,,,,,,,,,,,,,,
,,?,0.00185,0,,,,,,stimuli/images/PICTURE_95.png,NIGHT,5ee9c6eb82a6e436011ecc86,16/06/2002,2020-07-08_17h18.35.611,proactive,2020.1.2,Win32,60,5f035e5afe130c270d6ae6dd,5f05f1c9f8e03d0d9ee308cb,5,,,,,,suitcase,,,,,,,,,,,4,2,0,4,4,37,1,,,,,,,,,,,,,,,,,,,,,,,,,,,,,,,,,,,,,,,,,,,,,,,,,,,,,,,,,,,,,,,,,,,,,,
,,?,0.002085,0,,,,,,stimuli/images/PICTURE_208.png,SPIRIT,5ee9c6eb82a6e436011ecc86,16/06/2002,2020-07-08_17h18.35.611,proactive,2020.1.2,Win32,60,5f035e5afe130c270d6ae6dd,5f05f1c9f8e03d0d9ee308cb,5,,,,,,microphone,,,,,,,,,,,3,2,0,5,5,28,1,,,,,,,,,,,,,,,,,,,,,,,,,,,,,,,,,,,,,,,,,,,,,,,,,,,,,,,,,,,,,,,,,,,,,,
,,DUDE,1.68495,1,,,,,,stimuli/images/PICTURE_692.png,DUDE,5ee9c6eb82a6e436011ecc86,16/06/2002,2020-07-08_17h18.35.611,proactive,2020.1.2,Win32,60,5f035e5afe130c270d6ae6dd,5f05f1c9f8e03d0d9ee308cb,5,,,,,,cherry,,,,,,,,,,,5,2,0,6,6,47,1,,,,,,,,,,,,,,,,,,,,,,,,,,,,,,,,,,,,,,,,,,,,,,,,,,,,,,,,,,,,,,,,,,,,,,
,,CLOCK,2.05288,1,,,,,,stimuli/images/PICTURE_688.png,CLOCK,5ee9c6eb82a6e436011ecc86,16/06/2002,2020-07-08_17h18.35.611,proactive,2020.1.2,Win32,60,5f035e5afe130c270d6ae6dd,5f05f1c9f8e03d0d9ee308cb,5,,,,,,runner,,,,,,,,,,,5,2,0,7,7,42,1,,,,,,,,,,,,,,,,,,,,,,,,,,,,,,,,,,,,,,,,,,,,,,,,,,,,,,,,,,,,,,,,,,,,,,
,,?,0.00238,0,,,,,,stimuli/images/PICTURE_93.png,GIRL,5ee9c6eb82a6e436011ecc86,16/06/2002,2020-07-08_17h18.35.611,proactive,2020.1.2,Win32,60,5f035e5afe130c270d6ae6dd,5f05f1c9f8e03d0d9ee308cb,5,,,,,,skateboard,,,,,,,,,,,4,2,0,8,8,31,1,,,,,,,,,,,,,,,,,,,,,,,,,,,,,,,,,,,,,,,,,,,,,,,,,,,,,,,,,,,,,,,,,,,,,,
,,?,0.001515,0,,,,,,stimuli/images/PICTURE_677.png,FAMILY,5ee9c6eb82a6e436011ecc86,16/06/2002,2020-07-08_17h18.35.611,proactive,2020.1.2,Win32,60,5f035e5afe130c270d6ae6dd,5f05f1c9f8e03d0d9ee308cb,5,,,,,,map,,,,,,,,,,,6,2,0,9,9,53,1,,,,,,,,,,,,,,,,,,,,,,,,,,,,,,,,,,,,,,,,,,,,,,,,,,,,,,,,,,,,,,,,,,,,,,
,,?,0.00174,0,,,,,,stimuli/images/PICTURE_564.png,PLENTY,5ee9c6eb82a6e436011ecc86,16/06/2002,2020-07-08_17h18.35.611,proactive,2020.1.2,Win32,60,5f035e5afe130c270d6ae6dd,5f05f1c9f8e03d0d9ee308cb,5,,,,,,spoon,,,,,,,,,,,2,2,0,10,10,11,1,,,,,,,,,,,,,,,,,,,,,,,,,,,,,,,,,,,,,,,,,,,,,,,,,,,,,,,,,,,,,,,,,,,,,,
,,?,0.0015,0,,,,,,stimuli/images/PICTURE_215.png,FOOD,5ee9c6eb82a6e436011ecc86,16/06/2002,2020-07-08_17h18.35.611,proactive,2020.1.2,Win32,60,5f035e5afe130c270d6ae6dd,5f05f1c9f8e03d0d9ee308cb,5,,,,,,boot,,,,,,,,,,,1,2,0,11,11,5,1,,,,,,,,,,,,,,,,,,,,,,,,,,,,,,,,,,,,,,,,,,,,,,,,,,,,,,,,,,,,,,,,,,,,,,
,,?,0.00154,0,,,,,,stimuli/images/PICTURE_255.png,PENNY,5ee9c6eb82a6e436011ecc86,16/06/2002,2020-07-08_17h18.35.611,proactive,2020.1.2,Win32,60,5f035e5afe130c270d6ae6dd,5f05f1c9f8e03d0d9ee308cb,5,,,,,,shovel,,,,,,,,,,,2,2,0,12,12,19,1,,,,,,,,,,,,,,,,,,,,,,,,,,,,,,,,,,,,,,,,,,,,,,,,,,,,,,,,,,,,,,,,,,,,,,
,,?,0.001455,0,,,,,,stimuli/images/PICTURE_348.png,DUDE,5ee9c6eb82a6e436011ecc86,16/06/2002,2020-07-08_17h18.35.611,proactive,2020.1.2,Win32,60,5f035e5afe130c270d6ae6dd,5f05f1c9f8e03d0d9ee308cb,5,,,,,,pepper,,,,,,,,,,,6,2,0,13,13,59,1,,,,,,,,,,,,,,,,,,,,,,,,,,,,,,,,,,,,,,,,,,,,,,,,,,,,,,,,,,,,,,,,,,,,,,
,,?,0.001585,0,,,,,,stimuli/images/PICTURE_509.png,APPLE,5ee9c6eb82a6e436011ecc86,16/06/2002,2020-07-08_17h18.35.611,proactive,2020.1.2,Win32,60,5f035e5afe130c270d6ae6dd,5f05f1c9f8e03d0d9ee308cb,5,,,,,,telephone,,,,,,,,,,,4,2,0,14,14,38,1,,,,,,,,,,,,,,,,,,,,,,,,,,,,,,,,,,,,,,,,,,,,,,,,,,,,,,,,,,,,,,,,,,,,,,
,,?,0.001485,0,,,,,,stimuli/images/PICTURE_141.png,CLIENT,5ee9c6eb82a6e436011ecc86,16/06/2002,2020-07-08_17h18.35.611,proactive,2020.1.2,Win32,60,5f035e5afe130c270d6ae6dd,5f05f1c9f8e03d0d9ee308cb,5,,,,,,sunflower,,,,,,,,,,,4,2,0,15,15,30,1,,,,,,,,,,,,,,,,,,,,,,,,,,,,,,,,,,,,,,,,,,,,,,,,,,,,,,,,,,,,,,,,,,,,,,
,,?,0.00146,0,,,,,,stimuli/images/PICTURE_160.png,HOTEL,5ee9c6eb82a6e436011ecc86,16/06/2002,2020-07-08_17h18.35.611,proactive,2020.1.2,Win32,60,5f035e5afe130c270d6ae6dd,5f05f1c9f8e03d0d9ee308cb,5,,,,,,wheelbarrow,,,,,,,,,,,2,2,0,16,16,16,1,,,,,,,,,,,,,,,,,,,,,,,,,,,,,,,,,,,,,,,,,,,,,,,,,,,,,,,,,,,,,,,,,,,,,,
,,?,0.00083,0,,,,,,stimuli/images/PICTURE_2.png,YARD,5ee9c6eb82a6e436011ecc86,16/06/2002,2020-07-08_17h18.35.611,proactive,2020.1.2,Win32,60,5f035e5afe130c270d6ae6dd,5f05f1c9f8e03d0d9ee308cb,5,,,,,,tyre,,,,,,,,,,,6,2,0,17,17,55,1,,,,,,,,,,,,,,,,,,,,,,,,,,,,,,,,,,,,,,,,,,,,,,,,,,,,,,,,,,,,,,,,,,,,,,
,,?,0.001,0,,,,,,stimuli/images/PICTURE_327.png,LEADER,5ee9c6eb82a6e436011ecc86,16/06/2002,2020-07-08_17h18.35.611,proactive,2020.1.2,Win32,60,5f035e5afe130c270d6ae6dd,5f05f1c9f8e03d0d9ee308cb,5,,,,,,helmet,,,,,,,,,,,2,2,0,18,18,17,1,,,,,,,,,,,,,,,,,,,,,,,,,,,,,,,,,,,,,,,,,,,,,,,,,,,,,,,,,,,,,,,,,,,,,,
,,?,0.0008,0,,,,,,stimuli/images/PICTURE_311.png,TOILET,5ee9c6eb82a6e436011ecc86,16/06/2002,2020-07-08_17h18.35.611,proactive,2020.1.2,Win32,60,5f035e5afe130c270d6ae6dd,5f05f1c9f8e03d0d9ee308cb,5,,,,,,razor,,,,,,,,,,,6,2,0,19,19,54,1,,,,,,,,,,,,,,,,,,,,,,,,,,,,,,,,,,,,,,,,,,,,,,,,,,,,,,,,,,,,,,,,,,,,,,
,,?,0.00093,0,,,,,,stimuli/images/PICTURE_68.png,KIND,5ee9c6eb82a6e436011ecc86,16/06/2002,2020-07-08_17h18.35.611,proactive,2020.1.2,Win32,60,5f035e5afe130c270d6ae6dd,5f05f1c9f8e03d0d9ee308cb,5,,,,,,candle,,,,,,,,,,,3,2,0,20,20,23,1,,,,,,,,,,,,,,,,,,,,,,,,,,,,,,,,,,,,,,,,,,,,,,,,,,,,,,,,,,,,,,,,,,,,,,
,,?,0.0036,0,,,,,,stimuli/images/PICTURE_2.png,AREA,5ee9c6eb82a6e436011ecc86,16/06/2002,2020-07-08_17h18.35.611,proactive,2020.1.2,Win32,60,5f035e5afe130c270d6ae6dd,5f05f1c9f8e03d0d9ee308cb,5,,,,,,tyre,,,,,,,,,,,4,2,0,21,21,32,1,,,,,,,,,,,,,,,,,,,,,,,,,,,,,,,,,,,,,,,,,,,,,,,,,,,,,,,,,,,,,,,,,,,,,,
,,?,0.00089,0,,,,,,stimuli/images/PICTURE_215.png,BOYS,5ee9c6eb82a6e436011ecc86,16/06/2002,2020-07-08_17h18.35.611,proactive,2020.1.2,Win32,60,5f035e5afe130c270d6ae6dd,5f05f1c9f8e03d0d9ee308cb,5,,,,,,boot,,,,,,,,,,,3,2,0,22,22,24,1,,,,,,,,,,,,,,,,,,,,,,,,,,,,,,,,,,,,,,,,,,,,,,,,,,,,,,,,,,,,,,,,,,,,,,
,,?,0.000865,0,,,,,,stimuli/images/PICTURE_297.png,BODY,5ee9c6eb82a6e436011ecc86,16/06/2002,2020-07-08_17h18.35.611,proactive,2020.1.2,Win32,60,5f035e5afe130c270d6ae6dd,5f05f1c9f8e03d0d9ee308cb,5,,,,,,aeroplane,,,,,,,,,,,6,2,0,23,23,51,1,,,,,,,,,,,,,,,,,,,,,,,,,,,,,,,,,,,,,,,,,,,,,,,,,,,,,,,,,,,,,,,,,,,,,,
,,?,0.00079,0,,,,,,stimuli/images/PICTURE_57.png,CASINO,5ee9c6eb82a6e436011ecc86,16/06/2002,2020-07-08_17h18.35.611,proactive,2020.1.2,Win32,60,5f035e5afe130c270d6ae6dd,5f05f1c9f8e03d0d9ee308cb,5,,,,,,stamp,,,,,,,,,,,2,2,0,24,24,12,1,,,,,,,,,,,,,,,,,,,,,,,,,,,,,,,,,,,,,,,,,,,,,,,,,,,,,,,,,,,,,,,,,,,,,,
,,?,0.001055,0,,,,,,stimuli/images/PICTURE_147.png,LEADER,5ee9c6eb82a6e436011ecc86,16/06/2002,2020-07-08_17h18.35.611,proactive,2020.1.2,Win32,60,5f035e5afe130c270d6ae6dd,5f05f1c9f8e03d0d9ee308cb,5,,,,,,hanger,,,,,,,,,,,4,2,0,25,25,33,1,,,,,,,,,,,,,,,,,,,,,,,,,,,,,,,,,,,,,,,,,,,,,,,,,,,,,,,,,,,,,,,,,,,,,,
,,?,0.00084,0,,,,,,stimuli/images/PICTURE_405.png,JUNGLE,5ee9c6eb82a6e436011ecc86,16/06/2002,2020-07-08_17h18.35.611,proactive,2020.1.2,Win32,60,5f035e5afe130c270d6ae6dd,5f05f1c9f8e03d0d9ee308cb,5,,,,,,anchor,,,,,,,,,,,2,2,0,26,26,13,1,,,,,,,,,,,,,,,,,,,,,,,,,,,,,,,,,,,,,,,,,,,,,,,,,,,,,,,,,,,,,,,,,,,,,,
,,?,0.000835,0,,,,,,stimuli/images/PICTURE_57.png,NATION,5ee9c6eb82a6e436011ecc86,16/06/2002,2020-07-08_17h18.35.611,proactive,2020.1.2,Win32,60,5f035e5afe130c270d6ae6dd,5f05f1c9f8e03d0d9ee308cb,5,,,,,,stamp,,,,,,,,,,,3,2,0,27,27,21,1,,,,,,,,,,,,,,,,,,,,,,,,,,,,,,,,,,,,,,,,,,,,,,,,,,,,,,,,,,,,,,,,,,,,,,
,,YEAR,4.04328,1,,,,,,stimuli/images/PICTURE_654.png,YEAR,5ee9c6eb82a6e436011ecc86,16/06/2002,2020-07-08_17h18.35.611,proactive,2020.1.2,Win32,60,5f035e5afe130c270d6ae6dd,5f05f1c9f8e03d0d9ee308cb,5,,,,,,pencil,,,,,,,,,,,5,2,0,28,28,41,1,,,,,,,,,,,,,,,,,,,,,,,,,,,,,,,,,,,,,,,,,,,,,,,,,,,,,,,,,,,,,,,,,,,,,,
,,?,0.002955,0,,,,,,stimuli/images/PICTURE_509.png,BATH,5ee9c6eb82a6e436011ecc86,16/06/2002,2020-07-08_17h18.35.611,proactive,2020.1.2,Win32,60,5f035e5afe130c270d6ae6dd,5f05f1c9f8e03d0d9ee308cb,5,,,,,,telephone,,,,,,,,,,,2,2,0,29,29,15,1,,,,,,,,,,,,,,,,,,,,,,,,,,,,,,,,,,,,,,,,,,,,,,,,,,,,,,,,,,,,,,,,,,,,,,
,,CANDY,1.940475,1,,,,,,stimuli/images/PICTURE_356.png,CANDY,5ee9c6eb82a6e436011ecc86,16/06/2002,2020-07-08_17h18.35.611,proactive,2020.1.2,Win32,60,5f035e5afe130c270d6ae6dd,5f05f1c9f8e03d0d9ee308cb,5,,,,,,pawn,,,,,,,,,,,5,2,0,30,30,46,1,,,,,,,,,,,,,,,,,,,,,,,,,,,,,,,,,,,,,,,,,,,,,,,,,,,,,,,,,,,,,,,,,,,,,,
,,?,0.00108,0,,,,,,stimuli/images/PICTURE_677.png,PHOTO,5ee9c6eb82a6e436011ecc86,16/06/2002,2020-07-08_17h18.35.611,proactive,2020.1.2,Win32,60,5f035e5afe130c270d6ae6dd,5f05f1c9f8e03d0d9ee308cb,5,,,,,,map,,,,,,,,,,,2,2,0,31,31,14,1,,,,,,,,,,,,,,,,,,,,,,,,,,,,,,,,,,,,,,,,,,,,,,,,,,,,,,,,,,,,,,,,,,,,,,
,,?,0.000615,0,,,,,,stimuli/images/PICTURE_32.png,LETTER,5ee9c6eb82a6e436011ecc86,16/06/2002,2020-07-08_17h18.35.611,proactive,2020.1.2,Win32,60,5f035e5afe130c270d6ae6dd,5f05f1c9f8e03d0d9ee308cb,5,,,,,,crown,,,,,,,,,,,6,2,0,32,32,56,1,,,,,,,,,,,,,,,,,,,,,,,,,,,,,,,,,,,,,,,,,,,,,,,,,,,,,,,,,,,,,,,,,,,,,,
,,MOMENT,3.469045,1,,,,,,stimuli/images/PICTURE_470.png,MOMENT,5ee9c6eb82a6e436011ecc86,16/06/2002,2020-07-08_17h18.35.611,proactive,2020.1.2,Win32,60,5f035e5afe130c270d6ae6dd,5f05f1c9f8e03d0d9ee308cb,5,,,,,,motorbike,,,,,,,,,,,5,2,0,33,33,40,1,,,,,,,,,,,,,,,,,,,,,,,,,,,,,,,,,,,,,,,,,,,,,,,,,,,,,,,,,,,,,,,,,,,,,,
,,VALLEY,1.8199,1,,,,,,stimuli/images/PICTURE_708.png,VALLEY,5ee9c6eb82a6e436011ecc86,16/06/2002,2020-07-08_17h18.35.611,proactive,2020.1.2,Win32,60,5f035e5afe130c270d6ae6dd,5f05f1c9f8e03d0d9ee308cb,5,,,,,,monkey,,,,,,,,,,,5,2,0,34,34,45,1,,,,,,,,,,,,,,,,,,,,,,,,,,,,,,,,,,,,,,,,,,,,,,,,,,,,,,,,,,,,,,,,,,,,,,
,,?,0.00225,0,,,,,,stimuli/images/PICTURE_655.png,SALE,5ee9c6eb82a6e436011ecc86,16/06/2002,2020-07-08_17h18.35.611,proactive,2020.1.2,Win32,60,5f035e5afe130c270d6ae6dd,5f05f1c9f8e03d0d9ee308cb,5,,,,,,megaphone,,,,,,,,,,,6,2,0,35,35,57,1,,,,,,,,,,,,,,,,,,,,,,,,,,,,,,,,,,,,,,,,,,,,,,,,,,,,,,,,,,,,,,,,,,,,,,
,,?,0.00189,0,,,,,,stimuli/images/PICTURE_314.png,SPEECH,5ee9c6eb82a6e436011ecc86,16/06/2002,2020-07-08_17h18.35.611,proactive,2020.1.2,Win32,60,5f035e5afe130c270d6ae6dd,5f05f1c9f8e03d0d9ee308cb,5,,,,,,perfume,,,,,,,,,,,4,2,0,36,36,35,1,,,,,,,,,,,,,,,,,,,,,,,,,,,,,,,,,,,,,,,,,,,,,,,,,,,,,,,,,,,,,,,,,,,,,,
,,?,0.001785,0,,,,,,stimuli/images/PICTURE_491.png,SERIES,5ee9c6eb82a6e436011ecc86,16/06/2002,2020-07-08_17h18.35.611,proactive,2020.1.2,Win32,60,5f035e5afe130c270d6ae6dd,5f05f1c9f8e03d0d9ee308cb,5,,,,,,rug,,,,,,,,,,,4,2,0,37,37,39,1,,,,,,,,,,,,,,,,,,,,,,,,,,,,,,,,,,,,,,,,,,,,,,,,,,,,,,,,,,,,,,,,,,,,,,
,,MILLER,2.283665,1,,,,,,stimuli/images/PICTURE_509.png,MILLER,5ee9c6eb82a6e436011ecc86,16/06/2002,2020-07-08_17h18.35.611,proactive,2020.1.2,Win32,60,5f035e5afe130c270d6ae6dd,5f05f1c9f8e03d0d9ee308cb,5,,,,,,telephone,,,,,,,,,,,5,2,0,38,38,49,1,,,,,,,,,,,,,,,,,,,,,,,,,,,,,,,,,,,,,,,,,,,,,,,,,,,,,,,,,,,,,,,,,,,,,,
,,?,0.00199,0,,,,,,stimuli/images/PICTURE_57.png,CANDY,5ee9c6eb82a6e436011ecc86,16/06/2002,2020-07-08_17h18.35.611,proactive,2020.1.2,Win32,60,5f035e5afe130c270d6ae6dd,5f05f1c9f8e03d0d9ee308cb,5,,,,,,stamp,,,,,,,,,,,6,2,0,39,39,52,1,,,,,,,,,,,,,,,,,,,,,,,,,,,,,,,,,,,,,,,,,,,,,,,,,,,,,,,,,,,,,,,,,,,,,,
,,?,0.00508,0,,,,,,stimuli/images/PICTURE_177.png,HOUSE,5ee9c6eb82a6e436011ecc86,16/06/2002,2020-07-08_17h18.35.611,proactive,2020.1.2,Win32,60,5f035e5afe130c270d6ae6dd,5f05f1c9f8e03d0d9ee308cb,5,,,,,,mushroom,,,,,,,,,,,3,2,0,40,40,25,1,,,,,,,,,,,,,,,,,,,,,,,,,,,,,,,,,,,,,,,,,,,,,,,,,,,,,,,,,,,,,,,,,,,,,,
,,LEADER,2.040505,1,,,,,,stimuli/images/PICTURE_215.png,LEADER,5ee9c6eb82a6e436011ecc86,16/06/2002,2020-07-08_17h18.35.611,proactive,2020.1.2,Win32,60,5f035e5afe130c270d6ae6dd,5f05f1c9f8e03d0d9ee308cb,5,,,,,,boot,,,,,,,,,,,5,2,0,41,41,43,1,,,,,,,,,,,,,,,,,,,,,,,,,,,,,,,,,,,,,,,,,,,,,,,,,,,,,,,,,,,,,,,,,,,,,,
,,?,0.002865,0,,,,,,stimuli/images/PICTURE_487.png,POLICY,5ee9c6eb82a6e436011ecc86,16/06/2002,2020-07-08_17h18.35.611,proactive,2020.1.2,Win32,60,5f035e5afe130c270d6ae6dd,5f05f1c9f8e03d0d9ee308cb,5,,,,,,basket,,,,,,,,,,,4,2,0,42,42,34,1,,,,,,,,,,,,,,,,,,,,,,,,,,,,,,,,,,,,,,,,,,,,,,,,,,,,,,,,,,,,,,,,,,,,,,
,,?,0.002215,0,,,,,,stimuli/images/PICTURE_405.png,JUNGLE,5ee9c6eb82a6e436011ecc86,16/06/2002,2020-07-08_17h18.35.611,proactive,2020.1.2,Win32,60,5f035e5afe130c270d6ae6dd,5f05f1c9f8e03d0d9ee308cb,5,,,,,,anchor,,,,,,,,,,,6,2,0,43,43,58,1,,,,,,,,,,,,,,,,,,,,,,,,,,,,,,,,,,,,,,,,,,,,,,,,,,,,,,,,,,,,,,,,,,,,,,
,,?,0.008255,0,,,,,,stimuli/images/PICTURE_2.png,JUNGLE,5ee9c6eb82a6e436011ecc86,16/06/2002,2020-07-08_17h18.35.611,proactive,2020.1.2,Win32,60,5f035e5afe130c270d6ae6dd,5f05f1c9f8e03d0d9ee308cb,5,,,,,,tyre,,,,,,,,,,,1,2,0,44,44,1,1,,,,,,,,,,,,,,,,,,,,,,,,,,,,,,,,,,,,,,,,,,,,,,,,,,,,,,,,,,,,,,,,,,,,,,
,,?,0.00197,0,,,,,,stimuli/images/PICTURE_654.png,COPS,5ee9c6eb82a6e436011ecc86,16/06/2002,2020-07-08_17h18.35.611,proactive,2020.1.2,Win32,60,5f035e5afe130c270d6ae6dd,5f05f1c9f8e03d0d9ee308cb,5,,,,,,pencil,,,,,,,,,,,2,2,0,45,45,10,1,,,,,,,,,,,,,,,,,,,,,,,,,,,,,,,,,,,,,,,,,,,,,,,,,,,,,,,,,,,,,,,,,,,,,,
,,?,0.001495,0,,,,,,stimuli/images/PICTURE_403.png,FAMILY,5ee9c6eb82a6e436011ecc86,16/06/2002,2020-07-08_17h18.35.611,proactive,2020.1.2,Win32,60,5f035e5afe130c270d6ae6dd,5f05f1c9f8e03d0d9ee308cb,5,,,,,,cathedral,,,,,,,,,,,1,2,0,46,46,9,1,,,,,,,,,,,,,,,,,,,,,,,,,,,,,,,,,,,,,,,,,,,,,,,,,,,,,,,,,,,,,,,,,,,,,,
,,?,0.00157,0,,,,,,stimuli/images/PICTURE_452.png,COPS,5ee9c6eb82a6e436011ecc86,16/06/2002,2020-07-08_17h18.35.611,proactive,2020.1.2,Win32,60,5f035e5afe130c270d6ae6dd,5f05f1c9f8e03d0d9ee308cb,5,,,,,,watch,,,,,,,,,,,1,2,0,47,47,0,1,,,,,,,,,,,,,,,,,,,,,,,,,,,,,,,,,,,,,,,,,,,,,,,,,,,,,,,,,,,,,,,,,,,,,,
,,?,0.001335,0,,,,,,stimuli/images/PICTURE_504.png,HOUSE,5ee9c6eb82a6e436011ecc86,16/06/2002,2020-07-08_17h18.35.611,proactive,2020.1.2,Win32,60,5f035e5afe130c270d6ae6dd,5f05f1c9f8e03d0d9ee308cb,5,,,,,,wheel,,,,,,,,,,,4,2,0,48,48,36,1,,,,,,,,,,,,,,,,,,,,,,,,,,,,,,,,,,,,,,,,,,,,,,,,,,,,,,,,,,,,,,,,,,,,,,
,,?,0.00118,0,,,,,,stimuli/images/PICTURE_33.png,COPS,5ee9c6eb82a6e436011ecc86,16/06/2002,2020-07-08_17h18.35.611,proactive,2020.1.2,Win32,60,5f035e5afe130c270d6ae6dd,5f05f1c9f8e03d0d9ee308cb,5,,,,,,frame,,,,,,,,,,,3,2,0,49,49,29,1,,,,,,,,,,,,,,,,,,,,,,,,,,,,,,,,,,,,,,,,,,,,,,,,,,,,,,,,,,,,,,,,,,,,,,
,,?,0.001165,0,,,,,,stimuli/images/PICTURE_470.png,BEAUTY,5ee9c6eb82a6e436011ecc86,16/06/2002,2020-07-08_17h18.35.611,proactive,2020.1.2,Win32,60,5f035e5afe130c270d6ae6dd,5f05f1c9f8e03d0d9ee308cb,5,,,,,,motorbike,,,,,,,,,,,3,2,0,50,50,26,1,,,,,,,,,,,,,,,,,,,,,,,,,,,,,,,,,,,,,,,,,,,,,,,,,,,,,,,,,,,,,,,,,,,,,,
,,?,0.001215,0,,,,,,stimuli/images/PICTURE_285.png,WRITER,5ee9c6eb82a6e436011ecc86,16/06/2002,2020-07-08_17h18.35.611,proactive,2020.1.2,Win32,60,5f035e5afe130c270d6ae6dd,5f05f1c9f8e03d0d9ee308cb,5,,,,,,carrot,,,,,,,,,,,1,2,0,51,51,6,1,,,,,,,,,,,,,,,,,,,,,,,,,,,,,,,,,,,,,,,,,,,,,,,,,,,,,,,,,,,,,,,,,,,,,,
,,POLICY,1.9053,1,,,,,,stimuli/images/PICTURE_750.png,POLICY,5ee9c6eb82a6e436011ecc86,16/06/2002,2020-07-08_17h18.35.611,proactive,2020.1.2,Win32,60,5f035e5afe130c270d6ae6dd,5f05f1c9f8e03d0d9ee308cb,5,,,,,,kettle,,,,,,,,,,,5,2,0,52,52,44,1,,,,,,,,,,,,,,,,,,,,,,,,,,,,,,,,,,,,,,,,,,,,,,,,,,,,,,,,,,,,,,,,,,,,,,
,,?,0.00255,0,,,,,,stimuli/images/PICTURE_311.png,FLESH,5ee9c6eb82a6e436011ecc86,16/06/2002,2020-07-08_17h18.35.611,proactive,2020.1.2,Win32,60,5f035e5afe130c270d6ae6dd,5f05f1c9f8e03d0d9ee308cb,5,,,,,,razor,,,,,,,,,,,1,2,0,53,53,3,1,,,,,,,,,,,,,,,,,,,,,,,,,,,,,,,,,,,,,,,,,,,,,,,,,,,,,,,,,,,,,,,,,,,,,,
,,?,0.00223,0,,,,,,stimuli/images/PICTURE_509.png,SHOTS,5ee9c6eb82a6e436011ecc86,16/06/2002,2020-07-08_17h18.35.611,proactive,2020.1.2,Win32,60,5f035e5afe130c270d6ae6dd,5f05f1c9f8e03d0d9ee308cb,5,,,,,,telephone,,,,,,,,,,,1,2,0,54,54,7,1,,,,,,,,,,,,,,,,,,,,,,,,,,,,,,,,,,,,,,,,,,,,,,,,,,,,,,,,,,,,,,,,,,,,,,
,,?,0.001795,0,,,,,,stimuli/images/PICTURE_285.png,PRINCE,5ee9c6eb82a6e436011ecc86,16/06/2002,2020-07-08_17h18.35.611,proactive,2020.1.2,Win32,60,5f035e5afe130c270d6ae6dd,5f05f1c9f8e03d0d9ee308cb,5,,,,,,carrot,,,,,,,,,,,3,2,0,55,55,20,1,,,,,,,,,,,,,,,,,,,,,,,,,,,,,,,,,,,,,,,,,,,,,,,,,,,,,,,,,,,,,,,,,,,,,,
,,?,0.00221,0,,,,,,stimuli/images/PICTURE_18.png,RIVER,5ee9c6eb82a6e436011ecc86,16/06/2002,2020-07-08_17h18.35.611,proactive,2020.1.2,Win32,60,5f035e5afe130c270d6ae6dd,5f05f1c9f8e03d0d9ee308cb,5,,,,,,planet,,,,,,,,,,,3,2,0,56,56,22,1,,,,,,,,,,,,,,,,,,,,,,,,,,,,,,,,,,,,,,,,,,,,,,,,,,,,,,,,,,,,,,,,,,,,,,
,,?,0.00269,0,,,,,,stimuli/images/PICTURE_487.png,ROOF,5ee9c6eb82a6e436011ecc86,16/06/2002,2020-07-08_17h18.35.611,proactive,2020.1.2,Win32,60,5f035e5afe130c270d6ae6dd,5f05f1c9f8e03d0d9ee308cb,5,,,,,,basket,,,,,,,,,,,6,2,0,57,57,50,1,,,,,,,,,,,,,,,,,,,,,,,,,,,,,,,,,,,,,,,,,,,,,,,,,,,,,,,,,,,,,,,,,,,,,,
,,?,0.002215,0,,,,,,stimuli/images/PICTURE_296.png,CLOCK,5ee9c6eb82a6e436011ecc86,16/06/2002,2020-07-08_17h18.35.611,proactive,2020.1.2,Win32,60,5f035e5afe130c270d6ae6dd,5f05f1c9f8e03d0d9ee308cb,5,,,,,,bolt,,,,,,,,,,,2,2,0,58,58,18,1,,,,,,,,,,,,,,,,,,,,,,,,,,,,,,,,,,,,,,,,,,,,,,,,,,,,,,,,,,,,,,,,,,,,,,
,,?,0.00218,0,,,,,,stimuli/images/PICTURE_123.png,SALE,5ee9c6eb82a6e436011ecc86,16/06/2002,2020-07-08_17h18.35.611,proactive,2020.1.2,Win32,60,5f035e5afe130c270d6ae6dd,5f05f1c9f8e03d0d9ee308cb,5,,,,,,dart,,,,,,,,,,,1,2,0,59,59,8,1,,,,,,,,,,,,,,,,,,,,,,,,,,,,,,,,,,,,,,,,,,,,,,,,,,,,,,,,,,,,,,,,,,,,,,
,,,,,,,,,,,,5ee9c6eb82a6e436011ecc86,16/06/2002,2020-07-08_17h18.35.611,proactive,2020.1.2,Win32,60,5f035e5afe130c270d6ae6dd,5f05f1c9f8e03d0d9ee308cb,5,,,,,,,,,,,,,,,,,,,,,,,,0,0,0,2,1,stimuli/learn-block3.csv,,,,,,,,,,,,,,,,,,,,,,,,,,,,,,,,,,,,,,,,,,,,,,,,,,,,,,,,,,,,,,,,
,,,,,,,,,,stimuli/images/PICTURE_85.png,NATION,5ee9c6eb82a6e436011ecc86,16/06/2002,2020-07-08_17h18.35.611,proactive,2020.1.2,Win32,60,5f035e5afe130c270d6ae6dd,5f05f1c9f8e03d0d9ee308cb,5,,,,,,diamond,,,,,,0,0,0,5,1,1,1,,,,,,,,,,,,,,,,,,,,,,,,,,,,,,,,,,,,,,,,,,,,,,,,,,,,,,,,,,,,,,,,,,,,,,,,,,,
,,,,,,,,,,stimuli/images/PICTURE_564.png,BATH,5ee9c6eb82a6e436011ecc86,16/06/2002,2020-07-08_17h18.35.611,proactive,2020.1.2,Win32,60,5f035e5afe130c270d6ae6dd,5f05f1c9f8e03d0d9ee308cb,5,,,,,,spoon,,,,,,0,1,1,26,1,3,1,,,,,,,,,,,,,,,,,,,,,,,,,,,,,,,,,,,,,,,,,,,,,,,,,,,,,,,,,,,,,,,,,,,,,,,,,,,
,,,,,,,,,,stimuli/images/PICTURE_685.png,PENNY,5ee9c6eb82a6e436011ecc86,16/06/2002,2020-07-08_17h18.35.611,proactive,2020.1.2,Win32,60,5f035e5afe130c270d6ae6dd,5f05f1c9f8e03d0d9ee308cb,5,,,,,,goose,,,,,,0,2,2,4,1,1,1,,,,,,,,,,,,,,,,,,,,,,,,,,,,,,,,,,,,,,,,,,,,,,,,,,,,,,,,,,,,,,,,,,,,,,,,,,,
,,,,,,,,,,stimuli/images/PICTURE_449.png,DUDE,5ee9c6eb82a6e436011ecc86,16/06/2002,2020-07-08_17h18.35.611,proactive,2020.1.2,Win32,60,5f035e5afe130c270d6ae6dd,5f05f1c9f8e03d0d9ee308cb,5,,,,,,bench,,,,,,0,3,3,17,1,2,1,,,,,,,,,,,,,,,,,,,,,,,,,,,,,,,,,,,,,,,,,,,,,,,,,,,,,,,,,,,,,,,,,,,,,,,,,,,
,,,,,,,,,,stimuli/images/PICTURE_504.png,YEAR,5ee9c6eb82a6e436011ecc86,16/06/2002,2020-07-08_17h18.35.611,proactive,2020.1.2,Win32,60,5f035e5afe130c270d6ae6dd,5f05f1c9f8e03d0d9ee308cb,5,,,,,,wheel,,,,,,0,4,4,13,1,2,1,,,,,,,,,,,,,,,,,,,,,,,,,,,,,,,,,,,,,,,,,,,,,,,,,,,,,,,,,,,,,,,,,,,,,,,,,,,
,,,,,,,,,,stimuli/images/PICTURE_405.png,PLENTY,5ee9c6eb82a6e436011ecc86,16/06/2002,2020-07-08_17h18.35.611,proactive,2020.1.2,Win32,60,5f035e5afe130c270d6ae6dd,5f05f1c9f8e03d0d9ee308cb,5,,,,,,anchor,,,,,,0,5,5,23,1,3,1,,,,,,,,,,,,,,,,,,,,,,,,,,,,,,,,,,,,,,,,,,,,,,,,,,,,,,,,,,,,,,,,,,,,,,,,,,,
,,,,,,,,,,stimuli/images/PICTURE_467.png,POLICY,5ee9c6eb82a6e436011ecc86,16/06/2002,2020-07-08_17h18.35.611,proactive,2020.1.2,Win32,60,5f035e5afe130c270d6ae6dd,5f05f1c9f8e03d0d9ee308cb,5,,,,,,peg,,,,,,0,6,6,53,1,6,1,,,,,,,,,,,,,,,,,,,,,,,,,,,,,,,,,,,,,,,,,,,,,,,,,,,,,,,,,,,,,,,,,,,,,,,,,,,
,,,,,,,,,,stimuli/images/PICTURE_380.png,HONEY,5ee9c6eb82a6e436011ecc86,16/06/2002,2020-07-08_17h18.35.611,proactive,2020.1.2,Win32,60,5f035e5afe130c270d6ae6dd,5f05f1c9f8e03d0d9ee308cb,5,,,,,,gorilla,,,,,,0,7,7,19,1,2,1,,,,,,,,,,,,,,,,,,,,,,,,,,,,,,,,,,,,,,,,,,,,,,,,,,,,,,,,,,,,,,,,,,,,,,,,,,,
,,,,,,,,,,stimuli/images/PICTURE_108.png,FLIGHT,5ee9c6eb82a6e436011ecc86,16/06/2002,2020-07-08_17h18.35.611,proactive,2020.1.2,Win32,60,5f035e5afe130c270d6ae6dd,5f05f1c9f8e03d0d9ee308cb,5,,,,,,calendar,,,,,,0,8,8,59,1,6,1,,,,,,,,,,,,,,,,,,,,,,,,,,,,,,,,,,,,,,,,,,,,,,,,,,,,,,,,,,,,,,,,,,,,,,,,,,,
,,,,,,,,,,stimuli/images/PICTURE_42.png,BOYS,5ee9c6eb82a6e436011ecc86,16/06/2002,2020-07-08_17h18.35.611,proactive,2020.1.2,Win32,60,5f035e5afe130c270d6ae6dd,5f05f1c9f8e03d0d9ee308cb,5,,,,,,pear,,,,,,0,9,9,55,1,6,1,,,,,,,,,,,,,,,,,,,,,,,,,,,,,,,,,,,,,,,,,,,,,,,,,,,,,,,,,,,,,,,,,,,,,,,,,,,
,,,,,,,,,,stimuli/images/PICTURE_504.png,ARTIST,5ee9c6eb82a6e436011ecc86,16/06/2002,2020-07-08_17h18.35.611,proactive,2020.1.2,Win32,60,5f035e5afe130c270d6ae6dd,5f05f1c9f8e03d0d9ee308cb,5,,,,,,wheel,,,,,,0,10,10,49,1,5,1,,,,,,,,,,,,,,,,,,,,,,,,,,,,,,,,,,,,,,,,,,,,,,,,,,,,,,,,,,,,,,,,,,,,,,,,,,,
,,,,,,,,,,stimuli/images/PICTURE_403.png,TOILET,5ee9c6eb82a6e436011ecc86,16/06/2002,2020-07-08_17h18.35.611,proactive,2020.1.2,Win32,60,5f035e5afe130c270d6ae6dd,5f05f1c9f8e03d0d9ee308cb,5,,,,,,cathedral,,,,,,0,11,11,25,1,3,1,,,,,,,,,,,,,,,,,,,,,,,,,,,,,,,,,,,,,,,,,,,,,,,,,,,,,,,,,,,,,,,,,,,,,,,,,,,
,,,,,,,,,,stimuli/images/PICTURE_108.png,POLICY,5ee9c6eb82a6e436011ecc86,16/06/2002,2020-07-08_17h18.35.611,proactive,2020.1.2,Win32,60,5f035e5afe130c270d6ae6dd,5f05f1c9f8e03d0d9ee308cb,5,,,,,,calendar,,,,,,0,12,12,22,1,3,1,,,,,,,,,,,,,,,,,,,,,,,,,,,,,,,,,,,,,,,,,,,,,,,,,,,,,,,,,,,,,,,,,,,,,,,,,,,
,,,,,,,,,,stimuli/images/PICTURE_383.png,SERIES,5ee9c6eb82a6e436011ecc86,16/06/2002,2020-07-08_17h18.35.611,proactive,2020.1.2,Win32,60,5f035e5afe130c270d6ae6dd,5f05f1c9f8e03d0d9ee308cb,5,,,,,,coin,,,,,,0,13,13,46,1,5,1,,,,,,,,,,,,,,,,,,,,,,,,,,,,,,,,,,,,,,,,,,,,,,,,,,,,,,,,,,,,,,,,,,,,,,,,,,,
,,,,,,,,,,stimuli/images/PICTURE_675.png,SALE,5ee9c6eb82a6e436011ecc86,16/06/2002,2020-07-08_17h18.35.611,proactive,2020.1.2,Win32,60,5f035e5afe130c270d6ae6dd,5f05f1c9f8e03d0d9ee308cb,5,,,,,,windmill,,,,,,0,14,14,47,1,5,1,,,,,,,,,,,,,,,,,,,,,,,,,,,,,,,,,,,,,,,,,,,,,,,,,,,,,,,,,,,,,,,,,,,,,,,,,,,
,,,,,,,,,,stimuli/images/PICTURE_2.png,FLIGHT,5ee9c6eb82a6e436011ecc86,16/06/2002,2020-07-08_17h18.35.611,proactive,2020.1.2,Win32,60,5f035e5afe130c270d6ae6dd,5f05f1c9f8e03d0d9ee308cb,5,,,,,,tyre,,,,,,0,15,15,15,1,2,1,,,,,,,,,,,,,,,,,,,,,,,,,,,,,,,,,,,,,,,,,,,,,,,,,,,,,,,,,,,,,,,,,,,,,,,,,,,
,,,,,,,,,,stimuli/images/PICTURE_296.png,LIFE,5ee9c6eb82a6e436011ecc86,16/06/2002,2020-07-08_17h18.35.611,proactive,2020.1.2,Win32,60,5f035e5afe130c270d6ae6dd,5f05f1c9f8e03d0d9ee308cb,5,,,,,,bolt,,,,,,0,16,16,57,1,6,1,,,,,,,,,,,,,,,,,,,,,,,,,,,,,,,,,,,,,,,,,,,,,,,,,,,,,,,,,,,,,,,,,,,,,,,,,,,
,,,,,,,,,,stimuli/images/PICTURE_203.png,NIGHT,5ee9c6eb82a6e436011ecc86,16/06/2002,2020-07-08_17h18.35.611,proactive,2020.1.2,Win32,60,5f035e5afe130c270d6ae6dd,5f05f1c9f8e03d0d9ee308cb,5,,,,,,cap,,,,,,0,17,17,2,1,1,1,,,,,,,,,,,,,,,,,,,,,,,,,,,,,,,,,,,,,,,,,,,,,,,,,,,,,,,,,,,,,,,,,,,,,,,,,,,
,,,,,,,,,,stimuli/images/PICTURE_469.png,AGENT,5ee9c6eb82a6e436011ecc86,16/06/2002,2020-07-08_17h18.35.611,proactive,2020.1.2,Win32,60,5f035e5afe130c270d6ae6dd,5f05f1c9f8e03d0d9ee308cb,5,,,,,,stool,,,,,,0,18,18,16,1,2,1,,,,,,,,,,,,,,,,,,,,,,,,,,,,,,,,,,,,,,,,,,,,,,,,,,,,,,,,,,,,,,,,,,,,,,,,,,,
,,,,,,,,,,stimuli/images/PICTURE_327.png,SERIES,5ee9c6eb82a6e436011ecc86,16/06/2002,2020-07-08_17h18.35.611,proactive,2020.1.2,Win32,60,5f035e5afe130c270d6ae6dd,5f05f1c9f8e03d0d9ee308cb,5,,,,,,helmet,,,,,,0,19,19,3,1,1,1,,,,,,,,,,,,,,,,,,,,,,,,,,,,,,,,,,,,,,,,,,,,,,,,,,,,,,,,,,,,,,,,,,,,,,,,,,,
,,,,,,,,,,stimuli/images/PICTURE_208.png,SYSTEM,5ee9c6eb82a6e436011ecc86,16/06/2002,2020-07-08_17h18.35.611,proactive,2020.1.2,Win32,60,5f035e5afe130c270d6ae6dd,5f05f1c9f8e03d0d9ee308cb,5,,,,,,microphone,,,,,,0,20,20,32,1,4,1,,,,,,,,,,,,,,,,,,,,,,,,,,,,,,,,,,,,,,,,,,,,,,,,,,,,,,,,,,,,,,,,,,,,,,,,,,,
,,,,,,,,,,stimuli/images/PICTURE_380.png,CANDY,5ee9c6eb82a6e436011ecc86,16/06/2002,2020-07-08_17h18.35.611,proactive,2020.1.2,Win32,60,5f035e5afe130c270d6ae6dd,5f05f1c9f8e03d0d9ee308cb,5,,,,,,gorilla,,,,,,0,21,21,0,1,1,1,,,,,,,,,,,,,,,,,,,,,,,,,,,,,,,,,,,,,,,,,,,,,,,,,,,,,,,,,,,,,,,,,,,,,,,,,,,
,,,,,,,,,,stimuli/images/PICTURE_487.png,GIRL,5ee9c6eb82a6e436011ecc86,16/06/2002,2020-07-08_17h18.35.611,proactive,2020.1.2,Win32,60,5f035e5afe130c270d6ae6dd,5f05f1c9f8e03d0d9ee308cb,5,,,,,,basket,,,,,,0,22,22,45,1,5,1,,,,,,,,,,,,,,,,,,,,,,,,,,,,,,,,,,,,,,,,,,,,,,,,,,,,,,,,,,,,,,,,,,,,,,,,,,,
,,,,,,,,,,stimuli/images/PICTURE_405.png,YEAR,5ee9c6eb82a6e436011ecc86,16/06/2002,2020-07-08_17h18.35.611,proactive,2020.1.2,Win32,60,5f035e5afe130c270d6ae6dd,5f05f1c9f8e03d0d9ee308cb,5,,,,,,anchor,,,,,,0,23,23,34,1,4,1,,,,,,,,,,,,,,,,,,,,,,,,,,,,,,,,,,,,,,,,,,,,,,,,,,,,,,,,,,,,,,,,,,,,,,,,,,,
,,,,,,,,,,stimuli/images/PICTURE_677.png,APPLE,5ee9c6eb82a6e436011ecc86,16/06/2002,2020-07-08_17h18.35.611,proactive,2020.1.2,Win32,60,5f035e5afe130c270d6ae6dd,5f05f1c9f8e03d0d9ee308cb,5,,,,,,map,,,,,,0,24,24,43,1,5,1,,,,,,,,,,,,,,,,,,,,,,,,,,,,,,,,,,,,,,,,,,,,,,,,,,,,,,,,,,,,,,,,,,,,,,,,,,,
,,,,,,,,,,stimuli/images/PICTURE_750.png,HOTEL,5ee9c6eb82a6e436011ecc86,16/06/2002,2020-07-08_17h18.35.611,proactive,2020.1.2,Win32,60,5f035e5afe130c270d6ae6dd,5f05f1c9f8e03d0d9ee308cb,5,,,,,,kettle,,,,,,0,25,25,27,1,3,1,,,,,,,,,,,,,,,,,,,,,,,,,,,,,,,,,,,,,,,,,,,,,,,,,,,,,,,,,,,,,,,,,,,,,,,,,,,
,,,,,,,,,,stimuli/images/PICTURE_85.png,TOILET,5ee9c6eb82a6e436011ecc86,16/06/2002,2020-07-08_17h18.35.611,proactive,2020.1.2,Win32,60,5f035e5afe130c270d6ae6dd,5f05f1c9f8e03d0d9ee308cb,5,,,,,,diamond,,,,,,0,26,26,48,1,5,1,,,,,,,,,,,,,,,,,,,,,,,,,,,,,,,,,,,,,,,,,,,,,,,,,,,,,,,,,,,,,,,,,,,,,,,,,,,
,,,,,,,,,,stimuli/images/PICTURE_340.png,LETTER,5ee9c6eb82a6e436011ecc86,16/06/2002,2020-07-08_17h18.35.611,proactive,2020.1.2,Win32,60,5f035e5afe130c270d6ae6dd,5f05f1c9f8e03d0d9ee308cb,5,,,,,,mirror,,,,,,0,27,27,24,1,3,1,,,,,,,,,,,,,,,,,,,,,,,,,,,,,,,,,,,,,,,,,,,,,,,,,,,,,,,,,,,,,,,,,,,,,,,,,,,
,,,,,,,,,,stimuli/images/PICTURE_403.png,WRITER,5ee9c6eb82a6e436011ecc86,16/06/2002,2020-07-08_17h18.35.611,proactive,2020.1.2,Win32,60,5f035e5afe130c270d6ae6dd,5f05f1c9f8e03d0d9ee308cb,5,,,,,,cathedral,,,,,,0,28,28,31,1,4,1,,,,,,,,,,,,,,,,,,,,,,,,,,,,,,,,,,,,,,,,,,,,,,,,,,,,,,,,,,,,,,,,,,,,,,,,,,,
,,,,,,,,,,stimuli/images/PICTURE_68.png,ROOF,5ee9c6eb82a6e436011ecc86,16/06/2002,2020-07-08_17h18.35.611,proactive,2020.1.2,Win32,60,5f035e5afe130c270d6ae6dd,5f05f1c9f8e03d0d9ee308cb,5,,,,,,candle,,,,,,0,29,29,38,1,4,1,,,,,,,,,,,,,,,,,,,,,,,,,,,,,,,,,,,,,,,,,,,,,,,,,,,,,,,,,,,,,,,,,,,,,,,,,,,
,,,,,,,,,,stimuli/images/PICTURE_147.png,YEAR,5ee9c6eb82a6e436011ecc86,16/06/2002,2020-07-08_17h18.35.611,proactive,2020.1.2,Win32,60,5f035e5afe130c270d6ae6dd,5f05f1c9f8e03d0d9ee308cb,5,,,,,,hanger,,,,,,0,30,30,21,1,3,1,,,,,,,,,,,,,,,,,,,,,,,,,,,,,,,,,,,,,,,,,,,,,,,,,,,,,,,,,,,,,,,,,,,,,,,,,,,
,,,,,,,,,,stimuli/images/PICTURE_95.png,BOYS,5ee9c6eb82a6e436011ecc86,16/06/2002,2020-07-08_17h18.35.611,proactive,2020.1.2,Win32,60,5f035e5afe130c270d6ae6dd,5f05f1c9f8e03d0d9ee308cb,5,,,,,,suitcase,,,,,,0,31,31,1,1,1,1,,,,,,,,,,,,,,,,,,,,,,,,,,,,,,,,,,,,,,,,,,,,,,,,,,,,,,,,,,,,,,,,,,,,,,,,,,,
,,,,,,,,,,stimuli/images/PICTURE_296.png,LOTS,5ee9c6eb82a6e436011ecc86,16/06/2002,2020-07-08_17h18.35.611,proactive,2020.1.2,Win32,60,5f035e5afe130c270d6ae6dd,5f05f1c9f8e03d0d9ee308cb,5,,,,,,bolt,,,,,,0,32,32,9,1,1,1,,,,,,,,,,,,,,,,,,,,,,,,,,,,,,,,,,,,,,,,,,,,,,,,,,,,,,,,,,,,,,,,,,,,,,,,,,,
,,,,,,,,,,stimuli/images/PICTURE_708.png,RECORD,5ee9c6eb82a6e436011ecc86,16/06/2002,2020-07-08_17h18.35.611,proactive,2020.1.2,Win32,60,5f035e5afe130c270d6ae6dd,5f05f1c9f8e03d0d9ee308cb,5,,,,,,monkey,,,,,,0,33,33,58,1,6,1,,,,,,,,,,,,,,,,,,,,,,,,,,,,,,,,,,,,,,,,,,,,,,,,,,,,,,,,,,,,,,,,,,,,,,,,,,,
,,,,,,,,,,stimuli/images/PICTURE_327.png,CASINO,5ee9c6eb82a6e436011ecc86,16/06/2002,2020-07-08_17h18.35.611,proactive,2020.1.2,Win32,60,5f035e5afe130c270d6ae6dd,5f05f1c9f8e03d0d9ee308cb,5,,,,,,helmet,,,,,,0,34,34,20,1,3,1,,,,,,,,,,,,,,,,,,,,,,,,,,,,,,,,,,,,,,,,,,,,,,,,,,,,,,,,,,,,,,,,,,,,,,,,,,,
,,,,,,,,,,stimuli/images/PICTURE_233.png,LOTS,5ee9c6eb82a6e436011ecc86,16/06/2002,2020-07-08_17h18.35.611,proactive,2020.1.2,Win32,60,5f035e5afe130c270d6ae6dd,5f05f1c9f8e03d0d9ee308cb,5,,,,,,salt,,,,,,0,35,35,42,1,5,1,,,,,,,,,,,,,,,,,,,,,,,,,,,,,,,,,,,,,,,,,,,,,,,,,,,,,,,,,,,,,,,,,,,,,,,,,,,
,,,,,,,,,,stimuli/images/PICTURE_57.png,MOMENT,5ee9c6eb82a6e436011ecc86,16/06/2002,2020-07-08_17h18.35.611,proactive,2020.1.2,Win32,60,5f035e5afe130c270d6ae6dd,5f05f1c9f8e03d0d9ee308cb,5,,,,,,stamp,,,,,,0,36,36,37,1,4,1,,,,,,,,,,,,,,,,,,,,,,,,,,,,,,,,,,,,,,,,,,,,,,,,,,,,,,,,,,,,,,,,,,,,,,,,,,,
,,,,,,,,,,stimuli/images/PICTURE_339.png,CLIENT,5ee9c6eb82a6e436011ecc86,16/06/2002,2020-07-08_17h18.35.611,proactive,2020.1.2,Win32,60,5f035e5afe130c270d6ae6dd,5f05f1c9f8e03d0d9ee308cb,5,,,,,,backpack,,,,,,0,37,37,11,1,2,1,,,,,,,,,,,,,,,,,,,,,,,,,,,,,,,,,,,,,,,,,,,,,,,,,,,,,,,,,,,,,,,,,,,,,,,,,,,
,,,,,,,,,,stimuli/images/PICTURE_95.png,HONEY,5ee9c6eb82a6e436011ecc86,16/06/2002,2020-07-08_17h18.35.611,proactive,2020.1.2,Win32,60,5f035e5afe130c270d6ae6dd,5f05f1c9f8e03d0d9ee308cb,5,,,,,,suitcase,,,,,,0,38,38,44,1,5,1,,,,,,,,,,,,,,,,,,,,,,,,,,,,,,,,,,,,,,,,,,,,,,,,,,,,,,,,,,,,,,,,,,,,,,,,,,,
,,,,,,,,,,stimuli/images/PICTURE_504.png,COPS,5ee9c6eb82a6e436011ecc86,16/06/2002,2020-07-08_17h18.35.611,proactive,2020.1.2,Win32,60,5f035e5afe130c270d6ae6dd,5f05f1c9f8e03d0d9ee308cb,5,,,,,,wheel,,,,,,0,39,39,52,1,6,1,,,,,,,,,,,,,,,,,,,,,,,,,,,,,,,,,,,,,,,,,,,,,,,,,,,,,,,,,,,,,,,,,,,,,,,,,,,
,,,,,,,,,,stimuli/images/PICTURE_147.png,WOMEN,5ee9c6eb82a6e436011ecc86,16/06/2002,2020-07-08_17h18.35.611,proactive,2020.1.2,Win32,60,5f035e5afe130c270d6ae6dd,5f05f1c9f8e03d0d9ee308cb,5,,,,,,hanger,,,,,,0,40,40,7,1,1,1,,,,,,,,,,,,,,,,,,,,,,,,,,,,,,,,,,,,,,,,,,,,,,,,,,,,,,,,,,,,,,,,,,,,,,,,,,,
,,,,,,,,,,stimuli/images/PICTURE_68.png,MILE,5ee9c6eb82a6e436011ecc86,16/06/2002,2020-07-08_17h18.35.611,proactive,2020.1.2,Win32,60,5f035e5afe130c270d6ae6dd,5f05f1c9f8e03d0d9ee308cb,5,,,,,,candle,,,,,,0,41,41,51,1,6,1,,,,,,,,,,,,,,,,,,,,,,,,,,,,,,,,,,,,,,,,,,,,,,,,,,,,,,,,,,,,,,,,,,,,,,,,,,,
,,,,,,,,,,stimuli/images/PICTURE_340.png,VALLEY,5ee9c6eb82a6e436011ecc86,16/06/2002,2020-07-08_17h18.35.611,proactive,2020.1.2,Win32,60,5f035e5afe130c270d6ae6dd,5f05f1c9f8e03d0d9ee308cb,5,,,,,,mirror,,,,,,0,42,42,54,1,6,1,,,,,,,,,,,,,,,,,,,,,,,,,,,,,,,,,,,,,,,,,,,,,,,,,,,,,,,,,,,,,,,,,,,,,,,,,,,
,,,,,,,,,,stimuli/images/PICTURE_177.png,WRITER,5ee9c6eb82a6e436011ecc86,16/06/2002,2020-07-08_17h18.35.611,proactive,2020.1.2,Win32,60,5f035e5afe130c270d6ae6dd,5f05f1c9f8e03d0d9ee308cb,5,,,,,,mushroom,,,,,,0,43,43,41,1,5,1,,,,,,,,,,,,,,,,,,,,,,,,,,,,,,,,,,,,,,,,,,,,,,,,,,,,,,,,,,,,,,,,,,,,,,,,,,,
,,,,,,,,,,stimuli/images/PICTURE_655.png,TOILET,5ee9c6eb82a6e436011ecc86,16/06/2002,2020-07-08_17h18.35.611,proactive,2020.1.2,Win32,60,5f035e5afe130c270d6ae6dd,5f05f1c9f8e03d0d9ee308cb,5,,,,,,megaphone,,,,,,0,44,44,12,1,2,1,,,,,,,,,,,,,,,,,,,,,,,,,,,,,,,,,,,,,,,,,,,,,,,,,,,,,,,,,,,,,,,,,,,,,,,,,,,
,,,,,,,,,,stimuli/images/PICTURE_95.png,MILLER,5ee9c6eb82a6e436011ecc86,16/06/2002,2020-07-08_17h18.35.611,proactive,2020.1.2,Win32,60,5f035e5afe130c270d6ae6dd,5f05f1c9f8e03d0d9ee308cb,5,,,,,,suitcase,,,,,,0,45,45,56,1,6,1,,,,,,,,,,,,,,,,,,,,,,,,,,,,,,,,,,,,,,,,,,,,,,,,,,,,,,,,,,,,,,,,,,,,,,,,,,,
,,,,,,,,,,stimuli/images/PICTURE_491.png,RIVER,5ee9c6eb82a6e436011ecc86,16/06/2002,2020-07-08_17h18.35.611,proactive,2020.1.2,Win32,60,5f035e5afe130c270d6ae6dd,5f05f1c9f8e03d0d9ee308cb,5,,,,,,rug,,,,,,0,46,46,6,1,1,1,,,,,,,,,,,,,,,,,,,,,,,,,,,,,,,,,,,,,,,,,,,,,,,,,,,,,,,,,,,,,,,,,,,,,,,,,,,
,,,,,,,,,,stimuli/images/PICTURE_667.png,RIVER,5ee9c6eb82a6e436011ecc86,16/06/2002,2020-07-08_17h18.35.611,proactive,2020.1.2,Win32,60,5f035e5afe130c270d6ae6dd,5f05f1c9f8e03d0d9ee308cb,5,,,,,,daisy,,,,,,0,47,47,10,1,2,1,,,,,,,,,,,,,,,,,,,,,,,,,,,,,,,,,,,,,,,,,,,,,,,,,,,,,,,,,,,,,,,,,,,,,,,,,,,
,,,,,,,,,,stimuli/images/PICTURE_285.png,LIFE,5ee9c6eb82a6e436011ecc86,16/06/2002,2020-07-08_17h18.35.611,proactive,2020.1.2,Win32,60,5f035e5afe130c270d6ae6dd,5f05f1c9f8e03d0d9ee308cb,5,,,,,,carrot,,,,,,0,48,48,33,1,4,1,,,,,,,,,,,,,,,,,,,,,,,,,,,,,,,,,,,,,,,,,,,,,,,,,,,,,,,,,,,,,,,,,,,,,,,,,,,
,,,,,,,,,,stimuli/images/PICTURE_32.png,PILLS,5ee9c6eb82a6e436011ecc86,16/06/2002,2020-07-08_17h18.35.611,proactive,2020.1.2,Win32,60,5f035e5afe130c270d6ae6dd,5f05f1c9f8e03d0d9ee308cb,5,,,,,,crown,,,,,,0,49,49,18,1,2,1,,,,,,,,,,,,,,,,,,,,,,,,,,,,,,,,,,,,,,,,,,,,,,,,,,,,,,,,,,,,,,,,,,,,,,,,,,,
,,,,,,,,,,stimuli/images/PICTURE_403.png,RIVER,5ee9c6eb82a6e436011ecc86,16/06/2002,2020-07-08_17h18.35.611,proactive,2020.1.2,Win32,60,5f035e5afe130c270d6ae6dd,5f05f1c9f8e03d0d9ee308cb,5,,,,,,cathedral,,,,,,0,50,50,40,1,5,1,,,,,,,,,,,,,,,,,,,,,,,,,,,,,,,,,,,,,,,,,,,,,,,,,,,,,,,,,,,,,,,,,,,,,,,,,,,
,,,,,,,,,,stimuli/images/PICTURE_32.png,KIND,5ee9c6eb82a6e436011ecc86,16/06/2002,2020-07-08_17h18.35.611,proactive,2020.1.2,Win32,60,5f035e5afe130c270d6ae6dd,5f05f1c9f8e03d0d9ee308cb,5,,,,,,crown,,,,,,0,51,51,35,1,4,1,,,,,,,,,,,,,,,,,,,,,,,,,,,,,,,,,,,,,,,,,,,,,,,,,,,,,,,,,,,,,,,,,,,,,,,,,,,
,,,,,,,,,,stimuli/images/PICTURE_297.png,RIVER,5ee9c6eb82a6e436011ecc86,16/06/2002,2020-07-08_17h18.35.611,proactive,2020.1.2,Win32,60,5f035e5afe130c270d6ae6dd,5f05f1c9f8e03d0d9ee308cb,5,,,,,,aeroplane,,,,,,0,52,52,39,1,4,1,,,,,,,,,,,,,,,,,,,,,,,,,,,,,,,,,,,,,,,,,,,,,,,,,,,,,,,,,,,,,,,,,,,,,,,,,,,
,,,,,,,,,,stimuli/images/PICTURE_308.png,FAMILY,5ee9c6eb82a6e436011ecc86,16/06/2002,2020-07-08_17h18.35.611,proactive,2020.1.2,Win32,60,5f035e5afe130c270d6ae6dd,5f05f1c9f8e03d0d9ee308cb,5,,,,,,dice,,,,,,0,53,53,36,1,4,1,,,,,,,,,,,,,,,,,,,,,,,,,,,,,,,,,,,,,,,,,,,,,,,,,,,,,,,,,,,,,,,,,,,,,,,,,,,
,,,,,,,,,,stimuli/images/PICTURE_203.png,GODS,5ee9c6eb82a6e436011ecc86,16/06/2002,2020-07-08_17h18.35.611,proactive,2020.1.2,Win32,60,5f035e5afe130c270d6ae6dd,5f05f1c9f8e03d0d9ee308cb,5,,,,,,cap,,,,,,0,54,54,30,1,4,1,,,,,,,,,,,,,,,,,,,,,,,,,,,,,,,,,,,,,,,,,,,,,,,,,,,,,,,,,,,,,,,,,,,,,,,,,,,
,,,,,,,,,,stimuli/images/PICTURE_491.png,GLASS,5ee9c6eb82a6e436011ecc86,16/06/2002,2020-07-08_17h18.35.611,proactive,2020.1.2,Win32,60,5f035e5afe130c270d6ae6dd,5f05f1c9f8e03d0d9ee308cb,5,,,,,,rug,,,,,,0,55,55,14,1,2,1,,,,,,,,,,,,,,,,,,,,,,,,,,,,,,,,,,,,,,,,,,,,,,,,,,,,,,,,,,,,,,,,,,,,,,,,,,,
,,,,,,,,,,stimuli/images/PICTURE_383.png,WRITER,5ee9c6eb82a6e436011ecc86,16/06/2002,2020-07-08_17h18.35.611,proactive,2020.1.2,Win32,60,5f035e5afe130c270d6ae6dd,5f05f1c9f8e03d0d9ee308cb,5,,,,,,coin,,,,,,0,56,56,28,1,3,1,,,,,,,,,,,,,,,,,,,,,,,,,,,,,,,,,,,,,,,,,,,,,,,,,,,,,,,,,,,,,,,,,,,,,,,,,,,
,,,,,,,,,,stimuli/images/PICTURE_33.png,FRIEND,5ee9c6eb82a6e436011ecc86,16/06/2002,2020-07-08_17h18.35.611,proactive,2020.1.2,Win32,60,5f035e5afe130c270d6ae6dd,5f05f1c9f8e03d0d9ee308cb,5,,,,,,frame,,,,,,0,57,57,8,1,1,1,,,,,,,,,,,,,,,,,,,,,,,,,,,,,,,,,,,,,,,,,,,,,,,,,,,,,,,,,,,,,,,,,,,,,,,,,,,
,,,,,,,,,,stimuli/images/PICTURE_744.png,WEAPON,5ee9c6eb82a6e436011ecc86,16/06/2002,2020-07-08_17h18.35.611,proactive,2020.1.2,Win32,60,5f035e5afe130c270d6ae6dd,5f05f1c9f8e03d0d9ee308cb,5,,,,,,ring,,,,,,0,58,58,50,1,6,1,,,,,,,,,,,,,,,,,,,,,,,,,,,,,,,,,,,,,,,,,,,,,,,,,,,,,,,,,,,,,,,,,,,,,,,,,,,
,,?,0.002265,0,,,,,,stimuli/images/PICTURE_750.png,HOTEL,5ee9c6eb82a6e436011ecc86,16/06/2002,2020-07-08_17h18.35.611,proactive,2020.1.2,Win32,60,5f035e5afe130c270d6ae6dd,5f05f1c9f8e03d0d9ee308cb,5,,,,,,kettle,,,,,,,,,,,3,1,0,0,0,27,1,,,,,,,,,,,,,,,,,,,,,,,,,,,,,,,,,,,,,,,,,,,,,,,,,,,,,,,,,,,,,,,,,,,,,,
,,?,0.001845,0,,,,,,stimuli/images/PICTURE_655.png,TOILET,5ee9c6eb82a6e436011ecc86,16/06/2002,2020-07-08_17h18.35.611,proactive,2020.1.2,Win32,60,5f035e5afe130c270d6ae6dd,5f05f1c9f8e03d0d9ee308cb,5,,,,,,megaphone,,,,,,,,,,,2,1,0,1,1,12,1,,,,,,,,,,,,,,,,,,,,,,,,,,,,,,,,,,,,,,,,,,,,,,,,,,,,,,,,,,,,,,,,,,,,,,
,,?,0.00145,0,,,,,,stimuli/images/PICTURE_744.png,WEAPON,5ee9c6eb82a6e436011ecc86,16/06/2002,2020-07-08_17h18.35.611,proactive,2020.1.2,Win32,60,5f035e5afe130c270d6ae6dd,5f05f1c9f8e03d0d9ee308cb,5,,,,,,ring,,,,,,,,,,,6,1,0,2,2,50,1,,,,,,,,,,,,,,,,,,,,,,,,,,,,,,,,,,,,,,,,,,,,,,,,,,,,,,,,,,,,,,,,,,,,,,
,,?,0.001635,0,,,,,,stimuli/images/PICTURE_564.png,BATH,5ee9c6eb82a6e436011ecc86,16/06/2002,2020-07-08_17h18.35.611,proactive,2020.1.2,Win32,60,5f035e5afe130c270d6ae6dd,5f05f1c9f8e03d0d9ee308cb,5,,,,,,spoon,,,,,,,,,,,3,1,0,3,3,26,1,,,,,,,,,,,,,,,,,,,,,,,,,,,,,,,,,,,,,,,,,,,,,,,,,,,,,,,,,,,,,,,,,,,,,,
,,?,0.001545,0,,,,,,stimuli/images/PICTURE_654.png,MONTH,5ee9c6eb82a6e436011ecc86,16/06/2002,2020-07-08_17h18.35.611,proactive,2020.1.2,Win32,60,5f035e5afe130c270d6ae6dd,5f05f1c9f8e03d0d9ee308cb,5,,,,,,pencil,,,,,,,,,,,3,1,0,4,4,29,1,,,,,,,,,,,,,,,,,,,,,,,,,,,,,,,,,,,,,,,,,,,,,,,,,,,,,,,,,,,,,,,,,,,,,,
,,?,0.00154,0,,,,,,stimuli/images/PICTURE_469.png,AGENT,5ee9c6eb82a6e436011ecc86,16/06/2002,2020-07-08_17h18.35.611,proactive,2020.1.2,Win32,60,5f035e5afe130c270d6ae6dd,5f05f1c9f8e03d0d9ee308cb,5,,,,,,stool,,,,,,,,,,,2,1,0,5,5,16,1,,,,,,,,,,,,,,,,,,,,,,,,,,,,,,,,,,,,,,,,,,,,,,,,,,,,,,,,,,,,,,,,,,,,,,
,,?,0.000625,0,,,,,,stimuli/images/PICTURE_32.png,KIND,5ee9c6eb82a6e436011ecc86,16/06/2002,2020-07-08_17h18.35.611,proactive,2020.1.2,Win32,60,5f035e5afe130c270d6ae6dd,5f05f1c9f8e03d0d9ee308cb,5,,,,,,crown,,,,,,,,,,,4,1,0,6,6,35,1,,,,,,,,,,,,,,,,,,,,,,,,,,,,,,,,,,,,,,,,,,,,,,,,,,,,,,,,,,,,,,,,,,,,,,
,,?,0.00057,0,,,,,,stimuli/images/PICTURE_32.png,PILLS,5ee9c6eb82a6e436011ecc86,16/06/2002,2020-07-08_17h18.35.611,proactive,2020.1.2,Win32,60,5f035e5afe130c270d6ae6dd,5f05f1c9f8e03d0d9ee308cb,5,,,,,,crown,,,,,,,,,,,2,1,0,7,7,18,1,,,,,,,,,,,,,,,,,,,,,,,,,,,,,,,,,,,,,,,,,,,,,,,,,,,,,,,,,,,,,,,,,,,,,,
,,?,0.00057,0,,,,,,stimuli/images/PICTURE_504.png,YEAR,5ee9c6eb82a6e436011ecc86,16/06/2002,2020-07-08_17h18.35.611,proactive,2020.1.2,Win32,60,5f035e5afe130c270d6ae6dd,5f05f1c9f8e03d0d9ee308cb,5,,,,,,wheel,,,,,,,,,,,2,1,0,8,8,13,1,,,,,,,,,,,,,,,,,,,,,,,,,,,,,,,,,,,,,,,,,,,,,,,,,,,,,,,,,,,,,,,,,,,,,,
,,?,0.00323,0,,,,,,stimuli/images/PICTURE_491.png,RIVER,5ee9c6eb82a6e436011ecc86,16/06/2002,2020-07-08_17h18.35.611,proactive,2020.1.2,Win32,60,5f035e5afe130c270d6ae6dd,5f05f1c9f8e03d0d9ee308cb,5,,,,,,rug,,,,,,,,,,,1,1,0,9,9,6,1,,,,,,,,,,,,,,,,,,,,,,,,,,,,,,,,,,,,,,,,,,,,,,,,,,,,,,,,,,,,,,,,,,,,,,
,,?,0.0008,0,,,,,,stimuli/images/PICTURE_285.png,LIFE,5ee9c6eb82a6e436011ecc86,16/06/2002,2020-07-08_17h18.35.611,proactive,2020.1.2,Win32,60,5f035e5afe130c270d6ae6dd,5f05f1c9f8e03d0d9ee308cb,5,,,,,,carrot,,,,,,,,,,,4,1,0,10,10,33,1,,,,,,,,,,,,,,,,,,,,,,,,,,,,,,,,,,,,,,,,,,,,,,,,,,,,,,,,,,,,,,,,,,,,,,
,,?,0.00222,0,,,,,,stimuli/images/PICTURE_685.png,PENNY,5ee9c6eb82a6e436011ecc86,16/06/2002,2020-07-08_17h18.35.611,proactive,2020.1.2,Win32,60,5f035e5afe130c270d6ae6dd,5f05f1c9f8e03d0d9ee308cb,5,,,,,,goose,,,,,,,,,,,1,1,0,11,11,4,1,,,,,,,,,,,,,,,,,,,,,,,,,,,,,,,,,,,,,,,,,,,,,,,,,,,,,,,,,,,,,,,,,,,,,,
,,APPLE,2.70838,1,,,,,,stimuli/images/PICTURE_677.png,APPLE,5ee9c6eb82a6e436011ecc86,16/06/2002,2020-07-08_17h18.35.611,proactive,2020.1.2,Win32,60,5f035e5afe130c270d6ae6dd,5f05f1c9f8e03d0d9ee308cb,5,,,,,,map,,,,,,,,,,,5,1,0,12,12,43,1,,,,,,,,,,,,,,,,,,,,,,,,,,,,,,,,,,,,,,,,,,,,,,,,,,,,,,,,,,,,,,,,,,,,,,
,,HONEY,3.356895,0,,,,,,stimuli/images/PICTURE_177.png,WRITER,5ee9c6eb82a6e436011ecc86,16/06/2002,2020-07-08_17h18.35.611,proactive,2020.1.2,Win32,60,5f035e5afe130c270d6ae6dd,5f05f1c9f8e03d0d9ee308cb,5,,,,,,mushroom,,,,,,,,,,,5,1,0,13,13,41,1,,,,,,,,,,,,,,,,,,,,,,,,,,,,,,,,,,,,,,,,,,,,,,,,,,,,,,,,,,,,,,,,,,,,,,
,,?,0.00272,0,,,,,,stimuli/images/PICTURE_667.png,RIVER,5ee9c6eb82a6e436011ecc86,16/06/2002,2020-07-08_17h18.35.611,proactive,2020.1.2,Win32,60,5f035e5afe130c270d6ae6dd,5f05f1c9f8e03d0d9ee308cb,5,,,,,,daisy,,,,,,,,,,,2,1,0,14,14,10,1,,,,,,,,,,,,,,,,,,,,,,,,,,,,,,,,,,,,,,,,,,,,,,,,,,,,,,,,,,,,,,,,,,,,,,
,,?,0.004605,0,,,,,,stimuli/images/PICTURE_327.png,CASINO,5ee9c6eb82a6e436011ecc86,16/06/2002,2020-07-08_17h18.35.611,proactive,2020.1.2,Win32,60,5f035e5afe130c270d6ae6dd,5f05f1c9f8e03d0d9ee308cb,5,,,,,,helmet,,,,,,,,,,,3,1,0,15,15,20,1,,,,,,,,,,,,,,,,,,,,,,,,,,,,,,,,,,,,,,,,,,,,,,,,,,,,,,,,,,,,,,,,,,,,,,
,,?,0.00218,0,,,,,,stimuli/images/PICTURE_339.png,CLIENT,5ee9c6eb82a6e436011ecc86,16/06/2002,2020-07-08_17h18.35.611,proactive,2020.1.2,Win32,60,5f035e5afe130c270d6ae6dd,5f05f1c9f8e03d0d9ee308cb,5,,,,,,backpack,,,,,,,,,,,2,1,0,16,16,11,1,,,,,,,,,,,,,,,,,,,,,,,,,,,,,,,,,,,,,,,,,,,,,,,,,,,,,,,,,,,,,,,,,,,,,,
,,?,0.00213,0,,,,,,stimuli/images/PICTURE_33.png,FRIEND,5ee9c6eb82a6e436011ecc86,16/06/2002,2020-07-08_17h18.35.611,proactive,2020.1.2,Win32,60,5f035e5afe130c270d6ae6dd,5f05f1c9f8e03d0d9ee308cb,5,,,,,,frame,,,,,,,,,,,1,1,0,17,17,8,1,,,,,,,,,,,,,,,,,,,,,,,,,,,,,,,,,,,,,,,,,,,,,,,,,,,,,,,,,,,,,,,,,,,,,,
,,?,0.002635,0,,,,,,stimuli/images/PICTURE_403.png,TOILET,5ee9c6eb82a6e436011ecc86,16/06/2002,2020-07-08_17h18.35.611,proactive,2020.1.2,Win32,60,5f035e5afe130c270d6ae6dd,5f05f1c9f8e03d0d9ee308cb,5,,,,,,cathedral,,,,,,,,,,,3,1,0,18,18,25,1,,,,,,,,,,,,,,,,,,,,,,,,,,,,,,,,,,,,,,,,,,,,,,,,,,,,,,,,,,,,,,,,,,,,,,
,,?,0.00094,0,,,,,,stimuli/images/PICTURE_85.png,NATION,5ee9c6eb82a6e436011ecc86,16/06/2002,2020-07-08_17h18.35.611,proactive,2020.1.2,Win32,60,5f035e5afe130c270d6ae6dd,5f05f1c9f8e03d0d9ee308cb,5,,,,,,diamond,,,,,,,,,,,1,1,0,19,19,5,1,,,,,,,,,,,,,,,,,,,,,,,,,,,,,,,,,,,,,,,,,,,,,,,,,,,,,,,,,,,,,,,,,,,,,,
,,?,0.00093,0,,,,,,stimuli/images/PICTURE_296.png,LIFE,5ee9c6eb82a6e436011ecc86,16/06/2002,2020-07-08_17h18.35.611,proactive,2020.1.2,Win32,60,5f035e5afe130c270d6ae6dd,5f05f1c9f8e03d0d9ee308cb,5,,,,,,bolt,,,,,,,,,,,6,1,0,20,20,57,1,,,,,,,,,,,,,,,,,,,,,,,,,,,,,,,,,,,,,,,,,,,,,,,,,,,,,,,,,,,,,,,,,,,,,,
,,?,0.000925,0,,,,,,stimuli/images/PICTURE_403.png,WRITER,5ee9c6eb82a6e436011ecc86,16/06/2002,2020-07-08_17h18.35.611,proactive,2020.1.2,Win32,60,5f035e5afe130c270d6ae6dd,5f05f1c9f8e03d0d9ee308cb,5,,,,,,cathedral,,,,,,,,,,,4,1,0,21,21,31,1,,,,,,,,,,,,,,,,,,,,,,,,,,,,,,,,,,,,,,,,,,,,,,,,,,,,,,,,,,,,,,,,,,,,,,
,,?,0.00105,0,,,,,,stimuli/images/PICTURE_380.png,CANDY,5ee9c6eb82a6e436011ecc86,16/06/2002,2020-07-08_17h18.35.611,proactive,2020.1.2,Win32,60,5f035e5afe130c270d6ae6dd,5f05f1c9f8e03d0d9ee308cb,5,,,,,,gorilla,,,,,,,,,,,1,1,0,22,22,0,1,,,,,,,,,,,,,,,,,,,,,,,,,,,,,,,,,,,,,,,,,,,,,,,,,,,,,,,,,,,,,,,,,,,,,,
,,HONEY,2.05783,1,,,,,,stimuli/images/PICTURE_95.png,HONEY,5ee9c6eb82a6e436011ecc86,16/06/2002,2020-07-08_17h18.35.611,proactive,2020.1.2,Win32,60,5f035e5afe130c270d6ae6dd,5f05f1c9f8e03d0d9ee308cb,5,,,,,,suitcase,,,,,,,,,,,5,1,0,23,23,44,1,,,,,,,,,,,,,,,,,,,,,,,,,,,,,,,,,,,,,,,,,,,,,,,,,,,,,,,,,,,,,,,,,,,,,,
,,?,0.00263,0,,,,,,stimuli/images/PICTURE_203.png,GODS,5ee9c6eb82a6e436011ecc86,16/06/2002,2020-07-08_17h18.35.611,proactive,2020.1.2,Win32,60,5f035e5afe130c270d6ae6dd,5f05f1c9f8e03d0d9ee308cb,5,,,,,,cap,,,,,,,,,,,4,1,0,24,24,30,1,,,,,,,,,,,,,,,,,,,,,,,,,,,,,,,,,,,,,,,,,,,,,,,,,,,,,,,,,,,,,,,,,,,,,,
,,?,0.00139,0,,,,,,stimuli/images/PICTURE_147.png,YEAR,5ee9c6eb82a6e436011ecc86,16/06/2002,2020-07-08_17h18.35.611,proactive,2020.1.2,Win32,60,5f035e5afe130c270d6ae6dd,5f05f1c9f8e03d0d9ee308cb,5,,,,,,hanger,,,,,,,,,,,3,1,0,25,25,21,1,,,,,,,,,,,,,,,,,,,,,,,,,,,,,,,,,,,,,,,,,,,,,,,,,,,,,,,,,,,,,,,,,,,,,,
,,?,0.001405,0,,,,,,stimuli/images/PICTURE_340.png,LETTER,5ee9c6eb82a6e436011ecc86,16/06/2002,2020-07-08_17h18.35.611,proactive,2020.1.2,Win32,60,5f035e5afe130c270d6ae6dd,5f05f1c9f8e03d0d9ee308cb,5,,,,,,mirror,,,,,,,,,,,3,1,0,26,26,24,1,,,,,,,,,,,,,,,,,,,,,,,,,,,,,,,,,,,,,,,,,,,,,,,,,,,,,,,,,,,,,,,,,,,,,,
,,?,0.00609,0,,,,,,stimuli/images/PICTURE_297.png,RIVER,5ee9c6eb82a6e436011ecc86,16/06/2002,2020-07-08_17h18.35.611,proactive,2020.1.2,Win32,60,5f035e5afe130c270d6ae6dd,5f05f1c9f8e03d0d9ee308cb,5,,,,,,aeroplane,,,,,,,,,,,4,1,0,27,27,39,1,,,,,,,,,,,,,,,,,,,,,,,,,,,,,,,,,,,,,,,,,,,,,,,,,,,,,,,,,,,,,,,,,,,,,,
,,?,0.00134,0,,,,,,stimuli/images/PICTURE_203.png,NIGHT,5ee9c6eb82a6e436011ecc86,16/06/2002,2020-07-08_17h18.35.611,proactive,2020.1.2,Win32,60,5f035e5afe130c270d6ae6dd,5f05f1c9f8e03d0d9ee308cb,5,,,,,,cap,,,,,,,,,,,1,1,0,28,28,2,1,,,,,,,,,,,,,,,,,,,,,,,,,,,,,,,,,,,,,,,,,,,,,,,,,,,,,,,,,,,,,,,,,,,,,,
,,RIVER,2.594725,1,,,,,,stimuli/images/PICTURE_403.png,RIVER,5ee9c6eb82a6e436011ecc86,16/06/2002,2020-07-08_17h18.35.611,proactive,2020.1.2,Win32,60,5f035e5afe130c270d6ae6dd,5f05f1c9f8e03d0d9ee308cb,5,,,,,,cathedral,,,,,,,,,,,5,1,0,29,29,40,1,,,,,,,,,,,,,,,,,,,,,,,,,,,,,,,,,,,,,,,,,,,,,,,,,,,,,,,,,,,,,,,,,,,,,,
,,?,0.00279,0,,,,,,stimuli/images/PICTURE_383.png,WRITER,5ee9c6eb82a6e436011ecc86,16/06/2002,2020-07-08_17h18.35.611,proactive,2020.1.2,Win32,60,5f035e5afe130c270d6ae6dd,5f05f1c9f8e03d0d9ee308cb,5,,,,,,coin,,,,,,,,,,,3,1,0,30,30,28,1,,,,,,,,,,,,,,,,,,,,,,,,,,,,,,,,,,,,,,,,,,,,,,,,,,,,,,,,,,,,,,,,,,,,,,
,,?,0.002095,0,,,,,,stimuli/images/PICTURE_708.png,RECORD,5ee9c6eb82a6e436011ecc86,16/06/2002,2020-07-08_17h18.35.611,proactive,2020.1.2,Win32,60,5f035e5afe130c270d6ae6dd,5f05f1c9f8e03d0d9ee308cb,5,,,,,,monkey,,,,,,,,,,,6,1,0,31,31,58,1,,,,,,,,,,,,,,,,,,,,,,,,,,,,,,,,,,,,,,,,,,,,,,,,,,,,,,,,,,,,,,,,,,,,,,
,,?,0.002905,0,,,,,,stimuli/images/PICTURE_467.png,POLICY,5ee9c6eb82a6e436011ecc86,16/06/2002,2020-07-08_17h18.35.611,proactive,2020.1.2,Win32,60,5f035e5afe130c270d6ae6dd,5f05f1c9f8e03d0d9ee308cb,5,,,,,,peg,,,,,,,,,,,6,1,0,32,32,53,1,,,,,,,,,,,,,,,,,,,,,,,,,,,,,,,,,,,,,,,,,,,,,,,,,,,,,,,,,,,,,,,,,,,,,,
,,?,0.00236,0,,,,,,stimuli/images/PICTURE_42.png,BOYS,5ee9c6eb82a6e436011ecc86,16/06/2002,2020-07-08_17h18.35.611,proactive,2020.1.2,Win32,60,5f035e5afe130c270d6ae6dd,5f05f1c9f8e03d0d9ee308cb,5,,,,,,pear,,,,,,,,,,,6,1,0,33,33,55,1,,,,,,,,,,,,,,,,,,,,,,,,,,,,,,,,,,,,,,,,,,,,,,,,,,,,,,,,,,,,,,,,,,,,,,
,,?,0.00204,0,,,,,,stimuli/images/PICTURE_296.png,LOTS,5ee9c6eb82a6e436011ecc86,16/06/2002,2020-07-08_17h18.35.611,proactive,2020.1.2,Win32,60,5f035e5afe130c270d6ae6dd,5f05f1c9f8e03d0d9ee308cb,5,,,,,,bolt,,,,,,,,,,,1,1,0,34,34,9,1,,,,,,,,,,,,,,,,,,,,,,,,,,,,,,,,,,,,,,,,,,,,,,,,,,,,,,,,,,,,,,,,,,,,,,
,,?,0.00224,0,,,,,,stimuli/images/PICTURE_147.png,WOMEN,5ee9c6eb82a6e436011ecc86,16/06/2002,2020-07-08_17h18.35.611,proactive,2020.1.2,Win32,60,5f035e5afe130c270d6ae6dd,5f05f1c9f8e03d0d9ee308cb,5,,,,,,hanger,,,,,,,,,,,1,1,0,35,35,7,1,,,,,,,,,,,,,,,,,,,,,,,,,,,,,,,,,,,,,,,,,,,,,,,,,,,,,,,,,,,,,,,,,,,,,,
,,?,0.00188,0,,,,,,stimuli/images/PICTURE_68.png,MILE,5ee9c6eb82a6e436011ecc86,16/06/2002,2020-07-08_17h18.35.611,proactive,2020.1.2,Win32,60,5f035e5afe130c270d6ae6dd,5f05f1c9f8e03d0d9ee308cb,5,,,,,,candle,,,,,,,,,,,6,1,0,36,36,51,1,,,,,,,,,,,,,,,,,,,,,,,,,,,,,,,,,,,,,,,,,,,,,,,,,,,,,,,,,,,,,,,,,,,,,,
,,?,0.00163,0,,,,,,stimuli/images/PICTURE_380.png,HONEY,5ee9c6eb82a6e436011ecc86,16/06/2002,2020-07-08_17h18.35.611,proactive,2020.1.2,Win32,60,5f035e5afe130c270d6ae6dd,5f05f1c9f8e03d0d9ee308cb,5,,,,,,gorilla,,,,,,,,,,,2,1,0,37,37,19,1,,,,,,,,,,,,,,,,,,,,,,,,,,,,,,,,,,,,,,,,,,,,,,,,,,,,,,,,,,,,,,,,,,,,,,
,,?,0.00098,0,,,,,,stimuli/images/PICTURE_68.png,ROOF,5ee9c6eb82a6e436011ecc86,16/06/2002,2020-07-08_17h18.35.611,proactive,2020.1.2,Win32,60,5f035e5afe130c270d6ae6dd,5f05f1c9f8e03d0d9ee308cb,5,,,,,,candle,,,,,,,,,,,4,1,0,38,38,38,1,,,,,,,,,,,,,,,,,,,,,,,,,,,,,,,,,,,,,,,,,,,,,,,,,,,,,,,,,,,,,,,,,,,,,,
,,?,0.00095,0,,,,,,stimuli/images/PICTURE_340.png,VALLEY,5ee9c6eb82a6e436011ecc86,16/06/2002,2020-07-08_17h18.35.611,proactive,2020.1.2,Win32,60,5f035e5afe130c270d6ae6dd,5f05f1c9f8e03d0d9ee308cb,5,,,,,,mirror,,,,,,,,,,,6,1,0,39,39,54,1,,,,,,,,,,,,,,,,,,,,,,,,,,,,,,,,,,,,,,,,,,,,,,,,,,,,,,,,,,,,,,,,,,,,,,
,,LOTS,2.13831,1,,,,,,stimuli/images/PICTURE_233.png,LOTS,5ee9c6eb82a6e436011ecc86,16/06/2002,2020-07-08_17h18.35.611,proactive,2020.1.2,Win32,60,5f035e5afe130c270d6ae6dd,5f05f1c9f8e03d0d9ee308cb,5,,,,,,salt,,,,,,,,,,,5,1,0,40,40,42,1,,,,,,,,,,,,,,,,,,,,,,,,,,,,,,,,,,,,,,,,,,,,,,,,,,,,,,,,,,,,,,,,,,,,,,
,,?,0.00264,0,,,,,,stimuli/images/PICTURE_405.png,PLENTY,5ee9c6eb82a6e436011ecc86,16/06/2002,2020-07-08_17h18.35.611,proactive,2020.1.2,Win32,60,5f035e5afe130c270d6ae6dd,5f05f1c9f8e03d0d9ee308cb,5,,,,,,anchor,,,,,,,,,,,3,1,0,41,41,23,1,,,,,,,,,,,,,,,,,,,,,,,,,,,,,,,,,,,,,,,,,,,,,,,,,,,,,,,,,,,,,,,,,,,,,,
,,?,0.0027,0,,,,,,stimuli/images/PICTURE_57.png,MOMENT,5ee9c6eb82a6e436011ecc86,16/06/2002,2020-07-08_17h18.35.611,proactive,2020.1.2,Win32,60,5f035e5afe130c270d6ae6dd,5f05f1c9f8e03d0d9ee308cb,5,,,,,,stamp,,,,,,,,,,,4,1,0,42,42,37,1,,,,,,,,,,,,,,,,,,,,,,,,,,,,,,,,,,,,,,,,,,,,,,,,,,,,,,,,,,,,,,,,,,,,,,
,,?,0.0027,0,,,,,,stimuli/images/PICTURE_2.png,FLIGHT,5ee9c6eb82a6e436011ecc86,16/06/2002,2020-07-08_17h18.35.611,proactive,2020.1.2,Win32,60,5f035e5afe130c270d6ae6dd,5f05f1c9f8e03d0d9ee308cb,5,,,,,,tyre,,,,,,,,,,,2,1,0,43,43,15,1,,,,,,,,,,,,,,,,,,,,,,,,,,,,,,,,,,,,,,,,,,,,,,,,,,,,,,,,,,,,,,,,,,,,,,
,,GIRL,1.882995,1,,,,,,stimuli/images/PICTURE_487.png,GIRL,5ee9c6eb82a6e436011ecc86,16/06/2002,2020-07-08_17h18.35.611,proactive,2020.1.2,Win32,60,5f035e5afe130c270d6ae6dd,5f05f1c9f8e03d0d9ee308cb,5,,,,,,basket,,,,,,,,,,,5,1,0,44,44,45,1,,,,,,,,,,,,,,,,,,,,,,,,,,,,,,,,,,,,,,,,,,,,,,,,,,,,,,,,,,,,,,,,,,,,,,
,,?,0.001355,0,,,,,,stimuli/images/PICTURE_108.png,FLIGHT,5ee9c6eb82a6e436011ecc86,16/06/2002,2020-07-08_17h18.35.611,proactive,2020.1.2,Win32,60,5f035e5afe130c270d6ae6dd,5f05f1c9f8e03d0d9ee308cb,5,,,,,,calendar,,,,,,,,,,,6,1,0,45,45,59,1,,,,,,,,,,,,,,,,,,,,,,,,,,,,,,,,,,,,,,,,,,,,,,,,,,,,,,,,,,,,,,,,,,,,,,
,,?,0.001365,0,,,,,,stimuli/images/PICTURE_208.png,SYSTEM,5ee9c6eb82a6e436011ecc86,16/06/2002,2020-07-08_17h18.35.611,proactive,2020.1.2,Win32,60,5f035e5afe130c270d6ae6dd,5f05f1c9f8e03d0d9ee308cb,5,,,,,,microphone,,,,,,,,,,,4,1,0,46,46,32,1,,,,,,,,,,,,,,,,,,,,,,,,,,,,,,,,,,,,,,,,,,,,,,,,,,,,,,,,,,,,,,,,,,,,,,
,,TOILET,1.97814,1,,,,,,stimuli/images/PICTURE_85.png,TOILET,5ee9c6eb82a6e436011ecc86,16/06/2002,2020-07-08_17h18.35.611,proactive,2020.1.2,Win32,60,5f035e5afe130c270d6ae6dd,5f05f1c9f8e03d0d9ee308cb,5,,,,,,diamond,,,,,,,,,,,5,1,0,47,47,48,1,,,,,,,,,,,,,,,,,,,,,,,,,,,,,,,,,,,,,,,,,,,,,,,,,,,,,,,,,,,,,,,,,,,,,,
,,ARTIST,3.021355,1,,,,,,stimuli/images/PICTURE_504.png,ARTIST,5ee9c6eb82a6e436011ecc86,16/06/2002,2020-07-08_17h18.35.611,proactive,2020.1.2,Win32,60,5f035e5afe130c270d6ae6dd,5f05f1c9f8e03d0d9ee308cb,5,,,,,,wheel,,,,,,,,,,,5,1,0,48,48,49,1,,,,,,,,,,,,,,,,,,,,,,,,,,,,,,,,,,,,,,,,,,,,,,,,,,,,,,,,,,,,,,,,,,,,,,
,,?,0.00219,0,,,,,,stimuli/images/PICTURE_491.png,GLASS,5ee9c6eb82a6e436011ecc86,16/06/2002,2020-07-08_17h18.35.611,proactive,2020.1.2,Win32,60,5f035e5afe130c270d6ae6dd,5f05f1c9f8e03d0d9ee308cb,5,,,,,,rug,,,,,,,,,,,2,1,0,49,49,14,1,,,,,,,,,,,,,,,,,,,,,,,,,,,,,,,,,,,,,,,,,,,,,,,,,,,,,,,,,,,,,,,,,,,,,,
,,SERIES,1.914555,1,,,,,,stimuli/images/PICTURE_383.png,SERIES,5ee9c6eb82a6e436011ecc86,16/06/2002,2020-07-08_17h18.35.611,proactive,2020.1.2,Win32,60,5f035e5afe130c270d6ae6dd,5f05f1c9f8e03d0d9ee308cb,5,,,,,,coin,,,,,,,,,,,5,1,0,50,50,46,1,,,,,,,,,,,,,,,,,,,,,,,,,,,,,,,,,,,,,,,,,,,,,,,,,,,,,,,,,,,,,,,,,,,,,,
,,?,0.001945,0,,,,,,stimuli/images/PICTURE_308.png,FAMILY,5ee9c6eb82a6e436011ecc86,16/06/2002,2020-07-08_17h18.35.611,proactive,2020.1.2,Win32,60,5f035e5afe130c270d6ae6dd,5f05f1c9f8e03d0d9ee308cb,5,,,,,,dice,,,,,,,,,,,4,1,0,51,51,36,1,,,,,,,,,,,,,,,,,,,,,,,,,,,,,,,,,,,,,,,,,,,,,,,,,,,,,,,,,,,,,,,,,,,,,,
,,?,0.001385,0,,,,,,stimuli/images/PICTURE_327.png,SERIES,5ee9c6eb82a6e436011ecc86,16/06/2002,2020-07-08_17h18.35.611,proactive,2020.1.2,Win32,60,5f035e5afe130c270d6ae6dd,5f05f1c9f8e03d0d9ee308cb,5,,,,,,helmet,,,,,,,,,,,1,1,0,52,52,3,1,,,,,,,,,,,,,,,,,,,,,,,,,,,,,,,,,,,,,,,,,,,,,,,,,,,,,,,,,,,,,,,,,,,,,,
,,?,0.00135,0,,,,,,stimuli/images/PICTURE_504.png,COPS,5ee9c6eb82a6e436011ecc86,16/06/2002,2020-07-08_17h18.35.611,proactive,2020.1.2,Win32,60,5f035e5afe130c270d6ae6dd,5f05f1c9f8e03d0d9ee308cb,5,,,,,,wheel,,,,,,,,,,,6,1,0,53,53,52,1,,,,,,,,,,,,,,,,,,,,,,,,,,,,,,,,,,,,,,,,,,,,,,,,,,,,,,,,,,,,,,,,,,,,,,
,,?,0.00127,0,,,,,,stimuli/images/PICTURE_95.png,BOYS,5ee9c6eb82a6e436011ecc86,16/06/2002,2020-07-08_17h18.35.611,proactive,2020.1.2,Win32,60,5f035e5afe130c270d6ae6dd,5f05f1c9f8e03d0d9ee308cb,5,,,,,,suitcase,,,,,,,,,,,1,1,0,54,54,1,1,,,,,,,,,,,,,,,,,,,,,,,,,,,,,,,,,,,,,,,,,,,,,,,,,,,,,,,,,,,,,,,,,,,,,,
,,?,0.001295,0,,,,,,stimuli/images/PICTURE_449.png,DUDE,5ee9c6eb82a6e436011ecc86,16/06/2002,2020-07-08_17h18.35.611,proactive,2020.1.2,Win32,60,5f035e5afe130c270d6ae6dd,5f05f1c9f8e03d0d9ee308cb,5,,,,,,bench,,,,,,,,,,,2,1,0,55,55,17,1,,,,,,,,,,,,,,,,,,,,,,,,,,,,,,,,,,,,,,,,,,,,,,,,,,,,,,,,,,,,,,,,,,,,,,
,,SALES,2.19975,0,,,,,,stimuli/images/PICTURE_675.png,SALE,5ee9c6eb82a6e436011ecc86,16/06/2002,2020-07-08_17h18.35.611,proactive,2020.1.2,Win32,60,5f035e5afe130c270d6ae6dd,5f05f1c9f8e03d0d9ee308cb,5,,,,,,windmill,,,,,,,,,,,5,1,0,56,56,47,1,,,,,,,,,,,,,,,,,,,,,,,,,,,,,,,,,,,,,,,,,,,,,,,,,,,,,,,,,,,,,,,,,,,,,,
,,?,0.000855,0,,,,,,stimuli/images/PICTURE_108.png,POLICY,5ee9c6eb82a6e436011ecc86,16/06/2002,2020-07-08_17h18.35.611,proactive,2020.1.2,Win32,60,5f035e5afe130c270d6ae6dd,5f05f1c9f8e03d0d9ee308cb,5,,,,,,calendar,,,,,,,,,,,3,1,0,57,57,22,1,,,,,,,,,,,,,,,,,,,,,,,,,,,,,,,,,,,,,,,,,,,,,,,,,,,,,,,,,,,,,,,,,,,,,,
,,?,0.000675,0,,,,,,stimuli/images/PICTURE_405.png,YEAR,5ee9c6eb82a6e436011ecc86,16/06/2002,2020-07-08_17h18.35.611,proactive,2020.1.2,Win32,60,5f035e5afe130c270d6ae6dd,5f05f1c9f8e03d0d9ee308cb,5,,,,,,anchor,,,,,,,,,,,4,1,0,58,58,34,1,,,,,,,,,,,,,,,,,,,,,,,,,,,,,,,,,,,,,,,,,,,,,,,,,,,,,,,,,,,,,,,,,,,,,,
,,?,0.000645,0,,,,,,stimuli/images/PICTURE_95.png,MILLER,5ee9c6eb82a6e436011ecc86,16/06/2002,2020-07-08_17h18.35.611,proactive,2020.1.2,Win32,60,5f035e5afe130c270d6ae6dd,5f05f1c9f8e03d0d9ee308cb,5,,,,,,suitcase,,,,,,,,,,,6,1,0,59,59,56,1,,,,,,,,,,,,,,,,,,,,,,,,,,,,,,,,,,,,,,,,,,,,,,,,,,,,,,,,,,,,,,,,,,,,,,
,,,,,,,,,,,,5ee9c6eb82a6e436011ecc86,16/06/2002,2020-07-08_17h18.35.611,proactive,2020.1.2,Win32,60,5f035e5afe130c270d6ae6dd,5f05f1c9f8e03d0d9ee308cb,5,,,,,,,,,,,,,,,,,,,,,,,,0,1,1,1,1,stimuli/learn-block2.csv,,,,,,,,,,,,,,,,,,,,,,,,,,,,,,,,,,,,,,,,,,,,,,,,,,,,,,,,,,,,,,,,
,,,,,,,,,,stimuli/images/PICTURE_504.png,BODY,5ee9c6eb82a6e436011ecc86,16/06/2002,2020-07-08_17h18.35.611,proactive,2020.1.2,Win32,60,5f035e5afe130c270d6ae6dd,5f05f1c9f8e03d0d9ee308cb,5,,,,,,wheel,,,,,,0,0,0,8,1,1,0,,,,,,,,,,,,,,,,,,,,,,,,,,,,,,,,,,,,,,,,,,,,,,,,,,,,,,,,,,,,,,,,,,,,,,,,,,,
,,,,,,,,,,stimuli/images/PICTURE_327.png,BEAUTY,5ee9c6eb82a6e436011ecc86,16/06/2002,2020-07-08_17h18.35.611,proactive,2020.1.2,Win32,60,5f035e5afe130c270d6ae6dd,5f05f1c9f8e03d0d9ee308cb,5,,,,,,helmet,,,,,,0,1,1,48,1,5,0,,,,,,,,,,,,,,,,,,,,,,,,,,,,,,,,,,,,,,,,,,,,,,,,,,,,,,,,,,,,,,,,,,,,,,,,,,,
,,,,,,,,,,stimuli/images/PICTURE_488.png,STYLE,5ee9c6eb82a6e436011ecc86,16/06/2002,2020-07-08_17h18.35.611,proactive,2020.1.2,Win32,60,5f035e5afe130c270d6ae6dd,5f05f1c9f8e03d0d9ee308cb,5,,,,,,sun,,,,,,0,2,2,33,1,4,0,,,,,,,,,,,,,,,,,,,,,,,,,,,,,,,,,,,,,,,,,,,,,,,,,,,,,,,,,,,,,,,,,,,,,,,,,,,
,,,,,,,,,,stimuli/images/PICTURE_467.png,DEMON,5ee9c6eb82a6e436011ecc86,16/06/2002,2020-07-08_17h18.35.611,proactive,2020.1.2,Win32,60,5f035e5afe130c270d6ae6dd,5f05f1c9f8e03d0d9ee308cb,5,,,,,,peg,,,,,,0,3,3,23,1,3,0,,,,,,,,,,,,,,,,,,,,,,,,,,,,,,,,,,,,,,,,,,,,,,,,,,,,,,,,,,,,,,,,,,,,,,,,,,,
,,,,,,,,,,stimuli/images/PICTURE_160.png,FEET,5ee9c6eb82a6e436011ecc86,16/06/2002,2020-07-08_17h18.35.611,proactive,2020.1.2,Win32,60,5f035e5afe130c270d6ae6dd,5f05f1c9f8e03d0d9ee308cb,5,,,,,,wheelbarrow,,,,,,0,4,4,58,1,6,0,,,,,,,,,,,,,,,,,,,,,,,,,,,,,,,,,,,,,,,,,,,,,,,,,,,,,,,,,,,,,,,,,,,,,,,,,,,
,,,,,,,,,,stimuli/images/PICTURE_453.png,DUDE,5ee9c6eb82a6e436011ecc86,16/06/2002,2020-07-08_17h18.35.611,proactive,2020.1.2,Win32,60,5f035e5afe130c270d6ae6dd,5f05f1c9f8e03d0d9ee308cb,5,,,,,,scissors,,,,,,0,5,5,27,1,3,0,,,,,,,,,,,,,,,,,,,,,,,,,,,,,,,,,,,,,,,,,,,,,,,,,,,,,,,,,,,,,,,,,,,,,,,,,,,
,,,,,,,,,,stimuli/images/PICTURE_255.png,AREA,5ee9c6eb82a6e436011ecc86,16/06/2002,2020-07-08_17h18.35.611,proactive,2020.1.2,Win32,60,5f035e5afe130c270d6ae6dd,5f05f1c9f8e03d0d9ee308cb,5,,,,,,shovel,,,,,,0,6,6,22,1,3,0,,,,,,,,,,,,,,,,,,,,,,,,,,,,,,,,,,,,,,,,,,,,,,,,,,,,,,,,,,,,,,,,,,,,,,,,,,,
,,,,,,,,,,stimuli/images/PICTURE_123.png,ADVICE,5ee9c6eb82a6e436011ecc86,16/06/2002,2020-07-08_17h18.35.611,proactive,2020.1.2,Win32,60,5f035e5afe130c270d6ae6dd,5f05f1c9f8e03d0d9ee308cb,5,,,,,,dart,,,,,,0,7,7,40,1,5,0,,,,,,,,,,,,,,,,,,,,,,,,,,,,,,,,,,,,,,,,,,,,,,,,,,,,,,,,,,,,,,,,,,,,,,,,,,,
,,,,,,,,,,stimuli/images/PICTURE_708.png,YARD,5ee9c6eb82a6e436011ecc86,16/06/2002,2020-07-08_17h18.35.611,proactive,2020.1.2,Win32,60,5f035e5afe130c270d6ae6dd,5f05f1c9f8e03d0d9ee308cb,5,,,,,,monkey,,,,,,0,8,8,29,1,3,0,,,,,,,,,,,,,,,,,,,,,,,,,,,,,,,,,,,,,,,,,,,,,,,,,,,,,,,,,,,,,,,,,,,,,,,,,,,
,,,,,,,,,,stimuli/images/PICTURE_744.png,SYSTEM,5ee9c6eb82a6e436011ecc86,16/06/2002,2020-07-08_17h18.35.611,proactive,2020.1.2,Win32,60,5f035e5afe130c270d6ae6dd,5f05f1c9f8e03d0d9ee308cb,5,,,,,,ring,,,,,,0,9,9,43,1,5,0,,,,,,,,,,,,,,,,,,,,,,,,,,,,,,,,,,,,,,,,,,,,,,,,,,,,,,,,,,,,,,,,,,,,,,,,,,,
,,,,,,,,,,stimuli/images/PICTURE_160.png,LEADER,5ee9c6eb82a6e436011ecc86,16/06/2002,2020-07-08_17h18.35.611,proactive,2020.1.2,Win32,60,5f035e5afe130c270d6ae6dd,5f05f1c9f8e03d0d9ee308cb,5,,,,,,wheelbarrow,,,,,,0,10,10,3,1,1,0,,,,,,,,,,,,,,,,,,,,,,,,,,,,,,,,,,,,,,,,,,,,,,,,,,,,,,,,,,,,,,,,,,,,,,,,,,,
,,,,,,,,,,stimuli/images/PICTURE_308.png,KIND,5ee9c6eb82a6e436011ecc86,16/06/2002,2020-07-08_17h18.35.611,proactive,2020.1.2,Win32,60,5f035e5afe130c270d6ae6dd,5f05f1c9f8e03d0d9ee308cb,5,,,,,,dice,,,,,,0,11,11,54,1,6,0,,,,,,,,,,,,,,,,,,,,,,,,,,,,,,,,,,,,,,,,,,,,,,,,,,,,,,,,,,,,,,,,,,,,,,,,,,,
,,,,,,,,,,stimuli/images/PICTURE_233.png,WOMEN,5ee9c6eb82a6e436011ecc86,16/06/2002,2020-07-08_17h18.35.611,proactive,2020.1.2,Win32,60,5f035e5afe130c270d6ae6dd,5f05f1c9f8e03d0d9ee308cb,5,,,,,,salt,,,,,,0,12,12,38,1,4,0,,,,,,,,,,,,,,,,,,,,,,,,,,,,,,,,,,,,,,,,,,,,,,,,,,,,,,,,,,,,,,,,,,,,,,,,,,,
,,,,,,,,,,stimuli/images/PICTURE_203.png,ARTIST,5ee9c6eb82a6e436011ecc86,16/06/2002,2020-07-08_17h18.35.611,proactive,2020.1.2,Win32,60,5f035e5afe130c270d6ae6dd,5f05f1c9f8e03d0d9ee308cb,5,,,,,,cap,,,,,,0,13,13,26,1,3,0,,,,,,,,,,,,,,,,,,,,,,,,,,,,,,,,,,,,,,,,,,,,,,,,,,,,,,,,,,,,,,,,,,,,,,,,,,,
,,,,,,,,,,stimuli/images/PICTURE_215.png,PLENTY,5ee9c6eb82a6e436011ecc86,16/06/2002,2020-07-08_17h18.35.611,proactive,2020.1.2,Win32,60,5f035e5afe130c270d6ae6dd,5f05f1c9f8e03d0d9ee308cb,5,,,,,,boot,,,,,,0,14,14,37,1,4,0,,,,,,,,,,,,,,,,,,,,,,,,,,,,,,,,,,,,,,,,,,,,,,,,,,,,,,,,,,,,,,,,,,,,,,,,,,,
,,,,,,,,,,stimuli/images/PICTURE_491.png,ROOF,5ee9c6eb82a6e436011ecc86,16/06/2002,2020-07-08_17h18.35.611,proactive,2020.1.2,Win32,60,5f035e5afe130c270d6ae6dd,5f05f1c9f8e03d0d9ee308cb,5,,,,,,rug,,,,,,0,15,15,24,1,3,0,,,,,,,,,,,,,,,,,,,,,,,,,,,,,,,,,,,,,,,,,,,,,,,,,,,,,,,,,,,,,,,,,,,,,,,,,,,
,,,,,,,,,,stimuli/images/PICTURE_248.png,DOZEN,5ee9c6eb82a6e436011ecc86,16/06/2002,2020-07-08_17h18.35.611,proactive,2020.1.2,Win32,60,5f035e5afe130c270d6ae6dd,5f05f1c9f8e03d0d9ee308cb,5,,,,,,cart,,,,,,0,16,16,39,1,4,0,,,,,,,,,,,,,,,,,,,,,,,,,,,,,,,,,,,,,,,,,,,,,,,,,,,,,,,,,,,,,,,,,,,,,,,,,,,
,,,,,,,,,,stimuli/images/PICTURE_314.png,SAKE,5ee9c6eb82a6e436011ecc86,16/06/2002,2020-07-08_17h18.35.611,proactive,2020.1.2,Win32,60,5f035e5afe130c270d6ae6dd,5f05f1c9f8e03d0d9ee308cb,5,,,,,,perfume,,,,,,0,17,17,7,1,1,0,,,,,,,,,,,,,,,,,,,,,,,,,,,,,,,,,,,,,,,,,,,,,,,,,,,,,,,,,,,,,,,,,,,,,,,,,,,
,,,,,,,,,,stimuli/images/PICTURE_509.png,PHOTO,5ee9c6eb82a6e436011ecc86,16/06/2002,2020-07-08_17h18.35.611,proactive,2020.1.2,Win32,60,5f035e5afe130c270d6ae6dd,5f05f1c9f8e03d0d9ee308cb,5,,,,,,telephone,,,,,,0,18,18,21,1,3,0,,,,,,,,,,,,,,,,,,,,,,,,,,,,,,,,,,,,,,,,,,,,,,,,,,,,,,,,,,,,,,,,,,,,,,,,,,,
,,,,,,,,,,stimuli/images/PICTURE_285.png,ADVICE,5ee9c6eb82a6e436011ecc86,16/06/2002,2020-07-08_17h18.35.611,proactive,2020.1.2,Win32,60,5f035e5afe130c270d6ae6dd,5f05f1c9f8e03d0d9ee308cb,5,,,,,,carrot,,,,,,0,19,19,12,1,2,0,,,,,,,,,,,,,,,,,,,,,,,,,,,,,,,,,,,,,,,,,,,,,,,,,,,,,,,,,,,,,,,,,,,,,,,,,,,
,,,,,,,,,,stimuli/images/PICTURE_469.png,ARTIST,5ee9c6eb82a6e436011ecc86,16/06/2002,2020-07-08_17h18.35.611,proactive,2020.1.2,Win32,60,5f035e5afe130c270d6ae6dd,5f05f1c9f8e03d0d9ee308cb,5,,,,,,stool,,,,,,0,20,20,6,1,1,0,,,,,,,,,,,,,,,,,,,,,,,,,,,,,,,,,,,,,,,,,,,,,,,,,,,,,,,,,,,,,,,,,,,,,,,,,,,
,,,,,,,,,,stimuli/images/PICTURE_68.png,MILE,5ee9c6eb82a6e436011ecc86,16/06/2002,2020-07-08_17h18.35.611,proactive,2020.1.2,Win32,60,5f035e5afe130c270d6ae6dd,5f05f1c9f8e03d0d9ee308cb,5,,,,,,candle,,,,,,0,21,21,44,1,5,0,,,,,,,,,,,,,,,,,,,,,,,,,,,,,,,,,,,,,,,,,,,,,,,,,,,,,,,,,,,,,,,,,,,,,,,,,,,
,,,,,,,,,,stimuli/images/PICTURE_311.png,FRIEND,5ee9c6eb82a6e436011ecc86,16/06/2002,2020-07-08_17h18.35.611,proactive,2020.1.2,Win32,60,5f035e5afe130c270d6ae6dd,5f05f1c9f8e03d0d9ee308cb,5,,,,,,razor,,,,,,0,22,22,34,1,4,0,,,,,,,,,,,,,,,,,,,,,,,,,,,,,,,,,,,,,,,,,,,,,,,,,,,,,,,,,,,,,,,,,,,,,,,,,,,
,,,,,,,,,,stimuli/images/PICTURE_688.png,CASINO,5ee9c6eb82a6e436011ecc86,16/06/2002,2020-07-08_17h18.35.611,proactive,2020.1.2,Win32,60,5f035e5afe130c270d6ae6dd,5f05f1c9f8e03d0d9ee308cb,5,,,,,,runner,,,,,,0,23,23,2,1,1,0,,,,,,,,,,,,,,,,,,,,,,,,,,,,,,,,,,,,,,,,,,,,,,,,,,,,,,,,,,,,,,,,,,,,,,,,,,,
,,,,,,,,,,stimuli/images/PICTURE_380.png,DEATH,5ee9c6eb82a6e436011ecc86,16/06/2002,2020-07-08_17h18.35.611,proactive,2020.1.2,Win32,60,5f035e5afe130c270d6ae6dd,5f05f1c9f8e03d0d9ee308cb,5,,,,,,gorilla,,,,,,0,24,24,49,1,5,0,,,,,,,,,,,,,,,,,,,,,,,,,,,,,,,,,,,,,,,,,,,,,,,,,,,,,,,,,,,,,,,,,,,,,,,,,,,
,,,,,,,,,,stimuli/images/PICTURE_744.png,SAKE,5ee9c6eb82a6e436011ecc86,16/06/2002,2020-07-08_17h18.35.611,proactive,2020.1.2,Win32,60,5f035e5afe130c270d6ae6dd,5f05f1c9f8e03d0d9ee308cb,5,,,,,,ring,,,,,,0,25,25,17,1,2,0,,,,,,,,,,,,,,,,,,,,,,,,,,,,,,,,,,,,,,,,,,,,,,,,,,,,,,,,,,,,,,,,,,,,,,,,,,,
,,,,,,,,,,stimuli/images/PICTURE_356.png,DANGER,5ee9c6eb82a6e436011ecc86,16/06/2002,2020-07-08_17h18.35.611,proactive,2020.1.2,Win32,60,5f035e5afe130c270d6ae6dd,5f05f1c9f8e03d0d9ee308cb,5,,,,,,pawn,,,,,,0,26,26,55,1,6,0,,,,,,,,,,,,,,,,,,,,,,,,,,,,,,,,,,,,,,,,,,,,,,,,,,,,,,,,,,,,,,,,,,,,,,,,,,,
,,,,,,,,,,stimuli/images/PICTURE_123.png,ADVICE,5ee9c6eb82a6e436011ecc86,16/06/2002,2020-07-08_17h18.35.611,proactive,2020.1.2,Win32,60,5f035e5afe130c270d6ae6dd,5f05f1c9f8e03d0d9ee308cb,5,,,,,,dart,,,,,,0,27,27,50,1,6,0,,,,,,,,,,,,,,,,,,,,,,,,,,,,,,,,,,,,,,,,,,,,,,,,,,,,,,,,,,,,,,,,,,,,,,,,,,,
,,,,,,,,,,stimuli/images/PICTURE_233.png,IDEAS,5ee9c6eb82a6e436011ecc86,16/06/2002,2020-07-08_17h18.35.611,proactive,2020.1.2,Win32,60,5f035e5afe130c270d6ae6dd,5f05f1c9f8e03d0d9ee308cb,5,,,,,,salt,,,,,,0,28,28,28,1,3,0,,,,,,,,,,,,,,,,,,,,,,,,,,,,,,,,,,,,,,,,,,,,,,,,,,,,,,,,,,,,,,,,,,,,,,,,,,,
,,,,,,,,,,stimuli/images/PICTURE_151.png,GIRL,5ee9c6eb82a6e436011ecc86,16/06/2002,2020-07-08_17h18.35.611,proactive,2020.1.2,Win32,60,5f035e5afe130c270d6ae6dd,5f05f1c9f8e03d0d9ee308cb,5,,,,,,tray,,,,,,0,29,29,19,1,2,0,,,,,,,,,,,,,,,,,,,,,,,,,,,,,,,,,,,,,,,,,,,,,,,,,,,,,,,,,,,,,,,,,,,,,,,,,,,
,,,,,,,,,,stimuli/images/PICTURE_308.png,ESTATE,5ee9c6eb82a6e436011ecc86,16/06/2002,2020-07-08_17h18.35.611,proactive,2020.1.2,Win32,60,5f035e5afe130c270d6ae6dd,5f05f1c9f8e03d0d9ee308cb,5,,,,,,dice,,,,,,0,30,30,46,1,5,0,,,,,,,,,,,,,,,,,,,,,,,,,,,,,,,,,,,,,,,,,,,,,,,,,,,,,,,,,,,,,,,,,,,,,,,,,,,
,,,,,,,,,,stimuli/images/PICTURE_302.png,FAMILY,5ee9c6eb82a6e436011ecc86,16/06/2002,2020-07-08_17h18.35.611,proactive,2020.1.2,Win32,60,5f035e5afe130c270d6ae6dd,5f05f1c9f8e03d0d9ee308cb,5,,,,,,taxi,,,,,,0,31,31,18,1,2,0,,,,,,,,,,,,,,,,,,,,,,,,,,,,,,,,,,,,,,,,,,,,,,,,,,,,,,,,,,,,,,,,,,,,,,,,,,,
,,,,,,,,,,stimuli/images/PICTURE_677.png,MILE,5ee9c6eb82a6e436011ecc86,16/06/2002,2020-07-08_17h18.35.611,proactive,2020.1.2,Win32,60,5f035e5afe130c270d6ae6dd,5f05f1c9f8e03d0d9ee308cb,5,,,,,,map,,,,,,0,32,32,30,1,4,0,,,,,,,,,,,,,,,,,,,,,,,,,,,,,,,,,,,,,,,,,,,,,,,,,,,,,,,,,,,,,,,,,,,,,,,,,,,
,,,,,,,,,,stimuli/images/PICTURE_667.png,BATH,5ee9c6eb82a6e436011ecc86,16/06/2002,2020-07-08_17h18.35.611,proactive,2020.1.2,Win32,60,5f035e5afe130c270d6ae6dd,5f05f1c9f8e03d0d9ee308cb,5,,,,,,daisy,,,,,,0,33,33,4,1,1,0,,,,,,,,,,,,,,,,,,,,,,,,,,,,,,,,,,,,,,,,,,,,,,,,,,,,,,,,,,,,,,,,,,,,,,,,,,,
,,,,,,,,,,stimuli/images/PICTURE_339.png,PLENTY,5ee9c6eb82a6e436011ecc86,16/06/2002,2020-07-08_17h18.35.611,proactive,2020.1.2,Win32,60,5f035e5afe130c270d6ae6dd,5f05f1c9f8e03d0d9ee308cb,5,,,,,,backpack,,,,,,0,34,34,0,1,1,0,,,,,,,,,,,,,,,,,,,,,,,,,,,,,,,,,,,,,,,,,,,,,,,,,,,,,,,,,,,,,,,,,,,,,,,,,,,
,,,,,,,,,,stimuli/images/PICTURE_688.png,WOMEN,5ee9c6eb82a6e436011ecc86,16/06/2002,2020-07-08_17h18.35.611,proactive,2020.1.2,Win32,60,5f035e5afe130c270d6ae6dd,5f05f1c9f8e03d0d9ee308cb,5,,,,,,runner,,,,,,0,35,35,14,1,2,0,,,,,,,,,,,,,,,,,,,,,,,,,,,,,,,,,,,,,,,,,,,,,,,,,,,,,,,,,,,,,,,,,,,,,,,,,,,
,,,,,,,,,,stimuli/images/PICTURE_208.png,LOTS,5ee9c6eb82a6e436011ecc86,16/06/2002,2020-07-08_17h18.35.611,proactive,2020.1.2,Win32,60,5f035e5afe130c270d6ae6dd,5f05f1c9f8e03d0d9ee308cb,5,,,,,,microphone,,,,,,0,36,36,10,1,2,0,,,,,,,,,,,,,,,,,,,,,,,,,,,,,,,,,,,,,,,,,,,,,,,,,,,,,,,,,,,,,,,,,,,,,,,,,,,
,,,,,,,,,,stimuli/images/PICTURE_177.png,CARS,5ee9c6eb82a6e436011ecc86,16/06/2002,2020-07-08_17h18.35.611,proactive,2020.1.2,Win32,60,5f035e5afe130c270d6ae6dd,5f05f1c9f8e03d0d9ee308cb,5,,,,,,mushroom,,,,,,0,37,37,35,1,4,0,,,,,,,,,,,,,,,,,,,,,,,,,,,,,,,,,,,,,,,,,,,,,,,,,,,,,,,,,,,,,,,,,,,,,,,,,,,
,,,,,,,,,,stimuli/images/PICTURE_449.png,THING,5ee9c6eb82a6e436011ecc86,16/06/2002,2020-07-08_17h18.35.611,proactive,2020.1.2,Win32,60,5f035e5afe130c270d6ae6dd,5f05f1c9f8e03d0d9ee308cb,5,,,,,,bench,,,,,,0,38,38,59,1,6,0,,,,,,,,,,,,,,,,,,,,,,,,,,,,,,,,,,,,,,,,,,,,,,,,,,,,,,,,,,,,,,,,,,,,,,,,,,,
,,,,,,,,,,stimuli/images/PICTURE_453.png,PLENTY,5ee9c6eb82a6e436011ecc86,16/06/2002,2020-07-08_17h18.35.611,proactive,2020.1.2,Win32,60,5f035e5afe130c270d6ae6dd,5f05f1c9f8e03d0d9ee308cb,5,,,,,,scissors,,,,,,0,39,39,56,1,6,0,,,,,,,,,,,,,,,,,,,,,,,,,,,,,,,,,,,,,,,,,,,,,,,,,,,,,,,,,,,,,,,,,,,,,,,,,,,
,,,,,,,,,,stimuli/images/PICTURE_208.png,THING,5ee9c6eb82a6e436011ecc86,16/06/2002,2020-07-08_17h18.35.611,proactive,2020.1.2,Win32,60,5f035e5afe130c270d6ae6dd,5f05f1c9f8e03d0d9ee308cb,5,,,,,,microphone,,,,,,0,40,40,47,1,5,0,,,,,,,,,,,,,,,,,,,,,,,,,,,,,,,,,,,,,,,,,,,,,,,,,,,,,,,,,,,,,,,,,,,,,,,,,,,
,,,,,,,,,,stimuli/images/PICTURE_348.png,SPEECH,5ee9c6eb82a6e436011ecc86,16/06/2002,2020-07-08_17h18.35.611,proactive,2020.1.2,Win32,60,5f035e5afe130c270d6ae6dd,5f05f1c9f8e03d0d9ee308cb,5,,,,,,pepper,,,,,,0,41,41,20,1,3,0,,,,,,,,,,,,,,,,,,,,,,,,,,,,,,,,,,,,,,,,,,,,,,,,,,,,,,,,,,,,,,,,,,,,,,,,,,,
,,,,,,,,,,stimuli/images/PICTURE_85.png,THING,5ee9c6eb82a6e436011ecc86,16/06/2002,2020-07-08_17h18.35.611,proactive,2020.1.2,Win32,60,5f035e5afe130c270d6ae6dd,5f05f1c9f8e03d0d9ee308cb,5,,,,,,diamond,,,,,,0,42,42,15,1,2,0,,,,,,,,,,,,,,,,,,,,,,,,,,,,,,,,,,,,,,,,,,,,,,,,,,,,,,,,,,,,,,,,,,,,,,,,,,,
,,,,,,,,,,stimuli/images/PICTURE_208.png,MONTH,5ee9c6eb82a6e436011ecc86,16/06/2002,2020-07-08_17h18.35.611,proactive,2020.1.2,Win32,60,5f035e5afe130c270d6ae6dd,5f05f1c9f8e03d0d9ee308cb,5,,,,,,microphone,,,,,,0,43,43,53,1,6,0,,,,,,,,,,,,,,,,,,,,,,,,,,,,,,,,,,,,,,,,,,,,,,,,,,,,,,,,,,,,,,,,,,,,,,,,,,,
,,,,,,,,,,stimuli/images/PICTURE_470.png,CASINO,5ee9c6eb82a6e436011ecc86,16/06/2002,2020-07-08_17h18.35.611,proactive,2020.1.2,Win32,60,5f035e5afe130c270d6ae6dd,5f05f1c9f8e03d0d9ee308cb,5,,,,,,motorbike,,,,,,0,44,44,36,1,4,0,,,,,,,,,,,,,,,,,,,,,,,,,,,,,,,,,,,,,,,,,,,,,,,,,,,,,,,,,,,,,,,,,,,,,,,,,,,
,,,,,,,,,,stimuli/images/PICTURE_380.png,PHOTO,5ee9c6eb82a6e436011ecc86,16/06/2002,2020-07-08_17h18.35.611,proactive,2020.1.2,Win32,60,5f035e5afe130c270d6ae6dd,5f05f1c9f8e03d0d9ee308cb,5,,,,,,gorilla,,,,,,0,45,45,52,1,6,0,,,,,,,,,,,,,,,,,,,,,,,,,,,,,,,,,,,,,,,,,,,,,,,,,,,,,,,,,,,,,,,,,,,,,,,,,,,
,,,,,,,,,,stimuli/images/PICTURE_491.png,WRITER,5ee9c6eb82a6e436011ecc86,16/06/2002,2020-07-08_17h18.35.611,proactive,2020.1.2,Win32,60,5f035e5afe130c270d6ae6dd,5f05f1c9f8e03d0d9ee308cb,5,,,,,,rug,,,,,,0,46,46,57,1,6,0,,,,,,,,,,,,,,,,,,,,,,,,,,,,,,,,,,,,,,,,,,,,,,,,,,,,,,,,,,,,,,,,,,,,,,,,,,,
,,,,,,,,,,stimuli/images/PICTURE_708.png,PENNY,5ee9c6eb82a6e436011ecc86,16/06/2002,2020-07-08_17h18.35.611,proactive,2020.1.2,Win32,60,5f035e5afe130c270d6ae6dd,5f05f1c9f8e03d0d9ee308cb,5,,,,,,monkey,,,,,,0,47,47,31,1,4,0,,,,,,,,,,,,,,,,,,,,,,,,,,,,,,,,,,,,,,,,,,,,,,,,,,,,,,,,,,,,,,,,,,,,,,,,,,,
,,,,,,,,,,stimuli/images/PICTURE_32.png,JUNGLE,5ee9c6eb82a6e436011ecc86,16/06/2002,2020-07-08_17h18.35.611,proactive,2020.1.2,Win32,60,5f035e5afe130c270d6ae6dd,5f05f1c9f8e03d0d9ee308cb,5,,,,,,crown,,,,,,0,48,48,45,1,5,0,,,,,,,,,,,,,,,,,,,,,,,,,,,,,,,,,,,,,,,,,,,,,,,,,,,,,,,,,,,,,,,,,,,,,,,,,,,
,,,,,,,,,,stimuli/images/PICTURE_667.png,PLENTY,5ee9c6eb82a6e436011ecc86,16/06/2002,2020-07-08_17h18.35.611,proactive,2020.1.2,Win32,60,5f035e5afe130c270d6ae6dd,5f05f1c9f8e03d0d9ee308cb,5,,,,,,daisy,,,,,,0,49,49,41,1,5,0,,,,,,,,,,,,,,,,,,,,,,,,,,,,,,,,,,,,,,,,,,,,,,,,,,,,,,,,,,,,,,,,,,,,,,,,,,,
,,,,,,,,,,stimuli/images/PICTURE_147.png,MOMENT,5ee9c6eb82a6e436011ecc86,16/06/2002,2020-07-08_17h18.35.611,proactive,2020.1.2,Win32,60,5f035e5afe130c270d6ae6dd,5f05f1c9f8e03d0d9ee308cb,5,,,,,,hanger,,,,,,0,50,50,51,1,6,0,,,,,,,,,,,,,,,,,,,,,,,,,,,,,,,,,,,,,,,,,,,,,,,,,,,,,,,,,,,,,,,,,,,,,,,,,,,
,,,,,,,,,,stimuli/images/PICTURE_654.png,VALLEY,5ee9c6eb82a6e436011ecc86,16/06/2002,2020-07-08_17h18.35.611,proactive,2020.1.2,Win32,60,5f035e5afe130c270d6ae6dd,5f05f1c9f8e03d0d9ee308cb,5,,,,,,pencil,,,,,,0,51,51,1,1,1,0,,,,,,,,,,,,,,,,,,,,,,,,,,,,,,,,,,,,,,,,,,,,,,,,,,,,,,,,,,,,,,,,,,,,,,,,,,,
,,,,,,,,,,stimuli/images/PICTURE_95.png,STYLE,5ee9c6eb82a6e436011ecc86,16/06/2002,2020-07-08_17h18.35.611,proactive,2020.1.2,Win32,60,5f035e5afe130c270d6ae6dd,5f05f1c9f8e03d0d9ee308cb,5,,,,,,suitcase,,,,,,0,52,52,25,1,3,0,,,,,,,,,,,,,,,,,,,,,,,,,,,,,,,,,,,,,,,,,,,,,,,,,,,,,,,,,,,,,,,,,,,,,,,,,,,
,,,,,,,,,,stimuli/images/PICTURE_311.png,BEAUTY,5ee9c6eb82a6e436011ecc86,16/06/2002,2020-07-08_17h18.35.611,proactive,2020.1.2,Win32,60,5f035e5afe130c270d6ae6dd,5f05f1c9f8e03d0d9ee308cb,5,,,,,,razor,,,,,,0,53,53,13,1,2,0,,,,,,,,,,,,,,,,,,,,,,,,,,,,,,,,,,,,,,,,,,,,,,,,,,,,,,,,,,,,,,,,,,,,,,,,,,,
,,,,,,,,,,stimuli/images/PICTURE_692.png,MONTH,5ee9c6eb82a6e436011ecc86,16/06/2002,2020-07-08_17h18.35.611,proactive,2020.1.2,Win32,60,5f035e5afe130c270d6ae6dd,5f05f1c9f8e03d0d9ee308cb,5,,,,,,cherry,,,,,,0,54,54,16,1,2,0,,,,,,,,,,,,,,,,,,,,,,,,,,,,,,,,,,,,,,,,,,,,,,,,,,,,,,,,,,,,,,,,,,,,,,,,,,,
,,,,,,,,,,stimuli/images/PICTURE_469.png,LETTER,5ee9c6eb82a6e436011ecc86,16/06/2002,2020-07-08_17h18.35.611,proactive,2020.1.2,Win32,60,5f035e5afe130c270d6ae6dd,5f05f1c9f8e03d0d9ee308cb,5,,,,,,stool,,,,,,0,55,55,42,1,5,0,,,,,,,,,,,,,,,,,,,,,,,,,,,,,,,,,,,,,,,,,,,,,,,,,,,,,,,,,,,,,,,,,,,,,,,,,,,
,,,,,,,,,,stimuli/images/PICTURE_675.png,WEAPON,5ee9c6eb82a6e436011ecc86,16/06/2002,2020-07-08_17h18.35.611,proactive,2020.1.2,Win32,60,5f035e5afe130c270d6ae6dd,5f05f1c9f8e03d0d9ee308cb,5,,,,,,windmill,,,,,,0,56,56,32,1,4,0,,,,,,,,,,,,,,,,,,,,,,,,,,,,,,,,,,,,,,,,,,,,,,,,,,,,,,,,,,,,,,,,,,,,,,,,,,,
,,,,,,,,,,stimuli/images/PICTURE_487.png,FLIGHT,5ee9c6eb82a6e436011ecc86,16/06/2002,2020-07-08_17h18.35.611,proactive,2020.1.2,Win32,60,5f035e5afe130c270d6ae6dd,5f05f1c9f8e03d0d9ee308cb,5,,,,,,basket,,,,,,0,57,57,9,1,1,0,,,,,,,,,,,,,,,,,,,,,,,,,,,,,,,,,,,,,,,,,,,,,,,,,,,,,,,,,,,,,,,,,,,,,,,,,,,
,,,,,,,,,,stimuli/images/PICTURE_314.png,GODS,5ee9c6eb82a6e436011ecc86,16/06/2002,2020-07-08_17h18.35.611,proactive,2020.1.2,Win32,60,5f035e5afe130c270d6ae6dd,5f05f1c9f8e03d0d9ee308cb,5,,,,,,perfume,,,,,,0,58,58,11,1,2,0,,,,,,,,,,,,,,,,,,,,,,,,,,,,,,,,,,,,,,,,,,,,,,,,,,,,,,,,,,,,,,,,,,,,,,,,,,,
,,?,0.00203,0,,,,,,stimuli/images/PICTURE_449.png,THING,5ee9c6eb82a6e436011ecc86,16/06/2002,2020-07-08_17h18.35.611,proactive,2020.1.2,Win32,60,5f035e5afe130c270d6ae6dd,5f05f1c9f8e03d0d9ee308cb,5,,,,,,bench,,,,,,,,,,,6,0,0,0,0,59,1,,,,,,,,,,,,,,,,,,,,,,,,,,,,,,,,,,,,,,,,,,,,,,,,,,,,,,,,,,,,,,,,,,,,,,
,,?,0.001345,0,,,,,,stimuli/images/PICTURE_488.png,STYLE,5ee9c6eb82a6e436011ecc86,16/06/2002,2020-07-08_17h18.35.611,proactive,2020.1.2,Win32,60,5f035e5afe130c270d6ae6dd,5f05f1c9f8e03d0d9ee308cb,5,,,,,,sun,,,,,,,,,,,4,0,0,1,1,33,1,,,,,,,,,,,,,,,,,,,,,,,,,,,,,,,,,,,,,,,,,,,,,,,,,,,,,,,,,,,,,,,,,,,,,,
,,?,0.001705,0,,,,,,stimuli/images/PICTURE_208.png,LOTS,5ee9c6eb82a6e436011ecc86,16/06/2002,2020-07-08_17h18.35.611,proactive,2020.1.2,Win32,60,5f035e5afe130c270d6ae6dd,5f05f1c9f8e03d0d9ee308cb,5,,,,,,microphone,,,,,,,,,,,2,0,0,2,2,10,1,,,,,,,,,,,,,,,,,,,,,,,,,,,,,,,,,,,,,,,,,,,,,,,,,,,,,,,,,,,,,,,,,,,,,,
,,ESTATE,3.881555,1,,,,,,stimuli/images/PICTURE_308.png,ESTATE,5ee9c6eb82a6e436011ecc86,16/06/2002,2020-07-08_17h18.35.611,proactive,2020.1.2,Win32,60,5f035e5afe130c270d6ae6dd,5f05f1c9f8e03d0d9ee308cb,5,,,,,,dice,,,,,,,,,,,5,0,0,3,3,46,1,,,,,,,,,,,,,,,,,,,,,,,,,,,,,,,,,,,,,,,,,,,,,,,,,,,,,,,,,,,,,,,,,,,,,,
,,?,0.00123,0,,,,,,stimuli/images/PICTURE_675.png,WEAPON,5ee9c6eb82a6e436011ecc86,16/06/2002,2020-07-08_17h18.35.611,proactive,2020.1.2,Win32,60,5f035e5afe130c270d6ae6dd,5f05f1c9f8e03d0d9ee308cb,5,,,,,,windmill,,,,,,,,,,,4,0,0,4,4,32,1,,,,,,,,,,,,,,,,,,,,,,,,,,,,,,,,,,,,,,,,,,,,,,,,,,,,,,,,,,,,,,,,,,,,,,
,,?,0.00083,0,,,,,,stimuli/images/PICTURE_708.png,PENNY,5ee9c6eb82a6e436011ecc86,16/06/2002,2020-07-08_17h18.35.611,proactive,2020.1.2,Win32,60,5f035e5afe130c270d6ae6dd,5f05f1c9f8e03d0d9ee308cb,5,,,,,,monkey,,,,,,,,,,,4,0,0,5,5,31,1,,,,,,,,,,,,,,,,,,,,,,,,,,,,,,,,,,,,,,,,,,,,,,,,,,,,,,,,,,,,,,,,,,,,,,
,,?,0.000745,0,,,,,,stimuli/images/PICTURE_177.png,CARS,5ee9c6eb82a6e436011ecc86,16/06/2002,2020-07-08_17h18.35.611,proactive,2020.1.2,Win32,60,5f035e5afe130c270d6ae6dd,5f05f1c9f8e03d0d9ee308cb,5,,,,,,mushroom,,,,,,,,,,,4,0,0,6,6,35,1,,,,,,,,,,,,,,,,,,,,,,,,,,,,,,,,,,,,,,,,,,,,,,,,,,,,,,,,,,,,,,,,,,,,,,
,,?,0.000965,0,,,,,,stimuli/images/PICTURE_147.png,MOMENT,5ee9c6eb82a6e436011ecc86,16/06/2002,2020-07-08_17h18.35.611,proactive,2020.1.2,Win32,60,5f035e5afe130c270d6ae6dd,5f05f1c9f8e03d0d9ee308cb,5,,,,,,hanger,,,,,,,,,,,6,0,0,7,7,51,1,,,,,,,,,,,,,,,,,,,,,,,,,,,,,,,,,,,,,,,,,,,,,,,,,,,,,,,,,,,,,,,,,,,,,,
,,DEATH,1.77734,1,,,,,,stimuli/images/PICTURE_380.png,DEATH,5ee9c6eb82a6e436011ecc86,16/06/2002,2020-07-08_17h18.35.611,proactive,2020.1.2,Win32,60,5f035e5afe130c270d6ae6dd,5f05f1c9f8e03d0d9ee308cb,5,,,,,,gorilla,,,,,,,,,,,5,0,0,8,8,49,1,,,,,,,,,,,,,,,,,,,,,,,,,,,,,,,,,,,,,,,,,,,,,,,,,,,,,,,,,,,,,,,,,,,,,,
,,?,0.001245,0,,,,,,stimuli/images/PICTURE_215.png,PLENTY,5ee9c6eb82a6e436011ecc86,16/06/2002,2020-07-08_17h18.35.611,proactive,2020.1.2,Win32,60,5f035e5afe130c270d6ae6dd,5f05f1c9f8e03d0d9ee308cb,5,,,,,,boot,,,,,,,,,,,4,0,0,9,9,37,1,,,,,,,,,,,,,,,,,,,,,,,,,,,,,,,,,,,,,,,,,,,,,,,,,,,,,,,,,,,,,,,,,,,,,,
,,?,0.000615,0,,,,,,stimuli/images/PICTURE_467.png,DEMON,5ee9c6eb82a6e436011ecc86,16/06/2002,2020-07-08_17h18.35.611,proactive,2020.1.2,Win32,60,5f035e5afe130c270d6ae6dd,5f05f1c9f8e03d0d9ee308cb,5,,,,,,peg,,,,,,,,,,,3,0,0,10,10,23,1,,,,,,,,,,,,,,,,,,,,,,,,,,,,,,,,,,,,,,,,,,,,,,,,,,,,,,,,,,,,,,,,,,,,,,
,,?,0.00055,0,,,,,,stimuli/images/PICTURE_504.png,BODY,5ee9c6eb82a6e436011ecc86,16/06/2002,2020-07-08_17h18.35.611,proactive,2020.1.2,Win32,60,5f035e5afe130c270d6ae6dd,5f05f1c9f8e03d0d9ee308cb,5,,,,,,wheel,,,,,,,,,,,1,0,0,11,11,8,1,,,,,,,,,,,,,,,,,,,,,,,,,,,,,,,,,,,,,,,,,,,,,,,,,,,,,,,,,,,,,,,,,,,,,,
,,?,0.00056,0,,,,,,stimuli/images/PICTURE_470.png,CASINO,5ee9c6eb82a6e436011ecc86,16/06/2002,2020-07-08_17h18.35.611,proactive,2020.1.2,Win32,60,5f035e5afe130c270d6ae6dd,5f05f1c9f8e03d0d9ee308cb,5,,,,,,motorbike,,,,,,,,,,,4,0,0,12,12,36,1,,,,,,,,,,,,,,,,,,,,,,,,,,,,,,,,,,,,,,,,,,,,,,,,,,,,,,,,,,,,,,,,,,,,,,
,,JUNGLE,2.147725,1,,,,,,stimuli/images/PICTURE_32.png,JUNGLE,5ee9c6eb82a6e436011ecc86,16/06/2002,2020-07-08_17h18.35.611,proactive,2020.1.2,Win32,60,5f035e5afe130c270d6ae6dd,5f05f1c9f8e03d0d9ee308cb,5,,,,,,crown,,,,,,,,,,,5,0,0,13,13,45,1,,,,,,,,,,,,,,,,,,,,,,,,,,,,,,,,,,,,,,,,,,,,,,,,,,,,,,,,,,,,,,,,,,,,,,
,,BEAUTY,2.30071,1,,,,,,stimuli/images/PICTURE_327.png,BEAUTY,5ee9c6eb82a6e436011ecc86,16/06/2002,2020-07-08_17h18.35.611,proactive,2020.1.2,Win32,60,5f035e5afe130c270d6ae6dd,5f05f1c9f8e03d0d9ee308cb,5,,,,,,helmet,,,,,,,,,,,5,0,0,14,14,48,1,,,,,,,,,,,,,,,,,,,,,,,,,,,,,,,,,,,,,,,,,,,,,,,,,,,,,,,,,,,,,,,,,,,,,,
,,?,0.00126,0,,,,,,stimuli/images/PICTURE_160.png,LEADER,5ee9c6eb82a6e436011ecc86,16/06/2002,2020-07-08_17h18.35.611,proactive,2020.1.2,Win32,60,5f035e5afe130c270d6ae6dd,5f05f1c9f8e03d0d9ee308cb,5,,,,,,wheelbarrow,,,,,,,,,,,1,0,0,15,15,3,1,,,,,,,,,,,,,,,,,,,,,,,,,,,,,,,,,,,,,,,,,,,,,,,,,,,,,,,,,,,,,,,,,,,,,,
,,?,0.000825,0,,,,,,stimuli/images/PICTURE_348.png,SPEECH,5ee9c6eb82a6e436011ecc86,16/06/2002,2020-07-08_17h18.35.611,proactive,2020.1.2,Win32,60,5f035e5afe130c270d6ae6dd,5f05f1c9f8e03d0d9ee308cb,5,,,,,,pepper,,,,,,,,,,,3,0,0,16,16,20,1,,,,,,,,,,,,,,,,,,,,,,,,,,,,,,,,,,,,,,,,,,,,,,,,,,,,,,,,,,,,,,,,,,,,,,
