consent_key.keys,consent_key.rt,recalled,recalled_rt,recall_acc,example_recall.thisRepN,example_recall.thisTrialN,example_recall.thisN,example_recall.thisIndex,example_recall.ran,file,word,participant,please enter your date of birth (dd/mm/yyyy),date,expName,psychopyVersion,OS,frameRate,STUDY_ID,SESSION_ID,list,prac_learn_study_loop.thisRepN,prac_learn_study_loop.thisTrialN,prac_learn_study_loop.thisN,prac_learn_study_loop.thisIndex,prac_learn_study_loop.ran,image,prac_learn_test_loop.thisRepN,prac_learn_test_loop.thisTrialN,prac_learn_test_loop.thisN,prac_learn_test_loop.thisIndex,prac_learn_test_loop.ran,learn_study_loop.thisRepN,learn_study_loop.thisTrialN,learn_study_loop.thisN,learn_study_loop.thisIndex,learn_study_loop.ran,list_no,block_no,learn_test_loop.thisRepN,learn_test_loop.thisTrialN,learn_test_loop.thisN,learn_test_loop.thisIndex,learn_test_loop.ran,learn_blocks.thisRepN,learn_blocks.thisTrialN,learn_blocks.thisN,learn_blocks.thisIndex,learn_blocks.ran,block_csv,key_resp_13.keys,key_resp_13.rt,learn_blocks_loop.thisRepN,learn_blocks_loop.thisTrialN,learn_blocks_loop.thisN,learn_blocks_loop.thisIndex,learn_blocks_loop.ran,final_learn_test.thisRepN,final_learn_test.thisTrialN,final_learn_test.thisN,final_learn_test.thisIndex,final_learn_test.ran,prac_wm_test_loop.thisRepN,prac_wm_test_loop.thisTrialN,prac_wm_test_loop.thisN,prac_wm_test_loop.thisIndex,prac_wm_test_loop.ran,wm_recalled1,wm_recall_rt1,wm_probed1,wm_recall_acc1,wm_recalled2,wm_recall_rt2,wm_probed2,wm_recall_acc2,wm_recalled3,wm_recall_rt3,wm_probed3,wm_recall_acc3,wm_recalled4,wm_recall_rt4,wm_probed4,wm_recall_acc4,prac_wm_trial_loop.thisRepN,prac_wm_trial_loop.thisTrialN,prac_wm_trial_loop.thisN,prac_wm_trial_loop.thisIndex,prac_wm_trial_loop.ran,word1,image1,file1,item_type1,word2,image2,file2,item_type2,word4,image4,file4,item_type4,word3,image3,file3,item_type3,wm_test_loop.thisRepN,wm_test_loop.thisTrialN,wm_test_loop.thisN,wm_test_loop.thisIndex,wm_test_loop.ran,wm_trial_loop.thisRepN,wm_trial_loop.thisTrialN,wm_trial_loop.thisN,wm_trial_loop.thisIndex,wm_trial_loop.ran
y,34.887185,?,10.010795,0,0,0,0,0,1,stimuli/images/PICTURE_747.png,TOUGH,5eebb8b7011d13119025dcf0,06/02/1992,2020-07-08_16h16.39.481,proactive,2020.1.2,Win32,60,5f035e5afe130c270d6ae6dd,5f05e2a01308dd0b4590739e,2,,,,,,,,,,,,,,,,,,,,,,,,,,,,,,,,,,,,,,,,,,,,,,,,,,,,,,,,,,,,,,,,,,,,,,,,,,,,,,,,,,,,,,,,,,,,,
,,,,,,,,,,stimuli/images/PICTURE_269.png,GENIUS,5eebb8b7011d13119025dcf0,06/02/1992,2020-07-08_16h16.39.481,proactive,2020.1.2,Win32,60,5f035e5afe130c270d6ae6dd,5f05e2a01308dd0b4590739e,2,0,0,0,0,1,chameleon,,,,,,,,,,,,,,,,,,,,,,,,,,,,,,,,,,,,,,,,,,,,,,,,,,,,,,,,,,,,,,,,,,,,,,,,,,,,,,,,,,,,,,,
,,,,,,,,,,stimuli/images/PICTURE_658.png,DEVIL,5eebb8b7011d13119025dcf0,06/02/1992,2020-07-08_16h16.39.481,proactive,2020.1.2,Win32,60,5f035e5afe130c270d6ae6dd,5f05e2a01308dd0b4590739e,2,0,1,1,3,1,crow,,,,,,,,,,,,,,,,,,,,,,,,,,,,,,,,,,,,,,,,,,,,,,,,,,,,,,,,,,,,,,,,,,,,,,,,,,,,,,,,,,,,,,,
,,,,,,,,,,stimuli/images/PICTURE_697.png,KILLER,5eebb8b7011d13119025dcf0,06/02/1992,2020-07-08_16h16.39.481,proactive,2020.1.2,Win32,60,5f035e5afe130c270d6ae6dd,5f05e2a01308dd0b4590739e,2,0,2,2,4,1,peach,,,,,,,,,,,,,,,,,,,,,,,,,,,,,,,,,,,,,,,,,,,,,,,,,,,,,,,,,,,,,,,,,,,,,,,,,,,,,,,,,,,,,,,
,,,,,,,,,,stimuli/images/PICTURE_378.png,LOSS,5eebb8b7011d13119025dcf0,06/02/1992,2020-07-08_16h16.39.481,proactive,2020.1.2,Win32,60,5f035e5afe130c270d6ae6dd,5f05e2a01308dd0b4590739e,2,0,3,3,2,1,lobster,,,,,,,,,,,,,,,,,,,,,,,,,,,,,,,,,,,,,,,,,,,,,,,,,,,,,,,,,,,,,,,,,,,,,,,,,,,,,,,,,,,,,,,
,,?,10.00354,0,,,,,,stimuli/images/PICTURE_697.png,KILLER,5eebb8b7011d13119025dcf0,06/02/1992,2020-07-08_16h16.39.481,proactive,2020.1.2,Win32,60,5f035e5afe130c270d6ae6dd,5f05e2a01308dd0b4590739e,2,,,,,,peach,0,0,0,4,1,,,,,,,,,,,,,,,,,,,,,,,,,,,,,,,,,,,,,,,,,,,,,,,,,,,,,,,,,,,,,,,,,,,,,,,,,,,,,,,,,,
,,?,10.005195,0,,,,,,stimuli/images/PICTURE_727.png,CELL,5eebb8b7011d13119025dcf0,06/02/1992,2020-07-08_16h16.39.481,proactive,2020.1.2,Win32,60,5f035e5afe130c270d6ae6dd,5f05e2a01308dd0b4590739e,2,,,,,,hose,0,1,1,1,1,,,,,,,,,,,,,,,,,,,,,,,,,,,,,,,,,,,,,,,,,,,,,,,,,,,,,,,,,,,,,,,,,,,,,,,,,,,,,,,,,,
,,?,10.006045,0,,,,,,stimuli/images/PICTURE_378.png,LOSS,5eebb8b7011d13119025dcf0,06/02/1992,2020-07-08_16h16.39.481,proactive,2020.1.2,Win32,60,5f035e5afe130c270d6ae6dd,5f05e2a01308dd0b4590739e,2,,,,,,lobster,0,2,2,2,1,,,,,,,,,,,,,,,,,,,,,,,,,,,,,,,,,,,,,,,,,,,,,,,,,,,,,,,,,,,,,,,,,,,,,,,,,,,,,,,,,,
,,?,10.00695,0,,,,,,stimuli/images/PICTURE_658.png,DEVIL,5eebb8b7011d13119025dcf0,06/02/1992,2020-07-08_16h16.39.481,proactive,2020.1.2,Win32,60,5f035e5afe130c270d6ae6dd,5f05e2a01308dd0b4590739e,2,,,,,,crow,0,3,3,3,1,,,,,,,,,,,,,,,,,,,,,,,,,,,,,,,,,,,,,,,,,,,,,,,,,,,,,,,,,,,,,,,,,,,,,,,,,,,,,,,,,,
,,?,10.00458,0,,,,,,stimuli/images/PICTURE_269.png,GENIUS,5eebb8b7011d13119025dcf0,06/02/1992,2020-07-08_16h16.39.481,proactive,2020.1.2,Win32,60,5f035e5afe130c270d6ae6dd,5f05e2a01308dd0b4590739e,2,,,,,,chameleon,0,4,4,0,1,,,,,,,,,,,,,,,,,,,,,,,,,,,,,,,,,,,,,,,,,,,,,,,,,,,,,,,,,,,,,,,,,,,,,,,,,,,,,,,,,,
,,,,,,,,,,stimuli/images/PICTURE_470.png,MOMENT,5eebb8b7011d13119025dcf0,06/02/1992,2020-07-08_16h16.39.481,proactive,2020.1.2,Win32,60,5f035e5afe130c270d6ae6dd,5f05e2a01308dd0b4590739e,2,,,,,,motorbike,,,,,,0,0,0,40,1,5,2,,,,,,,,,,,,,,,,,,,,,,,,,,,,,,,,,,,,,,,,,,,,,,,,,,,,,,,,,,,,,,,,,,,,,,,,,,,
,,,,,,,,,,stimuli/images/PICTURE_215.png,FOOD,5eebb8b7011d13119025dcf0,06/02/1992,2020-07-08_16h16.39.481,proactive,2020.1.2,Win32,60,5f035e5afe130c270d6ae6dd,5f05e2a01308dd0b4590739e,2,,,,,,boot,,,,,,0,1,1,5,1,1,2,,,,,,,,,,,,,,,,,,,,,,,,,,,,,,,,,,,,,,,,,,,,,,,,,,,,,,,,,,,,,,,,,,,,,,,,,,,
,,,,,,,,,,stimuli/images/PICTURE_405.png,HOUSE,5eebb8b7011d13119025dcf0,06/02/1992,2020-07-08_16h16.39.481,proactive,2020.1.2,Win32,60,5f035e5afe130c270d6ae6dd,5f05e2a01308dd0b4590739e,2,,,,,,anchor,,,,,,0,2,2,2,1,1,2,,,,,,,,,,,,,,,,,,,,,,,,,,,,,,,,,,,,,,,,,,,,,,,,,,,,,,,,,,,,,,,,,,,,,,,,,,,
,,,,,,,,,,stimuli/images/PICTURE_509.png,MILLER,5eebb8b7011d13119025dcf0,06/02/1992,2020-07-08_16h16.39.481,proactive,2020.1.2,Win32,60,5f035e5afe130c270d6ae6dd,5f05e2a01308dd0b4590739e,2,,,,,,telephone,,,,,,0,3,3,49,1,5,2,,,,,,,,,,,,,,,,,,,,,,,,,,,,,,,,,,,,,,,,,,,,,,,,,,,,,,,,,,,,,,,,,,,,,,,,,,,
,,,,,,,,,,stimuli/images/PICTURE_654.png,YEAR,5eebb8b7011d13119025dcf0,06/02/1992,2020-07-08_16h16.39.481,proactive,2020.1.2,Win32,60,5f035e5afe130c270d6ae6dd,5f05e2a01308dd0b4590739e,2,,,,,,pencil,,,,,,0,4,4,41,1,5,2,,,,,,,,,,,,,,,,,,,,,,,,,,,,,,,,,,,,,,,,,,,,,,,,,,,,,,,,,,,,,,,,,,,,,,,,,,,
,,,,,,,,,,stimuli/images/PICTURE_57.png,NATION,5eebb8b7011d13119025dcf0,06/02/1992,2020-07-08_16h16.39.481,proactive,2020.1.2,Win32,60,5f035e5afe130c270d6ae6dd,5f05e2a01308dd0b4590739e,2,,,,,,stamp,,,,,,0,5,5,21,1,3,2,,,,,,,,,,,,,,,,,,,,,,,,,,,,,,,,,,,,,,,,,,,,,,,,,,,,,,,,,,,,,,,,,,,,,,,,,,,
,,,,,,,,,,stimuli/images/PICTURE_405.png,JUNGLE,5eebb8b7011d13119025dcf0,06/02/1992,2020-07-08_16h16.39.481,proactive,2020.1.2,Win32,60,5f035e5afe130c270d6ae6dd,5f05e2a01308dd0b4590739e,2,,,,,,anchor,,,,,,0,6,6,58,1,6,2,,,,,,,,,,,,,,,,,,,,,,,,,,,,,,,,,,,,,,,,,,,,,,,,,,,,,,,,,,,,,,,,,,,,,,,,,,,
,,,,,,,,,,stimuli/images/PICTURE_677.png,FAMILY,5eebb8b7011d13119025dcf0,06/02/1992,2020-07-08_16h16.39.481,proactive,2020.1.2,Win32,60,5f035e5afe130c270d6ae6dd,5f05e2a01308dd0b4590739e,2,,,,,,map,,,,,,0,7,7,53,1,6,2,,,,,,,,,,,,,,,,,,,,,,,,,,,,,,,,,,,,,,,,,,,,,,,,,,,,,,,,,,,,,,,,,,,,,,,,,,,
,,,,,,,,,,stimuli/images/PICTURE_509.png,SHOTS,5eebb8b7011d13119025dcf0,06/02/1992,2020-07-08_16h16.39.481,proactive,2020.1.2,Win32,60,5f035e5afe130c270d6ae6dd,5f05e2a01308dd0b4590739e,2,,,,,,telephone,,,,,,0,8,8,7,1,1,2,,,,,,,,,,,,,,,,,,,,,,,,,,,,,,,,,,,,,,,,,,,,,,,,,,,,,,,,,,,,,,,,,,,,,,,,,,,
,,,,,,,,,,stimuli/images/PICTURE_356.png,CANDY,5eebb8b7011d13119025dcf0,06/02/1992,2020-07-08_16h16.39.481,proactive,2020.1.2,Win32,60,5f035e5afe130c270d6ae6dd,5f05e2a01308dd0b4590739e,2,,,,,,pawn,,,,,,0,9,9,46,1,5,2,,,,,,,,,,,,,,,,,,,,,,,,,,,,,,,,,,,,,,,,,,,,,,,,,,,,,,,,,,,,,,,,,,,,,,,,,,,
,,,,,,,,,,stimuli/images/PICTURE_215.png,LEADER,5eebb8b7011d13119025dcf0,06/02/1992,2020-07-08_16h16.39.481,proactive,2020.1.2,Win32,60,5f035e5afe130c270d6ae6dd,5f05e2a01308dd0b4590739e,2,,,,,,boot,,,,,,0,10,10,43,1,5,2,,,,,,,,,,,,,,,,,,,,,,,,,,,,,,,,,,,,,,,,,,,,,,,,,,,,,,,,,,,,,,,,,,,,,,,,,,,
,,,,,,,,,,stimuli/images/PICTURE_491.png,SERIES,5eebb8b7011d13119025dcf0,06/02/1992,2020-07-08_16h16.39.481,proactive,2020.1.2,Win32,60,5f035e5afe130c270d6ae6dd,5f05e2a01308dd0b4590739e,2,,,,,,rug,,,,,,0,11,11,39,1,4,2,,,,,,,,,,,,,,,,,,,,,,,,,,,,,,,,,,,,,,,,,,,,,,,,,,,,,,,,,,,,,,,,,,,,,,,,,,,
,,,,,,,,,,stimuli/images/PICTURE_509.png,BATH,5eebb8b7011d13119025dcf0,06/02/1992,2020-07-08_16h16.39.481,proactive,2020.1.2,Win32,60,5f035e5afe130c270d6ae6dd,5f05e2a01308dd0b4590739e,2,,,,,,telephone,,,,,,0,12,12,15,1,2,2,,,,,,,,,,,,,,,,,,,,,,,,,,,,,,,,,,,,,,,,,,,,,,,,,,,,,,,,,,,,,,,,,,,,,,,,,,,
,,,,,,,,,,stimuli/images/PICTURE_504.png,HOUSE,5eebb8b7011d13119025dcf0,06/02/1992,2020-07-08_16h16.39.481,proactive,2020.1.2,Win32,60,5f035e5afe130c270d6ae6dd,5f05e2a01308dd0b4590739e,2,,,,,,wheel,,,,,,0,13,13,36,1,4,2,,,,,,,,,,,,,,,,,,,,,,,,,,,,,,,,,,,,,,,,,,,,,,,,,,,,,,,,,,,,,,,,,,,,,,,,,,,
,,,,,,,,,,stimuli/images/PICTURE_327.png,LEADER,5eebb8b7011d13119025dcf0,06/02/1992,2020-07-08_16h16.39.481,proactive,2020.1.2,Win32,60,5f035e5afe130c270d6ae6dd,5f05e2a01308dd0b4590739e,2,,,,,,helmet,,,,,,0,14,14,17,1,2,2,,,,,,,,,,,,,,,,,,,,,,,,,,,,,,,,,,,,,,,,,,,,,,,,,,,,,,,,,,,,,,,,,,,,,,,,,,,
,,,,,,,,,,stimuli/images/PICTURE_667.png,GLASS,5eebb8b7011d13119025dcf0,06/02/1992,2020-07-08_16h16.39.481,proactive,2020.1.2,Win32,60,5f035e5afe130c270d6ae6dd,5f05e2a01308dd0b4590739e,2,,,,,,daisy,,,,,,0,15,15,27,1,3,2,,,,,,,,,,,,,,,,,,,,,,,,,,,,,,,,,,,,,,,,,,,,,,,,,,,,,,,,,,,,,,,,,,,,,,,,,,,
,,,,,,,,,,stimuli/images/PICTURE_708.png,VALLEY,5eebb8b7011d13119025dcf0,06/02/1992,2020-07-08_16h16.39.481,proactive,2020.1.2,Win32,60,5f035e5afe130c270d6ae6dd,5f05e2a01308dd0b4590739e,2,,,,,,monkey,,,,,,0,16,16,45,1,5,2,,,,,,,,,,,,,,,,,,,,,,,,,,,,,,,,,,,,,,,,,,,,,,,,,,,,,,,,,,,,,,,,,,,,,,,,,,,
,,,,,,,,,,stimuli/images/PICTURE_348.png,TOILET,5eebb8b7011d13119025dcf0,06/02/1992,2020-07-08_16h16.39.481,proactive,2020.1.2,Win32,60,5f035e5afe130c270d6ae6dd,5f05e2a01308dd0b4590739e,2,,,,,,pepper,,,,,,0,17,17,4,1,1,2,,,,,,,,,,,,,,,,,,,,,,,,,,,,,,,,,,,,,,,,,,,,,,,,,,,,,,,,,,,,,,,,,,,,,,,,,,,
,,,,,,,,,,stimuli/images/PICTURE_215.png,BOYS,5eebb8b7011d13119025dcf0,06/02/1992,2020-07-08_16h16.39.481,proactive,2020.1.2,Win32,60,5f035e5afe130c270d6ae6dd,5f05e2a01308dd0b4590739e,2,,,,,,boot,,,,,,0,18,18,24,1,3,2,,,,,,,,,,,,,,,,,,,,,,,,,,,,,,,,,,,,,,,,,,,,,,,,,,,,,,,,,,,,,,,,,,,,,,,,,,,
,,,,,,,,,,stimuli/images/PICTURE_57.png,CASINO,5eebb8b7011d13119025dcf0,06/02/1992,2020-07-08_16h16.39.481,proactive,2020.1.2,Win32,60,5f035e5afe130c270d6ae6dd,5f05e2a01308dd0b4590739e,2,,,,,,stamp,,,,,,0,19,19,12,1,2,2,,,,,,,,,,,,,,,,,,,,,,,,,,,,,,,,,,,,,,,,,,,,,,,,,,,,,,,,,,,,,,,,,,,,,,,,,,,
,,,,,,,,,,stimuli/images/PICTURE_311.png,FLESH,5eebb8b7011d13119025dcf0,06/02/1992,2020-07-08_16h16.39.481,proactive,2020.1.2,Win32,60,5f035e5afe130c270d6ae6dd,5f05e2a01308dd0b4590739e,2,,,,,,razor,,,,,,0,20,20,3,1,1,2,,,,,,,,,,,,,,,,,,,,,,,,,,,,,,,,,,,,,,,,,,,,,,,,,,,,,,,,,,,,,,,,,,,,,,,,,,,
,,,,,,,,,,stimuli/images/PICTURE_160.png,HOTEL,5eebb8b7011d13119025dcf0,06/02/1992,2020-07-08_16h16.39.481,proactive,2020.1.2,Win32,60,5f035e5afe130c270d6ae6dd,5f05e2a01308dd0b4590739e,2,,,,,,wheelbarrow,,,,,,0,21,21,16,1,2,2,,,,,,,,,,,,,,,,,,,,,,,,,,,,,,,,,,,,,,,,,,,,,,,,,,,,,,,,,,,,,,,,,,,,,,,,,,,
,,,,,,,,,,stimuli/images/PICTURE_314.png,SPEECH,5eebb8b7011d13119025dcf0,06/02/1992,2020-07-08_16h16.39.481,proactive,2020.1.2,Win32,60,5f035e5afe130c270d6ae6dd,5f05e2a01308dd0b4590739e,2,,,,,,perfume,,,,,,0,22,22,35,1,4,2,,,,,,,,,,,,,,,,,,,,,,,,,,,,,,,,,,,,,,,,,,,,,,,,,,,,,,,,,,,,,,,,,,,,,,,,,,,
,,,,,,,,,,stimuli/images/PICTURE_93.png,GIRL,5eebb8b7011d13119025dcf0,06/02/1992,2020-07-08_16h16.39.481,proactive,2020.1.2,Win32,60,5f035e5afe130c270d6ae6dd,5f05e2a01308dd0b4590739e,2,,,,,,skateboard,,,,,,0,23,23,31,1,4,2,,,,,,,,,,,,,,,,,,,,,,,,,,,,,,,,,,,,,,,,,,,,,,,,,,,,,,,,,,,,,,,,,,,,,,,,,,,
,,,,,,,,,,stimuli/images/PICTURE_123.png,SALE,5eebb8b7011d13119025dcf0,06/02/1992,2020-07-08_16h16.39.481,proactive,2020.1.2,Win32,60,5f035e5afe130c270d6ae6dd,5f05e2a01308dd0b4590739e,2,,,,,,dart,,,,,,0,24,24,8,1,1,2,,,,,,,,,,,,,,,,,,,,,,,,,,,,,,,,,,,,,,,,,,,,,,,,,,,,,,,,,,,,,,,,,,,,,,,,,,,
,,,,,,,,,,stimuli/images/PICTURE_453.png,FAMILY,5eebb8b7011d13119025dcf0,06/02/1992,2020-07-08_16h16.39.481,proactive,2020.1.2,Win32,60,5f035e5afe130c270d6ae6dd,5f05e2a01308dd0b4590739e,2,,,,,,scissors,,,,,,0,25,25,48,1,5,2,,,,,,,,,,,,,,,,,,,,,,,,,,,,,,,,,,,,,,,,,,,,,,,,,,,,,,,,,,,,,,,,,,,,,,,,,,,
,,,,,,,,,,stimuli/images/PICTURE_452.png,COPS,5eebb8b7011d13119025dcf0,06/02/1992,2020-07-08_16h16.39.481,proactive,2020.1.2,Win32,60,5f035e5afe130c270d6ae6dd,5f05e2a01308dd0b4590739e,2,,,,,,watch,,,,,,0,26,26,0,1,1,2,,,,,,,,,,,,,,,,,,,,,,,,,,,,,,,,,,,,,,,,,,,,,,,,,,,,,,,,,,,,,,,,,,,,,,,,,,,
,,,,,,,,,,stimuli/images/PICTURE_296.png,CLOCK,5eebb8b7011d13119025dcf0,06/02/1992,2020-07-08_16h16.39.481,proactive,2020.1.2,Win32,60,5f035e5afe130c270d6ae6dd,5f05e2a01308dd0b4590739e,2,,,,,,bolt,,,,,,0,27,27,18,1,2,2,,,,,,,,,,,,,,,,,,,,,,,,,,,,,,,,,,,,,,,,,,,,,,,,,,,,,,,,,,,,,,,,,,,,,,,,,,,
,,,,,,,,,,stimuli/images/PICTURE_68.png,KIND,5eebb8b7011d13119025dcf0,06/02/1992,2020-07-08_16h16.39.481,proactive,2020.1.2,Win32,60,5f035e5afe130c270d6ae6dd,5f05e2a01308dd0b4590739e,2,,,,,,candle,,,,,,0,28,28,23,1,3,2,,,,,,,,,,,,,,,,,,,,,,,,,,,,,,,,,,,,,,,,,,,,,,,,,,,,,,,,,,,,,,,,,,,,,,,,,,,
,,,,,,,,,,stimuli/images/PICTURE_692.png,DUDE,5eebb8b7011d13119025dcf0,06/02/1992,2020-07-08_16h16.39.481,proactive,2020.1.2,Win32,60,5f035e5afe130c270d6ae6dd,5f05e2a01308dd0b4590739e,2,,,,,,cherry,,,,,,0,29,29,47,1,5,2,,,,,,,,,,,,,,,,,,,,,,,,,,,,,,,,,,,,,,,,,,,,,,,,,,,,,,,,,,,,,,,,,,,,,,,,,,,
,,,,,,,,,,stimuli/images/PICTURE_470.png,BEAUTY,5eebb8b7011d13119025dcf0,06/02/1992,2020-07-08_16h16.39.481,proactive,2020.1.2,Win32,60,5f035e5afe130c270d6ae6dd,5f05e2a01308dd0b4590739e,2,,,,,,motorbike,,,,,,0,30,30,26,1,3,2,,,,,,,,,,,,,,,,,,,,,,,,,,,,,,,,,,,,,,,,,,,,,,,,,,,,,,,,,,,,,,,,,,,,,,,,,,,
,,,,,,,,,,stimuli/images/PICTURE_2.png,YARD,5eebb8b7011d13119025dcf0,06/02/1992,2020-07-08_16h16.39.481,proactive,2020.1.2,Win32,60,5f035e5afe130c270d6ae6dd,5f05e2a01308dd0b4590739e,2,,,,,,tyre,,,,,,0,31,31,55,1,6,2,,,,,,,,,,,,,,,,,,,,,,,,,,,,,,,,,,,,,,,,,,,,,,,,,,,,,,,,,,,,,,,,,,,,,,,,,,,
,,,,,,,,,,stimuli/images/PICTURE_32.png,LETTER,5eebb8b7011d13119025dcf0,06/02/1992,2020-07-08_16h16.39.481,proactive,2020.1.2,Win32,60,5f035e5afe130c270d6ae6dd,5f05e2a01308dd0b4590739e,2,,,,,,crown,,,,,,0,32,32,56,1,6,2,,,,,,,,,,,,,,,,,,,,,,,,,,,,,,,,,,,,,,,,,,,,,,,,,,,,,,,,,,,,,,,,,,,,,,,,,,,
,,,,,,,,,,stimuli/images/PICTURE_487.png,POLICY,5eebb8b7011d13119025dcf0,06/02/1992,2020-07-08_16h16.39.481,proactive,2020.1.2,Win32,60,5f035e5afe130c270d6ae6dd,5f05e2a01308dd0b4590739e,2,,,,,,basket,,,,,,0,33,33,34,1,4,2,,,,,,,,,,,,,,,,,,,,,,,,,,,,,,,,,,,,,,,,,,,,,,,,,,,,,,,,,,,,,,,,,,,,,,,,,,,
,,,,,,,,,,stimuli/images/PICTURE_311.png,TOILET,5eebb8b7011d13119025dcf0,06/02/1992,2020-07-08_16h16.39.481,proactive,2020.1.2,Win32,60,5f035e5afe130c270d6ae6dd,5f05e2a01308dd0b4590739e,2,,,,,,razor,,,,,,0,34,34,54,1,6,2,,,,,,,,,,,,,,,,,,,,,,,,,,,,,,,,,,,,,,,,,,,,,,,,,,,,,,,,,,,,,,,,,,,,,,,,,,,
,,,,,,,,,,stimuli/images/PICTURE_2.png,AREA,5eebb8b7011d13119025dcf0,06/02/1992,2020-07-08_16h16.39.481,proactive,2020.1.2,Win32,60,5f035e5afe130c270d6ae6dd,5f05e2a01308dd0b4590739e,2,,,,,,tyre,,,,,,0,35,35,32,1,4,2,,,,,,,,,,,,,,,,,,,,,,,,,,,,,,,,,,,,,,,,,,,,,,,,,,,,,,,,,,,,,,,,,,,,,,,,,,,
,,,,,,,,,,stimuli/images/PICTURE_2.png,JUNGLE,5eebb8b7011d13119025dcf0,06/02/1992,2020-07-08_16h16.39.481,proactive,2020.1.2,Win32,60,5f035e5afe130c270d6ae6dd,5f05e2a01308dd0b4590739e,2,,,,,,tyre,,,,,,0,36,36,1,1,1,2,,,,,,,,,,,,,,,,,,,,,,,,,,,,,,,,,,,,,,,,,,,,,,,,,,,,,,,,,,,,,,,,,,,,,,,,,,,
,,,,,,,,,,stimuli/images/PICTURE_285.png,PRINCE,5eebb8b7011d13119025dcf0,06/02/1992,2020-07-08_16h16.39.481,proactive,2020.1.2,Win32,60,5f035e5afe130c270d6ae6dd,5f05e2a01308dd0b4590739e,2,,,,,,carrot,,,,,,0,37,37,20,1,3,2,,,,,,,,,,,,,,,,,,,,,,,,,,,,,,,,,,,,,,,,,,,,,,,,,,,,,,,,,,,,,,,,,,,,,,,,,,,
,,,,,,,,,,stimuli/images/PICTURE_564.png,PLENTY,5eebb8b7011d13119025dcf0,06/02/1992,2020-07-08_16h16.39.481,proactive,2020.1.2,Win32,60,5f035e5afe130c270d6ae6dd,5f05e2a01308dd0b4590739e,2,,,,,,spoon,,,,,,0,38,38,11,1,2,2,,,,,,,,,,,,,,,,,,,,,,,,,,,,,,,,,,,,,,,,,,,,,,,,,,,,,,,,,,,,,,,,,,,,,,,,,,,
,,,,,,,,,,stimuli/images/PICTURE_141.png,CLIENT,5eebb8b7011d13119025dcf0,06/02/1992,2020-07-08_16h16.39.481,proactive,2020.1.2,Win32,60,5f035e5afe130c270d6ae6dd,5f05e2a01308dd0b4590739e,2,,,,,,sunflower,,,,,,0,39,39,30,1,4,2,,,,,,,,,,,,,,,,,,,,,,,,,,,,,,,,,,,,,,,,,,,,,,,,,,,,,,,,,,,,,,,,,,,,,,,,,,,
,,,,,,,,,,stimuli/images/PICTURE_18.png,RIVER,5eebb8b7011d13119025dcf0,06/02/1992,2020-07-08_16h16.39.481,proactive,2020.1.2,Win32,60,5f035e5afe130c270d6ae6dd,5f05e2a01308dd0b4590739e,2,,,,,,planet,,,,,,0,40,40,22,1,3,2,,,,,,,,,,,,,,,,,,,,,,,,,,,,,,,,,,,,,,,,,,,,,,,,,,,,,,,,,,,,,,,,,,,,,,,,,,,
,,,,,,,,,,stimuli/images/PICTURE_487.png,ROOF,5eebb8b7011d13119025dcf0,06/02/1992,2020-07-08_16h16.39.481,proactive,2020.1.2,Win32,60,5f035e5afe130c270d6ae6dd,5f05e2a01308dd0b4590739e,2,,,,,,basket,,,,,,0,41,41,50,1,6,2,,,,,,,,,,,,,,,,,,,,,,,,,,,,,,,,,,,,,,,,,,,,,,,,,,,,,,,,,,,,,,,,,,,,,,,,,,,
,,,,,,,,,,stimuli/images/PICTURE_348.png,DUDE,5eebb8b7011d13119025dcf0,06/02/1992,2020-07-08_16h16.39.481,proactive,2020.1.2,Win32,60,5f035e5afe130c270d6ae6dd,5f05e2a01308dd0b4590739e,2,,,,,,pepper,,,,,,0,42,42,59,1,6,2,,,,,,,,,,,,,,,,,,,,,,,,,,,,,,,,,,,,,,,,,,,,,,,,,,,,,,,,,,,,,,,,,,,,,,,,,,,
,,,,,,,,,,stimuli/images/PICTURE_654.png,COPS,5eebb8b7011d13119025dcf0,06/02/1992,2020-07-08_16h16.39.481,proactive,2020.1.2,Win32,60,5f035e5afe130c270d6ae6dd,5f05e2a01308dd0b4590739e,2,,,,,,pencil,,,,,,0,43,43,10,1,2,2,,,,,,,,,,,,,,,,,,,,,,,,,,,,,,,,,,,,,,,,,,,,,,,,,,,,,,,,,,,,,,,,,,,,,,,,,,,
,,,,,,,,,,stimuli/images/PICTURE_95.png,NIGHT,5eebb8b7011d13119025dcf0,06/02/1992,2020-07-08_16h16.39.481,proactive,2020.1.2,Win32,60,5f035e5afe130c270d6ae6dd,5f05e2a01308dd0b4590739e,2,,,,,,suitcase,,,,,,0,44,44,37,1,4,2,,,,,,,,,,,,,,,,,,,,,,,,,,,,,,,,,,,,,,,,,,,,,,,,,,,,,,,,,,,,,,,,,,,,,,,,,,,
,,,,,,,,,,stimuli/images/PICTURE_750.png,POLICY,5eebb8b7011d13119025dcf0,06/02/1992,2020-07-08_16h16.39.481,proactive,2020.1.2,Win32,60,5f035e5afe130c270d6ae6dd,5f05e2a01308dd0b4590739e,2,,,,,,kettle,,,,,,0,45,45,44,1,5,2,,,,,,,,,,,,,,,,,,,,,,,,,,,,,,,,,,,,,,,,,,,,,,,,,,,,,,,,,,,,,,,,,,,,,,,,,,,
,,,,,,,,,,stimuli/images/PICTURE_285.png,WRITER,5eebb8b7011d13119025dcf0,06/02/1992,2020-07-08_16h16.39.481,proactive,2020.1.2,Win32,60,5f035e5afe130c270d6ae6dd,5f05e2a01308dd0b4590739e,2,,,,,,carrot,,,,,,0,46,46,6,1,1,2,,,,,,,,,,,,,,,,,,,,,,,,,,,,,,,,,,,,,,,,,,,,,,,,,,,,,,,,,,,,,,,,,,,,,,,,,,,
,,,,,,,,,,stimuli/images/PICTURE_677.png,PHOTO,5eebb8b7011d13119025dcf0,06/02/1992,2020-07-08_16h16.39.481,proactive,2020.1.2,Win32,60,5f035e5afe130c270d6ae6dd,5f05e2a01308dd0b4590739e,2,,,,,,map,,,,,,0,47,47,14,1,2,2,,,,,,,,,,,,,,,,,,,,,,,,,,,,,,,,,,,,,,,,,,,,,,,,,,,,,,,,,,,,,,,,,,,,,,,,,,,
,,,,,,,,,,stimuli/images/PICTURE_688.png,CLOCK,5eebb8b7011d13119025dcf0,06/02/1992,2020-07-08_16h16.39.481,proactive,2020.1.2,Win32,60,5f035e5afe130c270d6ae6dd,5f05e2a01308dd0b4590739e,2,,,,,,runner,,,,,,0,48,48,42,1,5,2,,,,,,,,,,,,,,,,,,,,,,,,,,,,,,,,,,,,,,,,,,,,,,,,,,,,,,,,,,,,,,,,,,,,,,,,,,,
,,,,,,,,,,stimuli/images/PICTURE_177.png,HOUSE,5eebb8b7011d13119025dcf0,06/02/1992,2020-07-08_16h16.39.481,proactive,2020.1.2,Win32,60,5f035e5afe130c270d6ae6dd,5f05e2a01308dd0b4590739e,2,,,,,,mushroom,,,,,,0,49,49,25,1,3,2,,,,,,,,,,,,,,,,,,,,,,,,,,,,,,,,,,,,,,,,,,,,,,,,,,,,,,,,,,,,,,,,,,,,,,,,,,,
,,,,,,,,,,stimuli/images/PICTURE_33.png,COPS,5eebb8b7011d13119025dcf0,06/02/1992,2020-07-08_16h16.39.481,proactive,2020.1.2,Win32,60,5f035e5afe130c270d6ae6dd,5f05e2a01308dd0b4590739e,2,,,,,,frame,,,,,,0,50,50,29,1,3,2,,,,,,,,,,,,,,,,,,,,,,,,,,,,,,,,,,,,,,,,,,,,,,,,,,,,,,,,,,,,,,,,,,,,,,,,,,,
,,,,,,,,,,stimuli/images/PICTURE_655.png,SALE,5eebb8b7011d13119025dcf0,06/02/1992,2020-07-08_16h16.39.481,proactive,2020.1.2,Win32,60,5f035e5afe130c270d6ae6dd,5f05e2a01308dd0b4590739e,2,,,,,,megaphone,,,,,,0,51,51,57,1,6,2,,,,,,,,,,,,,,,,,,,,,,,,,,,,,,,,,,,,,,,,,,,,,,,,,,,,,,,,,,,,,,,,,,,,,,,,,,,
,,,,,,,,,,stimuli/images/PICTURE_509.png,APPLE,5eebb8b7011d13119025dcf0,06/02/1992,2020-07-08_16h16.39.481,proactive,2020.1.2,Win32,60,5f035e5afe130c270d6ae6dd,5f05e2a01308dd0b4590739e,2,,,,,,telephone,,,,,,0,52,52,38,1,4,2,,,,,,,,,,,,,,,,,,,,,,,,,,,,,,,,,,,,,,,,,,,,,,,,,,,,,,,,,,,,,,,,,,,,,,,,,,,
,,,,,,,,,,stimuli/images/PICTURE_403.png,FAMILY,5eebb8b7011d13119025dcf0,06/02/1992,2020-07-08_16h16.39.481,proactive,2020.1.2,Win32,60,5f035e5afe130c270d6ae6dd,5f05e2a01308dd0b4590739e,2,,,,,,cathedral,,,,,,0,53,53,9,1,1,2,,,,,,,,,,,,,,,,,,,,,,,,,,,,,,,,,,,,,,,,,,,,,,,,,,,,,,,,,,,,,,,,,,,,,,,,,,,
,,,,,,,,,,stimuli/images/PICTURE_405.png,JUNGLE,5eebb8b7011d13119025dcf0,06/02/1992,2020-07-08_16h16.39.481,proactive,2020.1.2,Win32,60,5f035e5afe130c270d6ae6dd,5f05e2a01308dd0b4590739e,2,,,,,,anchor,,,,,,0,54,54,13,1,2,2,,,,,,,,,,,,,,,,,,,,,,,,,,,,,,,,,,,,,,,,,,,,,,,,,,,,,,,,,,,,,,,,,,,,,,,,,,,
,,,,,,,,,,stimuli/images/PICTURE_147.png,LEADER,5eebb8b7011d13119025dcf0,06/02/1992,2020-07-08_16h16.39.481,proactive,2020.1.2,Win32,60,5f035e5afe130c270d6ae6dd,5f05e2a01308dd0b4590739e,2,,,,,,hanger,,,,,,0,55,55,33,1,4,2,,,,,,,,,,,,,,,,,,,,,,,,,,,,,,,,,,,,,,,,,,,,,,,,,,,,,,,,,,,,,,,,,,,,,,,,,,,
,,,,,,,,,,stimuli/images/PICTURE_57.png,CANDY,5eebb8b7011d13119025dcf0,06/02/1992,2020-07-08_16h16.39.481,proactive,2020.1.2,Win32,60,5f035e5afe130c270d6ae6dd,5f05e2a01308dd0b4590739e,2,,,,,,stamp,,,,,,0,56,56,52,1,6,2,,,,,,,,,,,,,,,,,,,,,,,,,,,,,,,,,,,,,,,,,,,,,,,,,,,,,,,,,,,,,,,,,,,,,,,,,,,
,,,,,,,,,,stimuli/images/PICTURE_297.png,BODY,5eebb8b7011d13119025dcf0,06/02/1992,2020-07-08_16h16.39.481,proactive,2020.1.2,Win32,60,5f035e5afe130c270d6ae6dd,5f05e2a01308dd0b4590739e,2,,,,,,aeroplane,,,,,,0,57,57,51,1,6,2,,,,,,,,,,,,,,,,,,,,,,,,,,,,,,,,,,,,,,,,,,,,,,,,,,,,,,,,,,,,,,,,,,,,,,,,,,,
,,,,,,,,,,stimuli/images/PICTURE_255.png,PENNY,5eebb8b7011d13119025dcf0,06/02/1992,2020-07-08_16h16.39.481,proactive,2020.1.2,Win32,60,5f035e5afe130c270d6ae6dd,5f05e2a01308dd0b4590739e,2,,,,,,shovel,,,,,,0,58,58,19,1,2,2,,,,,,,,,,,,,,,,,,,,,,,,,,,,,,,,,,,,,,,,,,,,,,,,,,,,,,,,,,,,,,,,,,,,,,,,,,,
,,?,0.001055,0,,,,,,stimuli/images/PICTURE_208.png,SPIRIT,5eebb8b7011d13119025dcf0,06/02/1992,2020-07-08_16h16.39.481,proactive,2020.1.2,Win32,60,5f035e5afe130c270d6ae6dd,5f05e2a01308dd0b4590739e,2,,,,,,microphone,,,,,,,,,,,3,2,0,0,0,28,1,,,,,,,,,,,,,,,,,,,,,,,,,,,,,,,,,,,,,,,,,,,,,,,,,,,,,,,,,,,,,,,,,,,,,,
,,?,0.000945,0,,,,,,stimuli/images/PICTURE_68.png,KIND,5eebb8b7011d13119025dcf0,06/02/1992,2020-07-08_16h16.39.481,proactive,2020.1.2,Win32,60,5f035e5afe130c270d6ae6dd,5f05e2a01308dd0b4590739e,2,,,,,,candle,,,,,,,,,,,3,2,0,1,1,23,1,,,,,,,,,,,,,,,,,,,,,,,,,,,,,,,,,,,,,,,,,,,,,,,,,,,,,,,,,,,,,,,,,,,,,,
,,?,0.00078,0,,,,,,stimuli/images/PICTURE_18.png,RIVER,5eebb8b7011d13119025dcf0,06/02/1992,2020-07-08_16h16.39.481,proactive,2020.1.2,Win32,60,5f035e5afe130c270d6ae6dd,5f05e2a01308dd0b4590739e,2,,,,,,planet,,,,,,,,,,,3,2,0,2,2,22,1,,,,,,,,,,,,,,,,,,,,,,,,,,,,,,,,,,,,,,,,,,,,,,,,,,,,,,,,,,,,,,,,,,,,,,
,,?,0.000515,0,,,,,,stimuli/images/PICTURE_215.png,LEADER,5eebb8b7011d13119025dcf0,06/02/1992,2020-07-08_16h16.39.481,proactive,2020.1.2,Win32,60,5f035e5afe130c270d6ae6dd,5f05e2a01308dd0b4590739e,2,,,,,,boot,,,,,,,,,,,5,2,0,3,3,43,1,,,,,,,,,,,,,,,,,,,,,,,,,,,,,,,,,,,,,,,,,,,,,,,,,,,,,,,,,,,,,,,,,,,,,,
,,?,0.00062,0,,,,,,stimuli/images/PICTURE_692.png,DUDE,5eebb8b7011d13119025dcf0,06/02/1992,2020-07-08_16h16.39.481,proactive,2020.1.2,Win32,60,5f035e5afe130c270d6ae6dd,5f05e2a01308dd0b4590739e,2,,,,,,cherry,,,,,,,,,,,5,2,0,4,4,47,1,,,,,,,,,,,,,,,,,,,,,,,,,,,,,,,,,,,,,,,,,,,,,,,,,,,,,,,,,,,,,,,,,,,,,,
,,?,0.00047,0,,,,,,stimuli/images/PICTURE_33.png,COPS,5eebb8b7011d13119025dcf0,06/02/1992,2020-07-08_16h16.39.481,proactive,2020.1.2,Win32,60,5f035e5afe130c270d6ae6dd,5f05e2a01308dd0b4590739e,2,,,,,,frame,,,,,,,,,,,3,2,0,5,5,29,1,,,,,,,,,,,,,,,,,,,,,,,,,,,,,,,,,,,,,,,,,,,,,,,,,,,,,,,,,,,,,,,,,,,,,,
,,?,0.00048,0,,,,,,stimuli/images/PICTURE_297.png,BODY,5eebb8b7011d13119025dcf0,06/02/1992,2020-07-08_16h16.39.481,proactive,2020.1.2,Win32,60,5f035e5afe130c270d6ae6dd,5f05e2a01308dd0b4590739e,2,,,,,,aeroplane,,,,,,,,,,,6,2,0,6,6,51,1,,,,,,,,,,,,,,,,,,,,,,,,,,,,,,,,,,,,,,,,,,,,,,,,,,,,,,,,,,,,,,,,,,,,,,
,,?,0.000505,0,,,,,,stimuli/images/PICTURE_177.png,HOUSE,5eebb8b7011d13119025dcf0,06/02/1992,2020-07-08_16h16.39.481,proactive,2020.1.2,Win32,60,5f035e5afe130c270d6ae6dd,5f05e2a01308dd0b4590739e,2,,,,,,mushroom,,,,,,,,,,,3,2,0,7,7,25,1,,,,,,,,,,,,,,,,,,,,,,,,,,,,,,,,,,,,,,,,,,,,,,,,,,,,,,,,,,,,,,,,,,,,,,
,,?,0.00046,0,,,,,,stimuli/images/PICTURE_311.png,TOILET,5eebb8b7011d13119025dcf0,06/02/1992,2020-07-08_16h16.39.481,proactive,2020.1.2,Win32,60,5f035e5afe130c270d6ae6dd,5f05e2a01308dd0b4590739e,2,,,,,,razor,,,,,,,,,,,6,2,0,8,8,54,1,,,,,,,,,,,,,,,,,,,,,,,,,,,,,,,,,,,,,,,,,,,,,,,,,,,,,,,,,,,,,,,,,,,,,,
,,?,0.00049,0,,,,,,stimuli/images/PICTURE_470.png,MOMENT,5eebb8b7011d13119025dcf0,06/02/1992,2020-07-08_16h16.39.481,proactive,2020.1.2,Win32,60,5f035e5afe130c270d6ae6dd,5f05e2a01308dd0b4590739e,2,,,,,,motorbike,,,,,,,,,,,5,2,0,9,9,40,1,,,,,,,,,,,,,,,,,,,,,,,,,,,,,,,,,,,,,,,,,,,,,,,,,,,,,,,,,,,,,,,,,,,,,,
,,PLENTY,10.010735,0,,,,,,stimuli/images/PICTURE_654.png,COPS,5eebb8b7011d13119025dcf0,06/02/1992,2020-07-08_16h16.39.481,proactive,2020.1.2,Win32,60,5f035e5afe130c270d6ae6dd,5f05e2a01308dd0b4590739e,2,,,,,,pencil,,,,,,,,,,,2,2,0,10,10,10,1,,,,,,,,,,,,,,,,,,,,,,,,,,,,,,,,,,,,,,,,,,,,,,,,,,,,,,,,,,,,,,,,,,,,,,
,,PHOTO,4.32769,0,,,,,,stimuli/images/PICTURE_57.png,CASINO,5eebb8b7011d13119025dcf0,06/02/1992,2020-07-08_16h16.39.481,proactive,2020.1.2,Win32,60,5f035e5afe130c270d6ae6dd,5f05e2a01308dd0b4590739e,2,,,,,,stamp,,,,,,,,,,,2,2,0,11,11,12,1,,,,,,,,,,,,,,,,,,,,,,,,,,,,,,,,,,,,,,,,,,,,,,,,,,,,,,,,,,,,,,,,,,,,,,
,,?,0.000855,0,,,,,,stimuli/images/PICTURE_509.png,SHOTS,5eebb8b7011d13119025dcf0,06/02/1992,2020-07-08_16h16.39.481,proactive,2020.1.2,Win32,60,5f035e5afe130c270d6ae6dd,5f05e2a01308dd0b4590739e,2,,,,,,telephone,,,,,,,,,,,1,2,0,12,12,7,1,,,,,,,,,,,,,,,,,,,,,,,,,,,,,,,,,,,,,,,,,,,,,,,,,,,,,,,,,,,,,,,,,,,,,,
,,?,0.000715,0,,,,,,stimuli/images/PICTURE_491.png,SERIES,5eebb8b7011d13119025dcf0,06/02/1992,2020-07-08_16h16.39.481,proactive,2020.1.2,Win32,60,5f035e5afe130c270d6ae6dd,5f05e2a01308dd0b4590739e,2,,,,,,rug,,,,,,,,,,,4,2,0,13,13,39,1,,,,,,,,,,,,,,,,,,,,,,,,,,,,,,,,,,,,,,,,,,,,,,,,,,,,,,,,,,,,,,,,,,,,,,
,,?,0.000615,0,,,,,,stimuli/images/PICTURE_32.png,LETTER,5eebb8b7011d13119025dcf0,06/02/1992,2020-07-08_16h16.39.481,proactive,2020.1.2,Win32,60,5f035e5afe130c270d6ae6dd,5f05e2a01308dd0b4590739e,2,,,,,,crown,,,,,,,,,,,6,2,0,14,14,56,1,,,,,,,,,,,,,,,,,,,,,,,,,,,,,,,,,,,,,,,,,,,,,,,,,,,,,,,,,,,,,,,,,,,,,,
,,?,0.00059,0,,,,,,stimuli/images/PICTURE_654.png,YEAR,5eebb8b7011d13119025dcf0,06/02/1992,2020-07-08_16h16.39.481,proactive,2020.1.2,Win32,60,5f035e5afe130c270d6ae6dd,5f05e2a01308dd0b4590739e,2,,,,,,pencil,,,,,,,,,,,5,2,0,15,15,41,1,,,,,,,,,,,,,,,,,,,,,,,,,,,,,,,,,,,,,,,,,,,,,,,,,,,,,,,,,,,,,,,,,,,,,,
,,PLENTY,10.013355,1,,,,,,stimuli/images/PICTURE_564.png,PLENTY,5eebb8b7011d13119025dcf0,06/02/1992,2020-07-08_16h16.39.481,proactive,2020.1.2,Win32,60,5f035e5afe130c270d6ae6dd,5f05e2a01308dd0b4590739e,2,,,,,,spoon,,,,,,,,,,,2,2,0,16,16,11,1,,,,,,,,,,,,,,,,,,,,,,,,,,,,,,,,,,,,,,,,,,,,,,,,,,,,,,,,,,,,,,,,,,,,,,
,,?,0.001675,0,,,,,,stimuli/images/PICTURE_215.png,BOYS,5eebb8b7011d13119025dcf0,06/02/1992,2020-07-08_16h16.39.481,proactive,2020.1.2,Win32,60,5f035e5afe130c270d6ae6dd,5f05e2a01308dd0b4590739e,2,,,,,,boot,,,,,,,,,,,3,2,0,17,17,24,1,,,,,,,,,,,,,,,,,,,,,,,,,,,,,,,,,,,,,,,,,,,,,,,,,,,,,,,,,,,,,,,,,,,,,,
,,?,0.00161,0,,,,,,stimuli/images/PICTURE_487.png,ROOF,5eebb8b7011d13119025dcf0,06/02/1992,2020-07-08_16h16.39.481,proactive,2020.1.2,Win32,60,5f035e5afe130c270d6ae6dd,5f05e2a01308dd0b4590739e,2,,,,,,basket,,,,,,,,,,,6,2,0,18,18,50,1,,,,,,,,,,,,,,,,,,,,,,,,,,,,,,,,,,,,,,,,,,,,,,,,,,,,,,,,,,,,,,,,,,,,,,
,,PHOTO,10.014525,1,,,,,,stimuli/images/PICTURE_677.png,PHOTO,5eebb8b7011d13119025dcf0,06/02/1992,2020-07-08_16h16.39.481,proactive,2020.1.2,Win32,60,5f035e5afe130c270d6ae6dd,5f05e2a01308dd0b4590739e,2,,,,,,map,,,,,,,,,,,2,2,0,19,19,14,1,,,,,,,,,,,,,,,,,,,,,,,,,,,,,,,,,,,,,,,,,,,,,,,,,,,,,,,,,,,,,,,,,,,,,,
,,?,0.00082,0,,,,,,stimuli/images/PICTURE_677.png,FAMILY,5eebb8b7011d13119025dcf0,06/02/1992,2020-07-08_16h16.39.481,proactive,2020.1.2,Win32,60,5f035e5afe130c270d6ae6dd,5f05e2a01308dd0b4590739e,2,,,,,,map,,,,,,,,,,,6,2,0,20,20,53,1,,,,,,,,,,,,,,,,,,,,,,,,,,,,,,,,,,,,,,,,,,,,,,,,,,,,,,,,,,,,,,,,,,,,,,
,,KILLER,10.00408,0,,,,,,stimuli/images/PICTURE_327.png,LEADER,5eebb8b7011d13119025dcf0,06/02/1992,2020-07-08_16h16.39.481,proactive,2020.1.2,Win32,60,5f035e5afe130c270d6ae6dd,5f05e2a01308dd0b4590739e,2,,,,,,helmet,,,,,,,,,,,2,2,0,21,21,17,1,,,,,,,,,,,,,,,,,,,,,,,,,,,,,,,,,,,,,,,,,,,,,,,,,,,,,,,,,,,,,,,,,,,,,,
,,?,0.00072,0,,,,,,stimuli/images/PICTURE_667.png,GLASS,5eebb8b7011d13119025dcf0,06/02/1992,2020-07-08_16h16.39.481,proactive,2020.1.2,Win32,60,5f035e5afe130c270d6ae6dd,5f05e2a01308dd0b4590739e,2,,,,,,daisy,,,,,,,,,,,3,2,0,22,22,27,1,,,,,,,,,,,,,,,,,,,,,,,,,,,,,,,,,,,,,,,,,,,,,,,,,,,,,,,,,,,,,,,,,,,,,,
,,L,10.00399,0,,,,,,stimuli/images/PICTURE_255.png,PENNY,5eebb8b7011d13119025dcf0,06/02/1992,2020-07-08_16h16.39.481,proactive,2020.1.2,Win32,60,5f035e5afe130c270d6ae6dd,5f05e2a01308dd0b4590739e,2,,,,,,shovel,,,,,,,,,,,2,2,0,23,23,19,1,,,,,,,,,,,,,,,,,,,,,,,,,,,,,,,,,,,,,,,,,,,,,,,,,,,,,,,,,,,,,,,,,,,,,,
,,?,0.00152,0,,,,,,stimuli/images/PICTURE_504.png,HOUSE,5eebb8b7011d13119025dcf0,06/02/1992,2020-07-08_16h16.39.481,proactive,2020.1.2,Win32,60,5f035e5afe130c270d6ae6dd,5f05e2a01308dd0b4590739e,2,,,,,,wheel,,,,,,,,,,,4,2,0,24,24,36,1,,,,,,,,,,,,,,,,,,,,,,,,,,,,,,,,,,,,,,,,,,,,,,,,,,,,,,,,,,,,,,,,,,,,,,
,,?,0.00132,0,,,,,,stimuli/images/PICTURE_311.png,FLESH,5eebb8b7011d13119025dcf0,06/02/1992,2020-07-08_16h16.39.481,proactive,2020.1.2,Win32,60,5f035e5afe130c270d6ae6dd,5f05e2a01308dd0b4590739e,2,,,,,,razor,,,,,,,,,,,1,2,0,25,25,3,1,,,,,,,,,,,,,,,,,,,,,,,,,,,,,,,,,,,,,,,,,,,,,,,,,,,,,,,,,,,,,,,,,,,,,,
,,?,0.00163,0,,,,,,stimuli/images/PICTURE_2.png,AREA,5eebb8b7011d13119025dcf0,06/02/1992,2020-07-08_16h16.39.481,proactive,2020.1.2,Win32,60,5f035e5afe130c270d6ae6dd,5f05e2a01308dd0b4590739e,2,,,,,,tyre,,,,,,,,,,,4,2,0,26,26,32,1,,,,,,,,,,,,,,,,,,,,,,,,,,,,,,,,,,,,,,,,,,,,,,,,,,,,,,,,,,,,,,,,,,,,,,
,,?,0.001895,0,,,,,,stimuli/images/PICTURE_57.png,NATION,5eebb8b7011d13119025dcf0,06/02/1992,2020-07-08_16h16.39.481,proactive,2020.1.2,Win32,60,5f035e5afe130c270d6ae6dd,5f05e2a01308dd0b4590739e,2,,,,,,stamp,,,,,,,,,,,3,2,0,27,27,21,1,,,,,,,,,,,,,,,,,,,,,,,,,,,,,,,,,,,,,,,,,,,,,,,,,,,,,,,,,,,,,,,,,,,,,,
,,?,0.001295,0,,,,,,stimuli/images/PICTURE_655.png,SALE,5eebb8b7011d13119025dcf0,06/02/1992,2020-07-08_16h16.39.481,proactive,2020.1.2,Win32,60,5f035e5afe130c270d6ae6dd,5f05e2a01308dd0b4590739e,2,,,,,,megaphone,,,,,,,,,,,6,2,0,28,28,57,1,,,,,,,,,,,,,,,,,,,,,,,,,,,,,,,,,,,,,,,,,,,,,,,,,,,,,,,,,,,,,,,,,,,,,,
,,?,0.000705,0,,,,,,stimuli/images/PICTURE_57.png,CANDY,5eebb8b7011d13119025dcf0,06/02/1992,2020-07-08_16h16.39.481,proactive,2020.1.2,Win32,60,5f035e5afe130c270d6ae6dd,5f05e2a01308dd0b4590739e,2,,,,,,stamp,,,,,,,,,,,6,2,0,29,29,52,1,,,,,,,,,,,,,,,,,,,,,,,,,,,,,,,,,,,,,,,,,,,,,,,,,,,,,,,,,,,,,,,,,,,,,,
,,?,0.00059,0,,,,,,stimuli/images/PICTURE_487.png,POLICY,5eebb8b7011d13119025dcf0,06/02/1992,2020-07-08_16h16.39.481,proactive,2020.1.2,Win32,60,5f035e5afe130c270d6ae6dd,5f05e2a01308dd0b4590739e,2,,,,,,basket,,,,,,,,,,,4,2,0,30,30,34,1,,,,,,,,,,,,,,,,,,,,,,,,,,,,,,,,,,,,,,,,,,,,,,,,,,,,,,,,,,,,,,,,,,,,,,
,,?,0.000475,0,,,,,,stimuli/images/PICTURE_215.png,FOOD,5eebb8b7011d13119025dcf0,06/02/1992,2020-07-08_16h16.39.481,proactive,2020.1.2,Win32,60,5f035e5afe130c270d6ae6dd,5f05e2a01308dd0b4590739e,2,,,,,,boot,,,,,,,,,,,1,2,0,31,31,5,1,,,,,,,,,,,,,,,,,,,,,,,,,,,,,,,,,,,,,,,,,,,,,,,,,,,,,,,,,,,,,,,,,,,,,,
,,?,0.000545,0,,,,,,stimuli/images/PICTURE_93.png,GIRL,5eebb8b7011d13119025dcf0,06/02/1992,2020-07-08_16h16.39.481,proactive,2020.1.2,Win32,60,5f035e5afe130c270d6ae6dd,5f05e2a01308dd0b4590739e,2,,,,,,skateboard,,,,,,,,,,,4,2,0,32,32,31,1,,,,,,,,,,,,,,,,,,,,,,,,,,,,,,,,,,,,,,,,,,,,,,,,,,,,,,,,,,,,,,,,,,,,,,
,,?,0.000515,0,,,,,,stimuli/images/PICTURE_285.png,PRINCE,5eebb8b7011d13119025dcf0,06/02/1992,2020-07-08_16h16.39.481,proactive,2020.1.2,Win32,60,5f035e5afe130c270d6ae6dd,5f05e2a01308dd0b4590739e,2,,,,,,carrot,,,,,,,,,,,3,2,0,33,33,20,1,,,,,,,,,,,,,,,,,,,,,,,,,,,,,,,,,,,,,,,,,,,,,,,,,,,,,,,,,,,,,,,,,,,,,,
,,LOSE,10.01195,0,,,,,,stimuli/images/PICTURE_405.png,JUNGLE,5eebb8b7011d13119025dcf0,06/02/1992,2020-07-08_16h16.39.481,proactive,2020.1.2,Win32,60,5f035e5afe130c270d6ae6dd,5f05e2a01308dd0b4590739e,2,,,,,,anchor,,,,,,,,,,,2,2,0,34,34,13,1,,,,,,,,,,,,,,,,,,,,,,,,,,,,,,,,,,,,,,,,,,,,,,,,,,,,,,,,,,,,,,,,,,,,,,
,,?,0.001375,0,,,,,,stimuli/images/PICTURE_147.png,LEADER,5eebb8b7011d13119025dcf0,06/02/1992,2020-07-08_16h16.39.481,proactive,2020.1.2,Win32,60,5f035e5afe130c270d6ae6dd,5f05e2a01308dd0b4590739e,2,,,,,,hanger,,,,,,,,,,,4,2,0,35,35,33,1,,,,,,,,,,,,,,,,,,,,,,,,,,,,,,,,,,,,,,,,,,,,,,,,,,,,,,,,,,,,,,,,,,,,,,
,,?,0.0012,0,,,,,,stimuli/images/PICTURE_403.png,FAMILY,5eebb8b7011d13119025dcf0,06/02/1992,2020-07-08_16h16.39.481,proactive,2020.1.2,Win32,60,5f035e5afe130c270d6ae6dd,5f05e2a01308dd0b4590739e,2,,,,,,cathedral,,,,,,,,,,,1,2,0,36,36,9,1,,,,,,,,,,,,,,,,,,,,,,,,,,,,,,,,,,,,,,,,,,,,,,,,,,,,,,,,,,,,,,,,,,,,,,
,,?,10.014365,0,,,,,,stimuli/images/PICTURE_160.png,HOTEL,5eebb8b7011d13119025dcf0,06/02/1992,2020-07-08_16h16.39.481,proactive,2020.1.2,Win32,60,5f035e5afe130c270d6ae6dd,5f05e2a01308dd0b4590739e,2,,,,,,wheelbarrow,,,,,,,,,,,2,2,0,37,37,16,1,,,,,,,,,,,,,,,,,,,,,,,,,,,,,,,,,,,,,,,,,,,,,,,,,,,,,,,,,,,,,,,,,,,,,,
,,?,0.0008,0,,,,,,stimuli/images/PICTURE_123.png,SALE,5eebb8b7011d13119025dcf0,06/02/1992,2020-07-08_16h16.39.481,proactive,2020.1.2,Win32,60,5f035e5afe130c270d6ae6dd,5f05e2a01308dd0b4590739e,2,,,,,,dart,,,,,,,,,,,1,2,0,38,38,8,1,,,,,,,,,,,,,,,,,,,,,,,,,,,,,,,,,,,,,,,,,,,,,,,,,,,,,,,,,,,,,,,,,,,,,,
,,?,0.000585,0,,,,,,stimuli/images/PICTURE_285.png,WRITER,5eebb8b7011d13119025dcf0,06/02/1992,2020-07-08_16h16.39.481,proactive,2020.1.2,Win32,60,5f035e5afe130c270d6ae6dd,5f05e2a01308dd0b4590739e,2,,,,,,carrot,,,,,,,,,,,1,2,0,39,39,6,1,,,,,,,,,,,,,,,,,,,,,,,,,,,,,,,,,,,,,,,,,,,,,,,,,,,,,,,,,,,,,,,,,,,,,,
,,?,0.000575,0,,,,,,stimuli/images/PICTURE_405.png,HOUSE,5eebb8b7011d13119025dcf0,06/02/1992,2020-07-08_16h16.39.481,proactive,2020.1.2,Win32,60,5f035e5afe130c270d6ae6dd,5f05e2a01308dd0b4590739e,2,,,,,,anchor,,,,,,,,,,,1,2,0,40,40,2,1,,,,,,,,,,,,,,,,,,,,,,,,,,,,,,,,,,,,,,,,,,,,,,,,,,,,,,,,,,,,,,,,,,,,,,
,,?,0.00059,0,,,,,,stimuli/images/PICTURE_509.png,MILLER,5eebb8b7011d13119025dcf0,06/02/1992,2020-07-08_16h16.39.481,proactive,2020.1.2,Win32,60,5f035e5afe130c270d6ae6dd,5f05e2a01308dd0b4590739e,2,,,,,,telephone,,,,,,,,,,,5,2,0,41,41,49,1,,,,,,,,,,,,,,,,,,,,,,,,,,,,,,,,,,,,,,,,,,,,,,,,,,,,,,,,,,,,,,,,,,,,,,
,,?,10.016235,0,,,,,,stimuli/images/PICTURE_509.png,BATH,5eebb8b7011d13119025dcf0,06/02/1992,2020-07-08_16h16.39.481,proactive,2020.1.2,Win32,60,5f035e5afe130c270d6ae6dd,5f05e2a01308dd0b4590739e,2,,,,,,telephone,,,,,,,,,,,2,2,0,42,42,15,1,,,,,,,,,,,,,,,,,,,,,,,,,,,,,,,,,,,,,,,,,,,,,,,,,,,,,,,,,,,,,,,,,,,,,,
,,?,0.000915,0,,,,,,stimuli/images/PICTURE_453.png,FAMILY,5eebb8b7011d13119025dcf0,06/02/1992,2020-07-08_16h16.39.481,proactive,2020.1.2,Win32,60,5f035e5afe130c270d6ae6dd,5f05e2a01308dd0b4590739e,2,,,,,,scissors,,,,,,,,,,,5,2,0,43,43,48,1,,,,,,,,,,,,,,,,,,,,,,,,,,,,,,,,,,,,,,,,,,,,,,,,,,,,,,,,,,,,,,,,,,,,,,
,,?,0.00057,0,,,,,,stimuli/images/PICTURE_356.png,CANDY,5eebb8b7011d13119025dcf0,06/02/1992,2020-07-08_16h16.39.481,proactive,2020.1.2,Win32,60,5f035e5afe130c270d6ae6dd,5f05e2a01308dd0b4590739e,2,,,,,,pawn,,,,,,,,,,,5,2,0,44,44,46,1,,,,,,,,,,,,,,,,,,,,,,,,,,,,,,,,,,,,,,,,,,,,,,,,,,,,,,,,,,,,,,,,,,,,,,
,,?,0.0005,0,,,,,,stimuli/images/PICTURE_452.png,COPS,5eebb8b7011d13119025dcf0,06/02/1992,2020-07-08_16h16.39.481,proactive,2020.1.2,Win32,60,5f035e5afe130c270d6ae6dd,5f05e2a01308dd0b4590739e,2,,,,,,watch,,,,,,,,,,,1,2,0,45,45,0,1,,,,,,,,,,,,,,,,,,,,,,,,,,,,,,,,,,,,,,,,,,,,,,,,,,,,,,,,,,,,,,,,,,,,,,
,,CLOCK,10.001115,1,,,,,,stimuli/images/PICTURE_296.png,CLOCK,5eebb8b7011d13119025dcf0,06/02/1992,2020-07-08_16h16.39.481,proactive,2020.1.2,Win32,60,5f035e5afe130c270d6ae6dd,5f05e2a01308dd0b4590739e,2,,,,,,bolt,,,,,,,,,,,2,2,0,46,46,18,1,,,,,,,,,,,,,,,,,,,,,,,,,,,,,,,,,,,,,,,,,,,,,,,,,,,,,,,,,,,,,,,,,,,,,,
,,?,0.00074,0,,,,,,stimuli/images/PICTURE_509.png,APPLE,5eebb8b7011d13119025dcf0,06/02/1992,2020-07-08_16h16.39.481,proactive,2020.1.2,Win32,60,5f035e5afe130c270d6ae6dd,5f05e2a01308dd0b4590739e,2,,,,,,telephone,,,,,,,,,,,4,2,0,47,47,38,1,,,,,,,,,,,,,,,,,,,,,,,,,,,,,,,,,,,,,,,,,,,,,,,,,,,,,,,,,,,,,,,,,,,,,,
,,?,0.00055,0,,,,,,stimuli/images/PICTURE_348.png,TOILET,5eebb8b7011d13119025dcf0,06/02/1992,2020-07-08_16h16.39.481,proactive,2020.1.2,Win32,60,5f035e5afe130c270d6ae6dd,5f05e2a01308dd0b4590739e,2,,,,,,pepper,,,,,,,,,,,1,2,0,48,48,4,1,,,,,,,,,,,,,,,,,,,,,,,,,,,,,,,,,,,,,,,,,,,,,,,,,,,,,,,,,,,,,,,,,,,,,,
,,?,0.000725,0,,,,,,stimuli/images/PICTURE_95.png,NIGHT,5eebb8b7011d13119025dcf0,06/02/1992,2020-07-08_16h16.39.481,proactive,2020.1.2,Win32,60,5f035e5afe130c270d6ae6dd,5f05e2a01308dd0b4590739e,2,,,,,,suitcase,,,,,,,,,,,4,2,0,49,49,37,1,,,,,,,,,,,,,,,,,,,,,,,,,,,,,,,,,,,,,,,,,,,,,,,,,,,,,,,,,,,,,,,,,,,,,,
,,?,0.000525,0,,,,,,stimuli/images/PICTURE_405.png,JUNGLE,5eebb8b7011d13119025dcf0,06/02/1992,2020-07-08_16h16.39.481,proactive,2020.1.2,Win32,60,5f035e5afe130c270d6ae6dd,5f05e2a01308dd0b4590739e,2,,,,,,anchor,,,,,,,,,,,6,2,0,50,50,58,1,,,,,,,,,,,,,,,,,,,,,,,,,,,,,,,,,,,,,,,,,,,,,,,,,,,,,,,,,,,,,,,,,,,,,,
,,?,0.00054,0,,,,,,stimuli/images/PICTURE_141.png,CLIENT,5eebb8b7011d13119025dcf0,06/02/1992,2020-07-08_16h16.39.481,proactive,2020.1.2,Win32,60,5f035e5afe130c270d6ae6dd,5f05e2a01308dd0b4590739e,2,,,,,,sunflower,,,,,,,,,,,4,2,0,51,51,30,1,,,,,,,,,,,,,,,,,,,,,,,,,,,,,,,,,,,,,,,,,,,,,,,,,,,,,,,,,,,,,,,,,,,,,,
,,?,0.000515,0,,,,,,stimuli/images/PICTURE_2.png,JUNGLE,5eebb8b7011d13119025dcf0,06/02/1992,2020-07-08_16h16.39.481,proactive,2020.1.2,Win32,60,5f035e5afe130c270d6ae6dd,5f05e2a01308dd0b4590739e,2,,,,,,tyre,,,,,,,,,,,1,2,0,52,52,1,1,,,,,,,,,,,,,,,,,,,,,,,,,,,,,,,,,,,,,,,,,,,,,,,,,,,,,,,,,,,,,,,,,,,,,,
,,?,0.000555,0,,,,,,stimuli/images/PICTURE_2.png,YARD,5eebb8b7011d13119025dcf0,06/02/1992,2020-07-08_16h16.39.481,proactive,2020.1.2,Win32,60,5f035e5afe130c270d6ae6dd,5f05e2a01308dd0b4590739e,2,,,,,,tyre,,,,,,,,,,,6,2,0,53,53,55,1,,,,,,,,,,,,,,,,,,,,,,,,,,,,,,,,,,,,,,,,,,,,,,,,,,,,,,,,,,,,,,,,,,,,,,
,,?,0.00054,0,,,,,,stimuli/images/PICTURE_314.png,SPEECH,5eebb8b7011d13119025dcf0,06/02/1992,2020-07-08_16h16.39.481,proactive,2020.1.2,Win32,60,5f035e5afe130c270d6ae6dd,5f05e2a01308dd0b4590739e,2,,,,,,perfume,,,,,,,,,,,4,2,0,54,54,35,1,,,,,,,,,,,,,,,,,,,,,,,,,,,,,,,,,,,,,,,,,,,,,,,,,,,,,,,,,,,,,,,,,,,,,,
,,?,0.000575,0,,,,,,stimuli/images/PICTURE_750.png,POLICY,5eebb8b7011d13119025dcf0,06/02/1992,2020-07-08_16h16.39.481,proactive,2020.1.2,Win32,60,5f035e5afe130c270d6ae6dd,5f05e2a01308dd0b4590739e,2,,,,,,kettle,,,,,,,,,,,5,2,0,55,55,44,1,,,,,,,,,,,,,,,,,,,,,,,,,,,,,,,,,,,,,,,,,,,,,,,,,,,,,,,,,,,,,,,,,,,,,,
,,?,0.000975,0,,,,,,stimuli/images/PICTURE_708.png,VALLEY,5eebb8b7011d13119025dcf0,06/02/1992,2020-07-08_16h16.39.481,proactive,2020.1.2,Win32,60,5f035e5afe130c270d6ae6dd,5f05e2a01308dd0b4590739e,2,,,,,,monkey,,,,,,,,,,,5,2,0,56,56,45,1,,,,,,,,,,,,,,,,,,,,,,,,,,,,,,,,,,,,,,,,,,,,,,,,,,,,,,,,,,,,,,,,,,,,,,
,,?,0.00156,0,,,,,,stimuli/images/PICTURE_688.png,CLOCK,5eebb8b7011d13119025dcf0,06/02/1992,2020-07-08_16h16.39.481,proactive,2020.1.2,Win32,60,5f035e5afe130c270d6ae6dd,5f05e2a01308dd0b4590739e,2,,,,,,runner,,,,,,,,,,,5,2,0,57,57,42,1,,,,,,,,,,,,,,,,,,,,,,,,,,,,,,,,,,,,,,,,,,,,,,,,,,,,,,,,,,,,,,,,,,,,,,
,,?,0.00061,0,,,,,,stimuli/images/PICTURE_470.png,BEAUTY,5eebb8b7011d13119025dcf0,06/02/1992,2020-07-08_16h16.39.481,proactive,2020.1.2,Win32,60,5f035e5afe130c270d6ae6dd,5f05e2a01308dd0b4590739e,2,,,,,,motorbike,,,,,,,,,,,3,2,0,58,58,26,1,,,,,,,,,,,,,,,,,,,,,,,,,,,,,,,,,,,,,,,,,,,,,,,,,,,,,,,,,,,,,,,,,,,,,,
,,?,0.000555,0,,,,,,stimuli/images/PICTURE_348.png,DUDE,5eebb8b7011d13119025dcf0,06/02/1992,2020-07-08_16h16.39.481,proactive,2020.1.2,Win32,60,5f035e5afe130c270d6ae6dd,5f05e2a01308dd0b4590739e,2,,,,,,pepper,,,,,,,,,,,6,2,0,59,59,59,1,,,,,,,,,,,,,,,,,,,,,,,,,,,,,,,,,,,,,,,,,,,,,,,,,,,,,,,,,,,,,,,,,,,,,,
,,,,,,,,,,,,5eebb8b7011d13119025dcf0,06/02/1992,2020-07-08_16h16.39.481,proactive,2020.1.2,Win32,60,5f035e5afe130c270d6ae6dd,5f05e2a01308dd0b4590739e,2,,,,,,,,,,,,,,,,,,,,,,,,0,0,0,2,1,stimuli/learn-block3.csv,,,,,,,,,,,,,,,,,,,,,,,,,,,,,,,,,,,,,,,,,,,,,,,,,,,,,,,,,,,,,,,,
,,,,,,,,,,stimuli/images/PICTURE_33.png,FRIEND,5eebb8b7011d13119025dcf0,06/02/1992,2020-07-08_16h16.39.481,proactive,2020.1.2,Win32,60,5f035e5afe130c270d6ae6dd,5f05e2a01308dd0b4590739e,2,,,,,,frame,,,,,,0,0,0,8,1,1,1,,,,,,,,,,,,,,,,,,,,,,,,,,,,,,,,,,,,,,,,,,,,,,,,,,,,,,,,,,,,,,,,,,,,,,,,,,,
,,,,,,,,,,stimuli/images/PICTURE_85.png,NATION,5eebb8b7011d13119025dcf0,06/02/1992,2020-07-08_16h16.39.481,proactive,2020.1.2,Win32,60,5f035e5afe130c270d6ae6dd,5f05e2a01308dd0b4590739e,2,,,,,,diamond,,,,,,0,1,1,5,1,1,1,,,,,,,,,,,,,,,,,,,,,,,,,,,,,,,,,,,,,,,,,,,,,,,,,,,,,,,,,,,,,,,,,,,,,,,,,,,
,,,,,,,,,,stimuli/images/PICTURE_203.png,GODS,5eebb8b7011d13119025dcf0,06/02/1992,2020-07-08_16h16.39.481,proactive,2020.1.2,Win32,60,5f035e5afe130c270d6ae6dd,5f05e2a01308dd0b4590739e,2,,,,,,cap,,,,,,0,2,2,30,1,4,1,,,,,,,,,,,,,,,,,,,,,,,,,,,,,,,,,,,,,,,,,,,,,,,,,,,,,,,,,,,,,,,,,,,,,,,,,,,
,,,,,,,,,,stimuli/images/PICTURE_147.png,WOMEN,5eebb8b7011d13119025dcf0,06/02/1992,2020-07-08_16h16.39.481,proactive,2020.1.2,Win32,60,5f035e5afe130c270d6ae6dd,5f05e2a01308dd0b4590739e,2,,,,,,hanger,,,,,,0,3,3,7,1,1,1,,,,,,,,,,,,,,,,,,,,,,,,,,,,,,,,,,,,,,,,,,,,,,,,,,,,,,,,,,,,,,,,,,,,,,,,,,,
,,,,,,,,,,stimuli/images/PICTURE_667.png,RIVER,5eebb8b7011d13119025dcf0,06/02/1992,2020-07-08_16h16.39.481,proactive,2020.1.2,Win32,60,5f035e5afe130c270d6ae6dd,5f05e2a01308dd0b4590739e,2,,,,,,daisy,,,,,,0,4,4,10,1,2,1,,,,,,,,,,,,,,,,,,,,,,,,,,,,,,,,,,,,,,,,,,,,,,,,,,,,,,,,,,,,,,,,,,,,,,,,,,,
,,,,,,,,,,stimuli/images/PICTURE_504.png,COPS,5eebb8b7011d13119025dcf0,06/02/1992,2020-07-08_16h16.39.481,proactive,2020.1.2,Win32,60,5f035e5afe130c270d6ae6dd,5f05e2a01308dd0b4590739e,2,,,,,,wheel,,,,,,0,5,5,52,1,6,1,,,,,,,,,,,,,,,,,,,,,,,,,,,,,,,,,,,,,,,,,,,,,,,,,,,,,,,,,,,,,,,,,,,,,,,,,,,
,,,,,,,,,,stimuli/images/PICTURE_380.png,HONEY,5eebb8b7011d13119025dcf0,06/02/1992,2020-07-08_16h16.39.481,proactive,2020.1.2,Win32,60,5f035e5afe130c270d6ae6dd,5f05e2a01308dd0b4590739e,2,,,,,,gorilla,,,,,,0,6,6,19,1,2,1,,,,,,,,,,,,,,,,,,,,,,,,,,,,,,,,,,,,,,,,,,,,,,,,,,,,,,,,,,,,,,,,,,,,,,,,,,,
,,,,,,,,,,stimuli/images/PICTURE_383.png,WRITER,5eebb8b7011d13119025dcf0,06/02/1992,2020-07-08_16h16.39.481,proactive,2020.1.2,Win32,60,5f035e5afe130c270d6ae6dd,5f05e2a01308dd0b4590739e,2,,,,,,coin,,,,,,0,7,7,28,1,3,1,,,,,,,,,,,,,,,,,,,,,,,,,,,,,,,,,,,,,,,,,,,,,,,,,,,,,,,,,,,,,,,,,,,,,,,,,,,
,,,,,,,,,,stimuli/images/PICTURE_504.png,ARTIST,5eebb8b7011d13119025dcf0,06/02/1992,2020-07-08_16h16.39.481,proactive,2020.1.2,Win32,60,5f035e5afe130c270d6ae6dd,5f05e2a01308dd0b4590739e,2,,,,,,wheel,,,,,,0,8,8,49,1,5,1,,,,,,,,,,,,,,,,,,,,,,,,,,,,,,,,,,,,,,,,,,,,,,,,,,,,,,,,,,,,,,,,,,,,,,,,,,,
,,,,,,,,,,stimuli/images/PICTURE_340.png,VALLEY,5eebb8b7011d13119025dcf0,06/02/1992,2020-07-08_16h16.39.481,proactive,2020.1.2,Win32,60,5f035e5afe130c270d6ae6dd,5f05e2a01308dd0b4590739e,2,,,,,,mirror,,,,,,0,9,9,54,1,6,1,,,,,,,,,,,,,,,,,,,,,,,,,,,,,,,,,,,,,,,,,,,,,,,,,,,,,,,,,,,,,,,,,,,,,,,,,,,
,,,,,,,,,,stimuli/images/PICTURE_296.png,LOTS,5eebb8b7011d13119025dcf0,06/02/1992,2020-07-08_16h16.39.481,proactive,2020.1.2,Win32,60,5f035e5afe130c270d6ae6dd,5f05e2a01308dd0b4590739e,2,,,,,,bolt,,,,,,0,10,10,9,1,1,1,,,,,,,,,,,,,,,,,,,,,,,,,,,,,,,,,,,,,,,,,,,,,,,,,,,,,,,,,,,,,,,,,,,,,,,,,,,
,,,,,,,,,,stimuli/images/PICTURE_203.png,NIGHT,5eebb8b7011d13119025dcf0,06/02/1992,2020-07-08_16h16.39.481,proactive,2020.1.2,Win32,60,5f035e5afe130c270d6ae6dd,5f05e2a01308dd0b4590739e,2,,,,,,cap,,,,,,0,11,11,2,1,1,1,,,,,,,,,,,,,,,,,,,,,,,,,,,,,,,,,,,,,,,,,,,,,,,,,,,,,,,,,,,,,,,,,,,,,,,,,,,
,,,,,,,,,,stimuli/images/PICTURE_2.png,FLIGHT,5eebb8b7011d13119025dcf0,06/02/1992,2020-07-08_16h16.39.481,proactive,2020.1.2,Win32,60,5f035e5afe130c270d6ae6dd,5f05e2a01308dd0b4590739e,2,,,,,,tyre,,,,,,0,12,12,15,1,2,1,,,,,,,,,,,,,,,,,,,,,,,,,,,,,,,,,,,,,,,,,,,,,,,,,,,,,,,,,,,,,,,,,,,,,,,,,,,
,,,,,,,,,,stimuli/images/PICTURE_85.png,TOILET,5eebb8b7011d13119025dcf0,06/02/1992,2020-07-08_16h16.39.481,proactive,2020.1.2,Win32,60,5f035e5afe130c270d6ae6dd,5f05e2a01308dd0b4590739e,2,,,,,,diamond,,,,,,0,13,13,48,1,5,1,,,,,,,,,,,,,,,,,,,,,,,,,,,,,,,,,,,,,,,,,,,,,,,,,,,,,,,,,,,,,,,,,,,,,,,,,,,
,,,,,,,,,,stimuli/images/PICTURE_95.png,HONEY,5eebb8b7011d13119025dcf0,06/02/1992,2020-07-08_16h16.39.481,proactive,2020.1.2,Win32,60,5f035e5afe130c270d6ae6dd,5f05e2a01308dd0b4590739e,2,,,,,,suitcase,,,,,,0,14,14,44,1,5,1,,,,,,,,,,,,,,,,,,,,,,,,,,,,,,,,,,,,,,,,,,,,,,,,,,,,,,,,,,,,,,,,,,,,,,,,,,,
,,,,,,,,,,stimuli/images/PICTURE_750.png,HOTEL,5eebb8b7011d13119025dcf0,06/02/1992,2020-07-08_16h16.39.481,proactive,2020.1.2,Win32,60,5f035e5afe130c270d6ae6dd,5f05e2a01308dd0b4590739e,2,,,,,,kettle,,,,,,0,15,15,27,1,3,1,,,,,,,,,,,,,,,,,,,,,,,,,,,,,,,,,,,,,,,,,,,,,,,,,,,,,,,,,,,,,,,,,,,,,,,,,,,
,,,,,,,,,,stimuli/images/PICTURE_57.png,MOMENT,5eebb8b7011d13119025dcf0,06/02/1992,2020-07-08_16h16.39.481,proactive,2020.1.2,Win32,60,5f035e5afe130c270d6ae6dd,5f05e2a01308dd0b4590739e,2,,,,,,stamp,,,,,,0,16,16,37,1,4,1,,,,,,,,,,,,,,,,,,,,,,,,,,,,,,,,,,,,,,,,,,,,,,,,,,,,,,,,,,,,,,,,,,,,,,,,,,,
,,,,,,,,,,stimuli/images/PICTURE_403.png,WRITER,5eebb8b7011d13119025dcf0,06/02/1992,2020-07-08_16h16.39.481,proactive,2020.1.2,Win32,60,5f035e5afe130c270d6ae6dd,5f05e2a01308dd0b4590739e,2,,,,,,cathedral,,,,,,0,17,17,31,1,4,1,,,,,,,,,,,,,,,,,,,,,,,,,,,,,,,,,,,,,,,,,,,,,,,,,,,,,,,,,,,,,,,,,,,,,,,,,,,
,,,,,,,,,,stimuli/images/PICTURE_308.png,FAMILY,5eebb8b7011d13119025dcf0,06/02/1992,2020-07-08_16h16.39.481,proactive,2020.1.2,Win32,60,5f035e5afe130c270d6ae6dd,5f05e2a01308dd0b4590739e,2,,,,,,dice,,,,,,0,18,18,36,1,4,1,,,,,,,,,,,,,,,,,,,,,,,,,,,,,,,,,,,,,,,,,,,,,,,,,,,,,,,,,,,,,,,,,,,,,,,,,,,
,,,,,,,,,,stimuli/images/PICTURE_654.png,MONTH,5eebb8b7011d13119025dcf0,06/02/1992,2020-07-08_16h16.39.481,proactive,2020.1.2,Win32,60,5f035e5afe130c270d6ae6dd,5f05e2a01308dd0b4590739e,2,,,,,,pencil,,,,,,0,19,19,29,1,3,1,,,,,,,,,,,,,,,,,,,,,,,,,,,,,,,,,,,,,,,,,,,,,,,,,,,,,,,,,,,,,,,,,,,,,,,,,,,
,,,,,,,,,,stimuli/images/PICTURE_340.png,LETTER,5eebb8b7011d13119025dcf0,06/02/1992,2020-07-08_16h16.39.481,proactive,2020.1.2,Win32,60,5f035e5afe130c270d6ae6dd,5f05e2a01308dd0b4590739e,2,,,,,,mirror,,,,,,0,20,20,24,1,3,1,,,,,,,,,,,,,,,,,,,,,,,,,,,,,,,,,,,,,,,,,,,,,,,,,,,,,,,,,,,,,,,,,,,,,,,,,,,
,,,,,,,,,,stimuli/images/PICTURE_297.png,RIVER,5eebb8b7011d13119025dcf0,06/02/1992,2020-07-08_16h16.39.481,proactive,2020.1.2,Win32,60,5f035e5afe130c270d6ae6dd,5f05e2a01308dd0b4590739e,2,,,,,,aeroplane,,,,,,0,21,21,39,1,4,1,,,,,,,,,,,,,,,,,,,,,,,,,,,,,,,,,,,,,,,,,,,,,,,,,,,,,,,,,,,,,,,,,,,,,,,,,,,
,,,,,,,,,,stimuli/images/PICTURE_655.png,TOILET,5eebb8b7011d13119025dcf0,06/02/1992,2020-07-08_16h16.39.481,proactive,2020.1.2,Win32,60,5f035e5afe130c270d6ae6dd,5f05e2a01308dd0b4590739e,2,,,,,,megaphone,,,,,,0,22,22,12,1,2,1,,,,,,,,,,,,,,,,,,,,,,,,,,,,,,,,,,,,,,,,,,,,,,,,,,,,,,,,,,,,,,,,,,,,,,,,,,,
,,,,,,,,,,stimuli/images/PICTURE_467.png,POLICY,5eebb8b7011d13119025dcf0,06/02/1992,2020-07-08_16h16.39.481,proactive,2020.1.2,Win32,60,5f035e5afe130c270d6ae6dd,5f05e2a01308dd0b4590739e,2,,,,,,peg,,,,,,0,23,23,53,1,6,1,,,,,,,,,,,,,,,,,,,,,,,,,,,,,,,,,,,,,,,,,,,,,,,,,,,,,,,,,,,,,,,,,,,,,,,,,,,
,,,,,,,,,,stimuli/images/PICTURE_405.png,PLENTY,5eebb8b7011d13119025dcf0,06/02/1992,2020-07-08_16h16.39.481,proactive,2020.1.2,Win32,60,5f035e5afe130c270d6ae6dd,5f05e2a01308dd0b4590739e,2,,,,,,anchor,,,,,,0,24,24,23,1,3,1,,,,,,,,,,,,,,,,,,,,,,,,,,,,,,,,,,,,,,,,,,,,,,,,,,,,,,,,,,,,,,,,,,,,,,,,,,,
,,,,,,,,,,stimuli/images/PICTURE_108.png,POLICY,5eebb8b7011d13119025dcf0,06/02/1992,2020-07-08_16h16.39.481,proactive,2020.1.2,Win32,60,5f035e5afe130c270d6ae6dd,5f05e2a01308dd0b4590739e,2,,,,,,calendar,,,,,,0,25,25,22,1,3,1,,,,,,,,,,,,,,,,,,,,,,,,,,,,,,,,,,,,,,,,,,,,,,,,,,,,,,,,,,,,,,,,,,,,,,,,,,,
,,,,,,,,,,stimuli/images/PICTURE_327.png,CASINO,5eebb8b7011d13119025dcf0,06/02/1992,2020-07-08_16h16.39.481,proactive,2020.1.2,Win32,60,5f035e5afe130c270d6ae6dd,5f05e2a01308dd0b4590739e,2,,,,,,helmet,,,,,,0,26,26,20,1,3,1,,,,,,,,,,,,,,,,,,,,,,,,,,,,,,,,,,,,,,,,,,,,,,,,,,,,,,,,,,,,,,,,,,,,,,,,,,,
,,,,,,,,,,stimuli/images/PICTURE_233.png,LOTS,5eebb8b7011d13119025dcf0,06/02/1992,2020-07-08_16h16.39.481,proactive,2020.1.2,Win32,60,5f035e5afe130c270d6ae6dd,5f05e2a01308dd0b4590739e,2,,,,,,salt,,,,,,0,27,27,42,1,5,1,,,,,,,,,,,,,,,,,,,,,,,,,,,,,,,,,,,,,,,,,,,,,,,,,,,,,,,,,,,,,,,,,,,,,,,,,,,
,,,,,,,,,,stimuli/images/PICTURE_403.png,TOILET,5eebb8b7011d13119025dcf0,06/02/1992,2020-07-08_16h16.39.481,proactive,2020.1.2,Win32,60,5f035e5afe130c270d6ae6dd,5f05e2a01308dd0b4590739e,2,,,,,,cathedral,,,,,,0,28,28,25,1,3,1,,,,,,,,,,,,,,,,,,,,,,,,,,,,,,,,,,,,,,,,,,,,,,,,,,,,,,,,,,,,,,,,,,,,,,,,,,,
,,,,,,,,,,stimuli/images/PICTURE_685.png,PENNY,5eebb8b7011d13119025dcf0,06/02/1992,2020-07-08_16h16.39.481,proactive,2020.1.2,Win32,60,5f035e5afe130c270d6ae6dd,5f05e2a01308dd0b4590739e,2,,,,,,goose,,,,,,0,29,29,4,1,1,1,,,,,,,,,,,,,,,,,,,,,,,,,,,,,,,,,,,,,,,,,,,,,,,,,,,,,,,,,,,,,,,,,,,,,,,,,,,
,,,,,,,,,,stimuli/images/PICTURE_296.png,LIFE,5eebb8b7011d13119025dcf0,06/02/1992,2020-07-08_16h16.39.481,proactive,2020.1.2,Win32,60,5f035e5afe130c270d6ae6dd,5f05e2a01308dd0b4590739e,2,,,,,,bolt,,,,,,0,30,30,57,1,6,1,,,,,,,,,,,,,,,,,,,,,,,,,,,,,,,,,,,,,,,,,,,,,,,,,,,,,,,,,,,,,,,,,,,,,,,,,,,
,,,,,,,,,,stimuli/images/PICTURE_469.png,AGENT,5eebb8b7011d13119025dcf0,06/02/1992,2020-07-08_16h16.39.481,proactive,2020.1.2,Win32,60,5f035e5afe130c270d6ae6dd,5f05e2a01308dd0b4590739e,2,,,,,,stool,,,,,,0,31,31,16,1,2,1,,,,,,,,,,,,,,,,,,,,,,,,,,,,,,,,,,,,,,,,,,,,,,,,,,,,,,,,,,,,,,,,,,,,,,,,,,,
,,,,,,,,,,stimuli/images/PICTURE_95.png,MILLER,5eebb8b7011d13119025dcf0,06/02/1992,2020-07-08_16h16.39.481,proactive,2020.1.2,Win32,60,5f035e5afe130c270d6ae6dd,5f05e2a01308dd0b4590739e,2,,,,,,suitcase,,,,,,0,32,32,56,1,6,1,,,,,,,,,,,,,,,,,,,,,,,,,,,,,,,,,,,,,,,,,,,,,,,,,,,,,,,,,,,,,,,,,,,,,,,,,,,
,,,,,,,,,,stimuli/images/PICTURE_744.png,WEAPON,5eebb8b7011d13119025dcf0,06/02/1992,2020-07-08_16h16.39.481,proactive,2020.1.2,Win32,60,5f035e5afe130c270d6ae6dd,5f05e2a01308dd0b4590739e,2,,,,,,ring,,,,,,0,33,33,50,1,6,1,,,,,,,,,,,,,,,,,,,,,,,,,,,,,,,,,,,,,,,,,,,,,,,,,,,,,,,,,,,,,,,,,,,,,,,,,,,
,,,,,,,,,,stimuli/images/PICTURE_32.png,KIND,5eebb8b7011d13119025dcf0,06/02/1992,2020-07-08_16h16.39.481,proactive,2020.1.2,Win32,60,5f035e5afe130c270d6ae6dd,5f05e2a01308dd0b4590739e,2,,,,,,crown,,,,,,0,34,34,35,1,4,1,,,,,,,,,,,,,,,,,,,,,,,,,,,,,,,,,,,,,,,,,,,,,,,,,,,,,,,,,,,,,,,,,,,,,,,,,,,
,,,,,,,,,,stimuli/images/PICTURE_42.png,BOYS,5eebb8b7011d13119025dcf0,06/02/1992,2020-07-08_16h16.39.481,proactive,2020.1.2,Win32,60,5f035e5afe130c270d6ae6dd,5f05e2a01308dd0b4590739e,2,,,,,,pear,,,,,,0,35,35,55,1,6,1,,,,,,,,,,,,,,,,,,,,,,,,,,,,,,,,,,,,,,,,,,,,,,,,,,,,,,,,,,,,,,,,,,,,,,,,,,,
,,,,,,,,,,stimuli/images/PICTURE_147.png,YEAR,5eebb8b7011d13119025dcf0,06/02/1992,2020-07-08_16h16.39.481,proactive,2020.1.2,Win32,60,5f035e5afe130c270d6ae6dd,5f05e2a01308dd0b4590739e,2,,,,,,hanger,,,,,,0,36,36,21,1,3,1,,,,,,,,,,,,,,,,,,,,,,,,,,,,,,,,,,,,,,,,,,,,,,,,,,,,,,,,,,,,,,,,,,,,,,,,,,,
,,,,,,,,,,stimuli/images/PICTURE_383.png,SERIES,5eebb8b7011d13119025dcf0,06/02/1992,2020-07-08_16h16.39.481,proactive,2020.1.2,Win32,60,5f035e5afe130c270d6ae6dd,5f05e2a01308dd0b4590739e,2,,,,,,coin,,,,,,0,37,37,46,1,5,1,,,,,,,,,,,,,,,,,,,,,,,,,,,,,,,,,,,,,,,,,,,,,,,,,,,,,,,,,,,,,,,,,,,,,,,,,,,
,,,,,,,,,,stimuli/images/PICTURE_108.png,FLIGHT,5eebb8b7011d13119025dcf0,06/02/1992,2020-07-08_16h16.39.481,proactive,2020.1.2,Win32,60,5f035e5afe130c270d6ae6dd,5f05e2a01308dd0b4590739e,2,,,,,,calendar,,,,,,0,38,38,59,1,6,1,,,,,,,,,,,,,,,,,,,,,,,,,,,,,,,,,,,,,,,,,,,,,,,,,,,,,,,,,,,,,,,,,,,,,,,,,,,
,,,,,,,,,,stimuli/images/PICTURE_177.png,WRITER,5eebb8b7011d13119025dcf0,06/02/1992,2020-07-08_16h16.39.481,proactive,2020.1.2,Win32,60,5f035e5afe130c270d6ae6dd,5f05e2a01308dd0b4590739e,2,,,,,,mushroom,,,,,,0,39,39,41,1,5,1,,,,,,,,,,,,,,,,,,,,,,,,,,,,,,,,,,,,,,,,,,,,,,,,,,,,,,,,,,,,,,,,,,,,,,,,,,,
,,,,,,,,,,stimuli/images/PICTURE_405.png,YEAR,5eebb8b7011d13119025dcf0,06/02/1992,2020-07-08_16h16.39.481,proactive,2020.1.2,Win32,60,5f035e5afe130c270d6ae6dd,5f05e2a01308dd0b4590739e,2,,,,,,anchor,,,,,,0,40,40,34,1,4,1,,,,,,,,,,,,,,,,,,,,,,,,,,,,,,,,,,,,,,,,,,,,,,,,,,,,,,,,,,,,,,,,,,,,,,,,,,,
,,,,,,,,,,stimuli/images/PICTURE_403.png,RIVER,5eebb8b7011d13119025dcf0,06/02/1992,2020-07-08_16h16.39.481,proactive,2020.1.2,Win32,60,5f035e5afe130c270d6ae6dd,5f05e2a01308dd0b4590739e,2,,,,,,cathedral,,,,,,0,41,41,40,1,5,1,,,,,,,,,,,,,,,,,,,,,,,,,,,,,,,,,,,,,,,,,,,,,,,,,,,,,,,,,,,,,,,,,,,,,,,,,,,
,,,,,,,,,,stimuli/images/PICTURE_68.png,ROOF,5eebb8b7011d13119025dcf0,06/02/1992,2020-07-08_16h16.39.481,proactive,2020.1.2,Win32,60,5f035e5afe130c270d6ae6dd,5f05e2a01308dd0b4590739e,2,,,,,,candle,,,,,,0,42,42,38,1,4,1,,,,,,,,,,,,,,,,,,,,,,,,,,,,,,,,,,,,,,,,,,,,,,,,,,,,,,,,,,,,,,,,,,,,,,,,,,,
,,,,,,,,,,stimuli/images/PICTURE_68.png,MILE,5eebb8b7011d13119025dcf0,06/02/1992,2020-07-08_16h16.39.481,proactive,2020.1.2,Win32,60,5f035e5afe130c270d6ae6dd,5f05e2a01308dd0b4590739e,2,,,,,,candle,,,,,,0,43,43,51,1,6,1,,,,,,,,,,,,,,,,,,,,,,,,,,,,,,,,,,,,,,,,,,,,,,,,,,,,,,,,,,,,,,,,,,,,,,,,,,,
,,,,,,,,,,stimuli/images/PICTURE_504.png,YEAR,5eebb8b7011d13119025dcf0,06/02/1992,2020-07-08_16h16.39.481,proactive,2020.1.2,Win32,60,5f035e5afe130c270d6ae6dd,5f05e2a01308dd0b4590739e,2,,,,,,wheel,,,,,,0,44,44,13,1,2,1,,,,,,,,,,,,,,,,,,,,,,,,,,,,,,,,,,,,,,,,,,,,,,,,,,,,,,,,,,,,,,,,,,,,,,,,,,,
,,,,,,,,,,stimuli/images/PICTURE_487.png,GIRL,5eebb8b7011d13119025dcf0,06/02/1992,2020-07-08_16h16.39.481,proactive,2020.1.2,Win32,60,5f035e5afe130c270d6ae6dd,5f05e2a01308dd0b4590739e,2,,,,,,basket,,,,,,0,45,45,45,1,5,1,,,,,,,,,,,,,,,,,,,,,,,,,,,,,,,,,,,,,,,,,,,,,,,,,,,,,,,,,,,,,,,,,,,,,,,,,,,
,,,,,,,,,,stimuli/images/PICTURE_449.png,DUDE,5eebb8b7011d13119025dcf0,06/02/1992,2020-07-08_16h16.39.481,proactive,2020.1.2,Win32,60,5f035e5afe130c270d6ae6dd,5f05e2a01308dd0b4590739e,2,,,,,,bench,,,,,,0,46,46,17,1,2,1,,,,,,,,,,,,,,,,,,,,,,,,,,,,,,,,,,,,,,,,,,,,,,,,,,,,,,,,,,,,,,,,,,,,,,,,,,,
,,,,,,,,,,stimuli/images/PICTURE_95.png,BOYS,5eebb8b7011d13119025dcf0,06/02/1992,2020-07-08_16h16.39.481,proactive,2020.1.2,Win32,60,5f035e5afe130c270d6ae6dd,5f05e2a01308dd0b4590739e,2,,,,,,suitcase,,,,,,0,47,47,1,1,1,1,,,,,,,,,,,,,,,,,,,,,,,,,,,,,,,,,,,,,,,,,,,,,,,,,,,,,,,,,,,,,,,,,,,,,,,,,,,
,,,,,,,,,,stimuli/images/PICTURE_675.png,SALE,5eebb8b7011d13119025dcf0,06/02/1992,2020-07-08_16h16.39.481,proactive,2020.1.2,Win32,60,5f035e5afe130c270d6ae6dd,5f05e2a01308dd0b4590739e,2,,,,,,windmill,,,,,,0,48,48,47,1,5,1,,,,,,,,,,,,,,,,,,,,,,,,,,,,,,,,,,,,,,,,,,,,,,,,,,,,,,,,,,,,,,,,,,,,,,,,,,,
,,,,,,,,,,stimuli/images/PICTURE_708.png,RECORD,5eebb8b7011d13119025dcf0,06/02/1992,2020-07-08_16h16.39.481,proactive,2020.1.2,Win32,60,5f035e5afe130c270d6ae6dd,5f05e2a01308dd0b4590739e,2,,,,,,monkey,,,,,,0,49,49,58,1,6,1,,,,,,,,,,,,,,,,,,,,,,,,,,,,,,,,,,,,,,,,,,,,,,,,,,,,,,,,,,,,,,,,,,,,,,,,,,,
,,,,,,,,,,stimuli/images/PICTURE_564.png,BATH,5eebb8b7011d13119025dcf0,06/02/1992,2020-07-08_16h16.39.481,proactive,2020.1.2,Win32,60,5f035e5afe130c270d6ae6dd,5f05e2a01308dd0b4590739e,2,,,,,,spoon,,,,,,0,50,50,26,1,3,1,,,,,,,,,,,,,,,,,,,,,,,,,,,,,,,,,,,,,,,,,,,,,,,,,,,,,,,,,,,,,,,,,,,,,,,,,,,
,,,,,,,,,,stimuli/images/PICTURE_339.png,CLIENT,5eebb8b7011d13119025dcf0,06/02/1992,2020-07-08_16h16.39.481,proactive,2020.1.2,Win32,60,5f035e5afe130c270d6ae6dd,5f05e2a01308dd0b4590739e,2,,,,,,backpack,,,,,,0,51,51,11,1,2,1,,,,,,,,,,,,,,,,,,,,,,,,,,,,,,,,,,,,,,,,,,,,,,,,,,,,,,,,,,,,,,,,,,,,,,,,,,,
,,,,,,,,,,stimuli/images/PICTURE_327.png,SERIES,5eebb8b7011d13119025dcf0,06/02/1992,2020-07-08_16h16.39.481,proactive,2020.1.2,Win32,60,5f035e5afe130c270d6ae6dd,5f05e2a01308dd0b4590739e,2,,,,,,helmet,,,,,,0,52,52,3,1,1,1,,,,,,,,,,,,,,,,,,,,,,,,,,,,,,,,,,,,,,,,,,,,,,,,,,,,,,,,,,,,,,,,,,,,,,,,,,,
,,,,,,,,,,stimuli/images/PICTURE_491.png,RIVER,5eebb8b7011d13119025dcf0,06/02/1992,2020-07-08_16h16.39.481,proactive,2020.1.2,Win32,60,5f035e5afe130c270d6ae6dd,5f05e2a01308dd0b4590739e,2,,,,,,rug,,,,,,0,53,53,6,1,1,1,,,,,,,,,,,,,,,,,,,,,,,,,,,,,,,,,,,,,,,,,,,,,,,,,,,,,,,,,,,,,,,,,,,,,,,,,,,
,,,,,,,,,,stimuli/images/PICTURE_491.png,GLASS,5eebb8b7011d13119025dcf0,06/02/1992,2020-07-08_16h16.39.481,proactive,2020.1.2,Win32,60,5f035e5afe130c270d6ae6dd,5f05e2a01308dd0b4590739e,2,,,,,,rug,,,,,,0,54,54,14,1,2,1,,,,,,,,,,,,,,,,,,,,,,,,,,,,,,,,,,,,,,,,,,,,,,,,,,,,,,,,,,,,,,,,,,,,,,,,,,,
,,,,,,,,,,stimuli/images/PICTURE_380.png,CANDY,5eebb8b7011d13119025dcf0,06/02/1992,2020-07-08_16h16.39.481,proactive,2020.1.2,Win32,60,5f035e5afe130c270d6ae6dd,5f05e2a01308dd0b4590739e,2,,,,,,gorilla,,,,,,0,55,55,0,1,1,1,,,,,,,,,,,,,,,,,,,,,,,,,,,,,,,,,,,,,,,,,,,,,,,,,,,,,,,,,,,,,,,,,,,,,,,,,,,
,,,,,,,,,,stimuli/images/PICTURE_677.png,APPLE,5eebb8b7011d13119025dcf0,06/02/1992,2020-07-08_16h16.39.481,proactive,2020.1.2,Win32,60,5f035e5afe130c270d6ae6dd,5f05e2a01308dd0b4590739e,2,,,,,,map,,,,,,0,56,56,43,1,5,1,,,,,,,,,,,,,,,,,,,,,,,,,,,,,,,,,,,,,,,,,,,,,,,,,,,,,,,,,,,,,,,,,,,,,,,,,,,
,,,,,,,,,,stimuli/images/PICTURE_32.png,PILLS,5eebb8b7011d13119025dcf0,06/02/1992,2020-07-08_16h16.39.481,proactive,2020.1.2,Win32,60,5f035e5afe130c270d6ae6dd,5f05e2a01308dd0b4590739e,2,,,,,,crown,,,,,,0,57,57,18,1,2,1,,,,,,,,,,,,,,,,,,,,,,,,,,,,,,,,,,,,,,,,,,,,,,,,,,,,,,,,,,,,,,,,,,,,,,,,,,,
,,,,,,,,,,stimuli/images/PICTURE_208.png,SYSTEM,5eebb8b7011d13119025dcf0,06/02/1992,2020-07-08_16h16.39.481,proactive,2020.1.2,Win32,60,5f035e5afe130c270d6ae6dd,5f05e2a01308dd0b4590739e,2,,,,,,microphone,,,,,,0,58,58,32,1,4,1,,,,,,,,,,,,,,,,,,,,,,,,,,,,,,,,,,,,,,,,,,,,,,,,,,,,,,,,,,,,,,,,,,,,,,,,,,,
,,?,0.00118,0,,,,,,stimuli/images/PICTURE_57.png,MOMENT,5eebb8b7011d13119025dcf0,06/02/1992,2020-07-08_16h16.39.481,proactive,2020.1.2,Win32,60,5f035e5afe130c270d6ae6dd,5f05e2a01308dd0b4590739e,2,,,,,,stamp,,,,,,,,,,,4,1,0,0,0,37,1,,,,,,,,,,,,,,,,,,,,,,,,,,,,,,,,,,,,,,,,,,,,,,,,,,,,,,,,,,,,,,,,,,,,,,
,,HOTEL,10.01092,0,,,,,,stimuli/images/PICTURE_2.png,FLIGHT,5eebb8b7011d13119025dcf0,06/02/1992,2020-07-08_16h16.39.481,proactive,2020.1.2,Win32,60,5f035e5afe130c270d6ae6dd,5f05e2a01308dd0b4590739e,2,,,,,,tyre,,,,,,,,,,,2,1,0,1,1,15,1,,,,,,,,,,,,,,,,,,,,,,,,,,,,,,,,,,,,,,,,,,,,,,,,,,,,,,,,,,,,,,,,,,,,,,
,,?,0.002155,0,,,,,,stimuli/images/PICTURE_685.png,PENNY,5eebb8b7011d13119025dcf0,06/02/1992,2020-07-08_16h16.39.481,proactive,2020.1.2,Win32,60,5f035e5afe130c270d6ae6dd,5f05e2a01308dd0b4590739e,2,,,,,,goose,,,,,,,,,,,1,1,0,2,2,4,1,,,,,,,,,,,,,,,,,,,,,,,,,,,,,,,,,,,,,,,,,,,,,,,,,,,,,,,,,,,,,,,,,,,,,,
,,?,0.001795,0,,,,,,stimuli/images/PICTURE_68.png,ROOF,5eebb8b7011d13119025dcf0,06/02/1992,2020-07-08_16h16.39.481,proactive,2020.1.2,Win32,60,5f035e5afe130c270d6ae6dd,5f05e2a01308dd0b4590739e,2,,,,,,candle,,,,,,,,,,,4,1,0,3,3,38,1,,,,,,,,,,,,,,,,,,,,,,,,,,,,,,,,,,,,,,,,,,,,,,,,,,,,,,,,,,,,,,,,,,,,,,
,,?,0.001685,0,,,,,,stimuli/images/PICTURE_491.png,RIVER,5eebb8b7011d13119025dcf0,06/02/1992,2020-07-08_16h16.39.481,proactive,2020.1.2,Win32,60,5f035e5afe130c270d6ae6dd,5f05e2a01308dd0b4590739e,2,,,,,,rug,,,,,,,,,,,1,1,0,4,4,6,1,,,,,,,,,,,,,,,,,,,,,,,,,,,,,,,,,,,,,,,,,,,,,,,,,,,,,,,,,,,,,,,,,,,,,,
,,?,0.001205,0,,,,,,stimuli/images/PICTURE_383.png,SERIES,5eebb8b7011d13119025dcf0,06/02/1992,2020-07-08_16h16.39.481,proactive,2020.1.2,Win32,60,5f035e5afe130c270d6ae6dd,5f05e2a01308dd0b4590739e,2,,,,,,coin,,,,,,,,,,,5,1,0,5,5,46,1,,,,,,,,,,,,,,,,,,,,,,,,,,,,,,,,,,,,,,,,,,,,,,,,,,,,,,,,,,,,,,,,,,,,,,
,,?,0.00106,0,,,,,,stimuli/images/PICTURE_708.png,RECORD,5eebb8b7011d13119025dcf0,06/02/1992,2020-07-08_16h16.39.481,proactive,2020.1.2,Win32,60,5f035e5afe130c270d6ae6dd,5f05e2a01308dd0b4590739e,2,,,,,,monkey,,,,,,,,,,,6,1,0,6,6,58,1,,,,,,,,,,,,,,,,,,,,,,,,,,,,,,,,,,,,,,,,,,,,,,,,,,,,,,,,,,,,,,,,,,,,,,
,,?,0.000995,0,,,,,,stimuli/images/PICTURE_32.png,KIND,5eebb8b7011d13119025dcf0,06/02/1992,2020-07-08_16h16.39.481,proactive,2020.1.2,Win32,60,5f035e5afe130c270d6ae6dd,5f05e2a01308dd0b4590739e,2,,,,,,crown,,,,,,,,,,,4,1,0,7,7,35,1,,,,,,,,,,,,,,,,,,,,,,,,,,,,,,,,,,,,,,,,,,,,,,,,,,,,,,,,,,,,,,,,,,,,,,
,,?,0.000925,0,,,,,,stimuli/images/PICTURE_675.png,SALE,5eebb8b7011d13119025dcf0,06/02/1992,2020-07-08_16h16.39.481,proactive,2020.1.2,Win32,60,5f035e5afe130c270d6ae6dd,5f05e2a01308dd0b4590739e,2,,,,,,windmill,,,,,,,,,,,5,1,0,8,8,47,1,,,,,,,,,,,,,,,,,,,,,,,,,,,,,,,,,,,,,,,,,,,,,,,,,,,,,,,,,,,,,,,,,,,,,,
,,?,0.000945,0,,,,,,stimuli/images/PICTURE_504.png,COPS,5eebb8b7011d13119025dcf0,06/02/1992,2020-07-08_16h16.39.481,proactive,2020.1.2,Win32,60,5f035e5afe130c270d6ae6dd,5f05e2a01308dd0b4590739e,2,,,,,,wheel,,,,,,,,,,,6,1,0,9,9,52,1,,,,,,,,,,,,,,,,,,,,,,,,,,,,,,,,,,,,,,,,,,,,,,,,,,,,,,,,,,,,,,,,,,,,,,
,,?,0.000985,0,,,,,,stimuli/images/PICTURE_340.png,VALLEY,5eebb8b7011d13119025dcf0,06/02/1992,2020-07-08_16h16.39.481,proactive,2020.1.2,Win32,60,5f035e5afe130c270d6ae6dd,5f05e2a01308dd0b4590739e,2,,,,,,mirror,,,,,,,,,,,6,1,0,10,10,54,1,,,,,,,,,,,,,,,,,,,,,,,,,,,,,,,,,,,,,,,,,,,,,,,,,,,,,,,,,,,,,,,,,,,,,,
,,?,0.0012,0,,,,,,stimuli/images/PICTURE_380.png,CANDY,5eebb8b7011d13119025dcf0,06/02/1992,2020-07-08_16h16.39.481,proactive,2020.1.2,Win32,60,5f035e5afe130c270d6ae6dd,5f05e2a01308dd0b4590739e,2,,,,,,gorilla,,,,,,,,,,,1,1,0,11,11,0,1,,,,,,,,,,,,,,,,,,,,,,,,,,,,,,,,,,,,,,,,,,,,,,,,,,,,,,,,,,,,,,,,,,,,,,
,,?,0.00095,0,,,,,,stimuli/images/PICTURE_654.png,MONTH,5eebb8b7011d13119025dcf0,06/02/1992,2020-07-08_16h16.39.481,proactive,2020.1.2,Win32,60,5f035e5afe130c270d6ae6dd,5f05e2a01308dd0b4590739e,2,,,,,,pencil,,,,,,,,,,,3,1,0,12,12,29,1,,,,,,,,,,,,,,,,,,,,,,,,,,,,,,,,,,,,,,,,,,,,,,,,,,,,,,,,,,,,,,,,,,,,,,
,,?,0.001045,0,,,,,,stimuli/images/PICTURE_504.png,ARTIST,5eebb8b7011d13119025dcf0,06/02/1992,2020-07-08_16h16.39.481,proactive,2020.1.2,Win32,60,5f035e5afe130c270d6ae6dd,5f05e2a01308dd0b4590739e,2,,,,,,wheel,,,,,,,,,,,5,1,0,13,13,49,1,,,,,,,,,,,,,,,,,,,,,,,,,,,,,,,,,,,,,,,,,,,,,,,,,,,,,,,,,,,,,,,,,,,,,,
,,?,0.000945,0,,,,,,stimuli/images/PICTURE_744.png,WEAPON,5eebb8b7011d13119025dcf0,06/02/1992,2020-07-08_16h16.39.481,proactive,2020.1.2,Win32,60,5f035e5afe130c270d6ae6dd,5f05e2a01308dd0b4590739e,2,,,,,,ring,,,,,,,,,,,6,1,0,14,14,50,1,,,,,,,,,,,,,,,,,,,,,,,,,,,,,,,,,,,,,,,,,,,,,,,,,,,,,,,,,,,,,,,,,,,,,,
,,DUDE,10.01449,1,,,,,,stimuli/images/PICTURE_449.png,DUDE,5eebb8b7011d13119025dcf0,06/02/1992,2020-07-08_16h16.39.481,proactive,2020.1.2,Win32,60,5f035e5afe130c270d6ae6dd,5f05e2a01308dd0b4590739e,2,,,,,,bench,,,,,,,,,,,2,1,0,15,15,17,1,,,,,,,,,,,,,,,,,,,,,,,,,,,,,,,,,,,,,,,,,,,,,,,,,,,,,,,,,,,,,,,,,,,,,,
,,?,0.000895,0,,,,,,stimuli/images/PICTURE_203.png,NIGHT,5eebb8b7011d13119025dcf0,06/02/1992,2020-07-08_16h16.39.481,proactive,2020.1.2,Win32,60,5f035e5afe130c270d6ae6dd,5f05e2a01308dd0b4590739e,2,,,,,,cap,,,,,,,,,,,1,1,0,16,16,2,1,,,,,,,,,,,,,,,,,,,,,,,,,,,,,,,,,,,,,,,,,,,,,,,,,,,,,,,,,,,,,,,,,,,,,,
,,?,0.00092,0,,,,,,stimuli/images/PICTURE_68.png,MILE,5eebb8b7011d13119025dcf0,06/02/1992,2020-07-08_16h16.39.481,proactive,2020.1.2,Win32,60,5f035e5afe130c270d6ae6dd,5f05e2a01308dd0b4590739e,2,,,,,,candle,,,,,,,,,,,6,1,0,17,17,51,1,,,,,,,,,,,,,,,,,,,,,,,,,,,,,,,,,,,,,,,,,,,,,,,,,,,,,,,,,,,,,,,,,,,,,,
,,?,0.000735,0,,,,,,stimuli/images/PICTURE_677.png,APPLE,5eebb8b7011d13119025dcf0,06/02/1992,2020-07-08_16h16.39.481,proactive,2020.1.2,Win32,60,5f035e5afe130c270d6ae6dd,5f05e2a01308dd0b4590739e,2,,,,,,map,,,,,,,,,,,5,1,0,18,18,43,1,,,,,,,,,,,,,,,,,,,,,,,,,,,,,,,,,,,,,,,,,,,,,,,,,,,,,,,,,,,,,,,,,,,,,,
,,?,0.000695,0,,,,,,stimuli/images/PICTURE_95.png,HONEY,5eebb8b7011d13119025dcf0,06/02/1992,2020-07-08_16h16.39.481,proactive,2020.1.2,Win32,60,5f035e5afe130c270d6ae6dd,5f05e2a01308dd0b4590739e,2,,,,,,suitcase,,,,,,,,,,,5,1,0,19,19,44,1,,,,,,,,,,,,,,,,,,,,,,,,,,,,,,,,,,,,,,,,,,,,,,,,,,,,,,,,,,,,,,,,,,,,,,
,,?,0.00073,0,,,,,,stimuli/images/PICTURE_403.png,WRITER,5eebb8b7011d13119025dcf0,06/02/1992,2020-07-08_16h16.39.481,proactive,2020.1.2,Win32,60,5f035e5afe130c270d6ae6dd,5f05e2a01308dd0b4590739e,2,,,,,,cathedral,,,,,,,,,,,4,1,0,20,20,31,1,,,,,,,,,,,,,,,,,,,,,,,,,,,,,,,,,,,,,,,,,,,,,,,,,,,,,,,,,,,,,,,,,,,,,,
,,?,0.00072,0,,,,,,stimuli/images/PICTURE_95.png,BOYS,5eebb8b7011d13119025dcf0,06/02/1992,2020-07-08_16h16.39.481,proactive,2020.1.2,Win32,60,5f035e5afe130c270d6ae6dd,5f05e2a01308dd0b4590739e,2,,,,,,suitcase,,,,,,,,,,,1,1,0,21,21,1,1,,,,,,,,,,,,,,,,,,,,,,,,,,,,,,,,,,,,,,,,,,,,,,,,,,,,,,,,,,,,,,,,,,,,,,
,,?,0.00069,0,,,,,,stimuli/images/PICTURE_296.png,LIFE,5eebb8b7011d13119025dcf0,06/02/1992,2020-07-08_16h16.39.481,proactive,2020.1.2,Win32,60,5f035e5afe130c270d6ae6dd,5f05e2a01308dd0b4590739e,2,,,,,,bolt,,,,,,,,,,,6,1,0,22,22,57,1,,,,,,,,,,,,,,,,,,,,,,,,,,,,,,,,,,,,,,,,,,,,,,,,,,,,,,,,,,,,,,,,,,,,,,
,,?,0.001225,0,,,,,,stimuli/images/PICTURE_750.png,HOTEL,5eebb8b7011d13119025dcf0,06/02/1992,2020-07-08_16h16.39.481,proactive,2020.1.2,Win32,60,5f035e5afe130c270d6ae6dd,5f05e2a01308dd0b4590739e,2,,,,,,kettle,,,,,,,,,,,3,1,0,23,23,27,1,,,,,,,,,,,,,,,,,,,,,,,,,,,,,,,,,,,,,,,,,,,,,,,,,,,,,,,,,,,,,,,,,,,,,,
,,?,0.00151,0,,,,,,stimuli/images/PICTURE_403.png,TOILET,5eebb8b7011d13119025dcf0,06/02/1992,2020-07-08_16h16.39.481,proactive,2020.1.2,Win32,60,5f035e5afe130c270d6ae6dd,5f05e2a01308dd0b4590739e,2,,,,,,cathedral,,,,,,,,,,,3,1,0,24,24,25,1,,,,,,,,,,,,,,,,,,,,,,,,,,,,,,,,,,,,,,,,,,,,,,,,,,,,,,,,,,,,,,,,,,,,,,
,,FLIGHT,10.003385,0,,,,,,stimuli/images/PICTURE_667.png,RIVER,5eebb8b7011d13119025dcf0,06/02/1992,2020-07-08_16h16.39.481,proactive,2020.1.2,Win32,60,5f035e5afe130c270d6ae6dd,5f05e2a01308dd0b4590739e,2,,,,,,daisy,,,,,,,,,,,2,1,0,25,25,10,1,,,,,,,,,,,,,,,,,,,,,,,,,,,,,,,,,,,,,,,,,,,,,,,,,,,,,,,,,,,,,,,,,,,,,,
,,?,0.00062,0,,,,,,stimuli/images/PICTURE_308.png,FAMILY,5eebb8b7011d13119025dcf0,06/02/1992,2020-07-08_16h16.39.481,proactive,2020.1.2,Win32,60,5f035e5afe130c270d6ae6dd,5f05e2a01308dd0b4590739e,2,,,,,,dice,,,,,,,,,,,4,1,0,26,26,36,1,,,,,,,,,,,,,,,,,,,,,,,,,,,,,,,,,,,,,,,,,,,,,,,,,,,,,,,,,,,,,,,,,,,,,,
,,?,0.000515,0,,,,,,stimuli/images/PICTURE_85.png,TOILET,5eebb8b7011d13119025dcf0,06/02/1992,2020-07-08_16h16.39.481,proactive,2020.1.2,Win32,60,5f035e5afe130c270d6ae6dd,5f05e2a01308dd0b4590739e,2,,,,,,diamond,,,,,,,,,,,5,1,0,27,27,48,1,,,,,,,,,,,,,,,,,,,,,,,,,,,,,,,,,,,,,,,,,,,,,,,,,,,,,,,,,,,,,,,,,,,,,,
,,?,0.00059,0,,,,,,stimuli/images/PICTURE_467.png,POLICY,5eebb8b7011d13119025dcf0,06/02/1992,2020-07-08_16h16.39.481,proactive,2020.1.2,Win32,60,5f035e5afe130c270d6ae6dd,5f05e2a01308dd0b4590739e,2,,,,,,peg,,,,,,,,,,,6,1,0,28,28,53,1,,,,,,,,,,,,,,,,,,,,,,,,,,,,,,,,,,,,,,,,,,,,,,,,,,,,,,,,,,,,,,,,,,,,,,
,,?,0.000565,0,,,,,,stimuli/images/PICTURE_33.png,FRIEND,5eebb8b7011d13119025dcf0,06/02/1992,2020-07-08_16h16.39.481,proactive,2020.1.2,Win32,60,5f035e5afe130c270d6ae6dd,5f05e2a01308dd0b4590739e,2,,,,,,frame,,,,,,,,,,,1,1,0,29,29,8,1,,,,,,,,,,,,,,,,,,,,,,,,,,,,,,,,,,,,,,,,,,,,,,,,,,,,,,,,,,,,,,,,,,,,,,
,,?,0.000555,0,,,,,,stimuli/images/PICTURE_296.png,LOTS,5eebb8b7011d13119025dcf0,06/02/1992,2020-07-08_16h16.39.481,proactive,2020.1.2,Win32,60,5f035e5afe130c270d6ae6dd,5f05e2a01308dd0b4590739e,2,,,,,,bolt,,,,,,,,,,,1,1,0,30,30,9,1,,,,,,,,,,,,,,,,,,,,,,,,,,,,,,,,,,,,,,,,,,,,,,,,,,,,,,,,,,,,,,,,,,,,,,
,,HOTEL,10.01462,0,,,,,,stimuli/images/PICTURE_339.png,CLIENT,5eebb8b7011d13119025dcf0,06/02/1992,2020-07-08_16h16.39.481,proactive,2020.1.2,Win32,60,5f035e5afe130c270d6ae6dd,5f05e2a01308dd0b4590739e,2,,,,,,backpack,,,,,,,,,,,2,1,0,31,31,11,1,,,,,,,,,,,,,,,,,,,,,,,,,,,,,,,,,,,,,,,,,,,,,,,,,,,,,,,,,,,,,,,,,,,,,,
,,?,0.000995,0,,,,,,stimuli/images/PICTURE_108.png,FLIGHT,5eebb8b7011d13119025dcf0,06/02/1992,2020-07-08_16h16.39.481,proactive,2020.1.2,Win32,60,5f035e5afe130c270d6ae6dd,5f05e2a01308dd0b4590739e,2,,,,,,calendar,,,,,,,,,,,6,1,0,32,32,59,1,,,,,,,,,,,,,,,,,,,,,,,,,,,,,,,,,,,,,,,,,,,,,,,,,,,,,,,,,,,,,,,,,,,,,,
,,RIVER,10.003825,0,,,,,,stimuli/images/PICTURE_380.png,HONEY,5eebb8b7011d13119025dcf0,06/02/1992,2020-07-08_16h16.39.481,proactive,2020.1.2,Win32,60,5f035e5afe130c270d6ae6dd,5f05e2a01308dd0b4590739e,2,,,,,,gorilla,,,,,,,,,,,2,1,0,33,33,19,1,,,,,,,,,,,,,,,,,,,,,,,,,,,,,,,,,,,,,,,,,,,,,,,,,,,,,,,,,,,,,,,,,,,,,,
,,?,0.000935,0,,,,,,stimuli/images/PICTURE_85.png,NATION,5eebb8b7011d13119025dcf0,06/02/1992,2020-07-08_16h16.39.481,proactive,2020.1.2,Win32,60,5f035e5afe130c270d6ae6dd,5f05e2a01308dd0b4590739e,2,,,,,,diamond,,,,,,,,,,,1,1,0,34,34,5,1,,,,,,,,,,,,,,,,,,,,,,,,,,,,,,,,,,,,,,,,,,,,,,,,,,,,,,,,,,,,,,,,,,,,,,
,,?,0.00077,0,,,,,,stimuli/images/PICTURE_208.png,SYSTEM,5eebb8b7011d13119025dcf0,06/02/1992,2020-07-08_16h16.39.481,proactive,2020.1.2,Win32,60,5f035e5afe130c270d6ae6dd,5f05e2a01308dd0b4590739e,2,,,,,,microphone,,,,,,,,,,,4,1,0,35,35,32,1,,,,,,,,,,,,,,,,,,,,,,,,,,,,,,,,,,,,,,,,,,,,,,,,,,,,,,,,,,,,,,,,,,,,,,
,,?,0.00078,0,,,,,,stimuli/images/PICTURE_203.png,GODS,5eebb8b7011d13119025dcf0,06/02/1992,2020-07-08_16h16.39.481,proactive,2020.1.2,Win32,60,5f035e5afe130c270d6ae6dd,5f05e2a01308dd0b4590739e,2,,,,,,cap,,,,,,,,,,,4,1,0,36,36,30,1,,,,,,,,,,,,,,,,,,,,,,,,,,,,,,,,,,,,,,,,,,,,,,,,,,,,,,,,,,,,,,,,,,,,,,
,,PILLS,10.013415,1,,,,,,stimuli/images/PICTURE_32.png,PILLS,5eebb8b7011d13119025dcf0,06/02/1992,2020-07-08_16h16.39.481,proactive,2020.1.2,Win32,60,5f035e5afe130c270d6ae6dd,5f05e2a01308dd0b4590739e,2,,,,,,crown,,,,,,,,,,,2,1,0,37,37,18,1,,,,,,,,,,,,,,,,,,,,,,,,,,,,,,,,,,,,,,,,,,,,,,,,,,,,,,,,,,,,,,,,,,,,,,
,,?,0.001695,0,,,,,,stimuli/images/PICTURE_147.png,YEAR,5eebb8b7011d13119025dcf0,06/02/1992,2020-07-08_16h16.39.481,proactive,2020.1.2,Win32,60,5f035e5afe130c270d6ae6dd,5f05e2a01308dd0b4590739e,2,,,,,,hanger,,,,,,,,,,,3,1,0,38,38,21,1,,,,,,,,,,,,,,,,,,,,,,,,,,,,,,,,,,,,,,,,,,,,,,,,,,,,,,,,,,,,,,,,,,,,,,
,,?,0.00135,0,,,,,,stimuli/images/PICTURE_403.png,RIVER,5eebb8b7011d13119025dcf0,06/02/1992,2020-07-08_16h16.39.481,proactive,2020.1.2,Win32,60,5f035e5afe130c270d6ae6dd,5f05e2a01308dd0b4590739e,2,,,,,,cathedral,,,,,,,,,,,5,1,0,39,39,40,1,,,,,,,,,,,,,,,,,,,,,,,,,,,,,,,,,,,,,,,,,,,,,,,,,,,,,,,,,,,,,,,,,,,,,,
,,?,0.001365,0,,,,,,stimuli/images/PICTURE_233.png,LOTS,5eebb8b7011d13119025dcf0,06/02/1992,2020-07-08_16h16.39.481,proactive,2020.1.2,Win32,60,5f035e5afe130c270d6ae6dd,5f05e2a01308dd0b4590739e,2,,,,,,salt,,,,,,,,,,,5,1,0,40,40,42,1,,,,,,,,,,,,,,,,,,,,,,,,,,,,,,,,,,,,,,,,,,,,,,,,,,,,,,,,,,,,,,,,,,,,,,
,,?,0.00151,0,,,,,,stimuli/images/PICTURE_95.png,MILLER,5eebb8b7011d13119025dcf0,06/02/1992,2020-07-08_16h16.39.481,proactive,2020.1.2,Win32,60,5f035e5afe130c270d6ae6dd,5f05e2a01308dd0b4590739e,2,,,,,,suitcase,,,,,,,,,,,6,1,0,41,41,56,1,,,,,,,,,,,,,,,,,,,,,,,,,,,,,,,,,,,,,,,,,,,,,,,,,,,,,,,,,,,,,,,,,,,,,,
,,?,0.00156,0,,,,,,stimuli/images/PICTURE_147.png,WOMEN,5eebb8b7011d13119025dcf0,06/02/1992,2020-07-08_16h16.39.481,proactive,2020.1.2,Win32,60,5f035e5afe130c270d6ae6dd,5f05e2a01308dd0b4590739e,2,,,,,,hanger,,,,,,,,,,,1,1,0,42,42,7,1,,,,,,,,,,,,,,,,,,,,,,,,,,,,,,,,,,,,,,,,,,,,,,,,,,,,,,,,,,,,,,,,,,,,,,
,,?,0.00147,0,,,,,,stimuli/images/PICTURE_383.png,WRITER,5eebb8b7011d13119025dcf0,06/02/1992,2020-07-08_16h16.39.481,proactive,2020.1.2,Win32,60,5f035e5afe130c270d6ae6dd,5f05e2a01308dd0b4590739e,2,,,,,,coin,,,,,,,,,,,3,1,0,43,43,28,1,,,,,,,,,,,,,,,,,,,,,,,,,,,,,,,,,,,,,,,,,,,,,,,,,,,,,,,,,,,,,,,,,,,,,,
,,RIVER,10.014605,0,,,,,,stimuli/images/PICTURE_655.png,TOILET,5eebb8b7011d13119025dcf0,06/02/1992,2020-07-08_16h16.39.481,proactive,2020.1.2,Win32,60,5f035e5afe130c270d6ae6dd,5f05e2a01308dd0b4590739e,2,,,,,,megaphone,,,,,,,,,,,2,1,0,44,44,12,1,,,,,,,,,,,,,,,,,,,,,,,,,,,,,,,,,,,,,,,,,,,,,,,,,,,,,,,,,,,,,,,,,,,,,,
,,?,0.00198,0,,,,,,stimuli/images/PICTURE_564.png,BATH,5eebb8b7011d13119025dcf0,06/02/1992,2020-07-08_16h16.39.481,proactive,2020.1.2,Win32,60,5f035e5afe130c270d6ae6dd,5f05e2a01308dd0b4590739e,2,,,,,,spoon,,,,,,,,,,,3,1,0,45,45,26,1,,,,,,,,,,,,,,,,,,,,,,,,,,,,,,,,,,,,,,,,,,,,,,,,,,,,,,,,,,,,,,,,,,,,,,
,,RIVER,10.01633,0,,,,,,stimuli/images/PICTURE_491.png,GLASS,5eebb8b7011d13119025dcf0,06/02/1992,2020-07-08_16h16.39.481,proactive,2020.1.2,Win32,60,5f035e5afe130c270d6ae6dd,5f05e2a01308dd0b4590739e,2,,,,,,rug,,,,,,,,,,,2,1,0,46,46,14,1,,,,,,,,,,,,,,,,,,,,,,,,,,,,,,,,,,,,,,,,,,,,,,,,,,,,,,,,,,,,,,,,,,,,,,
,,RIVER,10.005295,0,,,,,,stimuli/images/PICTURE_504.png,YEAR,5eebb8b7011d13119025dcf0,06/02/1992,2020-07-08_16h16.39.481,proactive,2020.1.2,Win32,60,5f035e5afe130c270d6ae6dd,5f05e2a01308dd0b4590739e,2,,,,,,wheel,,,,,,,,,,,2,1,0,47,47,13,1,,,,,,,,,,,,,,,,,,,,,,,,,,,,,,,,,,,,,,,,,,,,,,,,,,,,,,,,,,,,,,,,,,,,,,
,,?,0.001075,0,,,,,,stimuli/images/PICTURE_405.png,YEAR,5eebb8b7011d13119025dcf0,06/02/1992,2020-07-08_16h16.39.481,proactive,2020.1.2,Win32,60,5f035e5afe130c270d6ae6dd,5f05e2a01308dd0b4590739e,2,,,,,,anchor,,,,,,,,,,,4,1,0,48,48,34,1,,,,,,,,,,,,,,,,,,,,,,,,,,,,,,,,,,,,,,,,,,,,,,,,,,,,,,,,,,,,,,,,,,,,,,
,,?,0.000915,0,,,,,,stimuli/images/PICTURE_42.png,BOYS,5eebb8b7011d13119025dcf0,06/02/1992,2020-07-08_16h16.39.481,proactive,2020.1.2,Win32,60,5f035e5afe130c270d6ae6dd,5f05e2a01308dd0b4590739e,2,,,,,,pear,,,,,,,,,,,6,1,0,49,49,55,1,,,,,,,,,,,,,,,,,,,,,,,,,,,,,,,,,,,,,,,,,,,,,,,,,,,,,,,,,,,,,,,,,,,,,,
,,?,0.001125,0,,,,,,stimuli/images/PICTURE_405.png,PLENTY,5eebb8b7011d13119025dcf0,06/02/1992,2020-07-08_16h16.39.481,proactive,2020.1.2,Win32,60,5f035e5afe130c270d6ae6dd,5f05e2a01308dd0b4590739e,2,,,,,,anchor,,,,,,,,,,,3,1,0,50,50,23,1,,,,,,,,,,,,,,,,,,,,,,,,,,,,,,,,,,,,,,,,,,,,,,,,,,,,,,,,,,,,,,,,,,,,,,
,,HOTEL,10.01426,0,,,,,,stimuli/images/PICTURE_469.png,AGENT,5eebb8b7011d13119025dcf0,06/02/1992,2020-07-08_16h16.39.481,proactive,2020.1.2,Win32,60,5f035e5afe130c270d6ae6dd,5f05e2a01308dd0b4590739e,2,,,,,,stool,,,,,,,,,,,2,1,0,51,51,16,1,,,,,,,,,,,,,,,,,,,,,,,,,,,,,,,,,,,,,,,,,,,,,,,,,,,,,,,,,,,,,,,,,,,,,,
,,?,0.000855,0,,,,,,stimuli/images/PICTURE_108.png,POLICY,5eebb8b7011d13119025dcf0,06/02/1992,2020-07-08_16h16.39.481,proactive,2020.1.2,Win32,60,5f035e5afe130c270d6ae6dd,5f05e2a01308dd0b4590739e,2,,,,,,calendar,,,,,,,,,,,3,1,0,52,52,22,1,,,,,,,,,,,,,,,,,,,,,,,,,,,,,,,,,,,,,,,,,,,,,,,,,,,,,,,,,,,,,,,,,,,,,,
,,?,0.0007,0,,,,,,stimuli/images/PICTURE_340.png,LETTER,5eebb8b7011d13119025dcf0,06/02/1992,2020-07-08_16h16.39.481,proactive,2020.1.2,Win32,60,5f035e5afe130c270d6ae6dd,5f05e2a01308dd0b4590739e,2,,,,,,mirror,,,,,,,,,,,3,1,0,53,53,24,1,,,,,,,,,,,,,,,,,,,,,,,,,,,,,,,,,,,,,,,,,,,,,,,,,,,,,,,,,,,,,,,,,,,,,,
,,?,0.00083,0,,,,,,stimuli/images/PICTURE_327.png,CASINO,5eebb8b7011d13119025dcf0,06/02/1992,2020-07-08_16h16.39.481,proactive,2020.1.2,Win32,60,5f035e5afe130c270d6ae6dd,5f05e2a01308dd0b4590739e,2,,,,,,helmet,,,,,,,,,,,3,1,0,54,54,20,1,,,,,,,,,,,,,,,,,,,,,,,,,,,,,,,,,,,,,,,,,,,,,,,,,,,,,,,,,,,,,,,,,,,,,,
,,?,0.000675,0,,,,,,stimuli/images/PICTURE_177.png,WRITER,5eebb8b7011d13119025dcf0,06/02/1992,2020-07-08_16h16.39.481,proactive,2020.1.2,Win32,60,5f035e5afe130c270d6ae6dd,5f05e2a01308dd0b4590739e,2,,,,,,mushroom,,,,,,,,,,,5,1,0,55,55,41,1,,,,,,,,,,,,,,,,,,,,,,,,,,,,,,,,,,,,,,,,,,,,,,,,,,,,,,,,,,,,,,,,,,,,,,
,,?,0.00065,0,,,,,,stimuli/images/PICTURE_487.png,GIRL,5eebb8b7011d13119025dcf0,06/02/1992,2020-07-08_16h16.39.481,proactive,2020.1.2,Win32,60,5f035e5afe130c270d6ae6dd,5f05e2a01308dd0b4590739e,2,,,,,,basket,,,,,,,,,,,5,1,0,56,56,45,1,,,,,,,,,,,,,,,,,,,,,,,,,,,,,,,,,,,,,,,,,,,,,,,,,,,,,,,,,,,,,,,,,,,,,,
,,?,0.00072,0,,,,,,stimuli/images/PICTURE_297.png,RIVER,5eebb8b7011d13119025dcf0,06/02/1992,2020-07-08_16h16.39.481,proactive,2020.1.2,Win32,60,5f035e5afe130c270d6ae6dd,5f05e2a01308dd0b4590739e,2,,,,,,aeroplane,,,,,,,,,,,4,1,0,57,57,39,1,,,,,,,,,,,,,,,,,,,,,,,,,,,,,,,,,,,,,,,,,,,,,,,,,,,,,,,,,,,,,,,,,,,,,,
,,?,0.00071,0,,,,,,stimuli/images/PICTURE_327.png,SERIES,5eebb8b7011d13119025dcf0,06/02/1992,2020-07-08_16h16.39.481,proactive,2020.1.2,Win32,60,5f035e5afe130c270d6ae6dd,5f05e2a01308dd0b4590739e,2,,,,,,helmet,,,,,,,,,,,1,1,0,58,58,3,1,,,,,,,,,,,,,,,,,,,,,,,,,,,,,,,,,,,,,,,,,,,,,,,,,,,,,,,,,,,,,,,,,,,,,,
,,?,0.000725,0,,,,,,stimuli/images/PICTURE_285.png,LIFE,5eebb8b7011d13119025dcf0,06/02/1992,2020-07-08_16h16.39.481,proactive,2020.1.2,Win32,60,5f035e5afe130c270d6ae6dd,5f05e2a01308dd0b4590739e,2,,,,,,carrot,,,,,,,,,,,4,1,0,59,59,33,1,,,,,,,,,,,,,,,,,,,,,,,,,,,,,,,,,,,,,,,,,,,,,,,,,,,,,,,,,,,,,,,,,,,,,,
,,,,,,,,,,,,5eebb8b7011d13119025dcf0,06/02/1992,2020-07-08_16h16.39.481,proactive,2020.1.2,Win32,60,5f035e5afe130c270d6ae6dd,5f05e2a01308dd0b4590739e,2,,,,,,,,,,,,,,,,,,,,,,,,0,1,1,1,1,stimuli/learn-block2.csv,,,,,,,,,,,,,,,,,,,,,,,,,,,,,,,,,,,,,,,,,,,,,,,,,,,,,,,,,,,,,,,,
,,,,,,,,,,stimuli/images/PICTURE_177.png,CARS,5eebb8b7011d13119025dcf0,06/02/1992,2020-07-08_16h16.39.481,proactive,2020.1.2,Win32,60,5f035e5afe130c270d6ae6dd,5f05e2a01308dd0b4590739e,2,,,,,,mushroom,,,,,,0,0,0,35,1,4,0,,,,,,,,,,,,,,,,,,,,,,,,,,,,,,,,,,,,,,,,,,,,,,,,,,,,,,,,,,,,,,,,,,,,,,,,,,,
,,,,,,,,,,stimuli/images/PICTURE_453.png,PLENTY,5eebb8b7011d13119025dcf0,06/02/1992,2020-07-08_16h16.39.481,proactive,2020.1.2,Win32,60,5f035e5afe130c270d6ae6dd,5f05e2a01308dd0b4590739e,2,,,,,,scissors,,,,,,0,1,1,56,1,6,0,,,,,,,,,,,,,,,,,,,,,,,,,,,,,,,,,,,,,,,,,,,,,,,,,,,,,,,,,,,,,,,,,,,,,,,,,,,
,,,,,,,,,,stimuli/images/PICTURE_453.png,DUDE,5eebb8b7011d13119025dcf0,06/02/1992,2020-07-08_16h16.39.481,proactive,2020.1.2,Win32,60,5f035e5afe130c270d6ae6dd,5f05e2a01308dd0b4590739e,2,,,,,,scissors,,,,,,0,2,2,27,1,3,0,,,,,,,,,,,,,,,,,,,,,,,,,,,,,,,,,,,,,,,,,,,,,,,,,,,,,,,,,,,,,,,,,,,,,,,,,,,
,,,,,,,,,,stimuli/images/PICTURE_491.png,ROOF,5eebb8b7011d13119025dcf0,06/02/1992,2020-07-08_16h16.39.481,proactive,2020.1.2,Win32,60,5f035e5afe130c270d6ae6dd,5f05e2a01308dd0b4590739e,2,,,,,,rug,,,,,,0,3,3,24,1,3,0,,,,,,,,,,,,,,,,,,,,,,,,,,,,,,,,,,,,,,,,,,,,,,,,,,,,,,,,,,,,,,,,,,,,,,,,,,,
,,,,,,,,,,stimuli/images/PICTURE_311.png,FRIEND,5eebb8b7011d13119025dcf0,06/02/1992,2020-07-08_16h16.39.481,proactive,2020.1.2,Win32,60,5f035e5afe130c270d6ae6dd,5f05e2a01308dd0b4590739e,2,,,,,,razor,,,,,,0,4,4,34,1,4,0,,,,,,,,,,,,,,,,,,,,,,,,,,,,,,,,,,,,,,,,,,,,,,,,,,,,,,,,,,,,,,,,,,,,,,,,,,,
,,,,,,,,,,stimuli/images/PICTURE_708.png,CLIENT,5eebb8b7011d13119025dcf0,06/02/1992,2020-07-08_16h16.39.481,proactive,2020.1.2,Win32,60,5f035e5afe130c270d6ae6dd,5f05e2a01308dd0b4590739e,2,,,,,,monkey,,,,,,0,5,5,5,1,1,0,,,,,,,,,,,,,,,,,,,,,,,,,,,,,,,,,,,,,,,,,,,,,,,,,,,,,,,,,,,,,,,,,,,,,,,,,,,
,,,,,,,,,,stimuli/images/PICTURE_308.png,ESTATE,5eebb8b7011d13119025dcf0,06/02/1992,2020-07-08_16h16.39.481,proactive,2020.1.2,Win32,60,5f035e5afe130c270d6ae6dd,5f05e2a01308dd0b4590739e,2,,,,,,dice,,,,,,0,6,6,46,1,5,0,,,,,,,,,,,,,,,,,,,,,,,,,,,,,,,,,,,,,,,,,,,,,,,,,,,,,,,,,,,,,,,,,,,,,,,,,,,
,,,,,,,,,,stimuli/images/PICTURE_509.png,PHOTO,5eebb8b7011d13119025dcf0,06/02/1992,2020-07-08_16h16.39.481,proactive,2020.1.2,Win32,60,5f035e5afe130c270d6ae6dd,5f05e2a01308dd0b4590739e,2,,,,,,telephone,,,,,,0,7,7,21,1,3,0,,,,,,,,,,,,,,,,,,,,,,,,,,,,,,,,,,,,,,,,,,,,,,,,,,,,,,,,,,,,,,,,,,,,,,,,,,,
,,,,,,,,,,stimuli/images/PICTURE_488.png,STYLE,5eebb8b7011d13119025dcf0,06/02/1992,2020-07-08_16h16.39.481,proactive,2020.1.2,Win32,60,5f035e5afe130c270d6ae6dd,5f05e2a01308dd0b4590739e,2,,,,,,sun,,,,,,0,8,8,33,1,4,0,,,,,,,,,,,,,,,,,,,,,,,,,,,,,,,,,,,,,,,,,,,,,,,,,,,,,,,,,,,,,,,,,,,,,,,,,,,
,,,,,,,,,,stimuli/images/PICTURE_380.png,PHOTO,5eebb8b7011d13119025dcf0,06/02/1992,2020-07-08_16h16.39.481,proactive,2020.1.2,Win32,60,5f035e5afe130c270d6ae6dd,5f05e2a01308dd0b4590739e,2,,,,,,gorilla,,,,,,0,9,9,52,1,6,0,,,,,,,,,,,,,,,,,,,,,,,,,,,,,,,,,,,,,,,,,,,,,,,,,,,,,,,,,,,,,,,,,,,,,,,,,,,
,,,,,,,,,,stimuli/images/PICTURE_85.png,THING,5eebb8b7011d13119025dcf0,06/02/1992,2020-07-08_16h16.39.481,proactive,2020.1.2,Win32,60,5f035e5afe130c270d6ae6dd,5f05e2a01308dd0b4590739e,2,,,,,,diamond,,,,,,0,10,10,15,1,2,0,,,,,,,,,,,,,,,,,,,,,,,,,,,,,,,,,,,,,,,,,,,,,,,,,,,,,,,,,,,,,,,,,,,,,,,,,,,
,,,,,,,,,,stimuli/images/PICTURE_491.png,WRITER,5eebb8b7011d13119025dcf0,06/02/1992,2020-07-08_16h16.39.481,proactive,2020.1.2,Win32,60,5f035e5afe130c270d6ae6dd,5f05e2a01308dd0b4590739e,2,,,,,,rug,,,,,,0,11,11,57,1,6,0,,,,,,,,,,,,,,,,,,,,,,,,,,,,,,,,,,,,,,,,,,,,,,,,,,,,,,,,,,,,,,,,,,,,,,,,,,,
,,,,,,,,,,stimuli/images/PICTURE_708.png,YARD,5eebb8b7011d13119025dcf0,06/02/1992,2020-07-08_16h16.39.481,proactive,2020.1.2,Win32,60,5f035e5afe130c270d6ae6dd,5f05e2a01308dd0b4590739e,2,,,,,,monkey,,,,,,0,12,12,29,1,3,0,,,,,,,,,,,,,,,,,,,,,,,,,,,,,,,,,,,,,,,,,,,,,,,,,,,,,,,,,,,,,,,,,,,,,,,,,,,
,,,,,,,,,,stimuli/images/PICTURE_95.png,STYLE,5eebb8b7011d13119025dcf0,06/02/1992,2020-07-08_16h16.39.481,proactive,2020.1.2,Win32,60,5f035e5afe130c270d6ae6dd,5f05e2a01308dd0b4590739e,2,,,,,,suitcase,,,,,,0,13,13,25,1,3,0,,,,,,,,,,,,,,,,,,,,,,,,,,,,,,,,,,,,,,,,,,,,,,,,,,,,,,,,,,,,,,,,,,,,,,,,,,,
,,,,,,,,,,stimuli/images/PICTURE_449.png,THING,5eebb8b7011d13119025dcf0,06/02/1992,2020-07-08_16h16.39.481,proactive,2020.1.2,Win32,60,5f035e5afe130c270d6ae6dd,5f05e2a01308dd0b4590739e,2,,,,,,bench,,,,,,0,14,14,59,1,6,0,,,,,,,,,,,,,,,,,,,,,,,,,,,,,,,,,,,,,,,,,,,,,,,,,,,,,,,,,,,,,,,,,,,,,,,,,,,
,,,,,,,,,,stimuli/images/PICTURE_677.png,MILE,5eebb8b7011d13119025dcf0,06/02/1992,2020-07-08_16h16.39.481,proactive,2020.1.2,Win32,60,5f035e5afe130c270d6ae6dd,5f05e2a01308dd0b4590739e,2,,,,,,map,,,,,,0,15,15,30,1,4,0,,,,,,,,,,,,,,,,,,,,,,,,,,,,,,,,,,,,,,,,,,,,,,,,,,,,,,,,,,,,,,,,,,,,,,,,,,,
,,,,,,,,,,stimuli/images/PICTURE_654.png,VALLEY,5eebb8b7011d13119025dcf0,06/02/1992,2020-07-08_16h16.39.481,proactive,2020.1.2,Win32,60,5f035e5afe130c270d6ae6dd,5f05e2a01308dd0b4590739e,2,,,,,,pencil,,,,,,0,16,16,1,1,1,0,,,,,,,,,,,,,,,,,,,,,,,,,,,,,,,,,,,,,,,,,,,,,,,,,,,,,,,,,,,,,,,,,,,,,,,,,,,
,,,,,,,,,,stimuli/images/PICTURE_470.png,CASINO,5eebb8b7011d13119025dcf0,06/02/1992,2020-07-08_16h16.39.481,proactive,2020.1.2,Win32,60,5f035e5afe130c270d6ae6dd,5f05e2a01308dd0b4590739e,2,,,,,,motorbike,,,,,,0,17,17,36,1,4,0,,,,,,,,,,,,,,,,,,,,,,,,,,,,,,,,,,,,,,,,,,,,,,,,,,,,,,,,,,,,,,,,,,,,,,,,,,,
,,,,,,,,,,stimuli/images/PICTURE_692.png,MONTH,5eebb8b7011d13119025dcf0,06/02/1992,2020-07-08_16h16.39.481,proactive,2020.1.2,Win32,60,5f035e5afe130c270d6ae6dd,5f05e2a01308dd0b4590739e,2,,,,,,cherry,,,,,,0,18,18,16,1,2,0,,,,,,,,,,,,,,,,,,,,,,,,,,,,,,,,,,,,,,,,,,,,,,,,,,,,,,,,,,,,,,,,,,,,,,,,,,,
,,,,,,,,,,stimuli/images/PICTURE_123.png,ADVICE,5eebb8b7011d13119025dcf0,06/02/1992,2020-07-08_16h16.39.481,proactive,2020.1.2,Win32,60,5f035e5afe130c270d6ae6dd,5f05e2a01308dd0b4590739e,2,,,,,,dart,,,,,,0,19,19,40,1,5,0,,,,,,,,,,,,,,,,,,,,,,,,,,,,,,,,,,,,,,,,,,,,,,,,,,,,,,,,,,,,,,,,,,,,,,,,,,,
,,,,,,,,,,stimuli/images/PICTURE_203.png,ARTIST,5eebb8b7011d13119025dcf0,06/02/1992,2020-07-08_16h16.39.481,proactive,2020.1.2,Win32,60,5f035e5afe130c270d6ae6dd,5f05e2a01308dd0b4590739e,2,,,,,,cap,,,,,,0,20,20,26,1,3,0,,,,,,,,,,,,,,,,,,,,,,,,,,,,,,,,,,,,,,,,,,,,,,,,,,,,,,,,,,,,,,,,,,,,,,,,,,,
,,,,,,,,,,stimuli/images/PICTURE_160.png,LEADER,5eebb8b7011d13119025dcf0,06/02/1992,2020-07-08_16h16.39.481,proactive,2020.1.2,Win32,60,5f035e5afe130c270d6ae6dd,5f05e2a01308dd0b4590739e,2,,,,,,wheelbarrow,,,,,,0,21,21,3,1,1,0,,,,,,,,,,,,,,,,,,,,,,,,,,,,,,,,,,,,,,,,,,,,,,,,,,,,,,,,,,,,,,,,,,,,,,,,,,,
,,,,,,,,,,stimuli/images/PICTURE_504.png,BODY,5eebb8b7011d13119025dcf0,06/02/1992,2020-07-08_16h16.39.481,proactive,2020.1.2,Win32,60,5f035e5afe130c270d6ae6dd,5f05e2a01308dd0b4590739e,2,,,,,,wheel,,,,,,0,22,22,8,1,1,0,,,,,,,,,,,,,,,,,,,,,,,,,,,,,,,,,,,,,,,,,,,,,,,,,,,,,,,,,,,,,,,,,,,,,,,,,,,
,,,,,,,,,,stimuli/images/PICTURE_233.png,IDEAS,5eebb8b7011d13119025dcf0,06/02/1992,2020-07-08_16h16.39.481,proactive,2020.1.2,Win32,60,5f035e5afe130c270d6ae6dd,5f05e2a01308dd0b4590739e,2,,,,,,salt,,,,,,0,23,23,28,1,3,0,,,,,,,,,,,,,,,,,,,,,,,,,,,,,,,,,,,,,,,,,,,,,,,,,,,,,,,,,,,,,,,,,,,,,,,,,,,
,,,,,,,,,,stimuli/images/PICTURE_327.png,BEAUTY,5eebb8b7011d13119025dcf0,06/02/1992,2020-07-08_16h16.39.481,proactive,2020.1.2,Win32,60,5f035e5afe130c270d6ae6dd,5f05e2a01308dd0b4590739e,2,,,,,,helmet,,,,,,0,24,24,48,1,5,0,,,,,,,,,,,,,,,,,,,,,,,,,,,,,,,,,,,,,,,,,,,,,,,,,,,,,,,,,,,,,,,,,,,,,,,,,,,
,,,,,,,,,,stimuli/images/PICTURE_302.png,FAMILY,5eebb8b7011d13119025dcf0,06/02/1992,2020-07-08_16h16.39.481,proactive,2020.1.2,Win32,60,5f035e5afe130c270d6ae6dd,5f05e2a01308dd0b4590739e,2,,,,,,taxi,,,,,,0,25,25,18,1,2,0,,,,,,,,,,,,,,,,,,,,,,,,,,,,,,,,,,,,,,,,,,,,,,,,,,,,,,,,,,,,,,,,,,,,,,,,,,,
,,,,,,,,,,stimuli/images/PICTURE_708.png,PENNY,5eebb8b7011d13119025dcf0,06/02/1992,2020-07-08_16h16.39.481,proactive,2020.1.2,Win32,60,5f035e5afe130c270d6ae6dd,5f05e2a01308dd0b4590739e,2,,,,,,monkey,,,,,,0,26,26,31,1,4,0,,,,,,,,,,,,,,,,,,,,,,,,,,,,,,,,,,,,,,,,,,,,,,,,,,,,,,,,,,,,,,,,,,,,,,,,,,,
,,,,,,,,,,stimuli/images/PICTURE_469.png,LETTER,5eebb8b7011d13119025dcf0,06/02/1992,2020-07-08_16h16.39.481,proactive,2020.1.2,Win32,60,5f035e5afe130c270d6ae6dd,5f05e2a01308dd0b4590739e,2,,,,,,stool,,,,,,0,27,27,42,1,5,0,,,,,,,,,,,,,,,,,,,,,,,,,,,,,,,,,,,,,,,,,,,,,,,,,,,,,,,,,,,,,,,,,,,,,,,,,,,
,,,,,,,,,,stimuli/images/PICTURE_314.png,SAKE,5eebb8b7011d13119025dcf0,06/02/1992,2020-07-08_16h16.39.481,proactive,2020.1.2,Win32,60,5f035e5afe130c270d6ae6dd,5f05e2a01308dd0b4590739e,2,,,,,,perfume,,,,,,0,28,28,7,1,1,0,,,,,,,,,,,,,,,,,,,,,,,,,,,,,,,,,,,,,,,,,,,,,,,,,,,,,,,,,,,,,,,,,,,,,,,,,,,
,,,,,,,,,,stimuli/images/PICTURE_160.png,FEET,5eebb8b7011d13119025dcf0,06/02/1992,2020-07-08_16h16.39.481,proactive,2020.1.2,Win32,60,5f035e5afe130c270d6ae6dd,5f05e2a01308dd0b4590739e,2,,,,,,wheelbarrow,,,,,,0,29,29,58,1,6,0,,,,,,,,,,,,,,,,,,,,,,,,,,,,,,,,,,,,,,,,,,,,,,,,,,,,,,,,,,,,,,,,,,,,,,,,,,,
,,,,,,,,,,stimuli/images/PICTURE_667.png,PLENTY,5eebb8b7011d13119025dcf0,06/02/1992,2020-07-08_16h16.39.481,proactive,2020.1.2,Win32,60,5f035e5afe130c270d6ae6dd,5f05e2a01308dd0b4590739e,2,,,,,,daisy,,,,,,0,30,30,41,1,5,0,,,,,,,,,,,,,,,,,,,,,,,,,,,,,,,,,,,,,,,,,,,,,,,,,,,,,,,,,,,,,,,,,,,,,,,,,,,
,,,,,,,,,,stimuli/images/PICTURE_123.png,ADVICE,5eebb8b7011d13119025dcf0,06/02/1992,2020-07-08_16h16.39.481,proactive,2020.1.2,Win32,60,5f035e5afe130c270d6ae6dd,5f05e2a01308dd0b4590739e,2,,,,,,dart,,,,,,0,31,31,50,1,6,0,,,,,,,,,,,,,,,,,,,,,,,,,,,,,,,,,,,,,,,,,,,,,,,,,,,,,,,,,,,,,,,,,,,,,,,,,,,
,,,,,,,,,,stimuli/images/PICTURE_487.png,FLIGHT,5eebb8b7011d13119025dcf0,06/02/1992,2020-07-08_16h16.39.481,proactive,2020.1.2,Win32,60,5f035e5afe130c270d6ae6dd,5f05e2a01308dd0b4590739e,2,,,,,,basket,,,,,,0,32,32,9,1,1,0,,,,,,,,,,,,,,,,,,,,,,,,,,,,,,,,,,,,,,,,,,,,,,,,,,,,,,,,,,,,,,,,,,,,,,,,,,,
,,,,,,,,,,stimuli/images/PICTURE_675.png,WEAPON,5eebb8b7011d13119025dcf0,06/02/1992,2020-07-08_16h16.39.481,proactive,2020.1.2,Win32,60,5f035e5afe130c270d6ae6dd,5f05e2a01308dd0b4590739e,2,,,,,,windmill,,,,,,0,33,33,32,1,4,0,,,,,,,,,,,,,,,,,,,,,,,,,,,,,,,,,,,,,,,,,,,,,,,,,,,,,,,,,,,,,,,,,,,,,,,,,,,
,,,,,,,,,,stimuli/images/PICTURE_285.png,ADVICE,5eebb8b7011d13119025dcf0,06/02/1992,2020-07-08_16h16.39.481,proactive,2020.1.2,Win32,60,5f035e5afe130c270d6ae6dd,5f05e2a01308dd0b4590739e,2,,,,,,carrot,,,,,,0,34,34,12,1,2,0,,,,,,,,,,,,,,,,,,,,,,,,,,,,,,,,,,,,,,,,,,,,,,,,,,,,,,,,,,,,,,,,,,,,,,,,,,,
,,,,,,,,,,stimuli/images/PICTURE_208.png,THING,5eebb8b7011d13119025dcf0,06/02/1992,2020-07-08_16h16.39.481,proactive,2020.1.2,Win32,60,5f035e5afe130c270d6ae6dd,5f05e2a01308dd0b4590739e,2,,,,,,microphone,,,,,,0,35,35,47,1,5,0,,,,,,,,,,,,,,,,,,,,,,,,,,,,,,,,,,,,,,,,,,,,,,,,,,,,,,,,,,,,,,,,,,,,,,,,,,,
,,,,,,,,,,stimuli/images/PICTURE_68.png,MILE,5eebb8b7011d13119025dcf0,06/02/1992,2020-07-08_16h16.39.481,proactive,2020.1.2,Win32,60,5f035e5afe130c270d6ae6dd,5f05e2a01308dd0b4590739e,2,,,,,,candle,,,,,,0,36,36,44,1,5,0,,,,,,,,,,,,,,,,,,,,,,,,,,,,,,,,,,,,,,,,,,,,,,,,,,,,,,,,,,,,,,,,,,,,,,,,,,,
,,,,,,,,,,stimuli/images/PICTURE_233.png,WOMEN,5eebb8b7011d13119025dcf0,06/02/1992,2020-07-08_16h16.39.481,proactive,2020.1.2,Win32,60,5f035e5afe130c270d6ae6dd,5f05e2a01308dd0b4590739e,2,,,,,,salt,,,,,,0,37,37,38,1,4,0,,,,,,,,,,,,,,,,,,,,,,,,,,,,,,,,,,,,,,,,,,,,,,,,,,,,,,,,,,,,,,,,,,,,,,,,,,,
,,,,,,,,,,stimuli/images/PICTURE_147.png,MOMENT,5eebb8b7011d13119025dcf0,06/02/1992,2020-07-08_16h16.39.481,proactive,2020.1.2,Win32,60,5f035e5afe130c270d6ae6dd,5f05e2a01308dd0b4590739e,2,,,,,,hanger,,,,,,0,38,38,51,1,6,0,,,,,,,,,,,,,,,,,,,,,,,,,,,,,,,,,,,,,,,,,,,,,,,,,,,,,,,,,,,,,,,,,,,,,,,,,,,
,,,,,,,,,,stimuli/images/PICTURE_744.png,SAKE,5eebb8b7011d13119025dcf0,06/02/1992,2020-07-08_16h16.39.481,proactive,2020.1.2,Win32,60,5f035e5afe130c270d6ae6dd,5f05e2a01308dd0b4590739e,2,,,,,,ring,,,,,,0,39,39,17,1,2,0,,,,,,,,,,,,,,,,,,,,,,,,,,,,,,,,,,,,,,,,,,,,,,,,,,,,,,,,,,,,,,,,,,,,,,,,,,,
,,,,,,,,,,stimuli/images/PICTURE_308.png,KIND,5eebb8b7011d13119025dcf0,06/02/1992,2020-07-08_16h16.39.481,proactive,2020.1.2,Win32,60,5f035e5afe130c270d6ae6dd,5f05e2a01308dd0b4590739e,2,,,,,,dice,,,,,,0,40,40,54,1,6,0,,,,,,,,,,,,,,,,,,,,,,,,,,,,,,,,,,,,,,,,,,,,,,,,,,,,,,,,,,,,,,,,,,,,,,,,,,,
,,,,,,,,,,stimuli/images/PICTURE_32.png,JUNGLE,5eebb8b7011d13119025dcf0,06/02/1992,2020-07-08_16h16.39.481,proactive,2020.1.2,Win32,60,5f035e5afe130c270d6ae6dd,5f05e2a01308dd0b4590739e,2,,,,,,crown,,,,,,0,41,41,45,1,5,0,,,,,,,,,,,,,,,,,,,,,,,,,,,,,,,,,,,,,,,,,,,,,,,,,,,,,,,,,,,,,,,,,,,,,,,,,,,
,,,,,,,,,,stimuli/images/PICTURE_469.png,ARTIST,5eebb8b7011d13119025dcf0,06/02/1992,2020-07-08_16h16.39.481,proactive,2020.1.2,Win32,60,5f035e5afe130c270d6ae6dd,5f05e2a01308dd0b4590739e,2,,,,,,stool,,,,,,0,42,42,6,1,1,0,,,,,,,,,,,,,,,,,,,,,,,,,,,,,,,,,,,,,,,,,,,,,,,,,,,,,,,,,,,,,,,,,,,,,,,,,,,
,,,,,,,,,,stimuli/images/PICTURE_311.png,BEAUTY,5eebb8b7011d13119025dcf0,06/02/1992,2020-07-08_16h16.39.481,proactive,2020.1.2,Win32,60,5f035e5afe130c270d6ae6dd,5f05e2a01308dd0b4590739e,2,,,,,,razor,,,,,,0,43,43,13,1,2,0,,,,,,,,,,,,,,,,,,,,,,,,,,,,,,,,,,,,,,,,,,,,,,,,,,,,,,,,,,,,,,,,,,,,,,,,,,,
,,,,,,,,,,stimuli/images/PICTURE_667.png,BATH,5eebb8b7011d13119025dcf0,06/02/1992,2020-07-08_16h16.39.481,proactive,2020.1.2,Win32,60,5f035e5afe130c270d6ae6dd,5f05e2a01308dd0b4590739e,2,,,,,,daisy,,,,,,0,44,44,4,1,1,0,,,,,,,,,,,,,,,,,,,,,,,,,,,,,,,,,,,,,,,,,,,,,,,,,,,,,,,,,,,,,,,,,,,,,,,,,,,
,,,,,,,,,,stimuli/images/PICTURE_356.png,DANGER,5eebb8b7011d13119025dcf0,06/02/1992,2020-07-08_16h16.39.481,proactive,2020.1.2,Win32,60,5f035e5afe130c270d6ae6dd,5f05e2a01308dd0b4590739e,2,,,,,,pawn,,,,,,0,45,45,55,1,6,0,,,,,,,,,,,,,,,,,,,,,,,,,,,,,,,,,,,,,,,,,,,,,,,,,,,,,,,,,,,,,,,,,,,,,,,,,,,
,,,,,,,,,,stimuli/images/PICTURE_314.png,GODS,5eebb8b7011d13119025dcf0,06/02/1992,2020-07-08_16h16.39.481,proactive,2020.1.2,Win32,60,5f035e5afe130c270d6ae6dd,5f05e2a01308dd0b4590739e,2,,,,,,perfume,,,,,,0,46,46,11,1,2,0,,,,,,,,,,,,,,,,,,,,,,,,,,,,,,,,,,,,,,,,,,,,,,,,,,,,,,,,,,,,,,,,,,,,,,,,,,,
,,,,,,,,,,stimuli/images/PICTURE_467.png,DEMON,5eebb8b7011d13119025dcf0,06/02/1992,2020-07-08_16h16.39.481,proactive,2020.1.2,Win32,60,5f035e5afe130c270d6ae6dd,5f05e2a01308dd0b4590739e,2,,,,,,peg,,,,,,0,47,47,23,1,3,0,,,,,,,,,,,,,,,,,,,,,,,,,,,,,,,,,,,,,,,,,,,,,,,,,,,,,,,,,,,,,,,,,,,,,,,,,,,
,,,,,,,,,,stimuli/images/PICTURE_339.png,PLENTY,5eebb8b7011d13119025dcf0,06/02/1992,2020-07-08_16h16.39.481,proactive,2020.1.2,Win32,60,5f035e5afe130c270d6ae6dd,5f05e2a01308dd0b4590739e,2,,,,,,backpack,,,,,,0,48,48,0,1,1,0,,,,,,,,,,,,,,,,,,,,,,,,,,,,,,,,,,,,,,,,,,,,,,,,,,,,,,,,,,,,,,,,,,,,,,,,,,,
,,,,,,,,,,stimuli/images/PICTURE_208.png,LOTS,5eebb8b7011d13119025dcf0,06/02/1992,2020-07-08_16h16.39.481,proactive,2020.1.2,Win32,60,5f035e5afe130c270d6ae6dd,5f05e2a01308dd0b4590739e,2,,,,,,microphone,,,,,,0,49,49,10,1,2,0,,,,,,,,,,,,,,,,,,,,,,,,,,,,,,,,,,,,,,,,,,,,,,,,,,,,,,,,,,,,,,,,,,,,,,,,,,,
,,,,,,,,,,stimuli/images/PICTURE_248.png,DOZEN,5eebb8b7011d13119025dcf0,06/02/1992,2020-07-08_16h16.39.481,proactive,2020.1.2,Win32,60,5f035e5afe130c270d6ae6dd,5f05e2a01308dd0b4590739e,2,,,,,,cart,,,,,,0,50,50,39,1,4,0,,,,,,,,,,,,,,,,,,,,,,,,,,,,,,,,,,,,,,,,,,,,,,,,,,,,,,,,,,,,,,,,,,,,,,,,,,,
,,,,,,,,,,stimuli/images/PICTURE_688.png,CASINO,5eebb8b7011d13119025dcf0,06/02/1992,2020-07-08_16h16.39.481,proactive,2020.1.2,Win32,60,5f035e5afe130c270d6ae6dd,5f05e2a01308dd0b4590739e,2,,,,,,runner,,,,,,0,51,51,2,1,1,0,,,,,,,,,,,,,,,,,,,,,,,,,,,,,,,,,,,,,,,,,,,,,,,,,,,,,,,,,,,,,,,,,,,,,,,,,,,
,,,,,,,,,,stimuli/images/PICTURE_208.png,MONTH,5eebb8b7011d13119025dcf0,06/02/1992,2020-07-08_16h16.39.481,proactive,2020.1.2,Win32,60,5f035e5afe130c270d6ae6dd,5f05e2a01308dd0b4590739e,2,,,,,,microphone,,,,,,0,52,52,53,1,6,0,,,,,,,,,,,,,,,,,,,,,,,,,,,,,,,,,,,,,,,,,,,,,,,,,,,,,,,,,,,,,,,,,,,,,,,,,,,
,,,,,,,,,,stimuli/images/PICTURE_151.png,GIRL,5eebb8b7011d13119025dcf0,06/02/1992,2020-07-08_16h16.39.481,proactive,2020.1.2,Win32,60,5f035e5afe130c270d6ae6dd,5f05e2a01308dd0b4590739e,2,,,,,,tray,,,,,,0,53,53,19,1,2,0,,,,,,,,,,,,,,,,,,,,,,,,,,,,,,,,,,,,,,,,,,,,,,,,,,,,,,,,,,,,,,,,,,,,,,,,,,,
,,,,,,,,,,stimuli/images/PICTURE_255.png,AREA,5eebb8b7011d13119025dcf0,06/02/1992,2020-07-08_16h16.39.481,proactive,2020.1.2,Win32,60,5f035e5afe130c270d6ae6dd,5f05e2a01308dd0b4590739e,2,,,,,,shovel,,,,,,0,54,54,22,1,3,0,,,,,,,,,,,,,,,,,,,,,,,,,,,,,,,,,,,,,,,,,,,,,,,,,,,,,,,,,,,,,,,,,,,,,,,,,,,
,,,,,,,,,,stimuli/images/PICTURE_688.png,WOMEN,5eebb8b7011d13119025dcf0,06/02/1992,2020-07-08_16h16.39.481,proactive,2020.1.2,Win32,60,5f035e5afe130c270d6ae6dd,5f05e2a01308dd0b4590739e,2,,,,,,runner,,,,,,0,55,55,14,1,2,0,,,,,,,,,,,,,,,,,,,,,,,,,,,,,,,,,,,,,,,,,,,,,,,,,,,,,,,,,,,,,,,,,,,,,,,,,,,
,,,,,,,,,,stimuli/images/PICTURE_744.png,SYSTEM,5eebb8b7011d13119025dcf0,06/02/1992,2020-07-08_16h16.39.481,proactive,2020.1.2,Win32,60,5f035e5afe130c270d6ae6dd,5f05e2a01308dd0b4590739e,2,,,,,,ring,,,,,,0,56,56,43,1,5,0,,,,,,,,,,,,,,,,,,,,,,,,,,,,,,,,,,,,,,,,,,,,,,,,,,,,,,,,,,,,,,,,,,,,,,,,,,,
,,,,,,,,,,stimuli/images/PICTURE_215.png,PLENTY,5eebb8b7011d13119025dcf0,06/02/1992,2020-07-08_16h16.39.481,proactive,2020.1.2,Win32,60,5f035e5afe130c270d6ae6dd,5f05e2a01308dd0b4590739e,2,,,,,,boot,,,,,,0,57,57,37,1,4,0,,,,,,,,,,,,,,,,,,,,,,,,,,,,,,,,,,,,,,,,,,,,,,,,,,,,,,,,,,,,,,,,,,,,,,,,,,,
,,,,,,,,,,stimuli/images/PICTURE_348.png,SPEECH,5eebb8b7011d13119025dcf0,06/02/1992,2020-07-08_16h16.39.481,proactive,2020.1.2,Win32,60,5f035e5afe130c270d6ae6dd,5f05e2a01308dd0b4590739e,2,,,,,,pepper,,,,,,0,58,58,20,1,3,0,,,,,,,,,,,,,,,,,,,,,,,,,,,,,,,,,,,,,,,,,,,,,,,,,,,,,,,,,,,,,,,,,,,,,,,,,,,
,,GIRL,10.01182,1,,,,,,stimuli/images/PICTURE_151.png,GIRL,5eebb8b7011d13119025dcf0,06/02/1992,2020-07-08_16h16.39.481,proactive,2020.1.2,Win32,60,5f035e5afe130c270d6ae6dd,5f05e2a01308dd0b4590739e,2,,,,,,tray,,,,,,,,,,,2,0,0,0,0,19,1,,,,,,,,,,,,,,,,,,,,,,,,,,,,,,,,,,,,,,,,,,,,,,,,,,,,,,,,,,,,,,,,,,,,,,
,,?,0.001225,0,,,,,,stimuli/images/PICTURE_255.png,AREA,5eebb8b7011d13119025dcf0,06/02/1992,2020-07-08_16h16.39.481,proactive,2020.1.2,Win32,60,5f035e5afe130c270d6ae6dd,5f05e2a01308dd0b4590739e,2,,,,,,shovel,,,,,,,,,,,3,0,0,1,1,22,1,,,,,,,,,,,,,,,,,,,,,,,,,,,,,,,,,,,,,,,,,,,,,,,,,,,,,,,,,,,,,,,,,,,,,,
,,?,0.00112,0,,,,,,stimuli/images/PICTURE_453.png,PLENTY,5eebb8b7011d13119025dcf0,06/02/1992,2020-07-08_16h16.39.481,proactive,2020.1.2,Win32,60,5f035e5afe130c270d6ae6dd,5f05e2a01308dd0b4590739e,2,,,,,,scissors,,,,,,,,,,,6,0,0,2,2,56,1,,,,,,,,,,,,,,,,,,,,,,,,,,,,,,,,,,,,,,,,,,,,,,,,,,,,,,,,,,,,,,,,,,,,,,
,,?,0.00111,0,,,,,,stimuli/images/PICTURE_95.png,STYLE,5eebb8b7011d13119025dcf0,06/02/1992,2020-07-08_16h16.39.481,proactive,2020.1.2,Win32,60,5f035e5afe130c270d6ae6dd,5f05e2a01308dd0b4590739e,2,,,,,,suitcase,,,,,,,,,,,3,0,0,3,3,25,1,,,,,,,,,,,,,,,,,,,,,,,,,,,,,,,,,,,,,,,,,,,,,,,,,,,,,,,,,,,,,,,,,,,,,,
,,?,0.001395,0,,,,,,stimuli/images/PICTURE_487.png,FLIGHT,5eebb8b7011d13119025dcf0,06/02/1992,2020-07-08_16h16.39.481,proactive,2020.1.2,Win32,60,5f035e5afe130c270d6ae6dd,5f05e2a01308dd0b4590739e,2,,,,,,basket,,,,,,,,,,,1,0,0,4,4,9,1,,,,,,,,,,,,,,,,,,,,,,,,,,,,,,,,,,,,,,,,,,,,,,,,,,,,,,,,,,,,,,,,,,,,,,
,,?,0.00194,0,,,,,,stimuli/images/PICTURE_469.png,LETTER,5eebb8b7011d13119025dcf0,06/02/1992,2020-07-08_16h16.39.481,proactive,2020.1.2,Win32,60,5f035e5afe130c270d6ae6dd,5f05e2a01308dd0b4590739e,2,,,,,,stool,,,,,,,,,,,5,0,0,5,5,42,1,,,,,,,,,,,,,,,,,,,,,,,,,,,,,,,,,,,,,,,,,,,,,,,,,,,,,,,,,,,,,,,,,,,,,,
,,?,0.00126,0,,,,,,stimuli/images/PICTURE_160.png,LEADER,5eebb8b7011d13119025dcf0,06/02/1992,2020-07-08_16h16.39.481,proactive,2020.1.2,Win32,60,5f035e5afe130c270d6ae6dd,5f05e2a01308dd0b4590739e,2,,,,,,wheelbarrow,,,,,,,,,,,1,0,0,6,6,3,1,,,,,,,,,,,,,,,,,,,,,,,,,,,,,,,,,,,,,,,,,,,,,,,,,,,,,,,,,,,,,,,,,,,,,,
,,?,0.00093,0,,,,,,stimuli/images/PICTURE_675.png,WEAPON,5eebb8b7011d13119025dcf0,06/02/1992,2020-07-08_16h16.39.481,proactive,2020.1.2,Win32,60,5f035e5afe130c270d6ae6dd,5f05e2a01308dd0b4590739e,2,,,,,,windmill,,,,,,,,,,,4,0,0,7,7,32,1,,,,,,,,,,,,,,,,,,,,,,,,,,,,,,,,,,,,,,,,,,,,,,,,,,,,,,,,,,,,,,,,,,,,,,
,,?,0.00083,0,,,,,,stimuli/images/PICTURE_708.png,CLIENT,5eebb8b7011d13119025dcf0,06/02/1992,2020-07-08_16h16.39.481,proactive,2020.1.2,Win32,60,5f035e5afe130c270d6ae6dd,5f05e2a01308dd0b4590739e,2,,,,,,monkey,,,,,,,,,,,1,0,0,8,8,5,1,,,,,,,,,,,,,,,,,,,,,,,,,,,,,,,,,,,,,,,,,,,,,,,,,,,,,,,,,,,,,,,,,,,,,,
,,ADVICE,4.967635,1,,,,,,stimuli/images/PICTURE_285.png,ADVICE,5eebb8b7011d13119025dcf0,06/02/1992,2020-07-08_16h16.39.481,proactive,2020.1.2,Win32,60,5f035e5afe130c270d6ae6dd,5f05e2a01308dd0b4590739e,2,,,,,,carrot,,,,,,,,,,,2,0,0,9,9,12,1,,,,,,,,,,,,,,,,,,,,,,,,,,,,,,,,,,,,,,,,,,,,,,,,,,,,,,,,,,,,,,,,,,,,,,
,,?,0.001,0,,,,,,stimuli/images/PICTURE_509.png,PHOTO,5eebb8b7011d13119025dcf0,06/02/1992,2020-07-08_16h16.39.481,proactive,2020.1.2,Win32,60,5f035e5afe130c270d6ae6dd,5f05e2a01308dd0b4590739e,2,,,,,,telephone,,,,,,,,,,,3,0,0,10,10,21,1,,,,,,,,,,,,,,,,,,,,,,,,,,,,,,,,,,,,,,,,,,,,,,,,,,,,,,,,,,,,,,,,,,,,,,
,,?,0.000955,0,,,,,,stimuli/images/PICTURE_147.png,MOMENT,5eebb8b7011d13119025dcf0,06/02/1992,2020-07-08_16h16.39.481,proactive,2020.1.2,Win32,60,5f035e5afe130c270d6ae6dd,5f05e2a01308dd0b4590739e,2,,,,,,hanger,,,,,,,,,,,6,0,0,11,11,51,1,,,,,,,,,,,,,,,,,,,,,,,,,,,,,,,,,,,,,,,,,,,,,,,,,,,,,,,,,,,,,,,,,,,,,,
,,?,0.00075,0,,,,,,stimuli/images/PICTURE_491.png,ROOF,5eebb8b7011d13119025dcf0,06/02/1992,2020-07-08_16h16.39.481,proactive,2020.1.2,Win32,60,5f035e5afe130c270d6ae6dd,5f05e2a01308dd0b4590739e,2,,,,,,rug,,,,,,,,,,,3,0,0,12,12,24,1,,,,,,,,,,,,,,,,,,,,,,,,,,,,,,,,,,,,,,,,,,,,,,,,,,,,,,,,,,,,,,,,,,,,,,
,,?,0.000715,0,,,,,,stimuli/images/PICTURE_467.png,DEMON,5eebb8b7011d13119025dcf0,06/02/1992,2020-07-08_16h16.39.481,proactive,2020.1.2,Win32,60,5f035e5afe130c270d6ae6dd,5f05e2a01308dd0b4590739e,2,,,,,,peg,,,,,,,,,,,3,0,0,13,13,23,1,,,,,,,,,,,,,,,,,,,,,,,,,,,,,,,,,,,,,,,,,,,,,,,,,,,,,,,,,,,,,,,,,,,,,,
,,?,0.00072,0,,,,,,stimuli/images/PICTURE_327.png,BEAUTY,5eebb8b7011d13119025dcf0,06/02/1992,2020-07-08_16h16.39.481,proactive,2020.1.2,Win32,60,5f035e5afe130c270d6ae6dd,5f05e2a01308dd0b4590739e,2,,,,,,helmet,,,,,,,,,,,5,0,0,14,14,48,1,,,,,,,,,,,,,,,,,,,,,,,,,,,,,,,,,,,,,,,,,,,,,,,,,,,,,,,,,,,,,,,,,,,,,,
,,?,0.00086,0,,,,,,stimuli/images/PICTURE_380.png,PHOTO,5eebb8b7011d13119025dcf0,06/02/1992,2020-07-08_16h16.39.481,proactive,2020.1.2,Win32,60,5f035e5afe130c270d6ae6dd,5f05e2a01308dd0b4590739e,2,,,,,,gorilla,,,,,,,,,,,6,0,0,15,15,52,1,,,,,,,,,,,,,,,,,,,,,,,,,,,,,,,,,,,,,,,,,,,,,,,,,,,,,,,,,,,,,,,,,,,,,,
,,?,0.000715,0,,,,,,stimuli/images/PICTURE_160.png,FEET,5eebb8b7011d13119025dcf0,06/02/1992,2020-07-08_16h16.39.481,proactive,2020.1.2,Win32,60,5f035e5afe130c270d6ae6dd,5f05e2a01308dd0b4590739e,2,,,,,,wheelbarrow,,,,,,,,,,,6,0,0,16,16,58,1,,,,,,,,,,,,,,,,,,,,,,,,,,,,,,,,,,,,,,,,,,,,,,,,,,,,,,,,,,,,,,,,,,,,,,
