consent_key.keys,consent_key.rt,recalled,recalled_rt,recall_acc,example_recall.thisRepN,example_recall.thisTrialN,example_recall.thisN,example_recall.thisIndex,example_recall.ran,file,word,participant,date,expName,psychopyVersion,OS,frameRate,STUDY_ID,SESSION_ID,list,prac_learn_study_loop.thisRepN,prac_learn_study_loop.thisTrialN,prac_learn_study_loop.thisN,prac_learn_study_loop.thisIndex,prac_learn_study_loop.ran,image,prac_learn_test_loop.thisRepN,prac_learn_test_loop.thisTrialN,prac_learn_test_loop.thisN,prac_learn_test_loop.thisIndex,prac_learn_test_loop.ran,learn_study_loop.thisRepN,learn_study_loop.thisTrialN,learn_study_loop.thisN,learn_study_loop.thisIndex,learn_study_loop.ran,list_no,block_no,learn_test_loop.thisRepN,learn_test_loop.thisTrialN,learn_test_loop.thisN,learn_test_loop.thisIndex,learn_test_loop.ran,learn_blocks.thisRepN,learn_blocks.thisTrialN,learn_blocks.thisN,learn_blocks.thisIndex,learn_blocks.ran,block_csv,key_resp_13.keys,key_resp_13.rt,learn_blocks_loop.thisRepN,learn_blocks_loop.thisTrialN,learn_blocks_loop.thisN,learn_blocks_loop.thisIndex,learn_blocks_loop.ran,final_learn_test.thisRepN,final_learn_test.thisTrialN,final_learn_test.thisN,final_learn_test.thisIndex,final_learn_test.ran,prac_wm_test_loop.thisRepN,prac_wm_test_loop.thisTrialN,prac_wm_test_loop.thisN,prac_wm_test_loop.thisIndex,prac_wm_test_loop.ran,wm_recalled1,wm_recall_rt1,wm_probed1,wm_recall_acc1,wm_recalled2,wm_recall_rt2,wm_probed2,wm_recall_acc2,wm_recalled3,wm_recall_rt3,wm_probed3,wm_recall_acc3,wm_recalled4,wm_recall_rt4,wm_probed4,wm_recall_acc4,prac_wm_trial_loop.thisRepN,prac_wm_trial_loop.thisTrialN,prac_wm_trial_loop.thisN,prac_wm_trial_loop.thisIndex,prac_wm_trial_loop.ran,word1,image1,file1,item_type1,word2,image2,file2,item_type2,word4,image4,file4,item_type4,word3,image3,file3,item_type3,wm_test_loop.thisRepN,wm_test_loop.thisTrialN,wm_test_loop.thisN,wm_test_loop.thisIndex,wm_test_loop.ran,wm_trial_loop.thisRepN,wm_trial_loop.thisTrialN,wm_trial_loop.thisN,wm_trial_loop.thisIndex,wm_trial_loop.ran
y,2.563005,SPAC,10.009595,0,0,0,0,0,1,stimuli/images/PICTURE_747.png,TOUGH,5ef767e022eb1d49042c4410,2020-06-30_19h51.20.886,proactive,2020.1.2,Win32,60,5efb791ed4cb570da489e737,5efb87255769c70f1c5f8a1e,4,,,,,,,,,,,,,,,,,,,,,,,,,,,,,,,,,,,,,,,,,,,,,,,,,,,,,,,,,,,,,,,,,,,,,,,,,,,,,,,,,,,,,,,,,,,,,
,,,,,,,,,,stimuli/images/PICTURE_727.png,CELL,5ef767e022eb1d49042c4410,2020-06-30_19h51.20.886,proactive,2020.1.2,Win32,60,5efb791ed4cb570da489e737,5efb87255769c70f1c5f8a1e,4,0,0,0,1,1,hose,,,,,,,,,,,,,,,,,,,,,,,,,,,,,,,,,,,,,,,,,,,,,,,,,,,,,,,,,,,,,,,,,,,,,,,,,,,,,,,,,,,,,,,
,,,,,,,,,,stimuli/images/PICTURE_697.png,KILLER,5ef767e022eb1d49042c4410,2020-06-30_19h51.20.886,proactive,2020.1.2,Win32,60,5efb791ed4cb570da489e737,5efb87255769c70f1c5f8a1e,4,0,1,1,4,1,peach,,,,,,,,,,,,,,,,,,,,,,,,,,,,,,,,,,,,,,,,,,,,,,,,,,,,,,,,,,,,,,,,,,,,,,,,,,,,,,,,,,,,,,,
,,,,,,,,,,stimuli/images/PICTURE_378.png,LOSS,5ef767e022eb1d49042c4410,2020-06-30_19h51.20.886,proactive,2020.1.2,Win32,60,5efb791ed4cb570da489e737,5efb87255769c70f1c5f8a1e,4,0,2,2,2,1,lobster,,,,,,,,,,,,,,,,,,,,,,,,,,,,,,,,,,,,,,,,,,,,,,,,,,,,,,,,,,,,,,,,,,,,,,,,,,,,,,,,,,,,,,,
,,,,,,,,,,stimuli/images/PICTURE_658.png,DEVIL,5ef767e022eb1d49042c4410,2020-06-30_19h51.20.886,proactive,2020.1.2,Win32,60,5efb791ed4cb570da489e737,5efb87255769c70f1c5f8a1e,4,0,3,3,3,1,crow,,,,,,,,,,,,,,,,,,,,,,,,,,,,,,,,,,,,,,,,,,,,,,,,,,,,,,,,,,,,,,,,,,,,,,,,,,,,,,,,,,,,,,,
,,LOSS,4.13445,1,,,,,,stimuli/images/PICTURE_378.png,LOSS,5ef767e022eb1d49042c4410,2020-06-30_19h51.20.886,proactive,2020.1.2,Win32,60,5efb791ed4cb570da489e737,5efb87255769c70f1c5f8a1e,4,,,,,,lobster,0,0,0,2,1,,,,,,,,,,,,,,,,,,,,,,,,,,,,,,,,,,,,,,,,,,,,,,,,,,,,,,,,,,,,,,,,,,,,,,,,,,,,,,,,,,
,,GENIUS,7.639635,1,,,,,,stimuli/images/PICTURE_269.png,GENIUS,5ef767e022eb1d49042c4410,2020-06-30_19h51.20.886,proactive,2020.1.2,Win32,60,5efb791ed4cb570da489e737,5efb87255769c70f1c5f8a1e,4,,,,,,chameleon,0,1,1,0,1,,,,,,,,,,,,,,,,,,,,,,,,,,,,,,,,,,,,,,,,,,,,,,,,,,,,,,,,,,,,,,,,,,,,,,,,,,,,,,,,,,
,,DEVIL,4.265995,1,,,,,,stimuli/images/PICTURE_658.png,DEVIL,5ef767e022eb1d49042c4410,2020-06-30_19h51.20.886,proactive,2020.1.2,Win32,60,5efb791ed4cb570da489e737,5efb87255769c70f1c5f8a1e,4,,,,,,crow,0,2,2,3,1,,,,,,,,,,,,,,,,,,,,,,,,,,,,,,,,,,,,,,,,,,,,,,,,,,,,,,,,,,,,,,,,,,,,,,,,,,,,,,,,,,
,,CELL,7.29668,1,,,,,,stimuli/images/PICTURE_727.png,CELL,5ef767e022eb1d49042c4410,2020-06-30_19h51.20.886,proactive,2020.1.2,Win32,60,5efb791ed4cb570da489e737,5efb87255769c70f1c5f8a1e,4,,,,,,hose,0,3,3,1,1,,,,,,,,,,,,,,,,,,,,,,,,,,,,,,,,,,,,,,,,,,,,,,,,,,,,,,,,,,,,,,,,,,,,,,,,,,,,,,,,,,
,,KILLER,3.874155,1,,,,,,stimuli/images/PICTURE_697.png,KILLER,5ef767e022eb1d49042c4410,2020-06-30_19h51.20.886,proactive,2020.1.2,Win32,60,5efb791ed4cb570da489e737,5efb87255769c70f1c5f8a1e,4,,,,,,peach,0,4,4,4,1,,,,,,,,,,,,,,,,,,,,,,,,,,,,,,,,,,,,,,,,,,,,,,,,,,,,,,,,,,,,,,,,,,,,,,,,,,,,,,,,,,
,,,,,,,,,,stimuli/images/PICTURE_95.png,BOYS,5ef767e022eb1d49042c4410,2020-06-30_19h51.20.886,proactive,2020.1.2,Win32,60,5efb791ed4cb570da489e737,5efb87255769c70f1c5f8a1e,4,,,,,,suitcase,,,,,,0,0,0,1,1,1,1,,,,,,,,,,,,,,,,,,,,,,,,,,,,,,,,,,,,,,,,,,,,,,,,,,,,,,,,,,,,,,,,,,,,,,,,,,,
,,,,,,,,,,stimuli/images/PICTURE_685.png,PENNY,5ef767e022eb1d49042c4410,2020-06-30_19h51.20.886,proactive,2020.1.2,Win32,60,5efb791ed4cb570da489e737,5efb87255769c70f1c5f8a1e,4,,,,,,goose,,,,,,0,1,1,4,1,1,1,,,,,,,,,,,,,,,,,,,,,,,,,,,,,,,,,,,,,,,,,,,,,,,,,,,,,,,,,,,,,,,,,,,,,,,,,,,
,,,,,,,,,,stimuli/images/PICTURE_339.png,CLIENT,5ef767e022eb1d49042c4410,2020-06-30_19h51.20.886,proactive,2020.1.2,Win32,60,5efb791ed4cb570da489e737,5efb87255769c70f1c5f8a1e,4,,,,,,backpack,,,,,,0,2,2,11,1,2,1,,,,,,,,,,,,,,,,,,,,,,,,,,,,,,,,,,,,,,,,,,,,,,,,,,,,,,,,,,,,,,,,,,,,,,,,,,,
,,,,,,,,,,stimuli/images/PICTURE_85.png,NATION,5ef767e022eb1d49042c4410,2020-06-30_19h51.20.886,proactive,2020.1.2,Win32,60,5efb791ed4cb570da489e737,5efb87255769c70f1c5f8a1e,4,,,,,,diamond,,,,,,0,3,3,5,1,1,1,,,,,,,,,,,,,,,,,,,,,,,,,,,,,,,,,,,,,,,,,,,,,,,,,,,,,,,,,,,,,,,,,,,,,,,,,,,
,,,,,,,,,,stimuli/images/PICTURE_340.png,VALLEY,5ef767e022eb1d49042c4410,2020-06-30_19h51.20.886,proactive,2020.1.2,Win32,60,5efb791ed4cb570da489e737,5efb87255769c70f1c5f8a1e,4,,,,,,mirror,,,,,,0,4,4,54,1,6,1,,,,,,,,,,,,,,,,,,,,,,,,,,,,,,,,,,,,,,,,,,,,,,,,,,,,,,,,,,,,,,,,,,,,,,,,,,,
,,,,,,,,,,stimuli/images/PICTURE_296.png,LIFE,5ef767e022eb1d49042c4410,2020-06-30_19h51.20.886,proactive,2020.1.2,Win32,60,5efb791ed4cb570da489e737,5efb87255769c70f1c5f8a1e,4,,,,,,bolt,,,,,,0,5,5,57,1,6,1,,,,,,,,,,,,,,,,,,,,,,,,,,,,,,,,,,,,,,,,,,,,,,,,,,,,,,,,,,,,,,,,,,,,,,,,,,,
,,,,,,,,,,stimuli/images/PICTURE_108.png,POLICY,5ef767e022eb1d49042c4410,2020-06-30_19h51.20.886,proactive,2020.1.2,Win32,60,5efb791ed4cb570da489e737,5efb87255769c70f1c5f8a1e,4,,,,,,calendar,,,,,,0,6,6,22,1,3,1,,,,,,,,,,,,,,,,,,,,,,,,,,,,,,,,,,,,,,,,,,,,,,,,,,,,,,,,,,,,,,,,,,,,,,,,,,,
,,,,,,,,,,stimuli/images/PICTURE_487.png,GIRL,5ef767e022eb1d49042c4410,2020-06-30_19h51.20.886,proactive,2020.1.2,Win32,60,5efb791ed4cb570da489e737,5efb87255769c70f1c5f8a1e,4,,,,,,basket,,,,,,0,7,7,45,1,5,1,,,,,,,,,,,,,,,,,,,,,,,,,,,,,,,,,,,,,,,,,,,,,,,,,,,,,,,,,,,,,,,,,,,,,,,,,,,
,,,,,,,,,,stimuli/images/PICTURE_285.png,LIFE,5ef767e022eb1d49042c4410,2020-06-30_19h51.20.886,proactive,2020.1.2,Win32,60,5efb791ed4cb570da489e737,5efb87255769c70f1c5f8a1e,4,,,,,,carrot,,,,,,0,8,8,33,1,4,1,,,,,,,,,,,,,,,,,,,,,,,,,,,,,,,,,,,,,,,,,,,,,,,,,,,,,,,,,,,,,,,,,,,,,,,,,,,
,,,,,,,,,,stimuli/images/PICTURE_208.png,SYSTEM,5ef767e022eb1d49042c4410,2020-06-30_19h51.20.886,proactive,2020.1.2,Win32,60,5efb791ed4cb570da489e737,5efb87255769c70f1c5f8a1e,4,,,,,,microphone,,,,,,0,9,9,32,1,4,1,,,,,,,,,,,,,,,,,,,,,,,,,,,,,,,,,,,,,,,,,,,,,,,,,,,,,,,,,,,,,,,,,,,,,,,,,,,
,,,,,,,,,,stimuli/images/PICTURE_403.png,TOILET,5ef767e022eb1d49042c4410,2020-06-30_19h51.20.886,proactive,2020.1.2,Win32,60,5efb791ed4cb570da489e737,5efb87255769c70f1c5f8a1e,4,,,,,,cathedral,,,,,,0,10,10,25,1,3,1,,,,,,,,,,,,,,,,,,,,,,,,,,,,,,,,,,,,,,,,,,,,,,,,,,,,,,,,,,,,,,,,,,,,,,,,,,,
,,,,,,,,,,stimuli/images/PICTURE_667.png,RIVER,5ef767e022eb1d49042c4410,2020-06-30_19h51.20.886,proactive,2020.1.2,Win32,60,5efb791ed4cb570da489e737,5efb87255769c70f1c5f8a1e,4,,,,,,daisy,,,,,,0,11,11,10,1,2,1,,,,,,,,,,,,,,,,,,,,,,,,,,,,,,,,,,,,,,,,,,,,,,,,,,,,,,,,,,,,,,,,,,,,,,,,,,,
,,,,,,,,,,stimuli/images/PICTURE_504.png,ARTIST,5ef767e022eb1d49042c4410,2020-06-30_19h51.20.886,proactive,2020.1.2,Win32,60,5efb791ed4cb570da489e737,5efb87255769c70f1c5f8a1e,4,,,,,,wheel,,,,,,0,12,12,49,1,5,1,,,,,,,,,,,,,,,,,,,,,,,,,,,,,,,,,,,,,,,,,,,,,,,,,,,,,,,,,,,,,,,,,,,,,,,,,,,
,,,,,,,,,,stimuli/images/PICTURE_203.png,NIGHT,5ef767e022eb1d49042c4410,2020-06-30_19h51.20.886,proactive,2020.1.2,Win32,60,5efb791ed4cb570da489e737,5efb87255769c70f1c5f8a1e,4,,,,,,cap,,,,,,0,13,13,2,1,1,1,,,,,,,,,,,,,,,,,,,,,,,,,,,,,,,,,,,,,,,,,,,,,,,,,,,,,,,,,,,,,,,,,,,,,,,,,,,
,,,,,,,,,,stimuli/images/PICTURE_203.png,GODS,5ef767e022eb1d49042c4410,2020-06-30_19h51.20.886,proactive,2020.1.2,Win32,60,5efb791ed4cb570da489e737,5efb87255769c70f1c5f8a1e,4,,,,,,cap,,,,,,0,14,14,30,1,4,1,,,,,,,,,,,,,,,,,,,,,,,,,,,,,,,,,,,,,,,,,,,,,,,,,,,,,,,,,,,,,,,,,,,,,,,,,,,
,,,,,,,,,,stimuli/images/PICTURE_750.png,HOTEL,5ef767e022eb1d49042c4410,2020-06-30_19h51.20.886,proactive,2020.1.2,Win32,60,5efb791ed4cb570da489e737,5efb87255769c70f1c5f8a1e,4,,,,,,kettle,,,,,,0,15,15,27,1,3,1,,,,,,,,,,,,,,,,,,,,,,,,,,,,,,,,,,,,,,,,,,,,,,,,,,,,,,,,,,,,,,,,,,,,,,,,,,,
,,,,,,,,,,stimuli/images/PICTURE_85.png,TOILET,5ef767e022eb1d49042c4410,2020-06-30_19h51.20.886,proactive,2020.1.2,Win32,60,5efb791ed4cb570da489e737,5efb87255769c70f1c5f8a1e,4,,,,,,diamond,,,,,,0,16,16,48,1,5,1,,,,,,,,,,,,,,,,,,,,,,,,,,,,,,,,,,,,,,,,,,,,,,,,,,,,,,,,,,,,,,,,,,,,,,,,,,,
,,,,,,,,,,stimuli/images/PICTURE_57.png,MOMENT,5ef767e022eb1d49042c4410,2020-06-30_19h51.20.886,proactive,2020.1.2,Win32,60,5efb791ed4cb570da489e737,5efb87255769c70f1c5f8a1e,4,,,,,,stamp,,,,,,0,17,17,37,1,4,1,,,,,,,,,,,,,,,,,,,,,,,,,,,,,,,,,,,,,,,,,,,,,,,,,,,,,,,,,,,,,,,,,,,,,,,,,,,
,,,,,,,,,,stimuli/images/PICTURE_296.png,LOTS,5ef767e022eb1d49042c4410,2020-06-30_19h51.20.886,proactive,2020.1.2,Win32,60,5efb791ed4cb570da489e737,5efb87255769c70f1c5f8a1e,4,,,,,,bolt,,,,,,0,18,18,9,1,1,1,,,,,,,,,,,,,,,,,,,,,,,,,,,,,,,,,,,,,,,,,,,,,,,,,,,,,,,,,,,,,,,,,,,,,,,,,,,
,,,,,,,,,,stimuli/images/PICTURE_95.png,MILLER,5ef767e022eb1d49042c4410,2020-06-30_19h51.20.886,proactive,2020.1.2,Win32,60,5efb791ed4cb570da489e737,5efb87255769c70f1c5f8a1e,4,,,,,,suitcase,,,,,,0,19,19,56,1,6,1,,,,,,,,,,,,,,,,,,,,,,,,,,,,,,,,,,,,,,,,,,,,,,,,,,,,,,,,,,,,,,,,,,,,,,,,,,,
,,,,,,,,,,stimuli/images/PICTURE_95.png,HONEY,5ef767e022eb1d49042c4410,2020-06-30_19h51.20.886,proactive,2020.1.2,Win32,60,5efb791ed4cb570da489e737,5efb87255769c70f1c5f8a1e,4,,,,,,suitcase,,,,,,0,20,20,44,1,5,1,,,,,,,,,,,,,,,,,,,,,,,,,,,,,,,,,,,,,,,,,,,,,,,,,,,,,,,,,,,,,,,,,,,,,,,,,,,
,,,,,,,,,,stimuli/images/PICTURE_177.png,WRITER,5ef767e022eb1d49042c4410,2020-06-30_19h51.20.886,proactive,2020.1.2,Win32,60,5efb791ed4cb570da489e737,5efb87255769c70f1c5f8a1e,4,,,,,,mushroom,,,,,,0,21,21,41,1,5,1,,,,,,,,,,,,,,,,,,,,,,,,,,,,,,,,,,,,,,,,,,,,,,,,,,,,,,,,,,,,,,,,,,,,,,,,,,,
,,,,,,,,,,stimuli/images/PICTURE_32.png,PILLS,5ef767e022eb1d49042c4410,2020-06-30_19h51.20.886,proactive,2020.1.2,Win32,60,5efb791ed4cb570da489e737,5efb87255769c70f1c5f8a1e,4,,,,,,crown,,,,,,0,22,22,18,1,2,1,,,,,,,,,,,,,,,,,,,,,,,,,,,,,,,,,,,,,,,,,,,,,,,,,,,,,,,,,,,,,,,,,,,,,,,,,,,
,,,,,,,,,,stimuli/images/PICTURE_68.png,ROOF,5ef767e022eb1d49042c4410,2020-06-30_19h51.20.886,proactive,2020.1.2,Win32,60,5efb791ed4cb570da489e737,5efb87255769c70f1c5f8a1e,4,,,,,,candle,,,,,,0,23,23,38,1,4,1,,,,,,,,,,,,,,,,,,,,,,,,,,,,,,,,,,,,,,,,,,,,,,,,,,,,,,,,,,,,,,,,,,,,,,,,,,,
,,,,,,,,,,stimuli/images/PICTURE_564.png,BATH,5ef767e022eb1d49042c4410,2020-06-30_19h51.20.886,proactive,2020.1.2,Win32,60,5efb791ed4cb570da489e737,5efb87255769c70f1c5f8a1e,4,,,,,,spoon,,,,,,0,24,24,26,1,3,1,,,,,,,,,,,,,,,,,,,,,,,,,,,,,,,,,,,,,,,,,,,,,,,,,,,,,,,,,,,,,,,,,,,,,,,,,,,
,,,,,,,,,,stimuli/images/PICTURE_677.png,APPLE,5ef767e022eb1d49042c4410,2020-06-30_19h51.20.886,proactive,2020.1.2,Win32,60,5efb791ed4cb570da489e737,5efb87255769c70f1c5f8a1e,4,,,,,,map,,,,,,0,25,25,43,1,5,1,,,,,,,,,,,,,,,,,,,,,,,,,,,,,,,,,,,,,,,,,,,,,,,,,,,,,,,,,,,,,,,,,,,,,,,,,,,
,,,,,,,,,,stimuli/images/PICTURE_504.png,YEAR,5ef767e022eb1d49042c4410,2020-06-30_19h51.20.886,proactive,2020.1.2,Win32,60,5efb791ed4cb570da489e737,5efb87255769c70f1c5f8a1e,4,,,,,,wheel,,,,,,0,26,26,13,1,2,1,,,,,,,,,,,,,,,,,,,,,,,,,,,,,,,,,,,,,,,,,,,,,,,,,,,,,,,,,,,,,,,,,,,,,,,,,,,
,,,,,,,,,,stimuli/images/PICTURE_449.png,DUDE,5ef767e022eb1d49042c4410,2020-06-30_19h51.20.886,proactive,2020.1.2,Win32,60,5efb791ed4cb570da489e737,5efb87255769c70f1c5f8a1e,4,,,,,,bench,,,,,,0,27,27,17,1,2,1,,,,,,,,,,,,,,,,,,,,,,,,,,,,,,,,,,,,,,,,,,,,,,,,,,,,,,,,,,,,,,,,,,,,,,,,,,,
,,,,,,,,,,stimuli/images/PICTURE_108.png,FLIGHT,5ef767e022eb1d49042c4410,2020-06-30_19h51.20.886,proactive,2020.1.2,Win32,60,5efb791ed4cb570da489e737,5efb87255769c70f1c5f8a1e,4,,,,,,calendar,,,,,,0,28,28,59,1,6,1,,,,,,,,,,,,,,,,,,,,,,,,,,,,,,,,,,,,,,,,,,,,,,,,,,,,,,,,,,,,,,,,,,,,,,,,,,,
,,,,,,,,,,stimuli/images/PICTURE_380.png,HONEY,5ef767e022eb1d49042c4410,2020-06-30_19h51.20.886,proactive,2020.1.2,Win32,60,5efb791ed4cb570da489e737,5efb87255769c70f1c5f8a1e,4,,,,,,gorilla,,,,,,0,29,29,19,1,2,1,,,,,,,,,,,,,,,,,,,,,,,,,,,,,,,,,,,,,,,,,,,,,,,,,,,,,,,,,,,,,,,,,,,,,,,,,,,
,,,,,,,,,,stimuli/images/PICTURE_327.png,CASINO,5ef767e022eb1d49042c4410,2020-06-30_19h51.20.886,proactive,2020.1.2,Win32,60,5efb791ed4cb570da489e737,5efb87255769c70f1c5f8a1e,4,,,,,,helmet,,,,,,0,30,30,20,1,3,1,,,,,,,,,,,,,,,,,,,,,,,,,,,,,,,,,,,,,,,,,,,,,,,,,,,,,,,,,,,,,,,,,,,,,,,,,,,
,,,,,,,,,,stimuli/images/PICTURE_327.png,SERIES,5ef767e022eb1d49042c4410,2020-06-30_19h51.20.886,proactive,2020.1.2,Win32,60,5efb791ed4cb570da489e737,5efb87255769c70f1c5f8a1e,4,,,,,,helmet,,,,,,0,31,31,3,1,1,1,,,,,,,,,,,,,,,,,,,,,,,,,,,,,,,,,,,,,,,,,,,,,,,,,,,,,,,,,,,,,,,,,,,,,,,,,,,
,,,,,,,,,,stimuli/images/PICTURE_233.png,LOTS,5ef767e022eb1d49042c4410,2020-06-30_19h51.20.886,proactive,2020.1.2,Win32,60,5efb791ed4cb570da489e737,5efb87255769c70f1c5f8a1e,4,,,,,,salt,,,,,,0,32,32,42,1,5,1,,,,,,,,,,,,,,,,,,,,,,,,,,,,,,,,,,,,,,,,,,,,,,,,,,,,,,,,,,,,,,,,,,,,,,,,,,,
,,,,,,,,,,stimuli/images/PICTURE_491.png,RIVER,5ef767e022eb1d49042c4410,2020-06-30_19h51.20.886,proactive,2020.1.2,Win32,60,5efb791ed4cb570da489e737,5efb87255769c70f1c5f8a1e,4,,,,,,rug,,,,,,0,33,33,6,1,1,1,,,,,,,,,,,,,,,,,,,,,,,,,,,,,,,,,,,,,,,,,,,,,,,,,,,,,,,,,,,,,,,,,,,,,,,,,,,
,,,,,,,,,,stimuli/images/PICTURE_708.png,RECORD,5ef767e022eb1d49042c4410,2020-06-30_19h51.20.886,proactive,2020.1.2,Win32,60,5efb791ed4cb570da489e737,5efb87255769c70f1c5f8a1e,4,,,,,,monkey,,,,,,0,34,34,58,1,6,1,,,,,,,,,,,,,,,,,,,,,,,,,,,,,,,,,,,,,,,,,,,,,,,,,,,,,,,,,,,,,,,,,,,,,,,,,,,
,,,,,,,,,,stimuli/images/PICTURE_504.png,COPS,5ef767e022eb1d49042c4410,2020-06-30_19h51.20.886,proactive,2020.1.2,Win32,60,5efb791ed4cb570da489e737,5efb87255769c70f1c5f8a1e,4,,,,,,wheel,,,,,,0,35,35,52,1,6,1,,,,,,,,,,,,,,,,,,,,,,,,,,,,,,,,,,,,,,,,,,,,,,,,,,,,,,,,,,,,,,,,,,,,,,,,,,,
,,,,,,,,,,stimuli/images/PICTURE_469.png,AGENT,5ef767e022eb1d49042c4410,2020-06-30_19h51.20.886,proactive,2020.1.2,Win32,60,5efb791ed4cb570da489e737,5efb87255769c70f1c5f8a1e,4,,,,,,stool,,,,,,0,36,36,16,1,2,1,,,,,,,,,,,,,,,,,,,,,,,,,,,,,,,,,,,,,,,,,,,,,,,,,,,,,,,,,,,,,,,,,,,,,,,,,,,
,,,,,,,,,,stimuli/images/PICTURE_340.png,LETTER,5ef767e022eb1d49042c4410,2020-06-30_19h51.20.886,proactive,2020.1.2,Win32,60,5efb791ed4cb570da489e737,5efb87255769c70f1c5f8a1e,4,,,,,,mirror,,,,,,0,37,37,24,1,3,1,,,,,,,,,,,,,,,,,,,,,,,,,,,,,,,,,,,,,,,,,,,,,,,,,,,,,,,,,,,,,,,,,,,,,,,,,,,
,,,,,,,,,,stimuli/images/PICTURE_68.png,MILE,5ef767e022eb1d49042c4410,2020-06-30_19h51.20.886,proactive,2020.1.2,Win32,60,5efb791ed4cb570da489e737,5efb87255769c70f1c5f8a1e,4,,,,,,candle,,,,,,0,38,38,51,1,6,1,,,,,,,,,,,,,,,,,,,,,,,,,,,,,,,,,,,,,,,,,,,,,,,,,,,,,,,,,,,,,,,,,,,,,,,,,,,
,,,,,,,,,,stimuli/images/PICTURE_42.png,BOYS,5ef767e022eb1d49042c4410,2020-06-30_19h51.20.886,proactive,2020.1.2,Win32,60,5efb791ed4cb570da489e737,5efb87255769c70f1c5f8a1e,4,,,,,,pear,,,,,,0,39,39,55,1,6,1,,,,,,,,,,,,,,,,,,,,,,,,,,,,,,,,,,,,,,,,,,,,,,,,,,,,,,,,,,,,,,,,,,,,,,,,,,,
,,,,,,,,,,stimuli/images/PICTURE_654.png,MONTH,5ef767e022eb1d49042c4410,2020-06-30_19h51.20.886,proactive,2020.1.2,Win32,60,5efb791ed4cb570da489e737,5efb87255769c70f1c5f8a1e,4,,,,,,pencil,,,,,,0,40,40,29,1,3,1,,,,,,,,,,,,,,,,,,,,,,,,,,,,,,,,,,,,,,,,,,,,,,,,,,,,,,,,,,,,,,,,,,,,,,,,,,,
,,,,,,,,,,stimuli/images/PICTURE_380.png,CANDY,5ef767e022eb1d49042c4410,2020-06-30_19h51.20.886,proactive,2020.1.2,Win32,60,5efb791ed4cb570da489e737,5efb87255769c70f1c5f8a1e,4,,,,,,gorilla,,,,,,0,41,41,0,1,1,1,,,,,,,,,,,,,,,,,,,,,,,,,,,,,,,,,,,,,,,,,,,,,,,,,,,,,,,,,,,,,,,,,,,,,,,,,,,
,,,,,,,,,,stimuli/images/PICTURE_403.png,RIVER,5ef767e022eb1d49042c4410,2020-06-30_19h51.20.886,proactive,2020.1.2,Win32,60,5efb791ed4cb570da489e737,5efb87255769c70f1c5f8a1e,4,,,,,,cathedral,,,,,,0,42,42,40,1,5,1,,,,,,,,,,,,,,,,,,,,,,,,,,,,,,,,,,,,,,,,,,,,,,,,,,,,,,,,,,,,,,,,,,,,,,,,,,,
,,,,,,,,,,stimuli/images/PICTURE_297.png,RIVER,5ef767e022eb1d49042c4410,2020-06-30_19h51.20.886,proactive,2020.1.2,Win32,60,5efb791ed4cb570da489e737,5efb87255769c70f1c5f8a1e,4,,,,,,aeroplane,,,,,,0,43,43,39,1,4,1,,,,,,,,,,,,,,,,,,,,,,,,,,,,,,,,,,,,,,,,,,,,,,,,,,,,,,,,,,,,,,,,,,,,,,,,,,,
,,,,,,,,,,stimuli/images/PICTURE_744.png,WEAPON,5ef767e022eb1d49042c4410,2020-06-30_19h51.20.886,proactive,2020.1.2,Win32,60,5efb791ed4cb570da489e737,5efb87255769c70f1c5f8a1e,4,,,,,,ring,,,,,,0,44,44,50,1,6,1,,,,,,,,,,,,,,,,,,,,,,,,,,,,,,,,,,,,,,,,,,,,,,,,,,,,,,,,,,,,,,,,,,,,,,,,,,,
,,,,,,,,,,stimuli/images/PICTURE_491.png,GLASS,5ef767e022eb1d49042c4410,2020-06-30_19h51.20.886,proactive,2020.1.2,Win32,60,5efb791ed4cb570da489e737,5efb87255769c70f1c5f8a1e,4,,,,,,rug,,,,,,0,45,45,14,1,2,1,,,,,,,,,,,,,,,,,,,,,,,,,,,,,,,,,,,,,,,,,,,,,,,,,,,,,,,,,,,,,,,,,,,,,,,,,,,
,,,,,,,,,,stimuli/images/PICTURE_383.png,SERIES,5ef767e022eb1d49042c4410,2020-06-30_19h51.20.886,proactive,2020.1.2,Win32,60,5efb791ed4cb570da489e737,5efb87255769c70f1c5f8a1e,4,,,,,,coin,,,,,,0,46,46,46,1,5,1,,,,,,,,,,,,,,,,,,,,,,,,,,,,,,,,,,,,,,,,,,,,,,,,,,,,,,,,,,,,,,,,,,,,,,,,,,,
,,,,,,,,,,stimuli/images/PICTURE_33.png,FRIEND,5ef767e022eb1d49042c4410,2020-06-30_19h51.20.886,proactive,2020.1.2,Win32,60,5efb791ed4cb570da489e737,5efb87255769c70f1c5f8a1e,4,,,,,,frame,,,,,,0,47,47,8,1,1,1,,,,,,,,,,,,,,,,,,,,,,,,,,,,,,,,,,,,,,,,,,,,,,,,,,,,,,,,,,,,,,,,,,,,,,,,,,,
,,,,,,,,,,stimuli/images/PICTURE_467.png,POLICY,5ef767e022eb1d49042c4410,2020-06-30_19h51.20.886,proactive,2020.1.2,Win32,60,5efb791ed4cb570da489e737,5efb87255769c70f1c5f8a1e,4,,,,,,peg,,,,,,0,48,48,53,1,6,1,,,,,,,,,,,,,,,,,,,,,,,,,,,,,,,,,,,,,,,,,,,,,,,,,,,,,,,,,,,,,,,,,,,,,,,,,,,
,,,,,,,,,,stimuli/images/PICTURE_147.png,YEAR,5ef767e022eb1d49042c4410,2020-06-30_19h51.20.886,proactive,2020.1.2,Win32,60,5efb791ed4cb570da489e737,5efb87255769c70f1c5f8a1e,4,,,,,,hanger,,,,,,0,49,49,21,1,3,1,,,,,,,,,,,,,,,,,,,,,,,,,,,,,,,,,,,,,,,,,,,,,,,,,,,,,,,,,,,,,,,,,,,,,,,,,,,
,,,,,,,,,,stimuli/images/PICTURE_308.png,FAMILY,5ef767e022eb1d49042c4410,2020-06-30_19h51.20.886,proactive,2020.1.2,Win32,60,5efb791ed4cb570da489e737,5efb87255769c70f1c5f8a1e,4,,,,,,dice,,,,,,0,50,50,36,1,4,1,,,,,,,,,,,,,,,,,,,,,,,,,,,,,,,,,,,,,,,,,,,,,,,,,,,,,,,,,,,,,,,,,,,,,,,,,,,
,,,,,,,,,,stimuli/images/PICTURE_403.png,WRITER,5ef767e022eb1d49042c4410,2020-06-30_19h51.20.886,proactive,2020.1.2,Win32,60,5efb791ed4cb570da489e737,5efb87255769c70f1c5f8a1e,4,,,,,,cathedral,,,,,,0,51,51,31,1,4,1,,,,,,,,,,,,,,,,,,,,,,,,,,,,,,,,,,,,,,,,,,,,,,,,,,,,,,,,,,,,,,,,,,,,,,,,,,,
,,,,,,,,,,stimuli/images/PICTURE_405.png,YEAR,5ef767e022eb1d49042c4410,2020-06-30_19h51.20.886,proactive,2020.1.2,Win32,60,5efb791ed4cb570da489e737,5efb87255769c70f1c5f8a1e,4,,,,,,anchor,,,,,,0,52,52,34,1,4,1,,,,,,,,,,,,,,,,,,,,,,,,,,,,,,,,,,,,,,,,,,,,,,,,,,,,,,,,,,,,,,,,,,,,,,,,,,,
,,,,,,,,,,stimuli/images/PICTURE_383.png,WRITER,5ef767e022eb1d49042c4410,2020-06-30_19h51.20.886,proactive,2020.1.2,Win32,60,5efb791ed4cb570da489e737,5efb87255769c70f1c5f8a1e,4,,,,,,coin,,,,,,0,53,53,28,1,3,1,,,,,,,,,,,,,,,,,,,,,,,,,,,,,,,,,,,,,,,,,,,,,,,,,,,,,,,,,,,,,,,,,,,,,,,,,,,
,,,,,,,,,,stimuli/images/PICTURE_147.png,WOMEN,5ef767e022eb1d49042c4410,2020-06-30_19h51.20.886,proactive,2020.1.2,Win32,60,5efb791ed4cb570da489e737,5efb87255769c70f1c5f8a1e,4,,,,,,hanger,,,,,,0,54,54,7,1,1,1,,,,,,,,,,,,,,,,,,,,,,,,,,,,,,,,,,,,,,,,,,,,,,,,,,,,,,,,,,,,,,,,,,,,,,,,,,,
,,,,,,,,,,stimuli/images/PICTURE_2.png,FLIGHT,5ef767e022eb1d49042c4410,2020-06-30_19h51.20.886,proactive,2020.1.2,Win32,60,5efb791ed4cb570da489e737,5efb87255769c70f1c5f8a1e,4,,,,,,tyre,,,,,,0,55,55,15,1,2,1,,,,,,,,,,,,,,,,,,,,,,,,,,,,,,,,,,,,,,,,,,,,,,,,,,,,,,,,,,,,,,,,,,,,,,,,,,,
,,,,,,,,,,stimuli/images/PICTURE_675.png,SALE,5ef767e022eb1d49042c4410,2020-06-30_19h51.20.886,proactive,2020.1.2,Win32,60,5efb791ed4cb570da489e737,5efb87255769c70f1c5f8a1e,4,,,,,,windmill,,,,,,0,56,56,47,1,5,1,,,,,,,,,,,,,,,,,,,,,,,,,,,,,,,,,,,,,,,,,,,,,,,,,,,,,,,,,,,,,,,,,,,,,,,,,,,
,,,,,,,,,,stimuli/images/PICTURE_405.png,PLENTY,5ef767e022eb1d49042c4410,2020-06-30_19h51.20.886,proactive,2020.1.2,Win32,60,5efb791ed4cb570da489e737,5efb87255769c70f1c5f8a1e,4,,,,,,anchor,,,,,,0,57,57,23,1,3,1,,,,,,,,,,,,,,,,,,,,,,,,,,,,,,,,,,,,,,,,,,,,,,,,,,,,,,,,,,,,,,,,,,,,,,,,,,,
,,,,,,,,,,stimuli/images/PICTURE_655.png,TOILET,5ef767e022eb1d49042c4410,2020-06-30_19h51.20.886,proactive,2020.1.2,Win32,60,5efb791ed4cb570da489e737,5efb87255769c70f1c5f8a1e,4,,,,,,megaphone,,,,,,0,58,58,12,1,2,1,,,,,,,,,,,,,,,,,,,,,,,,,,,,,,,,,,,,,,,,,,,,,,,,,,,,,,,,,,,,,,,,,,,,,,,,,,,
,,STATE,9.98246,0,,,,,,stimuli/images/PICTURE_57.png,MOMENT,5ef767e022eb1d49042c4410,2020-06-30_19h51.20.886,proactive,2020.1.2,Win32,60,5efb791ed4cb570da489e737,5efb87255769c70f1c5f8a1e,4,,,,,,stamp,,,,,,,,,,,4,1,0,0,0,37,1,,,,,,,,,,,,,,,,,,,,,,,,,,,,,,,,,,,,,,,,,,,,,,,,,,,,,,,,,,,,,,,,,,,,,,
,,KING,4.088535,0,,,,,,stimuli/images/PICTURE_32.png,KIND,5ef767e022eb1d49042c4410,2020-06-30_19h51.20.886,proactive,2020.1.2,Win32,60,5efb791ed4cb570da489e737,5efb87255769c70f1c5f8a1e,4,,,,,,crown,,,,,,,,,,,4,1,0,1,1,35,1,,,,,,,,,,,,,,,,,,,,,,,,,,,,,,,,,,,,,,,,,,,,,,,,,,,,,,,,,,,,,,,,,,,,,,
,,?,0.00129,0,,,,,,stimuli/images/PICTURE_339.png,CLIENT,5ef767e022eb1d49042c4410,2020-06-30_19h51.20.886,proactive,2020.1.2,Win32,60,5efb791ed4cb570da489e737,5efb87255769c70f1c5f8a1e,4,,,,,,backpack,,,,,,,,,,,2,1,0,2,2,11,1,,,,,,,,,,,,,,,,,,,,,,,,,,,,,,,,,,,,,,,,,,,,,,,,,,,,,,,,,,,,,,,,,,,,,,
,,?,0.00248,0,,,,,,stimuli/images/PICTURE_85.png,NATION,5ef767e022eb1d49042c4410,2020-06-30_19h51.20.886,proactive,2020.1.2,Win32,60,5efb791ed4cb570da489e737,5efb87255769c70f1c5f8a1e,4,,,,,,diamond,,,,,,,,,,,1,1,0,3,3,5,1,,,,,,,,,,,,,,,,,,,,,,,,,,,,,,,,,,,,,,,,,,,,,,,,,,,,,,,,,,,,,,,,,,,,,,
,,?,0.0013,0,,,,,,stimuli/images/PICTURE_750.png,HOTEL,5ef767e022eb1d49042c4410,2020-06-30_19h51.20.886,proactive,2020.1.2,Win32,60,5efb791ed4cb570da489e737,5efb87255769c70f1c5f8a1e,4,,,,,,kettle,,,,,,,,,,,3,1,0,4,4,27,1,,,,,,,,,,,,,,,,,,,,,,,,,,,,,,,,,,,,,,,,,,,,,,,,,,,,,,,,,,,,,,,,,,,,,,
,,?,0.001035,0,,,,,,stimuli/images/PICTURE_340.png,LETTER,5ef767e022eb1d49042c4410,2020-06-30_19h51.20.886,proactive,2020.1.2,Win32,60,5efb791ed4cb570da489e737,5efb87255769c70f1c5f8a1e,4,,,,,,mirror,,,,,,,,,,,3,1,0,5,5,24,1,,,,,,,,,,,,,,,,,,,,,,,,,,,,,,,,,,,,,,,,,,,,,,,,,,,,,,,,,,,,,,,,,,,,,,
,,?,0.00124,0,,,,,,stimuli/images/PICTURE_296.png,LIFE,5ef767e022eb1d49042c4410,2020-06-30_19h51.20.886,proactive,2020.1.2,Win32,60,5efb791ed4cb570da489e737,5efb87255769c70f1c5f8a1e,4,,,,,,bolt,,,,,,,,,,,6,1,0,6,6,57,1,,,,,,,,,,,,,,,,,,,,,,,,,,,,,,,,,,,,,,,,,,,,,,,,,,,,,,,,,,,,,,,,,,,,,,
,,?,0.000985,0,,,,,,stimuli/images/PICTURE_504.png,ARTIST,5ef767e022eb1d49042c4410,2020-06-30_19h51.20.886,proactive,2020.1.2,Win32,60,5efb791ed4cb570da489e737,5efb87255769c70f1c5f8a1e,4,,,,,,wheel,,,,,,,,,,,5,1,0,7,7,49,1,,,,,,,,,,,,,,,,,,,,,,,,,,,,,,,,,,,,,,,,,,,,,,,,,,,,,,,,,,,,,,,,,,,,,,
,,?,0.00098,0,,,,,,stimuli/images/PICTURE_467.png,POLICY,5ef767e022eb1d49042c4410,2020-06-30_19h51.20.886,proactive,2020.1.2,Win32,60,5efb791ed4cb570da489e737,5efb87255769c70f1c5f8a1e,4,,,,,,peg,,,,,,,,,,,6,1,0,8,8,53,1,,,,,,,,,,,,,,,,,,,,,,,,,,,,,,,,,,,,,,,,,,,,,,,,,,,,,,,,,,,,,,,,,,,,,,
,,?,0.00098,0,,,,,,stimuli/images/PICTURE_491.png,GLASS,5ef767e022eb1d49042c4410,2020-06-30_19h51.20.886,proactive,2020.1.2,Win32,60,5efb791ed4cb570da489e737,5efb87255769c70f1c5f8a1e,4,,,,,,rug,,,,,,,,,,,2,1,0,9,9,14,1,,,,,,,,,,,,,,,,,,,,,,,,,,,,,,,,,,,,,,,,,,,,,,,,,,,,,,,,,,,,,,,,,,,,,,
,,?,0.00096,0,,,,,,stimuli/images/PICTURE_654.png,MONTH,5ef767e022eb1d49042c4410,2020-06-30_19h51.20.886,proactive,2020.1.2,Win32,60,5efb791ed4cb570da489e737,5efb87255769c70f1c5f8a1e,4,,,,,,pencil,,,,,,,,,,,3,1,0,10,10,29,1,,,,,,,,,,,,,,,,,,,,,,,,,,,,,,,,,,,,,,,,,,,,,,,,,,,,,,,,,,,,,,,,,,,,,,
,,?,0.001635,0,,,,,,stimuli/images/PICTURE_708.png,RECORD,5ef767e022eb1d49042c4410,2020-06-30_19h51.20.886,proactive,2020.1.2,Win32,60,5efb791ed4cb570da489e737,5efb87255769c70f1c5f8a1e,4,,,,,,monkey,,,,,,,,,,,6,1,0,11,11,58,1,,,,,,,,,,,,,,,,,,,,,,,,,,,,,,,,,,,,,,,,,,,,,,,,,,,,,,,,,,,,,,,,,,,,,,
,,?,0.00137,0,,,,,,stimuli/images/PICTURE_327.png,CASINO,5ef767e022eb1d49042c4410,2020-06-30_19h51.20.886,proactive,2020.1.2,Win32,60,5efb791ed4cb570da489e737,5efb87255769c70f1c5f8a1e,4,,,,,,helmet,,,,,,,,,,,3,1,0,12,12,20,1,,,,,,,,,,,,,,,,,,,,,,,,,,,,,,,,,,,,,,,,,,,,,,,,,,,,,,,,,,,,,,,,,,,,,,
,,?,0.000775,0,,,,,,stimuli/images/PICTURE_677.png,APPLE,5ef767e022eb1d49042c4410,2020-06-30_19h51.20.886,proactive,2020.1.2,Win32,60,5efb791ed4cb570da489e737,5efb87255769c70f1c5f8a1e,4,,,,,,map,,,,,,,,,,,5,1,0,13,13,43,1,,,,,,,,,,,,,,,,,,,,,,,,,,,,,,,,,,,,,,,,,,,,,,,,,,,,,,,,,,,,,,,,,,,,,,
,,?,8.66495,0,,,,,,stimuli/images/PICTURE_203.png,GODS,5ef767e022eb1d49042c4410,2020-06-30_19h51.20.886,proactive,2020.1.2,Win32,60,5efb791ed4cb570da489e737,5efb87255769c70f1c5f8a1e,4,,,,,,cap,,,,,,,,,,,4,1,0,14,14,30,1,,,,,,,,,,,,,,,,,,,,,,,,,,,,,,,,,,,,,,,,,,,,,,,,,,,,,,,,,,,,,,,,,,,,,,
,,?,0.001675,0,,,,,,stimuli/images/PICTURE_380.png,CANDY,5ef767e022eb1d49042c4410,2020-06-30_19h51.20.886,proactive,2020.1.2,Win32,60,5efb791ed4cb570da489e737,5efb87255769c70f1c5f8a1e,4,,,,,,gorilla,,,,,,,,,,,1,1,0,15,15,0,1,,,,,,,,,,,,,,,,,,,,,,,,,,,,,,,,,,,,,,,,,,,,,,,,,,,,,,,,,,,,,,,,,,,,,,
,,?,0.00132,0,,,,,,stimuli/images/PICTURE_675.png,SALE,5ef767e022eb1d49042c4410,2020-06-30_19h51.20.886,proactive,2020.1.2,Win32,60,5efb791ed4cb570da489e737,5efb87255769c70f1c5f8a1e,4,,,,,,windmill,,,,,,,,,,,5,1,0,16,16,47,1,,,,,,,,,,,,,,,,,,,,,,,,,,,,,,,,,,,,,,,,,,,,,,,,,,,,,,,,,,,,,,,,,,,,,,
,,?,0.001215,0,,,,,,stimuli/images/PICTURE_32.png,PILLS,5ef767e022eb1d49042c4410,2020-06-30_19h51.20.886,proactive,2020.1.2,Win32,60,5efb791ed4cb570da489e737,5efb87255769c70f1c5f8a1e,4,,,,,,crown,,,,,,,,,,,2,1,0,17,17,18,1,,,,,,,,,,,,,,,,,,,,,,,,,,,,,,,,,,,,,,,,,,,,,,,,,,,,,,,,,,,,,,,,,,,,,,
,,?,0.00121,0,,,,,,stimuli/images/PICTURE_147.png,YEAR,5ef767e022eb1d49042c4410,2020-06-30_19h51.20.886,proactive,2020.1.2,Win32,60,5efb791ed4cb570da489e737,5efb87255769c70f1c5f8a1e,4,,,,,,hanger,,,,,,,,,,,3,1,0,18,18,21,1,,,,,,,,,,,,,,,,,,,,,,,,,,,,,,,,,,,,,,,,,,,,,,,,,,,,,,,,,,,,,,,,,,,,,,
,,?,0.000945,0,,,,,,stimuli/images/PICTURE_95.png,MILLER,5ef767e022eb1d49042c4410,2020-06-30_19h51.20.886,proactive,2020.1.2,Win32,60,5efb791ed4cb570da489e737,5efb87255769c70f1c5f8a1e,4,,,,,,suitcase,,,,,,,,,,,6,1,0,19,19,56,1,,,,,,,,,,,,,,,,,,,,,,,,,,,,,,,,,,,,,,,,,,,,,,,,,,,,,,,,,,,,,,,,,,,,,,
,,?,0.000925,0,,,,,,stimuli/images/PICTURE_403.png,RIVER,5ef767e022eb1d49042c4410,2020-06-30_19h51.20.886,proactive,2020.1.2,Win32,60,5efb791ed4cb570da489e737,5efb87255769c70f1c5f8a1e,4,,,,,,cathedral,,,,,,,,,,,5,1,0,20,20,40,1,,,,,,,,,,,,,,,,,,,,,,,,,,,,,,,,,,,,,,,,,,,,,,,,,,,,,,,,,,,,,,,,,,,,,,
,,FAMILY,5.49041,1,,,,,,stimuli/images/PICTURE_308.png,FAMILY,5ef767e022eb1d49042c4410,2020-06-30_19h51.20.886,proactive,2020.1.2,Win32,60,5efb791ed4cb570da489e737,5efb87255769c70f1c5f8a1e,4,,,,,,dice,,,,,,,,,,,4,1,0,21,21,36,1,,,,,,,,,,,,,,,,,,,,,,,,,,,,,,,,,,,,,,,,,,,,,,,,,,,,,,,,,,,,,,,,,,,,,,
,,?,0.001885,0,,,,,,stimuli/images/PICTURE_380.png,HONEY,5ef767e022eb1d49042c4410,2020-06-30_19h51.20.886,proactive,2020.1.2,Win32,60,5efb791ed4cb570da489e737,5efb87255769c70f1c5f8a1e,4,,,,,,gorilla,,,,,,,,,,,2,1,0,22,22,19,1,,,,,,,,,,,,,,,,,,,,,,,,,,,,,,,,,,,,,,,,,,,,,,,,,,,,,,,,,,,,,,,,,,,,,,
,,?,0.001595,0,,,,,,stimuli/images/PICTURE_564.png,BATH,5ef767e022eb1d49042c4410,2020-06-30_19h51.20.886,proactive,2020.1.2,Win32,60,5efb791ed4cb570da489e737,5efb87255769c70f1c5f8a1e,4,,,,,,spoon,,,,,,,,,,,3,1,0,23,23,26,1,,,,,,,,,,,,,,,,,,,,,,,,,,,,,,,,,,,,,,,,,,,,,,,,,,,,,,,,,,,,,,,,,,,,,,
,,?,0.000955,0,,,,,,stimuli/images/PICTURE_685.png,PENNY,5ef767e022eb1d49042c4410,2020-06-30_19h51.20.886,proactive,2020.1.2,Win32,60,5efb791ed4cb570da489e737,5efb87255769c70f1c5f8a1e,4,,,,,,goose,,,,,,,,,,,1,1,0,24,24,4,1,,,,,,,,,,,,,,,,,,,,,,,,,,,,,,,,,,,,,,,,,,,,,,,,,,,,,,,,,,,,,,,,,,,,,,
,,?,0.00093,0,,,,,,stimuli/images/PICTURE_383.png,SERIES,5ef767e022eb1d49042c4410,2020-06-30_19h51.20.886,proactive,2020.1.2,Win32,60,5efb791ed4cb570da489e737,5efb87255769c70f1c5f8a1e,4,,,,,,coin,,,,,,,,,,,5,1,0,25,25,46,1,,,,,,,,,,,,,,,,,,,,,,,,,,,,,,,,,,,,,,,,,,,,,,,,,,,,,,,,,,,,,,,,,,,,,,
,,?,0.001515,0,,,,,,stimuli/images/PICTURE_403.png,TOILET,5ef767e022eb1d49042c4410,2020-06-30_19h51.20.886,proactive,2020.1.2,Win32,60,5efb791ed4cb570da489e737,5efb87255769c70f1c5f8a1e,4,,,,,,cathedral,,,,,,,,,,,3,1,0,26,26,25,1,,,,,,,,,,,,,,,,,,,,,,,,,,,,,,,,,,,,,,,,,,,,,,,,,,,,,,,,,,,,,,,,,,,,,,
,,?,0.00101,0,,,,,,stimuli/images/PICTURE_469.png,AGENT,5ef767e022eb1d49042c4410,2020-06-30_19h51.20.886,proactive,2020.1.2,Win32,60,5efb791ed4cb570da489e737,5efb87255769c70f1c5f8a1e,4,,,,,,stool,,,,,,,,,,,2,1,0,27,27,16,1,,,,,,,,,,,,,,,,,,,,,,,,,,,,,,,,,,,,,,,,,,,,,,,,,,,,,,,,,,,,,,,,,,,,,,
,,?,0.00093,0,,,,,,stimuli/images/PICTURE_504.png,COPS,5ef767e022eb1d49042c4410,2020-06-30_19h51.20.886,proactive,2020.1.2,Win32,60,5efb791ed4cb570da489e737,5efb87255769c70f1c5f8a1e,4,,,,,,wheel,,,,,,,,,,,6,1,0,28,28,52,1,,,,,,,,,,,,,,,,,,,,,,,,,,,,,,,,,,,,,,,,,,,,,,,,,,,,,,,,,,,,,,,,,,,,,,
,,HOUSE,3.883615,0,,,,,,stimuli/images/PICTURE_208.png,SYSTEM,5ef767e022eb1d49042c4410,2020-06-30_19h51.20.886,proactive,2020.1.2,Win32,60,5efb791ed4cb570da489e737,5efb87255769c70f1c5f8a1e,4,,,,,,microphone,,,,,,,,,,,4,1,0,29,29,32,1,,,,,,,,,,,,,,,,,,,,,,,,,,,,,,,,,,,,,,,,,,,,,,,,,,,,,,,,,,,,,,,,,,,,,,
,,?,0.001725,0,,,,,,stimuli/images/PICTURE_327.png,SERIES,5ef767e022eb1d49042c4410,2020-06-30_19h51.20.886,proactive,2020.1.2,Win32,60,5efb791ed4cb570da489e737,5efb87255769c70f1c5f8a1e,4,,,,,,helmet,,,,,,,,,,,1,1,0,30,30,3,1,,,,,,,,,,,,,,,,,,,,,,,,,,,,,,,,,,,,,,,,,,,,,,,,,,,,,,,,,,,,,,,,,,,,,,
,,?,0.00135,0,,,,,,stimuli/images/PICTURE_296.png,LOTS,5ef767e022eb1d49042c4410,2020-06-30_19h51.20.886,proactive,2020.1.2,Win32,60,5efb791ed4cb570da489e737,5efb87255769c70f1c5f8a1e,4,,,,,,bolt,,,,,,,,,,,1,1,0,31,31,9,1,,,,,,,,,,,,,,,,,,,,,,,,,,,,,,,,,,,,,,,,,,,,,,,,,,,,,,,,,,,,,,,,,,,,,,
,,?,0.001195,0,,,,,,stimuli/images/PICTURE_487.png,GIRL,5ef767e022eb1d49042c4410,2020-06-30_19h51.20.886,proactive,2020.1.2,Win32,60,5efb791ed4cb570da489e737,5efb87255769c70f1c5f8a1e,4,,,,,,basket,,,,,,,,,,,5,1,0,32,32,45,1,,,,,,,,,,,,,,,,,,,,,,,,,,,,,,,,,,,,,,,,,,,,,,,,,,,,,,,,,,,,,,,,,,,,,,
,,?,0.00179,0,,,,,,stimuli/images/PICTURE_33.png,FRIEND,5ef767e022eb1d49042c4410,2020-06-30_19h51.20.886,proactive,2020.1.2,Win32,60,5efb791ed4cb570da489e737,5efb87255769c70f1c5f8a1e,4,,,,,,frame,,,,,,,,,,,1,1,0,33,33,8,1,,,,,,,,,,,,,,,,,,,,,,,,,,,,,,,,,,,,,,,,,,,,,,,,,,,,,,,,,,,,,,,,,,,,,,
,,?,0.00116,0,,,,,,stimuli/images/PICTURE_449.png,DUDE,5ef767e022eb1d49042c4410,2020-06-30_19h51.20.886,proactive,2020.1.2,Win32,60,5efb791ed4cb570da489e737,5efb87255769c70f1c5f8a1e,4,,,,,,bench,,,,,,,,,,,2,1,0,34,34,17,1,,,,,,,,,,,,,,,,,,,,,,,,,,,,,,,,,,,,,,,,,,,,,,,,,,,,,,,,,,,,,,,,,,,,,,
,,?,3.264635,0,,,,,,stimuli/images/PICTURE_297.png,RIVER,5ef767e022eb1d49042c4410,2020-06-30_19h51.20.886,proactive,2020.1.2,Win32,60,5efb791ed4cb570da489e737,5efb87255769c70f1c5f8a1e,4,,,,,,aeroplane,,,,,,,,,,,4,1,0,35,35,39,1,,,,,,,,,,,,,,,,,,,,,,,,,,,,,,,,,,,,,,,,,,,,,,,,,,,,,,,,,,,,,,,,,,,,,,
,,?,0.00156,0,,,,,,stimuli/images/PICTURE_177.png,WRITER,5ef767e022eb1d49042c4410,2020-06-30_19h51.20.886,proactive,2020.1.2,Win32,60,5efb791ed4cb570da489e737,5efb87255769c70f1c5f8a1e,4,,,,,,mushroom,,,,,,,,,,,5,1,0,36,36,41,1,,,,,,,,,,,,,,,,,,,,,,,,,,,,,,,,,,,,,,,,,,,,,,,,,,,,,,,,,,,,,,,,,,,,,,
,,?,0.002045,0,,,,,,stimuli/images/PICTURE_233.png,LOTS,5ef767e022eb1d49042c4410,2020-06-30_19h51.20.886,proactive,2020.1.2,Win32,60,5efb791ed4cb570da489e737,5efb87255769c70f1c5f8a1e,4,,,,,,salt,,,,,,,,,,,5,1,0,37,37,42,1,,,,,,,,,,,,,,,,,,,,,,,,,,,,,,,,,,,,,,,,,,,,,,,,,,,,,,,,,,,,,,,,,,,,,,
,,?,0.001335,0,,,,,,stimuli/images/PICTURE_405.png,PLENTY,5ef767e022eb1d49042c4410,2020-06-30_19h51.20.886,proactive,2020.1.2,Win32,60,5efb791ed4cb570da489e737,5efb87255769c70f1c5f8a1e,4,,,,,,anchor,,,,,,,,,,,3,1,0,38,38,23,1,,,,,,,,,,,,,,,,,,,,,,,,,,,,,,,,,,,,,,,,,,,,,,,,,,,,,,,,,,,,,,,,,,,,,,
,,?,0.00127,0,,,,,,stimuli/images/PICTURE_85.png,TOILET,5ef767e022eb1d49042c4410,2020-06-30_19h51.20.886,proactive,2020.1.2,Win32,60,5efb791ed4cb570da489e737,5efb87255769c70f1c5f8a1e,4,,,,,,diamond,,,,,,,,,,,5,1,0,39,39,48,1,,,,,,,,,,,,,,,,,,,,,,,,,,,,,,,,,,,,,,,,,,,,,,,,,,,,,,,,,,,,,,,,,,,,,,
,,?,0.001225,0,,,,,,stimuli/images/PICTURE_108.png,FLIGHT,5ef767e022eb1d49042c4410,2020-06-30_19h51.20.886,proactive,2020.1.2,Win32,60,5efb791ed4cb570da489e737,5efb87255769c70f1c5f8a1e,4,,,,,,calendar,,,,,,,,,,,6,1,0,40,40,59,1,,,,,,,,,,,,,,,,,,,,,,,,,,,,,,,,,,,,,,,,,,,,,,,,,,,,,,,,,,,,,,,,,,,,,,
,,?,0.001175,0,,,,,,stimuli/images/PICTURE_655.png,TOILET,5ef767e022eb1d49042c4410,2020-06-30_19h51.20.886,proactive,2020.1.2,Win32,60,5efb791ed4cb570da489e737,5efb87255769c70f1c5f8a1e,4,,,,,,megaphone,,,,,,,,,,,2,1,0,41,41,12,1,,,,,,,,,,,,,,,,,,,,,,,,,,,,,,,,,,,,,,,,,,,,,,,,,,,,,,,,,,,,,,,,,,,,,,
,,?,0.001045,0,,,,,,stimuli/images/PICTURE_95.png,HONEY,5ef767e022eb1d49042c4410,2020-06-30_19h51.20.886,proactive,2020.1.2,Win32,60,5efb791ed4cb570da489e737,5efb87255769c70f1c5f8a1e,4,,,,,,suitcase,,,,,,,,,,,5,1,0,42,42,44,1,,,,,,,,,,,,,,,,,,,,,,,,,,,,,,,,,,,,,,,,,,,,,,,,,,,,,,,,,,,,,,,,,,,,,,
,,?,0.00104,0,,,,,,stimuli/images/PICTURE_95.png,BOYS,5ef767e022eb1d49042c4410,2020-06-30_19h51.20.886,proactive,2020.1.2,Win32,60,5efb791ed4cb570da489e737,5efb87255769c70f1c5f8a1e,4,,,,,,suitcase,,,,,,,,,,,1,1,0,43,43,1,1,,,,,,,,,,,,,,,,,,,,,,,,,,,,,,,,,,,,,,,,,,,,,,,,,,,,,,,,,,,,,,,,,,,,,,
,,?,0.00139,0,,,,,,stimuli/images/PICTURE_744.png,WEAPON,5ef767e022eb1d49042c4410,2020-06-30_19h51.20.886,proactive,2020.1.2,Win32,60,5efb791ed4cb570da489e737,5efb87255769c70f1c5f8a1e,4,,,,,,ring,,,,,,,,,,,6,1,0,44,44,50,1,,,,,,,,,,,,,,,,,,,,,,,,,,,,,,,,,,,,,,,,,,,,,,,,,,,,,,,,,,,,,,,,,,,,,,
,,?,0.00075,0,,,,,,stimuli/images/PICTURE_491.png,RIVER,5ef767e022eb1d49042c4410,2020-06-30_19h51.20.886,proactive,2020.1.2,Win32,60,5efb791ed4cb570da489e737,5efb87255769c70f1c5f8a1e,4,,,,,,rug,,,,,,,,,,,1,1,0,45,45,6,1,,,,,,,,,,,,,,,,,,,,,,,,,,,,,,,,,,,,,,,,,,,,,,,,,,,,,,,,,,,,,,,,,,,,,,
,,?,0.001015,0,,,,,,stimuli/images/PICTURE_147.png,WOMEN,5ef767e022eb1d49042c4410,2020-06-30_19h51.20.886,proactive,2020.1.2,Win32,60,5efb791ed4cb570da489e737,5efb87255769c70f1c5f8a1e,4,,,,,,hanger,,,,,,,,,,,1,1,0,46,46,7,1,,,,,,,,,,,,,,,,,,,,,,,,,,,,,,,,,,,,,,,,,,,,,,,,,,,,,,,,,,,,,,,,,,,,,,
,,?,0.0007,0,,,,,,stimuli/images/PICTURE_68.png,MILE,5ef767e022eb1d49042c4410,2020-06-30_19h51.20.886,proactive,2020.1.2,Win32,60,5efb791ed4cb570da489e737,5efb87255769c70f1c5f8a1e,4,,,,,,candle,,,,,,,,,,,6,1,0,47,47,51,1,,,,,,,,,,,,,,,,,,,,,,,,,,,,,,,,,,,,,,,,,,,,,,,,,,,,,,,,,,,,,,,,,,,,,,
,,?,0.00079,0,,,,,,stimuli/images/PICTURE_667.png,RIVER,5ef767e022eb1d49042c4410,2020-06-30_19h51.20.886,proactive,2020.1.2,Win32,60,5efb791ed4cb570da489e737,5efb87255769c70f1c5f8a1e,4,,,,,,daisy,,,,,,,,,,,2,1,0,48,48,10,1,,,,,,,,,,,,,,,,,,,,,,,,,,,,,,,,,,,,,,,,,,,,,,,,,,,,,,,,,,,,,,,,,,,,,,
,,?,0.00067,0,,,,,,stimuli/images/PICTURE_340.png,VALLEY,5ef767e022eb1d49042c4410,2020-06-30_19h51.20.886,proactive,2020.1.2,Win32,60,5efb791ed4cb570da489e737,5efb87255769c70f1c5f8a1e,4,,,,,,mirror,,,,,,,,,,,6,1,0,49,49,54,1,,,,,,,,,,,,,,,,,,,,,,,,,,,,,,,,,,,,,,,,,,,,,,,,,,,,,,,,,,,,,,,,,,,,,,
,,TEAR,4.84494,0,,,,,,stimuli/images/PICTURE_405.png,YEAR,5ef767e022eb1d49042c4410,2020-06-30_19h51.20.886,proactive,2020.1.2,Win32,60,5efb791ed4cb570da489e737,5efb87255769c70f1c5f8a1e,4,,,,,,anchor,,,,,,,,,,,4,1,0,50,50,34,1,,,,,,,,,,,,,,,,,,,,,,,,,,,,,,,,,,,,,,,,,,,,,,,,,,,,,,,,,,,,,,,,,,,,,,
,,?,0.00121,0,,,,,,stimuli/images/PICTURE_504.png,YEAR,5ef767e022eb1d49042c4410,2020-06-30_19h51.20.886,proactive,2020.1.2,Win32,60,5efb791ed4cb570da489e737,5efb87255769c70f1c5f8a1e,4,,,,,,wheel,,,,,,,,,,,2,1,0,51,51,13,1,,,,,,,,,,,,,,,,,,,,,,,,,,,,,,,,,,,,,,,,,,,,,,,,,,,,,,,,,,,,,,,,,,,,,,
,,?,0.00257,0,,,,,,stimuli/images/PICTURE_203.png,NIGHT,5ef767e022eb1d49042c4410,2020-06-30_19h51.20.886,proactive,2020.1.2,Win32,60,5efb791ed4cb570da489e737,5efb87255769c70f1c5f8a1e,4,,,,,,cap,,,,,,,,,,,1,1,0,52,52,2,1,,,,,,,,,,,,,,,,,,,,,,,,,,,,,,,,,,,,,,,,,,,,,,,,,,,,,,,,,,,,,,,,,,,,,,
,,?,0.002765,0,,,,,,stimuli/images/PICTURE_108.png,POLICY,5ef767e022eb1d49042c4410,2020-06-30_19h51.20.886,proactive,2020.1.2,Win32,60,5efb791ed4cb570da489e737,5efb87255769c70f1c5f8a1e,4,,,,,,calendar,,,,,,,,,,,3,1,0,53,53,22,1,,,,,,,,,,,,,,,,,,,,,,,,,,,,,,,,,,,,,,,,,,,,,,,,,,,,,,,,,,,,,,,,,,,,,,
,,?,0.0007,0,,,,,,stimuli/images/PICTURE_42.png,BOYS,5ef767e022eb1d49042c4410,2020-06-30_19h51.20.886,proactive,2020.1.2,Win32,60,5efb791ed4cb570da489e737,5efb87255769c70f1c5f8a1e,4,,,,,,pear,,,,,,,,,,,6,1,0,54,54,55,1,,,,,,,,,,,,,,,,,,,,,,,,,,,,,,,,,,,,,,,,,,,,,,,,,,,,,,,,,,,,,,,,,,,,,,
,,?,0.00065,0,,,,,,stimuli/images/PICTURE_383.png,WRITER,5ef767e022eb1d49042c4410,2020-06-30_19h51.20.886,proactive,2020.1.2,Win32,60,5efb791ed4cb570da489e737,5efb87255769c70f1c5f8a1e,4,,,,,,coin,,,,,,,,,,,3,1,0,55,55,28,1,,,,,,,,,,,,,,,,,,,,,,,,,,,,,,,,,,,,,,,,,,,,,,,,,,,,,,,,,,,,,,,,,,,,,,
,,HOUSE,4.12536,0,,,,,,stimuli/images/PICTURE_68.png,ROOF,5ef767e022eb1d49042c4410,2020-06-30_19h51.20.886,proactive,2020.1.2,Win32,60,5efb791ed4cb570da489e737,5efb87255769c70f1c5f8a1e,4,,,,,,candle,,,,,,,,,,,4,1,0,56,56,38,1,,,,,,,,,,,,,,,,,,,,,,,,,,,,,,,,,,,,,,,,,,,,,,,,,,,,,,,,,,,,,,,,,,,,,,
,,WRITER,6.108035,1,,,,,,stimuli/images/PICTURE_403.png,WRITER,5ef767e022eb1d49042c4410,2020-06-30_19h51.20.886,proactive,2020.1.2,Win32,60,5efb791ed4cb570da489e737,5efb87255769c70f1c5f8a1e,4,,,,,,cathedral,,,,,,,,,,,4,1,0,57,57,31,1,,,,,,,,,,,,,,,,,,,,,,,,,,,,,,,,,,,,,,,,,,,,,,,,,,,,,,,,,,,,,,,,,,,,,,
,,?,0.001855,0,,,,,,stimuli/images/PICTURE_2.png,FLIGHT,5ef767e022eb1d49042c4410,2020-06-30_19h51.20.886,proactive,2020.1.2,Win32,60,5efb791ed4cb570da489e737,5efb87255769c70f1c5f8a1e,4,,,,,,tyre,,,,,,,,,,,2,1,0,58,58,15,1,,,,,,,,,,,,,,,,,,,,,,,,,,,,,,,,,,,,,,,,,,,,,,,,,,,,,,,,,,,,,,,,,,,,,,
,,LIFE,4.490145,1,,,,,,stimuli/images/PICTURE_285.png,LIFE,5ef767e022eb1d49042c4410,2020-06-30_19h51.20.886,proactive,2020.1.2,Win32,60,5efb791ed4cb570da489e737,5efb87255769c70f1c5f8a1e,4,,,,,,carrot,,,,,,,,,,,4,1,0,59,59,33,1,,,,,,,,,,,,,,,,,,,,,,,,,,,,,,,,,,,,,,,,,,,,,,,,,,,,,,,,,,,,,,,,,,,,,,
,,,,,,,,,,,,5ef767e022eb1d49042c4410,2020-06-30_19h51.20.886,proactive,2020.1.2,Win32,60,5efb791ed4cb570da489e737,5efb87255769c70f1c5f8a1e,4,,,,,,,,,,,,,,,,,,,,,,,,0,0,0,1,1,stimuli/learn-block2.csv,,,,,,,,,,,,,,,,,,,,,,,,,,,,,,,,,,,,,,,,,,,,,,,,,,,,,,,,,,,,,,,,
,,,,,,,,,,stimuli/images/PICTURE_654.png,VALLEY,5ef767e022eb1d49042c4410,2020-06-30_19h51.20.886,proactive,2020.1.2,Win32,60,5efb791ed4cb570da489e737,5efb87255769c70f1c5f8a1e,4,,,,,,pencil,,,,,,0,0,0,1,1,1,0,,,,,,,,,,,,,,,,,,,,,,,,,,,,,,,,,,,,,,,,,,,,,,,,,,,,,,,,,,,,,,,,,,,,,,,,,,,
,,,,,,,,,,stimuli/images/PICTURE_255.png,AREA,5ef767e022eb1d49042c4410,2020-06-30_19h51.20.886,proactive,2020.1.2,Win32,60,5efb791ed4cb570da489e737,5efb87255769c70f1c5f8a1e,4,,,,,,shovel,,,,,,0,1,1,22,1,3,0,,,,,,,,,,,,,,,,,,,,,,,,,,,,,,,,,,,,,,,,,,,,,,,,,,,,,,,,,,,,,,,,,,,,,,,,,,,
,,,,,,,,,,stimuli/images/PICTURE_509.png,PHOTO,5ef767e022eb1d49042c4410,2020-06-30_19h51.20.886,proactive,2020.1.2,Win32,60,5efb791ed4cb570da489e737,5efb87255769c70f1c5f8a1e,4,,,,,,telephone,,,,,,0,2,2,21,1,3,0,,,,,,,,,,,,,,,,,,,,,,,,,,,,,,,,,,,,,,,,,,,,,,,,,,,,,,,,,,,,,,,,,,,,,,,,,,,
,,,,,,,,,,stimuli/images/PICTURE_348.png,SPEECH,5ef767e022eb1d49042c4410,2020-06-30_19h51.20.886,proactive,2020.1.2,Win32,60,5efb791ed4cb570da489e737,5efb87255769c70f1c5f8a1e,4,,,,,,pepper,,,,,,0,3,3,20,1,3,0,,,,,,,,,,,,,,,,,,,,,,,,,,,,,,,,,,,,,,,,,,,,,,,,,,,,,,,,,,,,,,,,,,,,,,,,,,,
,,,,,,,,,,stimuli/images/PICTURE_380.png,DEATH,5ef767e022eb1d49042c4410,2020-06-30_19h51.20.886,proactive,2020.1.2,Win32,60,5efb791ed4cb570da489e737,5efb87255769c70f1c5f8a1e,4,,,,,,gorilla,,,,,,0,4,4,49,1,5,0,,,,,,,,,,,,,,,,,,,,,,,,,,,,,,,,,,,,,,,,,,,,,,,,,,,,,,,,,,,,,,,,,,,,,,,,,,,
,,,,,,,,,,stimuli/images/PICTURE_453.png,PLENTY,5ef767e022eb1d49042c4410,2020-06-30_19h51.20.886,proactive,2020.1.2,Win32,60,5efb791ed4cb570da489e737,5efb87255769c70f1c5f8a1e,4,,,,,,scissors,,,,,,0,5,5,56,1,6,0,,,,,,,,,,,,,,,,,,,,,,,,,,,,,,,,,,,,,,,,,,,,,,,,,,,,,,,,,,,,,,,,,,,,,,,,,,,
,,,,,,,,,,stimuli/images/PICTURE_160.png,LEADER,5ef767e022eb1d49042c4410,2020-06-30_19h51.20.886,proactive,2020.1.2,Win32,60,5efb791ed4cb570da489e737,5efb87255769c70f1c5f8a1e,4,,,,,,wheelbarrow,,,,,,0,6,6,3,1,1,0,,,,,,,,,,,,,,,,,,,,,,,,,,,,,,,,,,,,,,,,,,,,,,,,,,,,,,,,,,,,,,,,,,,,,,,,,,,
,,,,,,,,,,stimuli/images/PICTURE_469.png,ARTIST,5ef767e022eb1d49042c4410,2020-06-30_19h51.20.886,proactive,2020.1.2,Win32,60,5efb791ed4cb570da489e737,5efb87255769c70f1c5f8a1e,4,,,,,,stool,,,,,,0,7,7,6,1,1,0,,,,,,,,,,,,,,,,,,,,,,,,,,,,,,,,,,,,,,,,,,,,,,,,,,,,,,,,,,,,,,,,,,,,,,,,,,,
,,,,,,,,,,stimuli/images/PICTURE_208.png,MONTH,5ef767e022eb1d49042c4410,2020-06-30_19h51.20.886,proactive,2020.1.2,Win32,60,5efb791ed4cb570da489e737,5efb87255769c70f1c5f8a1e,4,,,,,,microphone,,,,,,0,8,8,53,1,6,0,,,,,,,,,,,,,,,,,,,,,,,,,,,,,,,,,,,,,,,,,,,,,,,,,,,,,,,,,,,,,,,,,,,,,,,,,,,
,,,,,,,,,,stimuli/images/PICTURE_688.png,CASINO,5ef767e022eb1d49042c4410,2020-06-30_19h51.20.886,proactive,2020.1.2,Win32,60,5efb791ed4cb570da489e737,5efb87255769c70f1c5f8a1e,4,,,,,,runner,,,,,,0,9,9,2,1,1,0,,,,,,,,,,,,,,,,,,,,,,,,,,,,,,,,,,,,,,,,,,,,,,,,,,,,,,,,,,,,,,,,,,,,,,,,,,,
,,,,,,,,,,stimuli/images/PICTURE_123.png,ADVICE,5ef767e022eb1d49042c4410,2020-06-30_19h51.20.886,proactive,2020.1.2,Win32,60,5efb791ed4cb570da489e737,5efb87255769c70f1c5f8a1e,4,,,,,,dart,,,,,,0,10,10,50,1,6,0,,,,,,,,,,,,,,,,,,,,,,,,,,,,,,,,,,,,,,,,,,,,,,,,,,,,,,,,,,,,,,,,,,,,,,,,,,,
,,,,,,,,,,stimuli/images/PICTURE_667.png,BATH,5ef767e022eb1d49042c4410,2020-06-30_19h51.20.886,proactive,2020.1.2,Win32,60,5efb791ed4cb570da489e737,5efb87255769c70f1c5f8a1e,4,,,,,,daisy,,,,,,0,11,11,4,1,1,0,,,,,,,,,,,,,,,,,,,,,,,,,,,,,,,,,,,,,,,,,,,,,,,,,,,,,,,,,,,,,,,,,,,,,,,,,,,
,,,,,,,,,,stimuli/images/PICTURE_708.png,YARD,5ef767e022eb1d49042c4410,2020-06-30_19h51.20.886,proactive,2020.1.2,Win32,60,5efb791ed4cb570da489e737,5efb87255769c70f1c5f8a1e,4,,,,,,monkey,,,,,,0,12,12,29,1,3,0,,,,,,,,,,,,,,,,,,,,,,,,,,,,,,,,,,,,,,,,,,,,,,,,,,,,,,,,,,,,,,,,,,,,,,,,,,,
,,,,,,,,,,stimuli/images/PICTURE_491.png,WRITER,5ef767e022eb1d49042c4410,2020-06-30_19h51.20.886,proactive,2020.1.2,Win32,60,5efb791ed4cb570da489e737,5efb87255769c70f1c5f8a1e,4,,,,,,rug,,,,,,0,13,13,57,1,6,0,,,,,,,,,,,,,,,,,,,,,,,,,,,,,,,,,,,,,,,,,,,,,,,,,,,,,,,,,,,,,,,,,,,,,,,,,,,
,,,,,,,,,,stimuli/images/PICTURE_469.png,LETTER,5ef767e022eb1d49042c4410,2020-06-30_19h51.20.886,proactive,2020.1.2,Win32,60,5efb791ed4cb570da489e737,5efb87255769c70f1c5f8a1e,4,,,,,,stool,,,,,,0,14,14,42,1,5,0,,,,,,,,,,,,,,,,,,,,,,,,,,,,,,,,,,,,,,,,,,,,,,,,,,,,,,,,,,,,,,,,,,,,,,,,,,,
,,,,,,,,,,stimuli/images/PICTURE_487.png,FLIGHT,5ef767e022eb1d49042c4410,2020-06-30_19h51.20.886,proactive,2020.1.2,Win32,60,5efb791ed4cb570da489e737,5efb87255769c70f1c5f8a1e,4,,,,,,basket,,,,,,0,15,15,9,1,1,0,,,,,,,,,,,,,,,,,,,,,,,,,,,,,,,,,,,,,,,,,,,,,,,,,,,,,,,,,,,,,,,,,,,,,,,,,,,
,,,,,,,,,,stimuli/images/PICTURE_356.png,DANGER,5ef767e022eb1d49042c4410,2020-06-30_19h51.20.886,proactive,2020.1.2,Win32,60,5efb791ed4cb570da489e737,5efb87255769c70f1c5f8a1e,4,,,,,,pawn,,,,,,0,16,16,55,1,6,0,,,,,,,,,,,,,,,,,,,,,,,,,,,,,,,,,,,,,,,,,,,,,,,,,,,,,,,,,,,,,,,,,,,,,,,,,,,
,,,,,,,,,,stimuli/images/PICTURE_488.png,STYLE,5ef767e022eb1d49042c4410,2020-06-30_19h51.20.886,proactive,2020.1.2,Win32,60,5efb791ed4cb570da489e737,5efb87255769c70f1c5f8a1e,4,,,,,,sun,,,,,,0,17,17,33,1,4,0,,,,,,,,,,,,,,,,,,,,,,,,,,,,,,,,,,,,,,,,,,,,,,,,,,,,,,,,,,,,,,,,,,,,,,,,,,,
,,,,,,,,,,stimuli/images/PICTURE_744.png,SAKE,5ef767e022eb1d49042c4410,2020-06-30_19h51.20.886,proactive,2020.1.2,Win32,60,5efb791ed4cb570da489e737,5efb87255769c70f1c5f8a1e,4,,,,,,ring,,,,,,0,18,18,17,1,2,0,,,,,,,,,,,,,,,,,,,,,,,,,,,,,,,,,,,,,,,,,,,,,,,,,,,,,,,,,,,,,,,,,,,,,,,,,,,
,,,,,,,,,,stimuli/images/PICTURE_68.png,MILE,5ef767e022eb1d49042c4410,2020-06-30_19h51.20.886,proactive,2020.1.2,Win32,60,5efb791ed4cb570da489e737,5efb87255769c70f1c5f8a1e,4,,,,,,candle,,,,,,0,19,19,44,1,5,0,,,,,,,,,,,,,,,,,,,,,,,,,,,,,,,,,,,,,,,,,,,,,,,,,,,,,,,,,,,,,,,,,,,,,,,,,,,
,,,,,,,,,,stimuli/images/PICTURE_248.png,DOZEN,5ef767e022eb1d49042c4410,2020-06-30_19h51.20.886,proactive,2020.1.2,Win32,60,5efb791ed4cb570da489e737,5efb87255769c70f1c5f8a1e,4,,,,,,cart,,,,,,0,20,20,39,1,4,0,,,,,,,,,,,,,,,,,,,,,,,,,,,,,,,,,,,,,,,,,,,,,,,,,,,,,,,,,,,,,,,,,,,,,,,,,,,
,,,,,,,,,,stimuli/images/PICTURE_688.png,WOMEN,5ef767e022eb1d49042c4410,2020-06-30_19h51.20.886,proactive,2020.1.2,Win32,60,5efb791ed4cb570da489e737,5efb87255769c70f1c5f8a1e,4,,,,,,runner,,,,,,0,21,21,14,1,2,0,,,,,,,,,,,,,,,,,,,,,,,,,,,,,,,,,,,,,,,,,,,,,,,,,,,,,,,,,,,,,,,,,,,,,,,,,,,
,,,,,,,,,,stimuli/images/PICTURE_677.png,MILE,5ef767e022eb1d49042c4410,2020-06-30_19h51.20.886,proactive,2020.1.2,Win32,60,5efb791ed4cb570da489e737,5efb87255769c70f1c5f8a1e,4,,,,,,map,,,,,,0,22,22,30,1,4,0,,,,,,,,,,,,,,,,,,,,,,,,,,,,,,,,,,,,,,,,,,,,,,,,,,,,,,,,,,,,,,,,,,,,,,,,,,,
,,,,,,,,,,stimuli/images/PICTURE_311.png,BEAUTY,5ef767e022eb1d49042c4410,2020-06-30_19h51.20.886,proactive,2020.1.2,Win32,60,5efb791ed4cb570da489e737,5efb87255769c70f1c5f8a1e,4,,,,,,razor,,,,,,0,23,23,13,1,2,0,,,,,,,,,,,,,,,,,,,,,,,,,,,,,,,,,,,,,,,,,,,,,,,,,,,,,,,,,,,,,,,,,,,,,,,,,,,
,,,,,,,,,,stimuli/images/PICTURE_285.png,ADVICE,5ef767e022eb1d49042c4410,2020-06-30_19h51.20.886,proactive,2020.1.2,Win32,60,5efb791ed4cb570da489e737,5efb87255769c70f1c5f8a1e,4,,,,,,carrot,,,,,,0,24,24,12,1,2,0,,,,,,,,,,,,,,,,,,,,,,,,,,,,,,,,,,,,,,,,,,,,,,,,,,,,,,,,,,,,,,,,,,,,,,,,,,,
,,,,,,,,,,stimuli/images/PICTURE_327.png,BEAUTY,5ef767e022eb1d49042c4410,2020-06-30_19h51.20.886,proactive,2020.1.2,Win32,60,5efb791ed4cb570da489e737,5efb87255769c70f1c5f8a1e,4,,,,,,helmet,,,,,,0,25,25,48,1,5,0,,,,,,,,,,,,,,,,,,,,,,,,,,,,,,,,,,,,,,,,,,,,,,,,,,,,,,,,,,,,,,,,,,,,,,,,,,,
,,,,,,,,,,stimuli/images/PICTURE_675.png,WEAPON,5ef767e022eb1d49042c4410,2020-06-30_19h51.20.886,proactive,2020.1.2,Win32,60,5efb791ed4cb570da489e737,5efb87255769c70f1c5f8a1e,4,,,,,,windmill,,,,,,0,26,26,32,1,4,0,,,,,,,,,,,,,,,,,,,,,,,,,,,,,,,,,,,,,,,,,,,,,,,,,,,,,,,,,,,,,,,,,,,,,,,,,,,
,,,,,,,,,,stimuli/images/PICTURE_667.png,PLENTY,5ef767e022eb1d49042c4410,2020-06-30_19h51.20.886,proactive,2020.1.2,Win32,60,5efb791ed4cb570da489e737,5efb87255769c70f1c5f8a1e,4,,,,,,daisy,,,,,,0,27,27,41,1,5,0,,,,,,,,,,,,,,,,,,,,,,,,,,,,,,,,,,,,,,,,,,,,,,,,,,,,,,,,,,,,,,,,,,,,,,,,,,,
,,,,,,,,,,stimuli/images/PICTURE_233.png,IDEAS,5ef767e022eb1d49042c4410,2020-06-30_19h51.20.886,proactive,2020.1.2,Win32,60,5efb791ed4cb570da489e737,5efb87255769c70f1c5f8a1e,4,,,,,,salt,,,,,,0,28,28,28,1,3,0,,,,,,,,,,,,,,,,,,,,,,,,,,,,,,,,,,,,,,,,,,,,,,,,,,,,,,,,,,,,,,,,,,,,,,,,,,,
,,,,,,,,,,stimuli/images/PICTURE_151.png,GIRL,5ef767e022eb1d49042c4410,2020-06-30_19h51.20.886,proactive,2020.1.2,Win32,60,5efb791ed4cb570da489e737,5efb87255769c70f1c5f8a1e,4,,,,,,tray,,,,,,0,29,29,19,1,2,0,,,,,,,,,,,,,,,,,,,,,,,,,,,,,,,,,,,,,,,,,,,,,,,,,,,,,,,,,,,,,,,,,,,,,,,,,,,
,,,,,,,,,,stimuli/images/PICTURE_744.png,SYSTEM,5ef767e022eb1d49042c4410,2020-06-30_19h51.20.886,proactive,2020.1.2,Win32,60,5efb791ed4cb570da489e737,5efb87255769c70f1c5f8a1e,4,,,,,,ring,,,,,,0,30,30,43,1,5,0,,,,,,,,,,,,,,,,,,,,,,,,,,,,,,,,,,,,,,,,,,,,,,,,,,,,,,,,,,,,,,,,,,,,,,,,,,,
,,,,,,,,,,stimuli/images/PICTURE_123.png,ADVICE,5ef767e022eb1d49042c4410,2020-06-30_19h51.20.886,proactive,2020.1.2,Win32,60,5efb791ed4cb570da489e737,5efb87255769c70f1c5f8a1e,4,,,,,,dart,,,,,,0,31,31,40,1,5,0,,,,,,,,,,,,,,,,,,,,,,,,,,,,,,,,,,,,,,,,,,,,,,,,,,,,,,,,,,,,,,,,,,,,,,,,,,,
,,,,,,,,,,stimuli/images/PICTURE_380.png,PHOTO,5ef767e022eb1d49042c4410,2020-06-30_19h51.20.886,proactive,2020.1.2,Win32,60,5efb791ed4cb570da489e737,5efb87255769c70f1c5f8a1e,4,,,,,,gorilla,,,,,,0,32,32,52,1,6,0,,,,,,,,,,,,,,,,,,,,,,,,,,,,,,,,,,,,,,,,,,,,,,,,,,,,,,,,,,,,,,,,,,,,,,,,,,,
,,,,,,,,,,stimuli/images/PICTURE_215.png,PLENTY,5ef767e022eb1d49042c4410,2020-06-30_19h51.20.886,proactive,2020.1.2,Win32,60,5efb791ed4cb570da489e737,5efb87255769c70f1c5f8a1e,4,,,,,,boot,,,,,,0,33,33,37,1,4,0,,,,,,,,,,,,,,,,,,,,,,,,,,,,,,,,,,,,,,,,,,,,,,,,,,,,,,,,,,,,,,,,,,,,,,,,,,,
,,,,,,,,,,stimuli/images/PICTURE_311.png,FRIEND,5ef767e022eb1d49042c4410,2020-06-30_19h51.20.886,proactive,2020.1.2,Win32,60,5efb791ed4cb570da489e737,5efb87255769c70f1c5f8a1e,4,,,,,,razor,,,,,,0,34,34,34,1,4,0,,,,,,,,,,,,,,,,,,,,,,,,,,,,,,,,,,,,,,,,,,,,,,,,,,,,,,,,,,,,,,,,,,,,,,,,,,,
,,,,,,,,,,stimuli/images/PICTURE_160.png,FEET,5ef767e022eb1d49042c4410,2020-06-30_19h51.20.886,proactive,2020.1.2,Win32,60,5efb791ed4cb570da489e737,5efb87255769c70f1c5f8a1e,4,,,,,,wheelbarrow,,,,,,0,35,35,58,1,6,0,,,,,,,,,,,,,,,,,,,,,,,,,,,,,,,,,,,,,,,,,,,,,,,,,,,,,,,,,,,,,,,,,,,,,,,,,,,
,,,,,,,,,,stimuli/images/PICTURE_708.png,PENNY,5ef767e022eb1d49042c4410,2020-06-30_19h51.20.886,proactive,2020.1.2,Win32,60,5efb791ed4cb570da489e737,5efb87255769c70f1c5f8a1e,4,,,,,,monkey,,,,,,0,36,36,31,1,4,0,,,,,,,,,,,,,,,,,,,,,,,,,,,,,,,,,,,,,,,,,,,,,,,,,,,,,,,,,,,,,,,,,,,,,,,,,,,
,,,,,,,,,,stimuli/images/PICTURE_32.png,JUNGLE,5ef767e022eb1d49042c4410,2020-06-30_19h51.20.886,proactive,2020.1.2,Win32,60,5efb791ed4cb570da489e737,5efb87255769c70f1c5f8a1e,4,,,,,,crown,,,,,,0,37,37,45,1,5,0,,,,,,,,,,,,,,,,,,,,,,,,,,,,,,,,,,,,,,,,,,,,,,,,,,,,,,,,,,,,,,,,,,,,,,,,,,,
,,,,,,,,,,stimuli/images/PICTURE_491.png,ROOF,5ef767e022eb1d49042c4410,2020-06-30_19h51.20.886,proactive,2020.1.2,Win32,60,5efb791ed4cb570da489e737,5efb87255769c70f1c5f8a1e,4,,,,,,rug,,,,,,0,38,38,24,1,3,0,,,,,,,,,,,,,,,,,,,,,,,,,,,,,,,,,,,,,,,,,,,,,,,,,,,,,,,,,,,,,,,,,,,,,,,,,,,
,,,,,,,,,,stimuli/images/PICTURE_203.png,ARTIST,5ef767e022eb1d49042c4410,2020-06-30_19h51.20.886,proactive,2020.1.2,Win32,60,5efb791ed4cb570da489e737,5efb87255769c70f1c5f8a1e,4,,,,,,cap,,,,,,0,39,39,26,1,3,0,,,,,,,,,,,,,,,,,,,,,,,,,,,,,,,,,,,,,,,,,,,,,,,,,,,,,,,,,,,,,,,,,,,,,,,,,,,
,,,,,,,,,,stimuli/images/PICTURE_708.png,CLIENT,5ef767e022eb1d49042c4410,2020-06-30_19h51.20.886,proactive,2020.1.2,Win32,60,5efb791ed4cb570da489e737,5efb87255769c70f1c5f8a1e,4,,,,,,monkey,,,,,,0,40,40,5,1,1,0,,,,,,,,,,,,,,,,,,,,,,,,,,,,,,,,,,,,,,,,,,,,,,,,,,,,,,,,,,,,,,,,,,,,,,,,,,,
,,,,,,,,,,stimuli/images/PICTURE_314.png,SAKE,5ef767e022eb1d49042c4410,2020-06-30_19h51.20.886,proactive,2020.1.2,Win32,60,5efb791ed4cb570da489e737,5efb87255769c70f1c5f8a1e,4,,,,,,perfume,,,,,,0,41,41,7,1,1,0,,,,,,,,,,,,,,,,,,,,,,,,,,,,,,,,,,,,,,,,,,,,,,,,,,,,,,,,,,,,,,,,,,,,,,,,,,,
,,,,,,,,,,stimuli/images/PICTURE_208.png,THING,5ef767e022eb1d49042c4410,2020-06-30_19h51.20.886,proactive,2020.1.2,Win32,60,5efb791ed4cb570da489e737,5efb87255769c70f1c5f8a1e,4,,,,,,microphone,,,,,,0,42,42,47,1,5,0,,,,,,,,,,,,,,,,,,,,,,,,,,,,,,,,,,,,,,,,,,,,,,,,,,,,,,,,,,,,,,,,,,,,,,,,,,,
,,,,,,,,,,stimuli/images/PICTURE_208.png,LOTS,5ef767e022eb1d49042c4410,2020-06-30_19h51.20.886,proactive,2020.1.2,Win32,60,5efb791ed4cb570da489e737,5efb87255769c70f1c5f8a1e,4,,,,,,microphone,,,,,,0,43,43,10,1,2,0,,,,,,,,,,,,,,,,,,,,,,,,,,,,,,,,,,,,,,,,,,,,,,,,,,,,,,,,,,,,,,,,,,,,,,,,,,,
,,,,,,,,,,stimuli/images/PICTURE_85.png,THING,5ef767e022eb1d49042c4410,2020-06-30_19h51.20.886,proactive,2020.1.2,Win32,60,5efb791ed4cb570da489e737,5efb87255769c70f1c5f8a1e,4,,,,,,diamond,,,,,,0,44,44,15,1,2,0,,,,,,,,,,,,,,,,,,,,,,,,,,,,,,,,,,,,,,,,,,,,,,,,,,,,,,,,,,,,,,,,,,,,,,,,,,,
,,,,,,,,,,stimuli/images/PICTURE_95.png,STYLE,5ef767e022eb1d49042c4410,2020-06-30_19h51.20.886,proactive,2020.1.2,Win32,60,5efb791ed4cb570da489e737,5efb87255769c70f1c5f8a1e,4,,,,,,suitcase,,,,,,0,45,45,25,1,3,0,,,,,,,,,,,,,,,,,,,,,,,,,,,,,,,,,,,,,,,,,,,,,,,,,,,,,,,,,,,,,,,,,,,,,,,,,,,
,,,,,,,,,,stimuli/images/PICTURE_314.png,GODS,5ef767e022eb1d49042c4410,2020-06-30_19h51.20.886,proactive,2020.1.2,Win32,60,5efb791ed4cb570da489e737,5efb87255769c70f1c5f8a1e,4,,,,,,perfume,,,,,,0,46,46,11,1,2,0,,,,,,,,,,,,,,,,,,,,,,,,,,,,,,,,,,,,,,,,,,,,,,,,,,,,,,,,,,,,,,,,,,,,,,,,,,,
,,,,,,,,,,stimuli/images/PICTURE_449.png,THING,5ef767e022eb1d49042c4410,2020-06-30_19h51.20.886,proactive,2020.1.2,Win32,60,5efb791ed4cb570da489e737,5efb87255769c70f1c5f8a1e,4,,,,,,bench,,,,,,0,47,47,59,1,6,0,,,,,,,,,,,,,,,,,,,,,,,,,,,,,,,,,,,,,,,,,,,,,,,,,,,,,,,,,,,,,,,,,,,,,,,,,,,
,,,,,,,,,,stimuli/images/PICTURE_692.png,MONTH,5ef767e022eb1d49042c4410,2020-06-30_19h51.20.886,proactive,2020.1.2,Win32,60,5efb791ed4cb570da489e737,5efb87255769c70f1c5f8a1e,4,,,,,,cherry,,,,,,0,48,48,16,1,2,0,,,,,,,,,,,,,,,,,,,,,,,,,,,,,,,,,,,,,,,,,,,,,,,,,,,,,,,,,,,,,,,,,,,,,,,,,,,
,,,,,,,,,,stimuli/images/PICTURE_470.png,CASINO,5ef767e022eb1d49042c4410,2020-06-30_19h51.20.886,proactive,2020.1.2,Win32,60,5efb791ed4cb570da489e737,5efb87255769c70f1c5f8a1e,4,,,,,,motorbike,,,,,,0,49,49,36,1,4,0,,,,,,,,,,,,,,,,,,,,,,,,,,,,,,,,,,,,,,,,,,,,,,,,,,,,,,,,,,,,,,,,,,,,,,,,,,,
,,,,,,,,,,stimuli/images/PICTURE_308.png,KIND,5ef767e022eb1d49042c4410,2020-06-30_19h51.20.886,proactive,2020.1.2,Win32,60,5efb791ed4cb570da489e737,5efb87255769c70f1c5f8a1e,4,,,,,,dice,,,,,,0,50,50,54,1,6,0,,,,,,,,,,,,,,,,,,,,,,,,,,,,,,,,,,,,,,,,,,,,,,,,,,,,,,,,,,,,,,,,,,,,,,,,,,,
,,,,,,,,,,stimuli/images/PICTURE_339.png,PLENTY,5ef767e022eb1d49042c4410,2020-06-30_19h51.20.886,proactive,2020.1.2,Win32,60,5efb791ed4cb570da489e737,5efb87255769c70f1c5f8a1e,4,,,,,,backpack,,,,,,0,51,51,0,1,1,0,,,,,,,,,,,,,,,,,,,,,,,,,,,,,,,,,,,,,,,,,,,,,,,,,,,,,,,,,,,,,,,,,,,,,,,,,,,
,,,,,,,,,,stimuli/images/PICTURE_453.png,DUDE,5ef767e022eb1d49042c4410,2020-06-30_19h51.20.886,proactive,2020.1.2,Win32,60,5efb791ed4cb570da489e737,5efb87255769c70f1c5f8a1e,4,,,,,,scissors,,,,,,0,52,52,27,1,3,0,,,,,,,,,,,,,,,,,,,,,,,,,,,,,,,,,,,,,,,,,,,,,,,,,,,,,,,,,,,,,,,,,,,,,,,,,,,
,,,,,,,,,,stimuli/images/PICTURE_504.png,BODY,5ef767e022eb1d49042c4410,2020-06-30_19h51.20.886,proactive,2020.1.2,Win32,60,5efb791ed4cb570da489e737,5efb87255769c70f1c5f8a1e,4,,,,,,wheel,,,,,,0,53,53,8,1,1,0,,,,,,,,,,,,,,,,,,,,,,,,,,,,,,,,,,,,,,,,,,,,,,,,,,,,,,,,,,,,,,,,,,,,,,,,,,,
,,,,,,,,,,stimuli/images/PICTURE_467.png,DEMON,5ef767e022eb1d49042c4410,2020-06-30_19h51.20.886,proactive,2020.1.2,Win32,60,5efb791ed4cb570da489e737,5efb87255769c70f1c5f8a1e,4,,,,,,peg,,,,,,0,54,54,23,1,3,0,,,,,,,,,,,,,,,,,,,,,,,,,,,,,,,,,,,,,,,,,,,,,,,,,,,,,,,,,,,,,,,,,,,,,,,,,,,
,,,,,,,,,,stimuli/images/PICTURE_233.png,WOMEN,5ef767e022eb1d49042c4410,2020-06-30_19h51.20.886,proactive,2020.1.2,Win32,60,5efb791ed4cb570da489e737,5efb87255769c70f1c5f8a1e,4,,,,,,salt,,,,,,0,55,55,38,1,4,0,,,,,,,,,,,,,,,,,,,,,,,,,,,,,,,,,,,,,,,,,,,,,,,,,,,,,,,,,,,,,,,,,,,,,,,,,,,
,,,,,,,,,,stimuli/images/PICTURE_177.png,CARS,5ef767e022eb1d49042c4410,2020-06-30_19h51.20.886,proactive,2020.1.2,Win32,60,5efb791ed4cb570da489e737,5efb87255769c70f1c5f8a1e,4,,,,,,mushroom,,,,,,0,56,56,35,1,4,0,,,,,,,,,,,,,,,,,,,,,,,,,,,,,,,,,,,,,,,,,,,,,,,,,,,,,,,,,,,,,,,,,,,,,,,,,,,
,,,,,,,,,,stimuli/images/PICTURE_147.png,MOMENT,5ef767e022eb1d49042c4410,2020-06-30_19h51.20.886,proactive,2020.1.2,Win32,60,5efb791ed4cb570da489e737,5efb87255769c70f1c5f8a1e,4,,,,,,hanger,,,,,,0,57,57,51,1,6,0,,,,,,,,,,,,,,,,,,,,,,,,,,,,,,,,,,,,,,,,,,,,,,,,,,,,,,,,,,,,,,,,,,,,,,,,,,,
,,,,,,,,,,stimuli/images/PICTURE_308.png,ESTATE,5ef767e022eb1d49042c4410,2020-06-30_19h51.20.886,proactive,2020.1.2,Win32,60,5efb791ed4cb570da489e737,5efb87255769c70f1c5f8a1e,4,,,,,,dice,,,,,,0,58,58,46,1,5,0,,,,,,,,,,,,,,,,,,,,,,,,,,,,,,,,,,,,,,,,,,,,,,,,,,,,,,,,,,,,,,,,,,,,,,,,,,,
,,WOMEN,6.20959,1,,,,,,stimuli/images/PICTURE_233.png,WOMEN,5ef767e022eb1d49042c4410,2020-06-30_19h51.20.886,proactive,2020.1.2,Win32,60,5efb791ed4cb570da489e737,5efb87255769c70f1c5f8a1e,4,,,,,,salt,,,,,,,,,,,4,0,0,0,0,38,1,,,,,,,,,,,,,,,,,,,,,,,,,,,,,,,,,,,,,,,,,,,,,,,,,,,,,,,,,,,,,,,,,,,,,,
,,?,0.00168,0,,,,,,stimuli/images/PICTURE_160.png,LEADER,5ef767e022eb1d49042c4410,2020-06-30_19h51.20.886,proactive,2020.1.2,Win32,60,5efb791ed4cb570da489e737,5efb87255769c70f1c5f8a1e,4,,,,,,wheelbarrow,,,,,,,,,,,1,0,0,1,1,3,1,,,,,,,,,,,,,,,,,,,,,,,,,,,,,,,,,,,,,,,,,,,,,,,,,,,,,,,,,,,,,,,,,,,,,,
,,?,0.001295,0,,,,,,stimuli/images/PICTURE_327.png,BEAUTY,5ef767e022eb1d49042c4410,2020-06-30_19h51.20.886,proactive,2020.1.2,Win32,60,5efb791ed4cb570da489e737,5efb87255769c70f1c5f8a1e,4,,,,,,helmet,,,,,,,,,,,5,0,0,2,2,48,1,,,,,,,,,,,,,,,,,,,,,,,,,,,,,,,,,,,,,,,,,,,,,,,,,,,,,,,,,,,,,,,,,,,,,,
,,?,0.00094,0,,,,,,stimuli/images/PICTURE_654.png,VALLEY,5ef767e022eb1d49042c4410,2020-06-30_19h51.20.886,proactive,2020.1.2,Win32,60,5efb791ed4cb570da489e737,5efb87255769c70f1c5f8a1e,4,,,,,,pencil,,,,,,,,,,,1,0,0,3,3,1,1,,,,,,,,,,,,,,,,,,,,,,,,,,,,,,,,,,,,,,,,,,,,,,,,,,,,,,,,,,,,,,,,,,,,,,
,,?,0.000915,0,,,,,,stimuli/images/PICTURE_491.png,WRITER,5ef767e022eb1d49042c4410,2020-06-30_19h51.20.886,proactive,2020.1.2,Win32,60,5efb791ed4cb570da489e737,5efb87255769c70f1c5f8a1e,4,,,,,,rug,,,,,,,,,,,6,0,0,4,4,57,1,,,,,,,,,,,,,,,,,,,,,,,,,,,,,,,,,,,,,,,,,,,,,,,,,,,,,,,,,,,,,,,,,,,,,,
,,?,0.00253,0,,,,,,stimuli/images/PICTURE_314.png,GODS,5ef767e022eb1d49042c4410,2020-06-30_19h51.20.886,proactive,2020.1.2,Win32,60,5efb791ed4cb570da489e737,5efb87255769c70f1c5f8a1e,4,,,,,,perfume,,,,,,,,,,,2,0,0,5,5,11,1,,,,,,,,,,,,,,,,,,,,,,,,,,,,,,,,,,,,,,,,,,,,,,,,,,,,,,,,,,,,,,,,,,,,,,
,,?,0.00126,0,,,,,,stimuli/images/PICTURE_311.png,BEAUTY,5ef767e022eb1d49042c4410,2020-06-30_19h51.20.886,proactive,2020.1.2,Win32,60,5efb791ed4cb570da489e737,5efb87255769c70f1c5f8a1e,4,,,,,,razor,,,,,,,,,,,2,0,0,6,6,13,1,,,,,,,,,,,,,,,,,,,,,,,,,,,,,,,,,,,,,,,,,,,,,,,,,,,,,,,,,,,,,,,,,,,,,,
,,?,0.00102,0,,,,,,stimuli/images/PICTURE_487.png,FLIGHT,5ef767e022eb1d49042c4410,2020-06-30_19h51.20.886,proactive,2020.1.2,Win32,60,5efb791ed4cb570da489e737,5efb87255769c70f1c5f8a1e,4,,,,,,basket,,,,,,,,,,,1,0,0,7,7,9,1,,,,,,,,,,,,,,,,,,,,,,,,,,,,,,,,,,,,,,,,,,,,,,,,,,,,,,,,,,,,,,,,,,,,,,
,,?,0.0007,0,,,,,,stimuli/images/PICTURE_308.png,KIND,5ef767e022eb1d49042c4410,2020-06-30_19h51.20.886,proactive,2020.1.2,Win32,60,5efb791ed4cb570da489e737,5efb87255769c70f1c5f8a1e,4,,,,,,dice,,,,,,,,,,,6,0,0,8,8,54,1,,,,,,,,,,,,,,,,,,,,,,,,,,,,,,,,,,,,,,,,,,,,,,,,,,,,,,,,,,,,,,,,,,,,,,
,,WEAPON,10.00728,1,,,,,,stimuli/images/PICTURE_675.png,WEAPON,5ef767e022eb1d49042c4410,2020-06-30_19h51.20.886,proactive,2020.1.2,Win32,60,5efb791ed4cb570da489e737,5efb87255769c70f1c5f8a1e,4,,,,,,windmill,,,,,,,,,,,4,0,0,9,9,32,1,,,,,,,,,,,,,,,,,,,,,,,,,,,,,,,,,,,,,,,,,,,,,,,,,,,,,,,,,,,,,,,,,,,,,,
,,PENNY,10.013615,1,,,,,,stimuli/images/PICTURE_708.png,PENNY,5ef767e022eb1d49042c4410,2020-06-30_19h51.20.886,proactive,2020.1.2,Win32,60,5efb791ed4cb570da489e737,5efb87255769c70f1c5f8a1e,4,,,,,,monkey,,,,,,,,,,,4,0,0,10,10,31,1,,,,,,,,,,,,,,,,,,,,,,,,,,,,,,,,,,,,,,,,,,,,,,,,,,,,,,,,,,,,,,,,,,,,,,
,,?,0.00097,0,,,,,,stimuli/images/PICTURE_467.png,DEMON,5ef767e022eb1d49042c4410,2020-06-30_19h51.20.886,proactive,2020.1.2,Win32,60,5efb791ed4cb570da489e737,5efb87255769c70f1c5f8a1e,4,,,,,,peg,,,,,,,,,,,3,0,0,11,11,23,1,,,,,,,,,,,,,,,,,,,,,,,,,,,,,,,,,,,,,,,,,,,,,,,,,,,,,,,,,,,,,,,,,,,,,,
,,?,0.001215,0,,,,,,stimuli/images/PICTURE_208.png,LOTS,5ef767e022eb1d49042c4410,2020-06-30_19h51.20.886,proactive,2020.1.2,Win32,60,5efb791ed4cb570da489e737,5efb87255769c70f1c5f8a1e,4,,,,,,microphone,,,,,,,,,,,2,0,0,12,12,10,1,,,,,,,,,,,,,,,,,,,,,,,,,,,,,,,,,,,,,,,,,,,,,,,,,,,,,,,,,,,,,,,,,,,,,,
,,?,0.000705,0,,,,,,stimuli/images/PICTURE_469.png,LETTER,5ef767e022eb1d49042c4410,2020-06-30_19h51.20.886,proactive,2020.1.2,Win32,60,5efb791ed4cb570da489e737,5efb87255769c70f1c5f8a1e,4,,,,,,stool,,,,,,,,,,,5,0,0,13,13,42,1,,,,,,,,,,,,,,,,,,,,,,,,,,,,,,,,,,,,,,,,,,,,,,,,,,,,,,,,,,,,,,,,,,,,,,
,,?,0.002445,0,,,,,,stimuli/images/PICTURE_208.png,MONTH,5ef767e022eb1d49042c4410,2020-06-30_19h51.20.886,proactive,2020.1.2,Win32,60,5efb791ed4cb570da489e737,5efb87255769c70f1c5f8a1e,4,,,,,,microphone,,,,,,,,,,,6,0,0,14,14,53,1,,,,,,,,,,,,,,,,,,,,,,,,,,,,,,,,,,,,,,,,,,,,,,,,,,,,,,,,,,,,,,,,,,,,,,
,,?,0.001075,0,,,,,,stimuli/images/PICTURE_509.png,PHOTO,5ef767e022eb1d49042c4410,2020-06-30_19h51.20.886,proactive,2020.1.2,Win32,60,5efb791ed4cb570da489e737,5efb87255769c70f1c5f8a1e,4,,,,,,telephone,,,,,,,,,,,3,0,0,15,15,21,1,,,,,,,,,,,,,,,,,,,,,,,,,,,,,,,,,,,,,,,,,,,,,,,,,,,,,,,,,,,,,,,,,,,,,,
,,STYLE,10.00216,1,,,,,,stimuli/images/PICTURE_488.png,STYLE,5ef767e022eb1d49042c4410,2020-06-30_19h51.20.886,proactive,2020.1.2,Win32,60,5efb791ed4cb570da489e737,5efb87255769c70f1c5f8a1e,4,,,,,,sun,,,,,,,,,,,4,0,0,16,16,33,1,,,,,,,,,,,,,,,,,,,,,,,,,,,,,,,,,,,,,,,,,,,,,,,,,,,,,,,,,,,,,,,,,,,,,,
,,?,0.001625,0,,,,,,stimuli/images/PICTURE_95.png,STYLE,5ef767e022eb1d49042c4410,2020-06-30_19h51.20.886,proactive,2020.1.2,Win32,60,5efb791ed4cb570da489e737,5efb87255769c70f1c5f8a1e,4,,,,,,suitcase,,,,,,,,,,,3,0,0,17,17,25,1,,,,,,,,,,,,,,,,,,,,,,,,,,,,,,,,,,,,,,,,,,,,,,,,,,,,,,,,,,,,,,,,,,,,,,
,,?,0.001385,0,,,,,,stimuli/images/PICTURE_667.png,BATH,5ef767e022eb1d49042c4410,2020-06-30_19h51.20.886,proactive,2020.1.2,Win32,60,5efb791ed4cb570da489e737,5efb87255769c70f1c5f8a1e,4,,,,,,daisy,,,,,,,,,,,1,0,0,18,18,4,1,,,,,,,,,,,,,,,,,,,,,,,,,,,,,,,,,,,,,,,,,,,,,,,,,,,,,,,,,,,,,,,,,,,,,,
,,MILE,6.754795,1,,,,,,stimuli/images/PICTURE_677.png,MILE,5ef767e022eb1d49042c4410,2020-06-30_19h51.20.886,proactive,2020.1.2,Win32,60,5efb791ed4cb570da489e737,5efb87255769c70f1c5f8a1e,4,,,,,,map,,,,,,,,,,,4,0,0,19,19,30,1,,,,,,,,,,,,,,,,,,,,,,,,,,,,,,,,,,,,,,,,,,,,,,,,,,,,,,,,,,,,,,,,,,,,,,
,,?,0.00124,0,,,,,,stimuli/images/PICTURE_380.png,DEATH,5ef767e022eb1d49042c4410,2020-06-30_19h51.20.886,proactive,2020.1.2,Win32,60,5efb791ed4cb570da489e737,5efb87255769c70f1c5f8a1e,4,,,,,,gorilla,,,,,,,,,,,5,0,0,20,20,49,1,,,,,,,,,,,,,,,,,,,,,,,,,,,,,,,,,,,,,,,,,,,,,,,,,,,,,,,,,,,,,,,,,,,,,,
,,?,0.00311,0,,,,,,stimuli/images/PICTURE_356.png,DANGER,5ef767e022eb1d49042c4410,2020-06-30_19h51.20.886,proactive,2020.1.2,Win32,60,5efb791ed4cb570da489e737,5efb87255769c70f1c5f8a1e,4,,,,,,pawn,,,,,,,,,,,6,0,0,21,21,55,1,,,,,,,,,,,,,,,,,,,,,,,,,,,,,,,,,,,,,,,,,,,,,,,,,,,,,,,,,,,,,,,,,,,,,,
,,?,0.000945,0,,,,,,stimuli/images/PICTURE_32.png,JUNGLE,5ef767e022eb1d49042c4410,2020-06-30_19h51.20.886,proactive,2020.1.2,Win32,60,5efb791ed4cb570da489e737,5efb87255769c70f1c5f8a1e,4,,,,,,crown,,,,,,,,,,,5,0,0,22,22,45,1,,,,,,,,,,,,,,,,,,,,,,,,,,,,,,,,,,,,,,,,,,,,,,,,,,,,,,,,,,,,,,,,,,,,,,
,,?,0.0009,0,,,,,,stimuli/images/PICTURE_692.png,MONTH,5ef767e022eb1d49042c4410,2020-06-30_19h51.20.886,proactive,2020.1.2,Win32,60,5efb791ed4cb570da489e737,5efb87255769c70f1c5f8a1e,4,,,,,,cherry,,,,,,,,,,,2,0,0,23,23,16,1,,,,,,,,,,,,,,,,,,,,,,,,,,,,,,,,,,,,,,,,,,,,,,,,,,,,,,,,,,,,,,,,,,,,,,
,,CASINO,9.502385,1,,,,,,stimuli/images/PICTURE_470.png,CASINO,5ef767e022eb1d49042c4410,2020-06-30_19h51.20.886,proactive,2020.1.2,Win32,60,5efb791ed4cb570da489e737,5efb87255769c70f1c5f8a1e,4,,,,,,motorbike,,,,,,,,,,,4,0,0,24,24,36,1,,,,,,,,,,,,,,,,,,,,,,,,,,,,,,,,,,,,,,,,,,,,,,,,,,,,,,,,,,,,,,,,,,,,,,
,,?,0.001175,0,,,,,,stimuli/images/PICTURE_123.png,ADVICE,5ef767e022eb1d49042c4410,2020-06-30_19h51.20.886,proactive,2020.1.2,Win32,60,5efb791ed4cb570da489e737,5efb87255769c70f1c5f8a1e,4,,,,,,dart,,,,,,,,,,,5,0,0,25,25,40,1,,,,,,,,,,,,,,,,,,,,,,,,,,,,,,,,,,,,,,,,,,,,,,,,,,,,,,,,,,,,,,,,,,,,,,
,,?,0.001805,0,,,,,,stimuli/images/PICTURE_147.png,MOMENT,5ef767e022eb1d49042c4410,2020-06-30_19h51.20.886,proactive,2020.1.2,Win32,60,5efb791ed4cb570da489e737,5efb87255769c70f1c5f8a1e,4,,,,,,hanger,,,,,,,,,,,6,0,0,26,26,51,1,,,,,,,,,,,,,,,,,,,,,,,,,,,,,,,,,,,,,,,,,,,,,,,,,,,,,,,,,,,,,,,,,,,,,,
,,?,0.00069,0,,,,,,stimuli/images/PICTURE_255.png,AREA,5ef767e022eb1d49042c4410,2020-06-30_19h51.20.886,proactive,2020.1.2,Win32,60,5efb791ed4cb570da489e737,5efb87255769c70f1c5f8a1e,4,,,,,,shovel,,,,,,,,,,,3,0,0,27,27,22,1,,,,,,,,,,,,,,,,,,,,,,,,,,,,,,,,,,,,,,,,,,,,,,,,,,,,,,,,,,,,,,,,,,,,,,
,,?,0.000645,0,,,,,,stimuli/images/PICTURE_453.png,PLENTY,5ef767e022eb1d49042c4410,2020-06-30_19h51.20.886,proactive,2020.1.2,Win32,60,5efb791ed4cb570da489e737,5efb87255769c70f1c5f8a1e,4,,,,,,scissors,,,,,,,,,,,6,0,0,28,28,56,1,,,,,,,,,,,,,,,,,,,,,,,,,,,,,,,,,,,,,,,,,,,,,,,,,,,,,,,,,,,,,,,,,,,,,,
,,?,0.00119,0,,,,,,stimuli/images/PICTURE_380.png,PHOTO,5ef767e022eb1d49042c4410,2020-06-30_19h51.20.886,proactive,2020.1.2,Win32,60,5efb791ed4cb570da489e737,5efb87255769c70f1c5f8a1e,4,,,,,,gorilla,,,,,,,,,,,6,0,0,29,29,52,1,,,,,,,,,,,,,,,,,,,,,,,,,,,,,,,,,,,,,,,,,,,,,,,,,,,,,,,,,,,,,,,,,,,,,,
,,?,0.00072,0,,,,,,stimuli/images/PICTURE_453.png,DUDE,5ef767e022eb1d49042c4410,2020-06-30_19h51.20.886,proactive,2020.1.2,Win32,60,5efb791ed4cb570da489e737,5efb87255769c70f1c5f8a1e,4,,,,,,scissors,,,,,,,,,,,3,0,0,30,30,27,1,,,,,,,,,,,,,,,,,,,,,,,,,,,,,,,,,,,,,,,,,,,,,,,,,,,,,,,,,,,,,,,,,,,,,,
,,?,0.000885,0,,,,,,stimuli/images/PICTURE_123.png,ADVICE,5ef767e022eb1d49042c4410,2020-06-30_19h51.20.886,proactive,2020.1.2,Win32,60,5efb791ed4cb570da489e737,5efb87255769c70f1c5f8a1e,4,,,,,,dart,,,,,,,,,,,6,0,0,31,31,50,1,,,,,,,,,,,,,,,,,,,,,,,,,,,,,,,,,,,,,,,,,,,,,,,,,,,,,,,,,,,,,,,,,,,,,,
,,?,0.00088,0,,,,,,stimuli/images/PICTURE_151.png,GIRL,5ef767e022eb1d49042c4410,2020-06-30_19h51.20.886,proactive,2020.1.2,Win32,60,5efb791ed4cb570da489e737,5efb87255769c70f1c5f8a1e,4,,,,,,tray,,,,,,,,,,,2,0,0,32,32,19,1,,,,,,,,,,,,,,,,,,,,,,,,,,,,,,,,,,,,,,,,,,,,,,,,,,,,,,,,,,,,,,,,,,,,,,
,,?,0.001245,0,,,,,,stimuli/images/PICTURE_348.png,SPEECH,5ef767e022eb1d49042c4410,2020-06-30_19h51.20.886,proactive,2020.1.2,Win32,60,5efb791ed4cb570da489e737,5efb87255769c70f1c5f8a1e,4,,,,,,pepper,,,,,,,,,,,3,0,0,33,33,20,1,,,,,,,,,,,,,,,,,,,,,,,,,,,,,,,,,,,,,,,,,,,,,,,,,,,,,,,,,,,,,,,,,,,,,,
,,?,0.00094,0,,,,,,stimuli/images/PICTURE_449.png,THING,5ef767e022eb1d49042c4410,2020-06-30_19h51.20.886,proactive,2020.1.2,Win32,60,5efb791ed4cb570da489e737,5efb87255769c70f1c5f8a1e,4,,,,,,bench,,,,,,,,,,,6,0,0,34,34,59,1,,,,,,,,,,,,,,,,,,,,,,,,,,,,,,,,,,,,,,,,,,,,,,,,,,,,,,,,,,,,,,,,,,,,,,
,,?,0.00094,0,,,,,,stimuli/images/PICTURE_308.png,ESTATE,5ef767e022eb1d49042c4410,2020-06-30_19h51.20.886,proactive,2020.1.2,Win32,60,5efb791ed4cb570da489e737,5efb87255769c70f1c5f8a1e,4,,,,,,dice,,,,,,,,,,,5,0,0,35,35,46,1,,,,,,,,,,,,,,,,,,,,,,,,,,,,,,,,,,,,,,,,,,,,,,,,,,,,,,,,,,,,,,,,,,,,,,
,,?,0.003545,0,,,,,,stimuli/images/PICTURE_233.png,IDEAS,5ef767e022eb1d49042c4410,2020-06-30_19h51.20.886,proactive,2020.1.2,Win32,60,5efb791ed4cb570da489e737,5efb87255769c70f1c5f8a1e,4,,,,,,salt,,,,,,,,,,,3,0,0,36,36,28,1,,,,,,,,,,,,,,,,,,,,,,,,,,,,,,,,,,,,,,,,,,,,,,,,,,,,,,,,,,,,,,,,,,,,,,
,,?,0.00131,0,,,,,,stimuli/images/PICTURE_708.png,YARD,5ef767e022eb1d49042c4410,2020-06-30_19h51.20.886,proactive,2020.1.2,Win32,60,5efb791ed4cb570da489e737,5efb87255769c70f1c5f8a1e,4,,,,,,monkey,,,,,,,,,,,3,0,0,37,37,29,1,,,,,,,,,,,,,,,,,,,,,,,,,,,,,,,,,,,,,,,,,,,,,,,,,,,,,,,,,,,,,,,,,,,,,,
,,CARS,4.571065,1,,,,,,stimuli/images/PICTURE_177.png,CARS,5ef767e022eb1d49042c4410,2020-06-30_19h51.20.886,proactive,2020.1.2,Win32,60,5efb791ed4cb570da489e737,5efb87255769c70f1c5f8a1e,4,,,,,,mushroom,,,,,,,,,,,4,0,0,38,38,35,1,,,,,,,,,,,,,,,,,,,,,,,,,,,,,,,,,,,,,,,,,,,,,,,,,,,,,,,,,,,,,,,,,,,,,,
,,?,0.00123,0,,,,,,stimuli/images/PICTURE_491.png,ROOF,5ef767e022eb1d49042c4410,2020-06-30_19h51.20.886,proactive,2020.1.2,Win32,60,5efb791ed4cb570da489e737,5efb87255769c70f1c5f8a1e,4,,,,,,rug,,,,,,,,,,,3,0,0,39,39,24,1,,,,,,,,,,,,,,,,,,,,,,,,,,,,,,,,,,,,,,,,,,,,,,,,,,,,,,,,,,,,,,,,,,,,,,
,,?,0.002495,0,,,,,,stimuli/images/PICTURE_302.png,FAMILY,5ef767e022eb1d49042c4410,2020-06-30_19h51.20.886,proactive,2020.1.2,Win32,60,5efb791ed4cb570da489e737,5efb87255769c70f1c5f8a1e,4,,,,,,taxi,,,,,,,,,,,2,0,0,40,40,18,1,,,,,,,,,,,,,,,,,,,,,,,,,,,,,,,,,,,,,,,,,,,,,,,,,,,,,,,,,,,,,,,,,,,,,,
,,?,0.000935,0,,,,,,stimuli/images/PICTURE_314.png,SAKE,5ef767e022eb1d49042c4410,2020-06-30_19h51.20.886,proactive,2020.1.2,Win32,60,5efb791ed4cb570da489e737,5efb87255769c70f1c5f8a1e,4,,,,,,perfume,,,,,,,,,,,1,0,0,41,41,7,1,,,,,,,,,,,,,,,,,,,,,,,,,,,,,,,,,,,,,,,,,,,,,,,,,,,,,,,,,,,,,,,,,,,,,,
,,?,0.00067,0,,,,,,stimuli/images/PICTURE_667.png,PLENTY,5ef767e022eb1d49042c4410,2020-06-30_19h51.20.886,proactive,2020.1.2,Win32,60,5efb791ed4cb570da489e737,5efb87255769c70f1c5f8a1e,4,,,,,,daisy,,,,,,,,,,,5,0,0,42,42,41,1,,,,,,,,,,,,,,,,,,,,,,,,,,,,,,,,,,,,,,,,,,,,,,,,,,,,,,,,,,,,,,,,,,,,,,
,,?,0.00066,0,,,,,,stimuli/images/PICTURE_744.png,SYSTEM,5ef767e022eb1d49042c4410,2020-06-30_19h51.20.886,proactive,2020.1.2,Win32,60,5efb791ed4cb570da489e737,5efb87255769c70f1c5f8a1e,4,,,,,,ring,,,,,,,,,,,5,0,0,43,43,43,1,,,,,,,,,,,,,,,,,,,,,,,,,,,,,,,,,,,,,,,,,,,,,,,,,,,,,,,,,,,,,,,,,,,,,,
,,PLENTY,10.013575,1,,,,,,stimuli/images/PICTURE_215.png,PLENTY,5ef767e022eb1d49042c4410,2020-06-30_19h51.20.886,proactive,2020.1.2,Win32,60,5efb791ed4cb570da489e737,5efb87255769c70f1c5f8a1e,4,,,,,,boot,,,,,,,,,,,4,0,0,44,44,37,1,,,,,,,,,,,,,,,,,,,,,,,,,,,,,,,,,,,,,,,,,,,,,,,,,,,,,,,,,,,,,,,,,,,,,,
,,DOZEN,10.01477,1,,,,,,stimuli/images/PICTURE_248.png,DOZEN,5ef767e022eb1d49042c4410,2020-06-30_19h51.20.886,proactive,2020.1.2,Win32,60,5efb791ed4cb570da489e737,5efb87255769c70f1c5f8a1e,4,,,,,,cart,,,,,,,,,,,4,0,0,45,45,39,1,,,,,,,,,,,,,,,,,,,,,,,,,,,,,,,,,,,,,,,,,,,,,,,,,,,,,,,,,,,,,,,,,,,,,,
,,?,0.00164,0,,,,,,stimuli/images/PICTURE_688.png,WOMEN,5ef767e022eb1d49042c4410,2020-06-30_19h51.20.886,proactive,2020.1.2,Win32,60,5efb791ed4cb570da489e737,5efb87255769c70f1c5f8a1e,4,,,,,,runner,,,,,,,,,,,2,0,0,46,46,14,1,,,,,,,,,,,,,,,,,,,,,,,,,,,,,,,,,,,,,,,,,,,,,,,,,,,,,,,,,,,,,,,,,,,,,,
,,?,0.002375,0,,,,,,stimuli/images/PICTURE_708.png,CLIENT,5ef767e022eb1d49042c4410,2020-06-30_19h51.20.886,proactive,2020.1.2,Win32,60,5efb791ed4cb570da489e737,5efb87255769c70f1c5f8a1e,4,,,,,,monkey,,,,,,,,,,,1,0,0,47,47,5,1,,,,,,,,,,,,,,,,,,,,,,,,,,,,,,,,,,,,,,,,,,,,,,,,,,,,,,,,,,,,,,,,,,,,,,
,,?,0.000915,0,,,,,,stimuli/images/PICTURE_339.png,PLENTY,5ef767e022eb1d49042c4410,2020-06-30_19h51.20.886,proactive,2020.1.2,Win32,60,5efb791ed4cb570da489e737,5efb87255769c70f1c5f8a1e,4,,,,,,backpack,,,,,,,,,,,1,0,0,48,48,0,1,,,,,,,,,,,,,,,,,,,,,,,,,,,,,,,,,,,,,,,,,,,,,,,,,,,,,,,,,,,,,,,,,,,,,,
,,?,0.00094,0,,,,,,stimuli/images/PICTURE_208.png,THING,5ef767e022eb1d49042c4410,2020-06-30_19h51.20.886,proactive,2020.1.2,Win32,60,5efb791ed4cb570da489e737,5efb87255769c70f1c5f8a1e,4,,,,,,microphone,,,,,,,,,,,5,0,0,49,49,47,1,,,,,,,,,,,,,,,,,,,,,,,,,,,,,,,,,,,,,,,,,,,,,,,,,,,,,,,,,,,,,,,,,,,,,,
,,?,0.00149,0,,,,,,stimuli/images/PICTURE_688.png,CASINO,5ef767e022eb1d49042c4410,2020-06-30_19h51.20.886,proactive,2020.1.2,Win32,60,5efb791ed4cb570da489e737,5efb87255769c70f1c5f8a1e,4,,,,,,runner,,,,,,,,,,,1,0,0,50,50,2,1,,,,,,,,,,,,,,,,,,,,,,,,,,,,,,,,,,,,,,,,,,,,,,,,,,,,,,,,,,,,,,,,,,,,,,
,,?,0.00084,0,,,,,,stimuli/images/PICTURE_744.png,SAKE,5ef767e022eb1d49042c4410,2020-06-30_19h51.20.886,proactive,2020.1.2,Win32,60,5efb791ed4cb570da489e737,5efb87255769c70f1c5f8a1e,4,,,,,,ring,,,,,,,,,,,2,0,0,51,51,17,1,,,,,,,,,,,,,,,,,,,,,,,,,,,,,,,,,,,,,,,,,,,,,,,,,,,,,,,,,,,,,,,,,,,,,,
,,?,0.00065,0,,,,,,stimuli/images/PICTURE_68.png,MILE,5ef767e022eb1d49042c4410,2020-06-30_19h51.20.886,proactive,2020.1.2,Win32,60,5efb791ed4cb570da489e737,5efb87255769c70f1c5f8a1e,4,,,,,,candle,,,,,,,,,,,5,0,0,52,52,44,1,,,,,,,,,,,,,,,,,,,,,,,,,,,,,,,,,,,,,,,,,,,,,,,,,,,,,,,,,,,,,,,,,,,,,,
,,?,0.000645,0,,,,,,stimuli/images/PICTURE_285.png,ADVICE,5ef767e022eb1d49042c4410,2020-06-30_19h51.20.886,proactive,2020.1.2,Win32,60,5efb791ed4cb570da489e737,5efb87255769c70f1c5f8a1e,4,,,,,,carrot,,,,,,,,,,,2,0,0,53,53,12,1,,,,,,,,,,,,,,,,,,,,,,,,,,,,,,,,,,,,,,,,,,,,,,,,,,,,,,,,,,,,,,,,,,,,,,
,,?,0.00063,0,,,,,,stimuli/images/PICTURE_469.png,ARTIST,5ef767e022eb1d49042c4410,2020-06-30_19h51.20.886,proactive,2020.1.2,Win32,60,5efb791ed4cb570da489e737,5efb87255769c70f1c5f8a1e,4,,,,,,stool,,,,,,,,,,,1,0,0,54,54,6,1,,,,,,,,,,,,,,,,,,,,,,,,,,,,,,,,,,,,,,,,,,,,,,,,,,,,,,,,,,,,,,,,,,,,,,
,,?,0.00266,0,,,,,,stimuli/images/PICTURE_85.png,THING,5ef767e022eb1d49042c4410,2020-06-30_19h51.20.886,proactive,2020.1.2,Win32,60,5efb791ed4cb570da489e737,5efb87255769c70f1c5f8a1e,4,,,,,,diamond,,,,,,,,,,,2,0,0,55,55,15,1,,,,,,,,,,,,,,,,,,,,,,,,,,,,,,,,,,,,,,,,,,,,,,,,,,,,,,,,,,,,,,,,,,,,,,
,,?,0.00105,0,,,,,,stimuli/images/PICTURE_160.png,FEET,5ef767e022eb1d49042c4410,2020-06-30_19h51.20.886,proactive,2020.1.2,Win32,60,5efb791ed4cb570da489e737,5efb87255769c70f1c5f8a1e,4,,,,,,wheelbarrow,,,,,,,,,,,6,0,0,56,56,58,1,,,,,,,,,,,,,,,,,,,,,,,,,,,,,,,,,,,,,,,,,,,,,,,,,,,,,,,,,,,,,,,,,,,,,,
,,FRIEND,5.07433,1,,,,,,stimuli/images/PICTURE_311.png,FRIEND,5ef767e022eb1d49042c4410,2020-06-30_19h51.20.886,proactive,2020.1.2,Win32,60,5efb791ed4cb570da489e737,5efb87255769c70f1c5f8a1e,4,,,,,,razor,,,,,,,,,,,4,0,0,57,57,34,1,,,,,,,,,,,,,,,,,,,,,,,,,,,,,,,,,,,,,,,,,,,,,,,,,,,,,,,,,,,,,,,,,,,,,,
,,?,0.00157,0,,,,,,stimuli/images/PICTURE_504.png,BODY,5ef767e022eb1d49042c4410,2020-06-30_19h51.20.886,proactive,2020.1.2,Win32,60,5efb791ed4cb570da489e737,5efb87255769c70f1c5f8a1e,4,,,,,,wheel,,,,,,,,,,,1,0,0,58,58,8,1,,,,,,,,,,,,,,,,,,,,,,,,,,,,,,,,,,,,,,,,,,,,,,,,,,,,,,,,,,,,,,,,,,,,,,
,,?,0.00118,0,,,,,,stimuli/images/PICTURE_203.png,ARTIST,5ef767e022eb1d49042c4410,2020-06-30_19h51.20.886,proactive,2020.1.2,Win32,60,5efb791ed4cb570da489e737,5efb87255769c70f1c5f8a1e,4,,,,,,cap,,,,,,,,,,,3,0,0,59,59,26,1,,,,,,,,,,,,,,,,,,,,,,,,,,,,,,,,,,,,,,,,,,,,,,,,,,,,,,,,,,,,,,,,,,,,,,
,,,,,,,,,,,,5ef767e022eb1d49042c4410,2020-06-30_19h51.20.886,proactive,2020.1.2,Win32,60,5efb791ed4cb570da489e737,5efb87255769c70f1c5f8a1e,4,,,,,,,,,,,,,,,,,,,,,,,,0,1,1,0,1,stimuli/learn-block1.csv,,,,,,,,,,,,,,,,,,,,,,,,,,,,,,,,,,,,,,,,,,,,,,,,,,,,,,,,,,,,,,,,
,,,,,,,,,,stimuli/images/PICTURE_348.png,TOILET,5ef767e022eb1d49042c4410,2020-06-30_19h51.20.886,proactive,2020.1.2,Win32,60,5efb791ed4cb570da489e737,5efb87255769c70f1c5f8a1e,4,,,,,,pepper,,,,,,0,0,0,4,1,1,2,,,,,,,,,,,,,,,,,,,,,,,,,,,,,,,,,,,,,,,,,,,,,,,,,,,,,,,,,,,,,,,,,,,,,,,,,,,
,,,,,,,,,,stimuli/images/PICTURE_311.png,FLESH,5ef767e022eb1d49042c4410,2020-06-30_19h51.20.886,proactive,2020.1.2,Win32,60,5efb791ed4cb570da489e737,5efb87255769c70f1c5f8a1e,4,,,,,,razor,,,,,,0,1,1,3,1,1,2,,,,,,,,,,,,,,,,,,,,,,,,,,,,,,,,,,,,,,,,,,,,,,,,,,,,,,,,,,,,,,,,,,,,,,,,,,,
,,,,,,,,,,stimuli/images/PICTURE_403.png,FAMILY,5ef767e022eb1d49042c4410,2020-06-30_19h51.20.886,proactive,2020.1.2,Win32,60,5efb791ed4cb570da489e737,5efb87255769c70f1c5f8a1e,4,,,,,,cathedral,,,,,,0,2,2,9,1,1,2,,,,,,,,,,,,,,,,,,,,,,,,,,,,,,,,,,,,,,,,,,,,,,,,,,,,,,,,,,,,,,,,,,,,,,,,,,,
,,,,,,,,,,stimuli/images/PICTURE_57.png,CASINO,5ef767e022eb1d49042c4410,2020-06-30_19h51.20.886,proactive,2020.1.2,Win32,60,5efb791ed4cb570da489e737,5efb87255769c70f1c5f8a1e,4,,,,,,stamp,,,,,,0,3,3,12,1,2,2,,,,,,,,,,,,,,,,,,,,,,,,,,,,,,,,,,,,,,,,,,,,,,,,,,,,,,,,,,,,,,,,,,,,,,,,,,,
,,,,,,,,,,stimuli/images/PICTURE_2.png,YARD,5ef767e022eb1d49042c4410,2020-06-30_19h51.20.886,proactive,2020.1.2,Win32,60,5efb791ed4cb570da489e737,5efb87255769c70f1c5f8a1e,4,,,,,,tyre,,,,,,0,4,4,55,1,6,2,,,,,,,,,,,,,,,,,,,,,,,,,,,,,,,,,,,,,,,,,,,,,,,,,,,,,,,,,,,,,,,,,,,,,,,,,,,
,,,,,,,,,,stimuli/images/PICTURE_688.png,CLOCK,5ef767e022eb1d49042c4410,2020-06-30_19h51.20.886,proactive,2020.1.2,Win32,60,5efb791ed4cb570da489e737,5efb87255769c70f1c5f8a1e,4,,,,,,runner,,,,,,0,5,5,42,1,5,2,,,,,,,,,,,,,,,,,,,,,,,,,,,,,,,,,,,,,,,,,,,,,,,,,,,,,,,,,,,,,,,,,,,,,,,,,,,
,,,,,,,,,,stimuli/images/PICTURE_255.png,PENNY,5ef767e022eb1d49042c4410,2020-06-30_19h51.20.886,proactive,2020.1.2,Win32,60,5efb791ed4cb570da489e737,5efb87255769c70f1c5f8a1e,4,,,,,,shovel,,,,,,0,6,6,19,1,2,2,,,,,,,,,,,,,,,,,,,,,,,,,,,,,,,,,,,,,,,,,,,,,,,,,,,,,,,,,,,,,,,,,,,,,,,,,,,
,,,,,,,,,,stimuli/images/PICTURE_487.png,POLICY,5ef767e022eb1d49042c4410,2020-06-30_19h51.20.886,proactive,2020.1.2,Win32,60,5efb791ed4cb570da489e737,5efb87255769c70f1c5f8a1e,4,,,,,,basket,,,,,,0,7,7,34,1,4,2,,,,,,,,,,,,,,,,,,,,,,,,,,,,,,,,,,,,,,,,,,,,,,,,,,,,,,,,,,,,,,,,,,,,,,,,,,,
,,,,,,,,,,stimuli/images/PICTURE_677.png,FAMILY,5ef767e022eb1d49042c4410,2020-06-30_19h51.20.886,proactive,2020.1.2,Win32,60,5efb791ed4cb570da489e737,5efb87255769c70f1c5f8a1e,4,,,,,,map,,,,,,0,8,8,53,1,6,2,,,,,,,,,,,,,,,,,,,,,,,,,,,,,,,,,,,,,,,,,,,,,,,,,,,,,,,,,,,,,,,,,,,,,,,,,,,
,,,,,,,,,,stimuli/images/PICTURE_160.png,HOTEL,5ef767e022eb1d49042c4410,2020-06-30_19h51.20.886,proactive,2020.1.2,Win32,60,5efb791ed4cb570da489e737,5efb87255769c70f1c5f8a1e,4,,,,,,wheelbarrow,,,,,,0,9,9,16,1,2,2,,,,,,,,,,,,,,,,,,,,,,,,,,,,,,,,,,,,,,,,,,,,,,,,,,,,,,,,,,,,,,,,,,,,,,,,,,,
,,,,,,,,,,stimuli/images/PICTURE_18.png,RIVER,5ef767e022eb1d49042c4410,2020-06-30_19h51.20.886,proactive,2020.1.2,Win32,60,5efb791ed4cb570da489e737,5efb87255769c70f1c5f8a1e,4,,,,,,planet,,,,,,0,10,10,22,1,3,2,,,,,,,,,,,,,,,,,,,,,,,,,,,,,,,,,,,,,,,,,,,,,,,,,,,,,,,,,,,,,,,,,,,,,,,,,,,
,,,,,,,,,,stimuli/images/PICTURE_215.png,LEADER,5ef767e022eb1d49042c4410,2020-06-30_19h51.20.886,proactive,2020.1.2,Win32,60,5efb791ed4cb570da489e737,5efb87255769c70f1c5f8a1e,4,,,,,,boot,,,,,,0,11,11,43,1,5,2,,,,,,,,,,,,,,,,,,,,,,,,,,,,,,,,,,,,,,,,,,,,,,,,,,,,,,,,,,,,,,,,,,,,,,,,,,,
,,,,,,,,,,stimuli/images/PICTURE_655.png,SALE,5ef767e022eb1d49042c4410,2020-06-30_19h51.20.886,proactive,2020.1.2,Win32,60,5efb791ed4cb570da489e737,5efb87255769c70f1c5f8a1e,4,,,,,,megaphone,,,,,,0,12,12,57,1,6,2,,,,,,,,,,,,,,,,,,,,,,,,,,,,,,,,,,,,,,,,,,,,,,,,,,,,,,,,,,,,,,,,,,,,,,,,,,,
,,,,,,,,,,stimuli/images/PICTURE_487.png,ROOF,5ef767e022eb1d49042c4410,2020-06-30_19h51.20.886,proactive,2020.1.2,Win32,60,5efb791ed4cb570da489e737,5efb87255769c70f1c5f8a1e,4,,,,,,basket,,,,,,0,13,13,50,1,6,2,,,,,,,,,,,,,,,,,,,,,,,,,,,,,,,,,,,,,,,,,,,,,,,,,,,,,,,,,,,,,,,,,,,,,,,,,,,
,,,,,,,,,,stimuli/images/PICTURE_750.png,POLICY,5ef767e022eb1d49042c4410,2020-06-30_19h51.20.886,proactive,2020.1.2,Win32,60,5efb791ed4cb570da489e737,5efb87255769c70f1c5f8a1e,4,,,,,,kettle,,,,,,0,14,14,44,1,5,2,,,,,,,,,,,,,,,,,,,,,,,,,,,,,,,,,,,,,,,,,,,,,,,,,,,,,,,,,,,,,,,,,,,,,,,,,,,
,,,,,,,,,,stimuli/images/PICTURE_452.png,COPS,5ef767e022eb1d49042c4410,2020-06-30_19h51.20.886,proactive,2020.1.2,Win32,60,5efb791ed4cb570da489e737,5efb87255769c70f1c5f8a1e,4,,,,,,watch,,,,,,0,15,15,0,1,1,2,,,,,,,,,,,,,,,,,,,,,,,,,,,,,,,,,,,,,,,,,,,,,,,,,,,,,,,,,,,,,,,,,,,,,,,,,,,
,,,,,,,,,,stimuli/images/PICTURE_491.png,SERIES,5ef767e022eb1d49042c4410,2020-06-30_19h51.20.886,proactive,2020.1.2,Win32,60,5efb791ed4cb570da489e737,5efb87255769c70f1c5f8a1e,4,,,,,,rug,,,,,,0,16,16,39,1,4,2,,,,,,,,,,,,,,,,,,,,,,,,,,,,,,,,,,,,,,,,,,,,,,,,,,,,,,,,,,,,,,,,,,,,,,,,,,,
,,,,,,,,,,stimuli/images/PICTURE_68.png,KIND,5ef767e022eb1d49042c4410,2020-06-30_19h51.20.886,proactive,2020.1.2,Win32,60,5efb791ed4cb570da489e737,5efb87255769c70f1c5f8a1e,4,,,,,,candle,,,,,,0,17,17,23,1,3,2,,,,,,,,,,,,,,,,,,,,,,,,,,,,,,,,,,,,,,,,,,,,,,,,,,,,,,,,,,,,,,,,,,,,,,,,,,,
,,,,,,,,,,stimuli/images/PICTURE_95.png,NIGHT,5ef767e022eb1d49042c4410,2020-06-30_19h51.20.886,proactive,2020.1.2,Win32,60,5efb791ed4cb570da489e737,5efb87255769c70f1c5f8a1e,4,,,,,,suitcase,,,,,,0,18,18,37,1,4,2,,,,,,,,,,,,,,,,,,,,,,,,,,,,,,,,,,,,,,,,,,,,,,,,,,,,,,,,,,,,,,,,,,,,,,,,,,,
,,,,,,,,,,stimuli/images/PICTURE_654.png,COPS,5ef767e022eb1d49042c4410,2020-06-30_19h51.20.886,proactive,2020.1.2,Win32,60,5efb791ed4cb570da489e737,5efb87255769c70f1c5f8a1e,4,,,,,,pencil,,,,,,0,19,19,10,1,2,2,,,,,,,,,,,,,,,,,,,,,,,,,,,,,,,,,,,,,,,,,,,,,,,,,,,,,,,,,,,,,,,,,,,,,,,,,,,
,,,,,,,,,,stimuli/images/PICTURE_504.png,HOUSE,5ef767e022eb1d49042c4410,2020-06-30_19h51.20.886,proactive,2020.1.2,Win32,60,5efb791ed4cb570da489e737,5efb87255769c70f1c5f8a1e,4,,,,,,wheel,,,,,,0,20,20,36,1,4,2,,,,,,,,,,,,,,,,,,,,,,,,,,,,,,,,,,,,,,,,,,,,,,,,,,,,,,,,,,,,,,,,,,,,,,,,,,,
,,,,,,,,,,stimuli/images/PICTURE_57.png,CANDY,5ef767e022eb1d49042c4410,2020-06-30_19h51.20.886,proactive,2020.1.2,Win32,60,5efb791ed4cb570da489e737,5efb87255769c70f1c5f8a1e,4,,,,,,stamp,,,,,,0,21,21,52,1,6,2,,,,,,,,,,,,,,,,,,,,,,,,,,,,,,,,,,,,,,,,,,,,,,,,,,,,,,,,,,,,,,,,,,,,,,,,,,,
,,,,,,,,,,stimuli/images/PICTURE_147.png,LEADER,5ef767e022eb1d49042c4410,2020-06-30_19h51.20.886,proactive,2020.1.2,Win32,60,5efb791ed4cb570da489e737,5efb87255769c70f1c5f8a1e,4,,,,,,hanger,,,,,,0,22,22,33,1,4,2,,,,,,,,,,,,,,,,,,,,,,,,,,,,,,,,,,,,,,,,,,,,,,,,,,,,,,,,,,,,,,,,,,,,,,,,,,,
,,,,,,,,,,stimuli/images/PICTURE_356.png,CANDY,5ef767e022eb1d49042c4410,2020-06-30_19h51.20.886,proactive,2020.1.2,Win32,60,5efb791ed4cb570da489e737,5efb87255769c70f1c5f8a1e,4,,,,,,pawn,,,,,,0,23,23,46,1,5,2,,,,,,,,,,,,,,,,,,,,,,,,,,,,,,,,,,,,,,,,,,,,,,,,,,,,,,,,,,,,,,,,,,,,,,,,,,,
,,,,,,,,,,stimuli/images/PICTURE_509.png,APPLE,5ef767e022eb1d49042c4410,2020-06-30_19h51.20.886,proactive,2020.1.2,Win32,60,5efb791ed4cb570da489e737,5efb87255769c70f1c5f8a1e,4,,,,,,telephone,,,,,,0,24,24,38,1,4,2,,,,,,,,,,,,,,,,,,,,,,,,,,,,,,,,,,,,,,,,,,,,,,,,,,,,,,,,,,,,,,,,,,,,,,,,,,,
,,,,,,,,,,stimuli/images/PICTURE_285.png,PRINCE,5ef767e022eb1d49042c4410,2020-06-30_19h51.20.886,proactive,2020.1.2,Win32,60,5efb791ed4cb570da489e737,5efb87255769c70f1c5f8a1e,4,,,,,,carrot,,,,,,0,25,25,20,1,3,2,,,,,,,,,,,,,,,,,,,,,,,,,,,,,,,,,,,,,,,,,,,,,,,,,,,,,,,,,,,,,,,,,,,,,,,,,,,
,,,,,,,,,,stimuli/images/PICTURE_215.png,BOYS,5ef767e022eb1d49042c4410,2020-06-30_19h51.20.886,proactive,2020.1.2,Win32,60,5efb791ed4cb570da489e737,5efb87255769c70f1c5f8a1e,4,,,,,,boot,,,,,,0,26,26,24,1,3,2,,,,,,,,,,,,,,,,,,,,,,,,,,,,,,,,,,,,,,,,,,,,,,,,,,,,,,,,,,,,,,,,,,,,,,,,,,,
,,,,,,,,,,stimuli/images/PICTURE_296.png,CLOCK,5ef767e022eb1d49042c4410,2020-06-30_19h51.20.886,proactive,2020.1.2,Win32,60,5efb791ed4cb570da489e737,5efb87255769c70f1c5f8a1e,4,,,,,,bolt,,,,,,0,27,27,18,1,2,2,,,,,,,,,,,,,,,,,,,,,,,,,,,,,,,,,,,,,,,,,,,,,,,,,,,,,,,,,,,,,,,,,,,,,,,,,,,
,,,,,,,,,,stimuli/images/PICTURE_654.png,YEAR,5ef767e022eb1d49042c4410,2020-06-30_19h51.20.886,proactive,2020.1.2,Win32,60,5efb791ed4cb570da489e737,5efb87255769c70f1c5f8a1e,4,,,,,,pencil,,,,,,0,28,28,41,1,5,2,,,,,,,,,,,,,,,,,,,,,,,,,,,,,,,,,,,,,,,,,,,,,,,,,,,,,,,,,,,,,,,,,,,,,,,,,,,
,,,,,,,,,,stimuli/images/PICTURE_32.png,LETTER,5ef767e022eb1d49042c4410,2020-06-30_19h51.20.886,proactive,2020.1.2,Win32,60,5efb791ed4cb570da489e737,5efb87255769c70f1c5f8a1e,4,,,,,,crown,,,,,,0,29,29,56,1,6,2,,,,,,,,,,,,,,,,,,,,,,,,,,,,,,,,,,,,,,,,,,,,,,,,,,,,,,,,,,,,,,,,,,,,,,,,,,,
,,,,,,,,,,stimuli/images/PICTURE_141.png,CLIENT,5ef767e022eb1d49042c4410,2020-06-30_19h51.20.886,proactive,2020.1.2,Win32,60,5efb791ed4cb570da489e737,5efb87255769c70f1c5f8a1e,4,,,,,,sunflower,,,,,,0,30,30,30,1,4,2,,,,,,,,,,,,,,,,,,,,,,,,,,,,,,,,,,,,,,,,,,,,,,,,,,,,,,,,,,,,,,,,,,,,,,,,,,,
,,,,,,,,,,stimuli/images/PICTURE_33.png,COPS,5ef767e022eb1d49042c4410,2020-06-30_19h51.20.886,proactive,2020.1.2,Win32,60,5efb791ed4cb570da489e737,5efb87255769c70f1c5f8a1e,4,,,,,,frame,,,,,,0,31,31,29,1,3,2,,,,,,,,,,,,,,,,,,,,,,,,,,,,,,,,,,,,,,,,,,,,,,,,,,,,,,,,,,,,,,,,,,,,,,,,,,,
,,,,,,,,,,stimuli/images/PICTURE_297.png,BODY,5ef767e022eb1d49042c4410,2020-06-30_19h51.20.886,proactive,2020.1.2,Win32,60,5efb791ed4cb570da489e737,5efb87255769c70f1c5f8a1e,4,,,,,,aeroplane,,,,,,0,32,32,51,1,6,2,,,,,,,,,,,,,,,,,,,,,,,,,,,,,,,,,,,,,,,,,,,,,,,,,,,,,,,,,,,,,,,,,,,,,,,,,,,
,,,,,,,,,,stimuli/images/PICTURE_57.png,NATION,5ef767e022eb1d49042c4410,2020-06-30_19h51.20.886,proactive,2020.1.2,Win32,60,5efb791ed4cb570da489e737,5efb87255769c70f1c5f8a1e,4,,,,,,stamp,,,,,,0,33,33,21,1,3,2,,,,,,,,,,,,,,,,,,,,,,,,,,,,,,,,,,,,,,,,,,,,,,,,,,,,,,,,,,,,,,,,,,,,,,,,,,,
,,,,,,,,,,stimuli/images/PICTURE_348.png,DUDE,5ef767e022eb1d49042c4410,2020-06-30_19h51.20.886,proactive,2020.1.2,Win32,60,5efb791ed4cb570da489e737,5efb87255769c70f1c5f8a1e,4,,,,,,pepper,,,,,,0,34,34,59,1,6,2,,,,,,,,,,,,,,,,,,,,,,,,,,,,,,,,,,,,,,,,,,,,,,,,,,,,,,,,,,,,,,,,,,,,,,,,,,,
,,,,,,,,,,stimuli/images/PICTURE_123.png,SALE,5ef767e022eb1d49042c4410,2020-06-30_19h51.20.886,proactive,2020.1.2,Win32,60,5efb791ed4cb570da489e737,5efb87255769c70f1c5f8a1e,4,,,,,,dart,,,,,,0,35,35,8,1,1,2,,,,,,,,,,,,,,,,,,,,,,,,,,,,,,,,,,,,,,,,,,,,,,,,,,,,,,,,,,,,,,,,,,,,,,,,,,,
,,,,,,,,,,stimuli/images/PICTURE_215.png,FOOD,5ef767e022eb1d49042c4410,2020-06-30_19h51.20.886,proactive,2020.1.2,Win32,60,5efb791ed4cb570da489e737,5efb87255769c70f1c5f8a1e,4,,,,,,boot,,,,,,0,36,36,5,1,1,2,,,,,,,,,,,,,,,,,,,,,,,,,,,,,,,,,,,,,,,,,,,,,,,,,,,,,,,,,,,,,,,,,,,,,,,,,,,
,,,,,,,,,,stimuli/images/PICTURE_2.png,JUNGLE,5ef767e022eb1d49042c4410,2020-06-30_19h51.20.886,proactive,2020.1.2,Win32,60,5efb791ed4cb570da489e737,5efb87255769c70f1c5f8a1e,4,,,,,,tyre,,,,,,0,37,37,1,1,1,2,,,,,,,,,,,,,,,,,,,,,,,,,,,,,,,,,,,,,,,,,,,,,,,,,,,,,,,,,,,,,,,,,,,,,,,,,,,
,,,,,,,,,,stimuli/images/PICTURE_2.png,AREA,5ef767e022eb1d49042c4410,2020-06-30_19h51.20.886,proactive,2020.1.2,Win32,60,5efb791ed4cb570da489e737,5efb87255769c70f1c5f8a1e,4,,,,,,tyre,,,,,,0,38,38,32,1,4,2,,,,,,,,,,,,,,,,,,,,,,,,,,,,,,,,,,,,,,,,,,,,,,,,,,,,,,,,,,,,,,,,,,,,,,,,,,,
,,,,,,,,,,stimuli/images/PICTURE_311.png,TOILET,5ef767e022eb1d49042c4410,2020-06-30_19h51.20.886,proactive,2020.1.2,Win32,60,5efb791ed4cb570da489e737,5efb87255769c70f1c5f8a1e,4,,,,,,razor,,,,,,0,39,39,54,1,6,2,,,,,,,,,,,,,,,,,,,,,,,,,,,,,,,,,,,,,,,,,,,,,,,,,,,,,,,,,,,,,,,,,,,,,,,,,,,
,,,,,,,,,,stimuli/images/PICTURE_208.png,SPIRIT,5ef767e022eb1d49042c4410,2020-06-30_19h51.20.886,proactive,2020.1.2,Win32,60,5efb791ed4cb570da489e737,5efb87255769c70f1c5f8a1e,4,,,,,,microphone,,,,,,0,40,40,28,1,3,2,,,,,,,,,,,,,,,,,,,,,,,,,,,,,,,,,,,,,,,,,,,,,,,,,,,,,,,,,,,,,,,,,,,,,,,,,,,
,,,,,,,,,,stimuli/images/PICTURE_667.png,GLASS,5ef767e022eb1d49042c4410,2020-06-30_19h51.20.886,proactive,2020.1.2,Win32,60,5efb791ed4cb570da489e737,5efb87255769c70f1c5f8a1e,4,,,,,,daisy,,,,,,0,41,41,27,1,3,2,,,,,,,,,,,,,,,,,,,,,,,,,,,,,,,,,,,,,,,,,,,,,,,,,,,,,,,,,,,,,,,,,,,,,,,,,,,
,,,,,,,,,,stimuli/images/PICTURE_177.png,HOUSE,5ef767e022eb1d49042c4410,2020-06-30_19h51.20.886,proactive,2020.1.2,Win32,60,5efb791ed4cb570da489e737,5efb87255769c70f1c5f8a1e,4,,,,,,mushroom,,,,,,0,42,42,25,1,3,2,,,,,,,,,,,,,,,,,,,,,,,,,,,,,,,,,,,,,,,,,,,,,,,,,,,,,,,,,,,,,,,,,,,,,,,,,,,
,,,,,,,,,,stimuli/images/PICTURE_692.png,DUDE,5ef767e022eb1d49042c4410,2020-06-30_19h51.20.886,proactive,2020.1.2,Win32,60,5efb791ed4cb570da489e737,5efb87255769c70f1c5f8a1e,4,,,,,,cherry,,,,,,0,43,43,47,1,5,2,,,,,,,,,,,,,,,,,,,,,,,,,,,,,,,,,,,,,,,,,,,,,,,,,,,,,,,,,,,,,,,,,,,,,,,,,,,
,,,,,,,,,,stimuli/images/PICTURE_285.png,WRITER,5ef767e022eb1d49042c4410,2020-06-30_19h51.20.886,proactive,2020.1.2,Win32,60,5efb791ed4cb570da489e737,5efb87255769c70f1c5f8a1e,4,,,,,,carrot,,,,,,0,44,44,6,1,1,2,,,,,,,,,,,,,,,,,,,,,,,,,,,,,,,,,,,,,,,,,,,,,,,,,,,,,,,,,,,,,,,,,,,,,,,,,,,
,,,,,,,,,,stimuli/images/PICTURE_405.png,HOUSE,5ef767e022eb1d49042c4410,2020-06-30_19h51.20.886,proactive,2020.1.2,Win32,60,5efb791ed4cb570da489e737,5efb87255769c70f1c5f8a1e,4,,,,,,anchor,,,,,,0,45,45,2,1,1,2,,,,,,,,,,,,,,,,,,,,,,,,,,,,,,,,,,,,,,,,,,,,,,,,,,,,,,,,,,,,,,,,,,,,,,,,,,,
,,,,,,,,,,stimuli/images/PICTURE_93.png,GIRL,5ef767e022eb1d49042c4410,2020-06-30_19h51.20.886,proactive,2020.1.2,Win32,60,5efb791ed4cb570da489e737,5efb87255769c70f1c5f8a1e,4,,,,,,skateboard,,,,,,0,46,46,31,1,4,2,,,,,,,,,,,,,,,,,,,,,,,,,,,,,,,,,,,,,,,,,,,,,,,,,,,,,,,,,,,,,,,,,,,,,,,,,,,
,,,,,,,,,,stimuli/images/PICTURE_470.png,BEAUTY,5ef767e022eb1d49042c4410,2020-06-30_19h51.20.886,proactive,2020.1.2,Win32,60,5efb791ed4cb570da489e737,5efb87255769c70f1c5f8a1e,4,,,,,,motorbike,,,,,,0,47,47,26,1,3,2,,,,,,,,,,,,,,,,,,,,,,,,,,,,,,,,,,,,,,,,,,,,,,,,,,,,,,,,,,,,,,,,,,,,,,,,,,,
,,,,,,,,,,stimuli/images/PICTURE_509.png,SHOTS,5ef767e022eb1d49042c4410,2020-06-30_19h51.20.886,proactive,2020.1.2,Win32,60,5efb791ed4cb570da489e737,5efb87255769c70f1c5f8a1e,4,,,,,,telephone,,,,,,0,48,48,7,1,1,2,,,,,,,,,,,,,,,,,,,,,,,,,,,,,,,,,,,,,,,,,,,,,,,,,,,,,,,,,,,,,,,,,,,,,,,,,,,
,,,,,,,,,,stimuli/images/PICTURE_509.png,BATH,5ef767e022eb1d49042c4410,2020-06-30_19h51.20.886,proactive,2020.1.2,Win32,60,5efb791ed4cb570da489e737,5efb87255769c70f1c5f8a1e,4,,,,,,telephone,,,,,,0,49,49,15,1,2,2,,,,,,,,,,,,,,,,,,,,,,,,,,,,,,,,,,,,,,,,,,,,,,,,,,,,,,,,,,,,,,,,,,,,,,,,,,,
,,,,,,,,,,stimuli/images/PICTURE_509.png,MILLER,5ef767e022eb1d49042c4410,2020-06-30_19h51.20.886,proactive,2020.1.2,Win32,60,5efb791ed4cb570da489e737,5efb87255769c70f1c5f8a1e,4,,,,,,telephone,,,,,,0,50,50,49,1,5,2,,,,,,,,,,,,,,,,,,,,,,,,,,,,,,,,,,,,,,,,,,,,,,,,,,,,,,,,,,,,,,,,,,,,,,,,,,,
,,,,,,,,,,stimuli/images/PICTURE_470.png,MOMENT,5ef767e022eb1d49042c4410,2020-06-30_19h51.20.886,proactive,2020.1.2,Win32,60,5efb791ed4cb570da489e737,5efb87255769c70f1c5f8a1e,4,,,,,,motorbike,,,,,,0,51,51,40,1,5,2,,,,,,,,,,,,,,,,,,,,,,,,,,,,,,,,,,,,,,,,,,,,,,,,,,,,,,,,,,,,,,,,,,,,,,,,,,,
,,,,,,,,,,stimuli/images/PICTURE_564.png,PLENTY,5ef767e022eb1d49042c4410,2020-06-30_19h51.20.886,proactive,2020.1.2,Win32,60,5efb791ed4cb570da489e737,5efb87255769c70f1c5f8a1e,4,,,,,,spoon,,,,,,0,52,52,11,1,2,2,,,,,,,,,,,,,,,,,,,,,,,,,,,,,,,,,,,,,,,,,,,,,,,,,,,,,,,,,,,,,,,,,,,,,,,,,,,
,,,,,,,,,,stimuli/images/PICTURE_677.png,PHOTO,5ef767e022eb1d49042c4410,2020-06-30_19h51.20.886,proactive,2020.1.2,Win32,60,5efb791ed4cb570da489e737,5efb87255769c70f1c5f8a1e,4,,,,,,map,,,,,,0,53,53,14,1,2,2,,,,,,,,,,,,,,,,,,,,,,,,,,,,,,,,,,,,,,,,,,,,,,,,,,,,,,,,,,,,,,,,,,,,,,,,,,,
,,,,,,,,,,stimuli/images/PICTURE_405.png,JUNGLE,5ef767e022eb1d49042c4410,2020-06-30_19h51.20.886,proactive,2020.1.2,Win32,60,5efb791ed4cb570da489e737,5efb87255769c70f1c5f8a1e,4,,,,,,anchor,,,,,,0,54,54,13,1,2,2,,,,,,,,,,,,,,,,,,,,,,,,,,,,,,,,,,,,,,,,,,,,,,,,,,,,,,,,,,,,,,,,,,,,,,,,,,,
,,,,,,,,,,stimuli/images/PICTURE_453.png,FAMILY,5ef767e022eb1d49042c4410,2020-06-30_19h51.20.886,proactive,2020.1.2,Win32,60,5efb791ed4cb570da489e737,5efb87255769c70f1c5f8a1e,4,,,,,,scissors,,,,,,0,55,55,48,1,5,2,,,,,,,,,,,,,,,,,,,,,,,,,,,,,,,,,,,,,,,,,,,,,,,,,,,,,,,,,,,,,,,,,,,,,,,,,,,
,,,,,,,,,,stimuli/images/PICTURE_708.png,VALLEY,5ef767e022eb1d49042c4410,2020-06-30_19h51.20.886,proactive,2020.1.2,Win32,60,5efb791ed4cb570da489e737,5efb87255769c70f1c5f8a1e,4,,,,,,monkey,,,,,,0,56,56,45,1,5,2,,,,,,,,,,,,,,,,,,,,,,,,,,,,,,,,,,,,,,,,,,,,,,,,,,,,,,,,,,,,,,,,,,,,,,,,,,,
,,,,,,,,,,stimuli/images/PICTURE_314.png,SPEECH,5ef767e022eb1d49042c4410,2020-06-30_19h51.20.886,proactive,2020.1.2,Win32,60,5efb791ed4cb570da489e737,5efb87255769c70f1c5f8a1e,4,,,,,,perfume,,,,,,0,57,57,35,1,4,2,,,,,,,,,,,,,,,,,,,,,,,,,,,,,,,,,,,,,,,,,,,,,,,,,,,,,,,,,,,,,,,,,,,,,,,,,,,
,,,,,,,,,,stimuli/images/PICTURE_405.png,JUNGLE,5ef767e022eb1d49042c4410,2020-06-30_19h51.20.886,proactive,2020.1.2,Win32,60,5efb791ed4cb570da489e737,5efb87255769c70f1c5f8a1e,4,,,,,,anchor,,,,,,0,58,58,58,1,6,2,,,,,,,,,,,,,,,,,,,,,,,,,,,,,,,,,,,,,,,,,,,,,,,,,,,,,,,,,,,,,,,,,,,,,,,,,,,
,,?,0.001075,0,,,,,,stimuli/images/PICTURE_208.png,SPIRIT,5ef767e022eb1d49042c4410,2020-06-30_19h51.20.886,proactive,2020.1.2,Win32,60,5efb791ed4cb570da489e737,5efb87255769c70f1c5f8a1e,4,,,,,,microphone,,,,,,,,,,,3,2,0,0,0,28,1,,,,,,,,,,,,,,,,,,,,,,,,,,,,,,,,,,,,,,,,,,,,,,,,,,,,,,,,,,,,,,,,,,,,,,
,,?,0.000835,0,,,,,,stimuli/images/PICTURE_677.png,FAMILY,5ef767e022eb1d49042c4410,2020-06-30_19h51.20.886,proactive,2020.1.2,Win32,60,5efb791ed4cb570da489e737,5efb87255769c70f1c5f8a1e,4,,,,,,map,,,,,,,,,,,6,2,0,1,1,53,1,,,,,,,,,,,,,,,,,,,,,,,,,,,,,,,,,,,,,,,,,,,,,,,,,,,,,,,,,,,,,,,,,,,,,,
,,GIRL,10.000715,1,,,,,,stimuli/images/PICTURE_93.png,GIRL,5ef767e022eb1d49042c4410,2020-06-30_19h51.20.886,proactive,2020.1.2,Win32,60,5efb791ed4cb570da489e737,5efb87255769c70f1c5f8a1e,4,,,,,,skateboard,,,,,,,,,,,4,2,0,2,2,31,1,,,,,,,,,,,,,,,,,,,,,,,,,,,,,,,,,,,,,,,,,,,,,,,,,,,,,,,,,,,,,,,,,,,,,,
,,NIGHT,6.312195,1,,,,,,stimuli/images/PICTURE_95.png,NIGHT,5ef767e022eb1d49042c4410,2020-06-30_19h51.20.886,proactive,2020.1.2,Win32,60,5efb791ed4cb570da489e737,5efb87255769c70f1c5f8a1e,4,,,,,,suitcase,,,,,,,,,,,4,2,0,3,3,37,1,,,,,,,,,,,,,,,,,,,,,,,,,,,,,,,,,,,,,,,,,,,,,,,,,,,,,,,,,,,,,,,,,,,,,,
,,?,0.001285,0,,,,,,stimuli/images/PICTURE_348.png,DUDE,5ef767e022eb1d49042c4410,2020-06-30_19h51.20.886,proactive,2020.1.2,Win32,60,5efb791ed4cb570da489e737,5efb87255769c70f1c5f8a1e,4,,,,,,pepper,,,,,,,,,,,6,2,0,4,4,59,1,,,,,,,,,,,,,,,,,,,,,,,,,,,,,,,,,,,,,,,,,,,,,,,,,,,,,,,,,,,,,,,,,,,,,,
,,?,0.00331,0,,,,,,stimuli/images/PICTURE_750.png,POLICY,5ef767e022eb1d49042c4410,2020-06-30_19h51.20.886,proactive,2020.1.2,Win32,60,5efb791ed4cb570da489e737,5efb87255769c70f1c5f8a1e,4,,,,,,kettle,,,,,,,,,,,5,2,0,5,5,44,1,,,,,,,,,,,,,,,,,,,,,,,,,,,,,,,,,,,,,,,,,,,,,,,,,,,,,,,,,,,,,,,,,,,,,,
,,?,0.00091,0,,,,,,stimuli/images/PICTURE_296.png,CLOCK,5ef767e022eb1d49042c4410,2020-06-30_19h51.20.886,proactive,2020.1.2,Win32,60,5efb791ed4cb570da489e737,5efb87255769c70f1c5f8a1e,4,,,,,,bolt,,,,,,,,,,,2,2,0,6,6,18,1,,,,,,,,,,,,,,,,,,,,,,,,,,,,,,,,,,,,,,,,,,,,,,,,,,,,,,,,,,,,,,,,,,,,,,
,,?,0.00094,0,,,,,,stimuli/images/PICTURE_68.png,KIND,5ef767e022eb1d49042c4410,2020-06-30_19h51.20.886,proactive,2020.1.2,Win32,60,5efb791ed4cb570da489e737,5efb87255769c70f1c5f8a1e,4,,,,,,candle,,,,,,,,,,,3,2,0,7,7,23,1,,,,,,,,,,,,,,,,,,,,,,,,,,,,,,,,,,,,,,,,,,,,,,,,,,,,,,,,,,,,,,,,,,,,,,
,,?,0.000935,0,,,,,,stimuli/images/PICTURE_311.png,FLESH,5ef767e022eb1d49042c4410,2020-06-30_19h51.20.886,proactive,2020.1.2,Win32,60,5efb791ed4cb570da489e737,5efb87255769c70f1c5f8a1e,4,,,,,,razor,,,,,,,,,,,1,2,0,8,8,3,1,,,,,,,,,,,,,,,,,,,,,,,,,,,,,,,,,,,,,,,,,,,,,,,,,,,,,,,,,,,,,,,,,,,,,,
,,LEADER,10.01601,1,,,,,,stimuli/images/PICTURE_147.png,LEADER,5ef767e022eb1d49042c4410,2020-06-30_19h51.20.886,proactive,2020.1.2,Win32,60,5efb791ed4cb570da489e737,5efb87255769c70f1c5f8a1e,4,,,,,,hanger,,,,,,,,,,,4,2,0,9,9,33,1,,,,,,,,,,,,,,,,,,,,,,,,,,,,,,,,,,,,,,,,,,,,,,,,,,,,,,,,,,,,,,,,,,,,,,
,,?,0.00172,0,,,,,,stimuli/images/PICTURE_297.png,BODY,5ef767e022eb1d49042c4410,2020-06-30_19h51.20.886,proactive,2020.1.2,Win32,60,5efb791ed4cb570da489e737,5efb87255769c70f1c5f8a1e,4,,,,,,aeroplane,,,,,,,,,,,6,2,0,10,10,51,1,,,,,,,,,,,,,,,,,,,,,,,,,,,,,,,,,,,,,,,,,,,,,,,,,,,,,,,,,,,,,,,,,,,,,,
,,?,0.001875,0,,,,,,stimuli/images/PICTURE_487.png,ROOF,5ef767e022eb1d49042c4410,2020-06-30_19h51.20.886,proactive,2020.1.2,Win32,60,5efb791ed4cb570da489e737,5efb87255769c70f1c5f8a1e,4,,,,,,basket,,,,,,,,,,,6,2,0,11,11,50,1,,,,,,,,,,,,,,,,,,,,,,,,,,,,,,,,,,,,,,,,,,,,,,,,,,,,,,,,,,,,,,,,,,,,,,
,,?,0.001145,0,,,,,,stimuli/images/PICTURE_509.png,SHOTS,5ef767e022eb1d49042c4410,2020-06-30_19h51.20.886,proactive,2020.1.2,Win32,60,5efb791ed4cb570da489e737,5efb87255769c70f1c5f8a1e,4,,,,,,telephone,,,,,,,,,,,1,2,0,12,12,7,1,,,,,,,,,,,,,,,,,,,,,,,,,,,,,,,,,,,,,,,,,,,,,,,,,,,,,,,,,,,,,,,,,,,,,,
,,?,0.002185,0,,,,,,stimuli/images/PICTURE_564.png,PLENTY,5ef767e022eb1d49042c4410,2020-06-30_19h51.20.886,proactive,2020.1.2,Win32,60,5efb791ed4cb570da489e737,5efb87255769c70f1c5f8a1e,4,,,,,,spoon,,,,,,,,,,,2,2,0,13,13,11,1,,,,,,,,,,,,,,,,,,,,,,,,,,,,,,,,,,,,,,,,,,,,,,,,,,,,,,,,,,,,,,,,,,,,,,
,,APPLE,10.01216,1,,,,,,stimuli/images/PICTURE_509.png,APPLE,5ef767e022eb1d49042c4410,2020-06-30_19h51.20.886,proactive,2020.1.2,Win32,60,5efb791ed4cb570da489e737,5efb87255769c70f1c5f8a1e,4,,,,,,telephone,,,,,,,,,,,4,2,0,14,14,38,1,,,,,,,,,,,,,,,,,,,,,,,,,,,,,,,,,,,,,,,,,,,,,,,,,,,,,,,,,,,,,,,,,,,,,,
,,?,0.002765,0,,,,,,stimuli/images/PICTURE_509.png,BATH,5ef767e022eb1d49042c4410,2020-06-30_19h51.20.886,proactive,2020.1.2,Win32,60,5efb791ed4cb570da489e737,5efb87255769c70f1c5f8a1e,4,,,,,,telephone,,,,,,,,,,,2,2,0,15,15,15,1,,,,,,,,,,,,,,,,,,,,,,,,,,,,,,,,,,,,,,,,,,,,,,,,,,,,,,,,,,,,,,,,,,,,,,
,,?,0.001025,0,,,,,,stimuli/images/PICTURE_215.png,BOYS,5ef767e022eb1d49042c4410,2020-06-30_19h51.20.886,proactive,2020.1.2,Win32,60,5efb791ed4cb570da489e737,5efb87255769c70f1c5f8a1e,4,,,,,,boot,,,,,,,,,,,3,2,0,16,16,24,1,,,,,,,,,,,,,,,,,,,,,,,,,,,,,,,,,,,,,,,,,,,,,,,,,,,,,,,,,,,,,,,,,,,,,,
,,?,0.00071,0,,,,,,stimuli/images/PICTURE_2.png,JUNGLE,5ef767e022eb1d49042c4410,2020-06-30_19h51.20.886,proactive,2020.1.2,Win32,60,5efb791ed4cb570da489e737,5efb87255769c70f1c5f8a1e,4,,,,,,tyre,,,,,,,,,,,1,2,0,17,17,1,1,,,,,,,,,,,,,,,,,,,,,,,,,,,,,,,,,,,,,,,,,,,,,,,,,,,,,,,,,,,,,,,,,,,,,,
,,?,0.000625,0,,,,,,stimuli/images/PICTURE_215.png,LEADER,5ef767e022eb1d49042c4410,2020-06-30_19h51.20.886,proactive,2020.1.2,Win32,60,5efb791ed4cb570da489e737,5efb87255769c70f1c5f8a1e,4,,,,,,boot,,,,,,,,,,,5,2,0,18,18,43,1,,,,,,,,,,,,,,,,,,,,,,,,,,,,,,,,,,,,,,,,,,,,,,,,,,,,,,,,,,,,,,,,,,,,,,
,,?,0.00126,0,,,,,,stimuli/images/PICTURE_509.png,MILLER,5ef767e022eb1d49042c4410,2020-06-30_19h51.20.886,proactive,2020.1.2,Win32,60,5efb791ed4cb570da489e737,5efb87255769c70f1c5f8a1e,4,,,,,,telephone,,,,,,,,,,,5,2,0,19,19,49,1,,,,,,,,,,,,,,,,,,,,,,,,,,,,,,,,,,,,,,,,,,,,,,,,,,,,,,,,,,,,,,,,,,,,,,
,,?,0.001295,0,,,,,,stimuli/images/PICTURE_348.png,TOILET,5ef767e022eb1d49042c4410,2020-06-30_19h51.20.886,proactive,2020.1.2,Win32,60,5efb791ed4cb570da489e737,5efb87255769c70f1c5f8a1e,4,,,,,,pepper,,,,,,,,,,,1,2,0,20,20,4,1,,,,,,,,,,,,,,,,,,,,,,,,,,,,,,,,,,,,,,,,,,,,,,,,,,,,,,,,,,,,,,,,,,,,,,
,,?,0.001165,0,,,,,,stimuli/images/PICTURE_327.png,LEADER,5ef767e022eb1d49042c4410,2020-06-30_19h51.20.886,proactive,2020.1.2,Win32,60,5efb791ed4cb570da489e737,5efb87255769c70f1c5f8a1e,4,,,,,,helmet,,,,,,,,,,,2,2,0,21,21,17,1,,,,,,,,,,,,,,,,,,,,,,,,,,,,,,,,,,,,,,,,,,,,,,,,,,,,,,,,,,,,,,,,,,,,,,
,,?,0.00091,0,,,,,,stimuli/images/PICTURE_33.png,COPS,5ef767e022eb1d49042c4410,2020-06-30_19h51.20.886,proactive,2020.1.2,Win32,60,5efb791ed4cb570da489e737,5efb87255769c70f1c5f8a1e,4,,,,,,frame,,,,,,,,,,,3,2,0,22,22,29,1,,,,,,,,,,,,,,,,,,,,,,,,,,,,,,,,,,,,,,,,,,,,,,,,,,,,,,,,,,,,,,,,,,,,,,
,,SPEECH,7.540485,1,,,,,,stimuli/images/PICTURE_314.png,SPEECH,5ef767e022eb1d49042c4410,2020-06-30_19h51.20.886,proactive,2020.1.2,Win32,60,5efb791ed4cb570da489e737,5efb87255769c70f1c5f8a1e,4,,,,,,perfume,,,,,,,,,,,4,2,0,23,23,35,1,,,,,,,,,,,,,,,,,,,,,,,,,,,,,,,,,,,,,,,,,,,,,,,,,,,,,,,,,,,,,,,,,,,,,,
,,?,0.00121,0,,,,,,stimuli/images/PICTURE_123.png,SALE,5ef767e022eb1d49042c4410,2020-06-30_19h51.20.886,proactive,2020.1.2,Win32,60,5efb791ed4cb570da489e737,5efb87255769c70f1c5f8a1e,4,,,,,,dart,,,,,,,,,,,1,2,0,24,24,8,1,,,,,,,,,,,,,,,,,,,,,,,,,,,,,,,,,,,,,,,,,,,,,,,,,,,,,,,,,,,,,,,,,,,,,,
,,?,0.001005,0,,,,,,stimuli/images/PICTURE_18.png,RIVER,5ef767e022eb1d49042c4410,2020-06-30_19h51.20.886,proactive,2020.1.2,Win32,60,5efb791ed4cb570da489e737,5efb87255769c70f1c5f8a1e,4,,,,,,planet,,,,,,,,,,,3,2,0,25,25,22,1,,,,,,,,,,,,,,,,,,,,,,,,,,,,,,,,,,,,,,,,,,,,,,,,,,,,,,,,,,,,,,,,,,,,,,
,,?,0.000695,0,,,,,,stimuli/images/PICTURE_32.png,LETTER,5ef767e022eb1d49042c4410,2020-06-30_19h51.20.886,proactive,2020.1.2,Win32,60,5efb791ed4cb570da489e737,5efb87255769c70f1c5f8a1e,4,,,,,,crown,,,,,,,,,,,6,2,0,26,26,56,1,,,,,,,,,,,,,,,,,,,,,,,,,,,,,,,,,,,,,,,,,,,,,,,,,,,,,,,,,,,,,,,,,,,,,,
,,CLIENT,7.33095,1,,,,,,stimuli/images/PICTURE_141.png,CLIENT,5ef767e022eb1d49042c4410,2020-06-30_19h51.20.886,proactive,2020.1.2,Win32,60,5efb791ed4cb570da489e737,5efb87255769c70f1c5f8a1e,4,,,,,,sunflower,,,,,,,,,,,4,2,0,27,27,30,1,,,,,,,,,,,,,,,,,,,,,,,,,,,,,,,,,,,,,,,,,,,,,,,,,,,,,,,,,,,,,,,,,,,,,,
,,?,0.001865,0,,,,,,stimuli/images/PICTURE_452.png,COPS,5ef767e022eb1d49042c4410,2020-06-30_19h51.20.886,proactive,2020.1.2,Win32,60,5efb791ed4cb570da489e737,5efb87255769c70f1c5f8a1e,4,,,,,,watch,,,,,,,,,,,1,2,0,28,28,0,1,,,,,,,,,,,,,,,,,,,,,,,,,,,,,,,,,,,,,,,,,,,,,,,,,,,,,,,,,,,,,,,,,,,,,,
,,?,0.001915,0,,,,,,stimuli/images/PICTURE_160.png,HOTEL,5ef767e022eb1d49042c4410,2020-06-30_19h51.20.886,proactive,2020.1.2,Win32,60,5efb791ed4cb570da489e737,5efb87255769c70f1c5f8a1e,4,,,,,,wheelbarrow,,,,,,,,,,,2,2,0,29,29,16,1,,,,,,,,,,,,,,,,,,,,,,,,,,,,,,,,,,,,,,,,,,,,,,,,,,,,,,,,,,,,,,,,,,,,,,
