consent_key.keys,consent_key.rt,recalled,recalled_rt,recall_acc,example_recall.thisRepN,example_recall.thisTrialN,example_recall.thisN,example_recall.thisIndex,example_recall.ran,file,word,participant,date,expName,psychopyVersion,OS,frameRate,STUDY_ID,SESSION_ID,list,prac_learn_study_loop.thisRepN,prac_learn_study_loop.thisTrialN,prac_learn_study_loop.thisN,prac_learn_study_loop.thisIndex,prac_learn_study_loop.ran,image,prac_learn_test_loop.thisRepN,prac_learn_test_loop.thisTrialN,prac_learn_test_loop.thisN,prac_learn_test_loop.thisIndex,prac_learn_test_loop.ran,learn_study_loop.thisRepN,learn_study_loop.thisTrialN,learn_study_loop.thisN,learn_study_loop.thisIndex,learn_study_loop.ran,list_no,block_no,learn_test_loop.thisRepN,learn_test_loop.thisTrialN,learn_test_loop.thisN,learn_test_loop.thisIndex,learn_test_loop.ran,learn_blocks.thisRepN,learn_blocks.thisTrialN,learn_blocks.thisN,learn_blocks.thisIndex,learn_blocks.ran,block_csv
y,7.85963,BATHE,10.00798,0,0,0,0,0,1,stimuli/images/PICTURE_747.png,TOUGH,5ef767e022eb1d49042c4410,2020-06-30_19h41.03.881,proactive,2020.1.2,Win32,60,5efb791ed4cb570da489e737,5efb87255769c70f1c5f8a1e,1,,,,,,,,,,,,,,,,,,,,,,,,,,,,,
,,,,,,,,,,stimuli/images/PICTURE_658.png,DEVIL,5ef767e022eb1d49042c4410,2020-06-30_19h41.03.881,proactive,2020.1.2,Win32,60,5efb791ed4cb570da489e737,5efb87255769c70f1c5f8a1e,1,0,0,0,3,1,crow,,,,,,,,,,,,,,,,,,,,,,,
,,,,,,,,,,stimuli/images/PICTURE_727.png,CELL,5ef767e022eb1d49042c4410,2020-06-30_19h41.03.881,proactive,2020.1.2,Win32,60,5efb791ed4cb570da489e737,5efb87255769c70f1c5f8a1e,1,0,1,1,1,1,hose,,,,,,,,,,,,,,,,,,,,,,,
,,,,,,,,,,stimuli/images/PICTURE_378.png,LOSS,5ef767e022eb1d49042c4410,2020-06-30_19h41.03.881,proactive,2020.1.2,Win32,60,5efb791ed4cb570da489e737,5efb87255769c70f1c5f8a1e,1,0,2,2,2,1,lobster,,,,,,,,,,,,,,,,,,,,,,,
,,,,,,,,,,stimuli/images/PICTURE_697.png,KILLER,5ef767e022eb1d49042c4410,2020-06-30_19h41.03.881,proactive,2020.1.2,Win32,60,5efb791ed4cb570da489e737,5efb87255769c70f1c5f8a1e,1,0,3,3,4,1,peach,,,,,,,,,,,,,,,,,,,,,,,
,,LOSS,10.01125,1,,,,,,stimuli/images/PICTURE_378.png,LOSS,5ef767e022eb1d49042c4410,2020-06-30_19h41.03.881,proactive,2020.1.2,Win32,60,5efb791ed4cb570da489e737,5efb87255769c70f1c5f8a1e,1,,,,,,lobster,0,0,0,2,1,,,,,,,,,,,,,,,,,,
,,DEVIL,10.011745,1,,,,,,stimuli/images/PICTURE_658.png,DEVIL,5ef767e022eb1d49042c4410,2020-06-30_19h41.03.881,proactive,2020.1.2,Win32,60,5efb791ed4cb570da489e737,5efb87255769c70f1c5f8a1e,1,,,,,,crow,0,1,1,3,1,,,,,,,,,,,,,,,,,,
,,?,10.014915,0,,,,,,stimuli/images/PICTURE_727.png,CELL,5ef767e022eb1d49042c4410,2020-06-30_19h41.03.881,proactive,2020.1.2,Win32,60,5efb791ed4cb570da489e737,5efb87255769c70f1c5f8a1e,1,,,,,,hose,0,2,2,1,1,,,,,,,,,,,,,,,,,,
,,HATE,10.0142,0,,,,,,stimuli/images/PICTURE_697.png,KILLER,5ef767e022eb1d49042c4410,2020-06-30_19h41.03.881,proactive,2020.1.2,Win32,60,5efb791ed4cb570da489e737,5efb87255769c70f1c5f8a1e,1,,,,,,peach,0,3,3,4,1,,,,,,,,,,,,,,,,,,
,,?,10.01577,0,,,,,,stimuli/images/PICTURE_269.png,GENIUS,5ef767e022eb1d49042c4410,2020-06-30_19h41.03.881,proactive,2020.1.2,Win32,60,5efb791ed4cb570da489e737,5efb87255769c70f1c5f8a1e,1,,,,,,chameleon,0,4,4,0,1,,,,,,,,,,,,,,,,,,
,,,,,,,,,,stimuli/images/PICTURE_750.png,POLICY,5ef767e022eb1d49042c4410,2020-06-30_19h41.03.881,proactive,2020.1.2,Win32,60,5efb791ed4cb570da489e737,5efb87255769c70f1c5f8a1e,1,,,,,,kettle,,,,,,0,0,0,44,1,5,2,,,,,,,,,,,
,,,,,,,,,,stimuli/images/PICTURE_95.png,NIGHT,5ef767e022eb1d49042c4410,2020-06-30_19h41.03.881,proactive,2020.1.2,Win32,60,5efb791ed4cb570da489e737,5efb87255769c70f1c5f8a1e,1,,,,,,suitcase,,,,,,0,1,1,37,1,4,2,,,,,,,,,,,
,,,,,,,,,,stimuli/images/PICTURE_177.png,HOUSE,5ef767e022eb1d49042c4410,2020-06-30_19h41.03.881,proactive,2020.1.2,Win32,60,5efb791ed4cb570da489e737,5efb87255769c70f1c5f8a1e,1,,,,,,mushroom,,,,,,0,2,2,25,1,3,2,,,,,,,,,,,
,,,,,,,,,,stimuli/images/PICTURE_215.png,LEADER,5ef767e022eb1d49042c4410,2020-06-30_19h41.03.881,proactive,2020.1.2,Win32,60,5efb791ed4cb570da489e737,5efb87255769c70f1c5f8a1e,1,,,,,,boot,,,,,,0,3,3,43,1,5,2,,,,,,,,,,,
,,,,,,,,,,stimuli/images/PICTURE_33.png,COPS,5ef767e022eb1d49042c4410,2020-06-30_19h41.03.881,proactive,2020.1.2,Win32,60,5efb791ed4cb570da489e737,5efb87255769c70f1c5f8a1e,1,,,,,,frame,,,,,,0,4,4,29,1,3,2,,,,,,,,,,,
,,,,,,,,,,stimuli/images/PICTURE_215.png,FOOD,5ef767e022eb1d49042c4410,2020-06-30_19h41.03.881,proactive,2020.1.2,Win32,60,5efb791ed4cb570da489e737,5efb87255769c70f1c5f8a1e,1,,,,,,boot,,,,,,0,5,5,5,1,1,2,,,,,,,,,,,
,,,,,,,,,,stimuli/images/PICTURE_68.png,KIND,5ef767e022eb1d49042c4410,2020-06-30_19h41.03.881,proactive,2020.1.2,Win32,60,5efb791ed4cb570da489e737,5efb87255769c70f1c5f8a1e,1,,,,,,candle,,,,,,0,6,6,23,1,3,2,,,,,,,,,,,
,,,,,,,,,,stimuli/images/PICTURE_677.png,PHOTO,5ef767e022eb1d49042c4410,2020-06-30_19h41.03.881,proactive,2020.1.2,Win32,60,5efb791ed4cb570da489e737,5efb87255769c70f1c5f8a1e,1,,,,,,map,,,,,,0,7,7,14,1,2,2,,,,,,,,,,,
,,,,,,,,,,stimuli/images/PICTURE_296.png,CLOCK,5ef767e022eb1d49042c4410,2020-06-30_19h41.03.881,proactive,2020.1.2,Win32,60,5efb791ed4cb570da489e737,5efb87255769c70f1c5f8a1e,1,,,,,,bolt,,,,,,0,8,8,18,1,2,2,,,,,,,,,,,
,,,,,,,,,,stimuli/images/PICTURE_509.png,SHOTS,5ef767e022eb1d49042c4410,2020-06-30_19h41.03.881,proactive,2020.1.2,Win32,60,5efb791ed4cb570da489e737,5efb87255769c70f1c5f8a1e,1,,,,,,telephone,,,,,,0,9,9,7,1,1,2,,,,,,,,,,,
,,,,,,,,,,stimuli/images/PICTURE_2.png,AREA,5ef767e022eb1d49042c4410,2020-06-30_19h41.03.881,proactive,2020.1.2,Win32,60,5efb791ed4cb570da489e737,5efb87255769c70f1c5f8a1e,1,,,,,,tyre,,,,,,0,10,10,32,1,4,2,,,,,,,,,,,
,,,,,,,,,,stimuli/images/PICTURE_2.png,YARD,5ef767e022eb1d49042c4410,2020-06-30_19h41.03.881,proactive,2020.1.2,Win32,60,5efb791ed4cb570da489e737,5efb87255769c70f1c5f8a1e,1,,,,,,tyre,,,,,,0,11,11,55,1,6,2,,,,,,,,,,,
,,,,,,,,,,stimuli/images/PICTURE_487.png,POLICY,5ef767e022eb1d49042c4410,2020-06-30_19h41.03.881,proactive,2020.1.2,Win32,60,5efb791ed4cb570da489e737,5efb87255769c70f1c5f8a1e,1,,,,,,basket,,,,,,0,12,12,34,1,4,2,,,,,,,,,,,
,,,,,,,,,,stimuli/images/PICTURE_655.png,SALE,5ef767e022eb1d49042c4410,2020-06-30_19h41.03.881,proactive,2020.1.2,Win32,60,5efb791ed4cb570da489e737,5efb87255769c70f1c5f8a1e,1,,,,,,megaphone,,,,,,0,13,13,57,1,6,2,,,,,,,,,,,
,,,,,,,,,,stimuli/images/PICTURE_208.png,SPIRIT,5ef767e022eb1d49042c4410,2020-06-30_19h41.03.881,proactive,2020.1.2,Win32,60,5efb791ed4cb570da489e737,5efb87255769c70f1c5f8a1e,1,,,,,,microphone,,,,,,0,14,14,28,1,3,2,,,,,,,,,,,
,,,,,,,,,,stimuli/images/PICTURE_314.png,SPEECH,5ef767e022eb1d49042c4410,2020-06-30_19h41.03.881,proactive,2020.1.2,Win32,60,5efb791ed4cb570da489e737,5efb87255769c70f1c5f8a1e,1,,,,,,perfume,,,,,,0,15,15,35,1,4,2,,,,,,,,,,,
,,,,,,,,,,stimuli/images/PICTURE_215.png,BOYS,5ef767e022eb1d49042c4410,2020-06-30_19h41.03.881,proactive,2020.1.2,Win32,60,5efb791ed4cb570da489e737,5efb87255769c70f1c5f8a1e,1,,,,,,boot,,,,,,0,16,16,24,1,3,2,,,,,,,,,,,
,,,,,,,,,,stimuli/images/PICTURE_564.png,PLENTY,5ef767e022eb1d49042c4410,2020-06-30_19h41.03.881,proactive,2020.1.2,Win32,60,5efb791ed4cb570da489e737,5efb87255769c70f1c5f8a1e,1,,,,,,spoon,,,,,,0,17,17,11,1,2,2,,,,,,,,,,,
,,,,,,,,,,stimuli/images/PICTURE_57.png,CASINO,5ef767e022eb1d49042c4410,2020-06-30_19h41.03.881,proactive,2020.1.2,Win32,60,5efb791ed4cb570da489e737,5efb87255769c70f1c5f8a1e,1,,,,,,stamp,,,,,,0,18,18,12,1,2,2,,,,,,,,,,,
,,,,,,,,,,stimuli/images/PICTURE_688.png,CLOCK,5ef767e022eb1d49042c4410,2020-06-30_19h41.03.881,proactive,2020.1.2,Win32,60,5efb791ed4cb570da489e737,5efb87255769c70f1c5f8a1e,1,,,,,,runner,,,,,,0,19,19,42,1,5,2,,,,,,,,,,,
,,,,,,,,,,stimuli/images/PICTURE_405.png,HOUSE,5ef767e022eb1d49042c4410,2020-06-30_19h41.03.881,proactive,2020.1.2,Win32,60,5efb791ed4cb570da489e737,5efb87255769c70f1c5f8a1e,1,,,,,,anchor,,,,,,0,20,20,2,1,1,2,,,,,,,,,,,
,,,,,,,,,,stimuli/images/PICTURE_509.png,BATH,5ef767e022eb1d49042c4410,2020-06-30_19h41.03.881,proactive,2020.1.2,Win32,60,5efb791ed4cb570da489e737,5efb87255769c70f1c5f8a1e,1,,,,,,telephone,,,,,,0,21,21,15,1,2,2,,,,,,,,,,,
,,,,,,,,,,stimuli/images/PICTURE_708.png,VALLEY,5ef767e022eb1d49042c4410,2020-06-30_19h41.03.881,proactive,2020.1.2,Win32,60,5efb791ed4cb570da489e737,5efb87255769c70f1c5f8a1e,1,,,,,,monkey,,,,,,0,22,22,45,1,5,2,,,,,,,,,,,
,,,,,,,,,,stimuli/images/PICTURE_654.png,YEAR,5ef767e022eb1d49042c4410,2020-06-30_19h41.03.881,proactive,2020.1.2,Win32,60,5efb791ed4cb570da489e737,5efb87255769c70f1c5f8a1e,1,,,,,,pencil,,,,,,0,23,23,41,1,5,2,,,,,,,,,,,
,,,,,,,,,,stimuli/images/PICTURE_147.png,LEADER,5ef767e022eb1d49042c4410,2020-06-30_19h41.03.881,proactive,2020.1.2,Win32,60,5efb791ed4cb570da489e737,5efb87255769c70f1c5f8a1e,1,,,,,,hanger,,,,,,0,24,24,33,1,4,2,,,,,,,,,,,
,,,,,,,,,,stimuli/images/PICTURE_453.png,FAMILY,5ef767e022eb1d49042c4410,2020-06-30_19h41.03.881,proactive,2020.1.2,Win32,60,5efb791ed4cb570da489e737,5efb87255769c70f1c5f8a1e,1,,,,,,scissors,,,,,,0,25,25,48,1,5,2,,,,,,,,,,,
,,,,,,,,,,stimuli/images/PICTURE_93.png,GIRL,5ef767e022eb1d49042c4410,2020-06-30_19h41.03.881,proactive,2020.1.2,Win32,60,5efb791ed4cb570da489e737,5efb87255769c70f1c5f8a1e,1,,,,,,skateboard,,,,,,0,26,26,31,1,4,2,,,,,,,,,,,
,,,,,,,,,,stimuli/images/PICTURE_487.png,ROOF,5ef767e022eb1d49042c4410,2020-06-30_19h41.03.881,proactive,2020.1.2,Win32,60,5efb791ed4cb570da489e737,5efb87255769c70f1c5f8a1e,1,,,,,,basket,,,,,,0,27,27,50,1,6,2,,,,,,,,,,,
,,,,,,,,,,stimuli/images/PICTURE_491.png,SERIES,5ef767e022eb1d49042c4410,2020-06-30_19h41.03.881,proactive,2020.1.2,Win32,60,5efb791ed4cb570da489e737,5efb87255769c70f1c5f8a1e,1,,,,,,rug,,,,,,0,28,28,39,1,4,2,,,,,,,,,,,
,,,,,,,,,,stimuli/images/PICTURE_348.png,DUDE,5ef767e022eb1d49042c4410,2020-06-30_19h41.03.881,proactive,2020.1.2,Win32,60,5efb791ed4cb570da489e737,5efb87255769c70f1c5f8a1e,1,,,,,,pepper,,,,,,0,29,29,59,1,6,2,,,,,,,,,,,
,,,,,,,,,,stimuli/images/PICTURE_311.png,TOILET,5ef767e022eb1d49042c4410,2020-06-30_19h41.03.881,proactive,2020.1.2,Win32,60,5efb791ed4cb570da489e737,5efb87255769c70f1c5f8a1e,1,,,,,,razor,,,,,,0,30,30,54,1,6,2,,,,,,,,,,,
,,,,,,,,,,stimuli/images/PICTURE_57.png,CANDY,5ef767e022eb1d49042c4410,2020-06-30_19h41.03.881,proactive,2020.1.2,Win32,60,5efb791ed4cb570da489e737,5efb87255769c70f1c5f8a1e,1,,,,,,stamp,,,,,,0,31,31,52,1,6,2,,,,,,,,,,,
,,,,,,,,,,stimuli/images/PICTURE_327.png,LEADER,5ef767e022eb1d49042c4410,2020-06-30_19h41.03.881,proactive,2020.1.2,Win32,60,5efb791ed4cb570da489e737,5efb87255769c70f1c5f8a1e,1,,,,,,helmet,,,,,,0,32,32,17,1,2,2,,,,,,,,,,,
,,,,,,,,,,stimuli/images/PICTURE_667.png,GLASS,5ef767e022eb1d49042c4410,2020-06-30_19h41.03.881,proactive,2020.1.2,Win32,60,5efb791ed4cb570da489e737,5efb87255769c70f1c5f8a1e,1,,,,,,daisy,,,,,,0,33,33,27,1,3,2,,,,,,,,,,,
,,,,,,,,,,stimuli/images/PICTURE_509.png,APPLE,5ef767e022eb1d49042c4410,2020-06-30_19h41.03.881,proactive,2020.1.2,Win32,60,5efb791ed4cb570da489e737,5efb87255769c70f1c5f8a1e,1,,,,,,telephone,,,,,,0,34,34,38,1,4,2,,,,,,,,,,,
,,,,,,,,,,stimuli/images/PICTURE_654.png,COPS,5ef767e022eb1d49042c4410,2020-06-30_19h41.03.881,proactive,2020.1.2,Win32,60,5efb791ed4cb570da489e737,5efb87255769c70f1c5f8a1e,1,,,,,,pencil,,,,,,0,35,35,10,1,2,2,,,,,,,,,,,
,,,,,,,,,,stimuli/images/PICTURE_18.png,RIVER,5ef767e022eb1d49042c4410,2020-06-30_19h41.03.881,proactive,2020.1.2,Win32,60,5efb791ed4cb570da489e737,5efb87255769c70f1c5f8a1e,1,,,,,,planet,,,,,,0,36,36,22,1,3,2,,,,,,,,,,,
,,,,,,,,,,stimuli/images/PICTURE_470.png,MOMENT,5ef767e022eb1d49042c4410,2020-06-30_19h41.03.881,proactive,2020.1.2,Win32,60,5efb791ed4cb570da489e737,5efb87255769c70f1c5f8a1e,1,,,,,,motorbike,,,,,,0,37,37,40,1,5,2,,,,,,,,,,,
,,,,,,,,,,stimuli/images/PICTURE_57.png,NATION,5ef767e022eb1d49042c4410,2020-06-30_19h41.03.881,proactive,2020.1.2,Win32,60,5efb791ed4cb570da489e737,5efb87255769c70f1c5f8a1e,1,,,,,,stamp,,,,,,0,38,38,21,1,3,2,,,,,,,,,,,
,,,,,,,,,,stimuli/images/PICTURE_470.png,BEAUTY,5ef767e022eb1d49042c4410,2020-06-30_19h41.03.881,proactive,2020.1.2,Win32,60,5efb791ed4cb570da489e737,5efb87255769c70f1c5f8a1e,1,,,,,,motorbike,,,,,,0,39,39,26,1,3,2,,,,,,,,,,,
,,,,,,,,,,stimuli/images/PICTURE_356.png,CANDY,5ef767e022eb1d49042c4410,2020-06-30_19h41.03.881,proactive,2020.1.2,Win32,60,5efb791ed4cb570da489e737,5efb87255769c70f1c5f8a1e,1,,,,,,pawn,,,,,,0,40,40,46,1,5,2,,,,,,,,,,,
,,,,,,,,,,stimuli/images/PICTURE_2.png,JUNGLE,5ef767e022eb1d49042c4410,2020-06-30_19h41.03.881,proactive,2020.1.2,Win32,60,5efb791ed4cb570da489e737,5efb87255769c70f1c5f8a1e,1,,,,,,tyre,,,,,,0,41,41,1,1,1,2,,,,,,,,,,,
,,,,,,,,,,stimuli/images/PICTURE_504.png,HOUSE,5ef767e022eb1d49042c4410,2020-06-30_19h41.03.881,proactive,2020.1.2,Win32,60,5efb791ed4cb570da489e737,5efb87255769c70f1c5f8a1e,1,,,,,,wheel,,,,,,0,42,42,36,1,4,2,,,,,,,,,,,
,,,,,,,,,,stimuli/images/PICTURE_348.png,TOILET,5ef767e022eb1d49042c4410,2020-06-30_19h41.03.881,proactive,2020.1.2,Win32,60,5efb791ed4cb570da489e737,5efb87255769c70f1c5f8a1e,1,,,,,,pepper,,,,,,0,43,43,4,1,1,2,,,,,,,,,,,
,,,,,,,,,,stimuli/images/PICTURE_285.png,WRITER,5ef767e022eb1d49042c4410,2020-06-30_19h41.03.881,proactive,2020.1.2,Win32,60,5efb791ed4cb570da489e737,5efb87255769c70f1c5f8a1e,1,,,,,,carrot,,,,,,0,44,44,6,1,1,2,,,,,,,,,,,
,,,,,,,,,,stimuli/images/PICTURE_403.png,FAMILY,5ef767e022eb1d49042c4410,2020-06-30_19h41.03.881,proactive,2020.1.2,Win32,60,5efb791ed4cb570da489e737,5efb87255769c70f1c5f8a1e,1,,,,,,cathedral,,,,,,0,45,45,9,1,1,2,,,,,,,,,,,
,,,,,,,,,,stimuli/images/PICTURE_509.png,MILLER,5ef767e022eb1d49042c4410,2020-06-30_19h41.03.881,proactive,2020.1.2,Win32,60,5efb791ed4cb570da489e737,5efb87255769c70f1c5f8a1e,1,,,,,,telephone,,,,,,0,46,46,49,1,5,2,,,,,,,,,,,
,,,,,,,,,,stimuli/images/PICTURE_692.png,DUDE,5ef767e022eb1d49042c4410,2020-06-30_19h41.03.881,proactive,2020.1.2,Win32,60,5efb791ed4cb570da489e737,5efb87255769c70f1c5f8a1e,1,,,,,,cherry,,,,,,0,47,47,47,1,5,2,,,,,,,,,,,
,,,,,,,,,,stimuli/images/PICTURE_297.png,BODY,5ef767e022eb1d49042c4410,2020-06-30_19h41.03.881,proactive,2020.1.2,Win32,60,5efb791ed4cb570da489e737,5efb87255769c70f1c5f8a1e,1,,,,,,aeroplane,,,,,,0,48,48,51,1,6,2,,,,,,,,,,,
,,,,,,,,,,stimuli/images/PICTURE_285.png,PRINCE,5ef767e022eb1d49042c4410,2020-06-30_19h41.03.881,proactive,2020.1.2,Win32,60,5efb791ed4cb570da489e737,5efb87255769c70f1c5f8a1e,1,,,,,,carrot,,,,,,0,49,49,20,1,3,2,,,,,,,,,,,
,,,,,,,,,,stimuli/images/PICTURE_405.png,JUNGLE,5ef767e022eb1d49042c4410,2020-06-30_19h41.03.881,proactive,2020.1.2,Win32,60,5efb791ed4cb570da489e737,5efb87255769c70f1c5f8a1e,1,,,,,,anchor,,,,,,0,50,50,58,1,6,2,,,,,,,,,,,
,,,,,,,,,,stimuli/images/PICTURE_255.png,PENNY,5ef767e022eb1d49042c4410,2020-06-30_19h41.03.881,proactive,2020.1.2,Win32,60,5efb791ed4cb570da489e737,5efb87255769c70f1c5f8a1e,1,,,,,,shovel,,,,,,0,51,51,19,1,2,2,,,,,,,,,,,
,,,,,,,,,,stimuli/images/PICTURE_32.png,LETTER,5ef767e022eb1d49042c4410,2020-06-30_19h41.03.881,proactive,2020.1.2,Win32,60,5efb791ed4cb570da489e737,5efb87255769c70f1c5f8a1e,1,,,,,,crown,,,,,,0,52,52,56,1,6,2,,,,,,,,,,,
,,,,,,,,,,stimuli/images/PICTURE_405.png,JUNGLE,5ef767e022eb1d49042c4410,2020-06-30_19h41.03.881,proactive,2020.1.2,Win32,60,5efb791ed4cb570da489e737,5efb87255769c70f1c5f8a1e,1,,,,,,anchor,,,,,,0,53,53,13,1,2,2,,,,,,,,,,,
,,,,,,,,,,stimuli/images/PICTURE_311.png,FLESH,5ef767e022eb1d49042c4410,2020-06-30_19h41.03.881,proactive,2020.1.2,Win32,60,5efb791ed4cb570da489e737,5efb87255769c70f1c5f8a1e,1,,,,,,razor,,,,,,0,54,54,3,1,1,2,,,,,,,,,,,
,,,,,,,,,,stimuli/images/PICTURE_141.png,CLIENT,5ef767e022eb1d49042c4410,2020-06-30_19h41.03.881,proactive,2020.1.2,Win32,60,5efb791ed4cb570da489e737,5efb87255769c70f1c5f8a1e,1,,,,,,sunflower,,,,,,0,55,55,30,1,4,2,,,,,,,,,,,
,,,,,,,,,,stimuli/images/PICTURE_123.png,SALE,5ef767e022eb1d49042c4410,2020-06-30_19h41.03.881,proactive,2020.1.2,Win32,60,5efb791ed4cb570da489e737,5efb87255769c70f1c5f8a1e,1,,,,,,dart,,,,,,0,56,56,8,1,1,2,,,,,,,,,,,
,,,,,,,,,,stimuli/images/PICTURE_677.png,FAMILY,5ef767e022eb1d49042c4410,2020-06-30_19h41.03.881,proactive,2020.1.2,Win32,60,5efb791ed4cb570da489e737,5efb87255769c70f1c5f8a1e,1,,,,,,map,,,,,,0,57,57,53,1,6,2,,,,,,,,,,,
,,,,,,,,,,stimuli/images/PICTURE_452.png,COPS,5ef767e022eb1d49042c4410,2020-06-30_19h41.03.881,proactive,2020.1.2,Win32,60,5efb791ed4cb570da489e737,5efb87255769c70f1c5f8a1e,1,,,,,,watch,,,,,,0,58,58,0,1,1,2,,,,,,,,,,,
,,?,0.000905,0,,,,,,stimuli/images/PICTURE_453.png,FAMILY,5ef767e022eb1d49042c4410,2020-06-30_19h41.03.881,proactive,2020.1.2,Win32,60,5efb791ed4cb570da489e737,5efb87255769c70f1c5f8a1e,1,,,,,,scissors,,,,,,,,,,,5,2,0,0,0,48,1,,,,,,
,,?,0.000695,0,,,,,,stimuli/images/PICTURE_32.png,LETTER,5ef767e022eb1d49042c4410,2020-06-30_19h41.03.881,proactive,2020.1.2,Win32,60,5efb791ed4cb570da489e737,5efb87255769c70f1c5f8a1e,1,,,,,,crown,,,,,,,,,,,6,2,0,1,1,56,1,,,,,,
,,?,0.000695,0,,,,,,stimuli/images/PICTURE_750.png,POLICY,5ef767e022eb1d49042c4410,2020-06-30_19h41.03.881,proactive,2020.1.2,Win32,60,5efb791ed4cb570da489e737,5efb87255769c70f1c5f8a1e,1,,,,,,kettle,,,,,,,,,,,5,2,0,2,2,44,1,,,,,,
,,?,0.0007,0,,,,,,stimuli/images/PICTURE_215.png,BOYS,5ef767e022eb1d49042c4410,2020-06-30_19h41.03.881,proactive,2020.1.2,Win32,60,5efb791ed4cb570da489e737,5efb87255769c70f1c5f8a1e,1,,,,,,boot,,,,,,,,,,,3,2,0,3,3,24,1,,,,,,
,,HOUSE,10.011075,1,,,,,,stimuli/images/PICTURE_405.png,HOUSE,5ef767e022eb1d49042c4410,2020-06-30_19h41.03.881,proactive,2020.1.2,Win32,60,5efb791ed4cb570da489e737,5efb87255769c70f1c5f8a1e,1,,,,,,anchor,,,,,,,,,,,1,2,0,4,4,2,1,,,,,,
,,?,0.00126,0,,,,,,stimuli/images/PICTURE_68.png,KIND,5ef767e022eb1d49042c4410,2020-06-30_19h41.03.881,proactive,2020.1.2,Win32,60,5efb791ed4cb570da489e737,5efb87255769c70f1c5f8a1e,1,,,,,,candle,,,,,,,,,,,3,2,0,5,5,23,1,,,,,,
,,?,0.000705,0,,,,,,stimuli/images/PICTURE_491.png,SERIES,5ef767e022eb1d49042c4410,2020-06-30_19h41.03.881,proactive,2020.1.2,Win32,60,5efb791ed4cb570da489e737,5efb87255769c70f1c5f8a1e,1,,,,,,rug,,,,,,,,,,,4,2,0,6,6,39,1,,,,,,
,,?,0.00071,0,,,,,,stimuli/images/PICTURE_688.png,CLOCK,5ef767e022eb1d49042c4410,2020-06-30_19h41.03.881,proactive,2020.1.2,Win32,60,5efb791ed4cb570da489e737,5efb87255769c70f1c5f8a1e,1,,,,,,runner,,,,,,,,,,,5,2,0,7,7,42,1,,,,,,
,,FAM,10.00461,0,,,,,,stimuli/images/PICTURE_403.png,FAMILY,5ef767e022eb1d49042c4410,2020-06-30_19h41.03.881,proactive,2020.1.2,Win32,60,5efb791ed4cb570da489e737,5efb87255769c70f1c5f8a1e,1,,,,,,cathedral,,,,,,,,,,,1,2,0,8,8,9,1,,,,,,
,,?,0.00211,0,,,,,,stimuli/images/PICTURE_2.png,YARD,5ef767e022eb1d49042c4410,2020-06-30_19h41.03.881,proactive,2020.1.2,Win32,60,5efb791ed4cb570da489e737,5efb87255769c70f1c5f8a1e,1,,,,,,tyre,,,,,,,,,,,6,2,0,9,9,55,1,,,,,,
,,?,0.00099,0,,,,,,stimuli/images/PICTURE_141.png,CLIENT,5ef767e022eb1d49042c4410,2020-06-30_19h41.03.881,proactive,2020.1.2,Win32,60,5efb791ed4cb570da489e737,5efb87255769c70f1c5f8a1e,1,,,,,,sunflower,,,,,,,,,,,4,2,0,10,10,30,1,,,,,,
,,?,0.000805,0,,,,,,stimuli/images/PICTURE_311.png,TOILET,5ef767e022eb1d49042c4410,2020-06-30_19h41.03.881,proactive,2020.1.2,Win32,60,5efb791ed4cb570da489e737,5efb87255769c70f1c5f8a1e,1,,,,,,razor,,,,,,,,,,,6,2,0,11,11,54,1,,,,,,
,,?,0.000685,0,,,,,,stimuli/images/PICTURE_285.png,PRINCE,5ef767e022eb1d49042c4410,2020-06-30_19h41.03.881,proactive,2020.1.2,Win32,60,5efb791ed4cb570da489e737,5efb87255769c70f1c5f8a1e,1,,,,,,carrot,,,,,,,,,,,3,2,0,12,12,20,1,,,,,,
,,?,0.00067,0,,,,,,stimuli/images/PICTURE_692.png,DUDE,5ef767e022eb1d49042c4410,2020-06-30_19h41.03.881,proactive,2020.1.2,Win32,60,5efb791ed4cb570da489e737,5efb87255769c70f1c5f8a1e,1,,,,,,cherry,,,,,,,,,,,5,2,0,13,13,47,1,,,,,,
,,?,10.01187,0,,,,,,stimuli/images/PICTURE_348.png,TOILET,5ef767e022eb1d49042c4410,2020-06-30_19h41.03.881,proactive,2020.1.2,Win32,60,5efb791ed4cb570da489e737,5efb87255769c70f1c5f8a1e,1,,,,,,pepper,,,,,,,,,,,1,2,0,14,14,4,1,,,,,,
,,?,0.001455,0,,,,,,stimuli/images/PICTURE_208.png,SPIRIT,5ef767e022eb1d49042c4410,2020-06-30_19h41.03.881,proactive,2020.1.2,Win32,60,5efb791ed4cb570da489e737,5efb87255769c70f1c5f8a1e,1,,,,,,microphone,,,,,,,,,,,3,2,0,15,15,28,1,,,,,,
,,?,0.00131,0,,,,,,stimuli/images/PICTURE_470.png,BEAUTY,5ef767e022eb1d49042c4410,2020-06-30_19h41.03.881,proactive,2020.1.2,Win32,60,5efb791ed4cb570da489e737,5efb87255769c70f1c5f8a1e,1,,,,,,motorbike,,,,,,,,,,,3,2,0,16,16,26,1,,,,,,
,,?,0.00073,0,,,,,,stimuli/images/PICTURE_57.png,CASINO,5ef767e022eb1d49042c4410,2020-06-30_19h41.03.881,proactive,2020.1.2,Win32,60,5efb791ed4cb570da489e737,5efb87255769c70f1c5f8a1e,1,,,,,,stamp,,,,,,,,,,,2,2,0,17,17,12,1,,,,,,
,,?,0.00069,0,,,,,,stimuli/images/PICTURE_504.png,HOUSE,5ef767e022eb1d49042c4410,2020-06-30_19h41.03.881,proactive,2020.1.2,Win32,60,5efb791ed4cb570da489e737,5efb87255769c70f1c5f8a1e,1,,,,,,wheel,,,,,,,,,,,4,2,0,18,18,36,1,,,,,,
,,?,0.000665,0,,,,,,stimuli/images/PICTURE_255.png,PENNY,5ef767e022eb1d49042c4410,2020-06-30_19h41.03.881,proactive,2020.1.2,Win32,60,5efb791ed4cb570da489e737,5efb87255769c70f1c5f8a1e,1,,,,,,shovel,,,,,,,,,,,2,2,0,19,19,19,1,,,,,,
,,?,0.00141,0,,,,,,stimuli/images/PICTURE_296.png,CLOCK,5ef767e022eb1d49042c4410,2020-06-30_19h41.03.881,proactive,2020.1.2,Win32,60,5efb791ed4cb570da489e737,5efb87255769c70f1c5f8a1e,1,,,,,,bolt,,,,,,,,,,,2,2,0,20,20,18,1,,,,,,
,,?,0.00139,0,,,,,,stimuli/images/PICTURE_348.png,DUDE,5ef767e022eb1d49042c4410,2020-06-30_19h41.03.881,proactive,2020.1.2,Win32,60,5efb791ed4cb570da489e737,5efb87255769c70f1c5f8a1e,1,,,,,,pepper,,,,,,,,,,,6,2,0,21,21,59,1,,,,,,
,,?,0.001265,0,,,,,,stimuli/images/PICTURE_667.png,GLASS,5ef767e022eb1d49042c4410,2020-06-30_19h41.03.881,proactive,2020.1.2,Win32,60,5efb791ed4cb570da489e737,5efb87255769c70f1c5f8a1e,1,,,,,,daisy,,,,,,,,,,,3,2,0,22,22,27,1,,,,,,
,,?,0.000955,0,,,,,,stimuli/images/PICTURE_509.png,BATH,5ef767e022eb1d49042c4410,2020-06-30_19h41.03.881,proactive,2020.1.2,Win32,60,5efb791ed4cb570da489e737,5efb87255769c70f1c5f8a1e,1,,,,,,telephone,,,,,,,,,,,2,2,0,23,23,15,1,,,,,,
,,?,0.001395,0,,,,,,stimuli/images/PICTURE_57.png,CANDY,5ef767e022eb1d49042c4410,2020-06-30_19h41.03.881,proactive,2020.1.2,Win32,60,5efb791ed4cb570da489e737,5efb87255769c70f1c5f8a1e,1,,,,,,stamp,,,,,,,,,,,6,2,0,24,24,52,1,,,,,,
,,?,0.002685,0,,,,,,stimuli/images/PICTURE_509.png,MILLER,5ef767e022eb1d49042c4410,2020-06-30_19h41.03.881,proactive,2020.1.2,Win32,60,5efb791ed4cb570da489e737,5efb87255769c70f1c5f8a1e,1,,,,,,telephone,,,,,,,,,,,5,2,0,25,25,49,1,,,,,,
,,?,0.00118,0,,,,,,stimuli/images/PICTURE_655.png,SALE,5ef767e022eb1d49042c4410,2020-06-30_19h41.03.881,proactive,2020.1.2,Win32,60,5efb791ed4cb570da489e737,5efb87255769c70f1c5f8a1e,1,,,,,,megaphone,,,,,,,,,,,6,2,0,26,26,57,1,,,,,,
,,?,0.00093,0,,,,,,stimuli/images/PICTURE_327.png,LEADER,5ef767e022eb1d49042c4410,2020-06-30_19h41.03.881,proactive,2020.1.2,Win32,60,5efb791ed4cb570da489e737,5efb87255769c70f1c5f8a1e,1,,,,,,helmet,,,,,,,,,,,2,2,0,27,27,17,1,,,,,,
,,?,0.00089,0,,,,,,stimuli/images/PICTURE_356.png,CANDY,5ef767e022eb1d49042c4410,2020-06-30_19h41.03.881,proactive,2020.1.2,Win32,60,5efb791ed4cb570da489e737,5efb87255769c70f1c5f8a1e,1,,,,,,pawn,,,,,,,,,,,5,2,0,28,28,46,1,,,,,,
,,?,0.00088,0,,,,,,stimuli/images/PICTURE_405.png,JUNGLE,5ef767e022eb1d49042c4410,2020-06-30_19h41.03.881,proactive,2020.1.2,Win32,60,5efb791ed4cb570da489e737,5efb87255769c70f1c5f8a1e,1,,,,,,anchor,,,,,,,,,,,6,2,0,29,29,58,1,,,,,,
,,WRITER,5.97039,1,,,,,,stimuli/images/PICTURE_285.png,WRITER,5ef767e022eb1d49042c4410,2020-06-30_19h41.03.881,proactive,2020.1.2,Win32,60,5efb791ed4cb570da489e737,5efb87255769c70f1c5f8a1e,1,,,,,,carrot,,,,,,,,,,,1,2,0,30,30,6,1,,,,,,
,,?,0.001655,0,,,,,,stimuli/images/PICTURE_297.png,BODY,5ef767e022eb1d49042c4410,2020-06-30_19h41.03.881,proactive,2020.1.2,Win32,60,5efb791ed4cb570da489e737,5efb87255769c70f1c5f8a1e,1,,,,,,aeroplane,,,,,,,,,,,6,2,0,31,31,51,1,,,,,,
,,HOUSE,5.507535,0,,,,,,stimuli/images/PICTURE_123.png,SALE,5ef767e022eb1d49042c4410,2020-06-30_19h41.03.881,proactive,2020.1.2,Win32,60,5efb791ed4cb570da489e737,5efb87255769c70f1c5f8a1e,1,,,,,,dart,,,,,,,,,,,1,2,0,32,32,8,1,,,,,,
,,?,0.0013,0,,,,,,stimuli/images/PICTURE_160.png,HOTEL,5ef767e022eb1d49042c4410,2020-06-30_19h41.03.881,proactive,2020.1.2,Win32,60,5efb791ed4cb570da489e737,5efb87255769c70f1c5f8a1e,1,,,,,,wheelbarrow,,,,,,,,,,,2,2,0,33,33,16,1,,,,,,
,,?,0.001065,0,,,,,,stimuli/images/PICTURE_405.png,JUNGLE,5ef767e022eb1d49042c4410,2020-06-30_19h41.03.881,proactive,2020.1.2,Win32,60,5efb791ed4cb570da489e737,5efb87255769c70f1c5f8a1e,1,,,,,,anchor,,,,,,,,,,,2,2,0,34,34,13,1,,,,,,
,,?,0.00069,0,,,,,,stimuli/images/PICTURE_564.png,PLENTY,5ef767e022eb1d49042c4410,2020-06-30_19h41.03.881,proactive,2020.1.2,Win32,60,5efb791ed4cb570da489e737,5efb87255769c70f1c5f8a1e,1,,,,,,spoon,,,,,,,,,,,2,2,0,35,35,11,1,,,,,,
,,FOOD,3.037755,1,,,,,,stimuli/images/PICTURE_215.png,FOOD,5ef767e022eb1d49042c4410,2020-06-30_19h41.03.881,proactive,2020.1.2,Win32,60,5efb791ed4cb570da489e737,5efb87255769c70f1c5f8a1e,1,,,,,,boot,,,,,,,,,,,1,2,0,36,36,5,1,,,,,,
,,?,0.00149,0,,,,,,stimuli/images/PICTURE_2.png,AREA,5ef767e022eb1d49042c4410,2020-06-30_19h41.03.881,proactive,2020.1.2,Win32,60,5efb791ed4cb570da489e737,5efb87255769c70f1c5f8a1e,1,,,,,,tyre,,,,,,,,,,,4,2,0,37,37,32,1,,,,,,
,,SALE,5.39959,0,,,,,,stimuli/images/PICTURE_311.png,FLESH,5ef767e022eb1d49042c4410,2020-06-30_19h41.03.881,proactive,2020.1.2,Win32,60,5efb791ed4cb570da489e737,5efb87255769c70f1c5f8a1e,1,,,,,,razor,,,,,,,,,,,1,2,0,38,38,3,1,,,,,,
,,?,0.00159,0,,,,,,stimuli/images/PICTURE_654.png,YEAR,5ef767e022eb1d49042c4410,2020-06-30_19h41.03.881,proactive,2020.1.2,Win32,60,5efb791ed4cb570da489e737,5efb87255769c70f1c5f8a1e,1,,,,,,pencil,,,,,,,,,,,5,2,0,39,39,41,1,,,,,,
,,?,0.00117,0,,,,,,stimuli/images/PICTURE_57.png,NATION,5ef767e022eb1d49042c4410,2020-06-30_19h41.03.881,proactive,2020.1.2,Win32,60,5efb791ed4cb570da489e737,5efb87255769c70f1c5f8a1e,1,,,,,,stamp,,,,,,,,,,,3,2,0,40,40,21,1,,,,,,
,,?,0.00092,0,,,,,,stimuli/images/PICTURE_215.png,LEADER,5ef767e022eb1d49042c4410,2020-06-30_19h41.03.881,proactive,2020.1.2,Win32,60,5efb791ed4cb570da489e737,5efb87255769c70f1c5f8a1e,1,,,,,,boot,,,,,,,,,,,5,2,0,41,41,43,1,,,,,,
,,?,0.00086,0,,,,,,stimuli/images/PICTURE_487.png,POLICY,5ef767e022eb1d49042c4410,2020-06-30_19h41.03.881,proactive,2020.1.2,Win32,60,5efb791ed4cb570da489e737,5efb87255769c70f1c5f8a1e,1,,,,,,basket,,,,,,,,,,,4,2,0,42,42,34,1,,,,,,
,,?,0.00085,0,,,,,,stimuli/images/PICTURE_487.png,ROOF,5ef767e022eb1d49042c4410,2020-06-30_19h41.03.881,proactive,2020.1.2,Win32,60,5efb791ed4cb570da489e737,5efb87255769c70f1c5f8a1e,1,,,,,,basket,,,,,,,,,,,6,2,0,43,43,50,1,,,,,,
,,COPS,3.86021,1,,,,,,stimuli/images/PICTURE_452.png,COPS,5ef767e022eb1d49042c4410,2020-06-30_19h41.03.881,proactive,2020.1.2,Win32,60,5efb791ed4cb570da489e737,5efb87255769c70f1c5f8a1e,1,,,,,,watch,,,,,,,,,,,1,2,0,44,44,0,1,,,,,,
,,?,0.00267,0,,,,,,stimuli/images/PICTURE_677.png,FAMILY,5ef767e022eb1d49042c4410,2020-06-30_19h41.03.881,proactive,2020.1.2,Win32,60,5efb791ed4cb570da489e737,5efb87255769c70f1c5f8a1e,1,,,,,,map,,,,,,,,,,,6,2,0,45,45,53,1,,,,,,
,,?,0.001245,0,,,,,,stimuli/images/PICTURE_177.png,HOUSE,5ef767e022eb1d49042c4410,2020-06-30_19h41.03.881,proactive,2020.1.2,Win32,60,5efb791ed4cb570da489e737,5efb87255769c70f1c5f8a1e,1,,,,,,mushroom,,,,,,,,,,,3,2,0,46,46,25,1,,,,,,
,,?,0.001435,0,,,,,,stimuli/images/PICTURE_314.png,SPEECH,5ef767e022eb1d49042c4410,2020-06-30_19h41.03.881,proactive,2020.1.2,Win32,60,5efb791ed4cb570da489e737,5efb87255769c70f1c5f8a1e,1,,,,,,perfume,,,,,,,,,,,4,2,0,47,47,35,1,,,,,,
,,HOUSE,3.549215,0,,,,,,stimuli/images/PICTURE_2.png,JUNGLE,5ef767e022eb1d49042c4410,2020-06-30_19h41.03.881,proactive,2020.1.2,Win32,60,5efb791ed4cb570da489e737,5efb87255769c70f1c5f8a1e,1,,,,,,tyre,,,,,,,,,,,1,2,0,48,48,1,1,,,,,,
,,?,0.001585,0,,,,,,stimuli/images/PICTURE_33.png,COPS,5ef767e022eb1d49042c4410,2020-06-30_19h41.03.881,proactive,2020.1.2,Win32,60,5efb791ed4cb570da489e737,5efb87255769c70f1c5f8a1e,1,,,,,,frame,,,,,,,,,,,3,2,0,49,49,29,1,,,,,,
,,?,0.001205,0,,,,,,stimuli/images/PICTURE_509.png,APPLE,5ef767e022eb1d49042c4410,2020-06-30_19h41.03.881,proactive,2020.1.2,Win32,60,5efb791ed4cb570da489e737,5efb87255769c70f1c5f8a1e,1,,,,,,telephone,,,,,,,,,,,4,2,0,50,50,38,1,,,,,,
,,?,0.00103,0,,,,,,stimuli/images/PICTURE_95.png,NIGHT,5ef767e022eb1d49042c4410,2020-06-30_19h41.03.881,proactive,2020.1.2,Win32,60,5efb791ed4cb570da489e737,5efb87255769c70f1c5f8a1e,1,,,,,,suitcase,,,,,,,,,,,4,2,0,51,51,37,1,,,,,,
,,HOUSE,3.25166,0,,,,,,stimuli/images/PICTURE_509.png,SHOTS,5ef767e022eb1d49042c4410,2020-06-30_19h41.03.881,proactive,2020.1.2,Win32,60,5efb791ed4cb570da489e737,5efb87255769c70f1c5f8a1e,1,,,,,,telephone,,,,,,,,,,,1,2,0,52,52,7,1,,,,,,
,,?,0.002065,0,,,,,,stimuli/images/PICTURE_147.png,LEADER,5ef767e022eb1d49042c4410,2020-06-30_19h41.03.881,proactive,2020.1.2,Win32,60,5efb791ed4cb570da489e737,5efb87255769c70f1c5f8a1e,1,,,,,,hanger,,,,,,,,,,,4,2,0,53,53,33,1,,,,,,
,,?,0.001505,0,,,,,,stimuli/images/PICTURE_93.png,GIRL,5ef767e022eb1d49042c4410,2020-06-30_19h41.03.881,proactive,2020.1.2,Win32,60,5efb791ed4cb570da489e737,5efb87255769c70f1c5f8a1e,1,,,,,,skateboard,,,,,,,,,,,4,2,0,54,54,31,1,,,,,,
,,?,0.00136,0,,,,,,stimuli/images/PICTURE_677.png,PHOTO,5ef767e022eb1d49042c4410,2020-06-30_19h41.03.881,proactive,2020.1.2,Win32,60,5efb791ed4cb570da489e737,5efb87255769c70f1c5f8a1e,1,,,,,,map,,,,,,,,,,,2,2,0,55,55,14,1,,,,,,
,,?,0.00103,0,,,,,,stimuli/images/PICTURE_470.png,MOMENT,5ef767e022eb1d49042c4410,2020-06-30_19h41.03.881,proactive,2020.1.2,Win32,60,5efb791ed4cb570da489e737,5efb87255769c70f1c5f8a1e,1,,,,,,motorbike,,,,,,,,,,,5,2,0,56,56,40,1,,,,,,
,,?,0.00236,0,,,,,,stimuli/images/PICTURE_654.png,COPS,5ef767e022eb1d49042c4410,2020-06-30_19h41.03.881,proactive,2020.1.2,Win32,60,5efb791ed4cb570da489e737,5efb87255769c70f1c5f8a1e,1,,,,,,pencil,,,,,,,,,,,2,2,0,57,57,10,1,,,,,,
,,?,0.00063,0,,,,,,stimuli/images/PICTURE_18.png,RIVER,5ef767e022eb1d49042c4410,2020-06-30_19h41.03.881,proactive,2020.1.2,Win32,60,5efb791ed4cb570da489e737,5efb87255769c70f1c5f8a1e,1,,,,,,planet,,,,,,,,,,,3,2,0,58,58,22,1,,,,,,
,,?,0.000635,0,,,,,,stimuli/images/PICTURE_708.png,VALLEY,5ef767e022eb1d49042c4410,2020-06-30_19h41.03.881,proactive,2020.1.2,Win32,60,5efb791ed4cb570da489e737,5efb87255769c70f1c5f8a1e,1,,,,,,monkey,,,,,,,,,,,5,2,0,59,59,45,1,,,,,,
,,,,,,,,,,,,5ef767e022eb1d49042c4410,2020-06-30_19h41.03.881,proactive,2020.1.2,Win32,60,5efb791ed4cb570da489e737,5efb87255769c70f1c5f8a1e,1,,,,,,,,,,,,,,,,,,,,,,,,0,0,0,2,1,stimuli/learn-block3.csv
,,,,,,,,,,stimuli/images/PICTURE_654.png,VALLEY,5ef767e022eb1d49042c4410,2020-06-30_19h41.03.881,proactive,2020.1.2,Win32,60,5efb791ed4cb570da489e737,5efb87255769c70f1c5f8a1e,1,,,,,,pencil,,,,,,0,0,0,1,1,1,0,,,,,,,,,,,
,,,,,,,,,,stimuli/images/PICTURE_708.png,CLIENT,5ef767e022eb1d49042c4410,2020-06-30_19h41.03.881,proactive,2020.1.2,Win32,60,5efb791ed4cb570da489e737,5efb87255769c70f1c5f8a1e,1,,,,,,monkey,,,,,,0,1,1,5,1,1,0,,,,,,,,,,,
,,,,,,,,,,stimuli/images/PICTURE_675.png,WEAPON,5ef767e022eb1d49042c4410,2020-06-30_19h41.03.881,proactive,2020.1.2,Win32,60,5efb791ed4cb570da489e737,5efb87255769c70f1c5f8a1e,1,,,,,,windmill,,,,,,0,2,2,32,1,4,0,,,,,,,,,,,
,,,,,,,,,,stimuli/images/PICTURE_453.png,DUDE,5ef767e022eb1d49042c4410,2020-06-30_19h41.03.881,proactive,2020.1.2,Win32,60,5efb791ed4cb570da489e737,5efb87255769c70f1c5f8a1e,1,,,,,,scissors,,,,,,0,3,3,27,1,3,0,,,,,,,,,,,
,,,,,,,,,,stimuli/images/PICTURE_308.png,ESTATE,5ef767e022eb1d49042c4410,2020-06-30_19h41.03.881,proactive,2020.1.2,Win32,60,5efb791ed4cb570da489e737,5efb87255769c70f1c5f8a1e,1,,,,,,dice,,,,,,0,4,4,46,1,5,0,,,,,,,,,,,
,,,,,,,,,,stimuli/images/PICTURE_491.png,WRITER,5ef767e022eb1d49042c4410,2020-06-30_19h41.03.881,proactive,2020.1.2,Win32,60,5efb791ed4cb570da489e737,5efb87255769c70f1c5f8a1e,1,,,,,,rug,,,,,,0,5,5,57,1,6,0,,,,,,,,,,,
,,,,,,,,,,stimuli/images/PICTURE_233.png,IDEAS,5ef767e022eb1d49042c4410,2020-06-30_19h41.03.881,proactive,2020.1.2,Win32,60,5efb791ed4cb570da489e737,5efb87255769c70f1c5f8a1e,1,,,,,,salt,,,,,,0,6,6,28,1,3,0,,,,,,,,,,,
,,,,,,,,,,stimuli/images/PICTURE_453.png,PLENTY,5ef767e022eb1d49042c4410,2020-06-30_19h41.03.881,proactive,2020.1.2,Win32,60,5efb791ed4cb570da489e737,5efb87255769c70f1c5f8a1e,1,,,,,,scissors,,,,,,0,7,7,56,1,6,0,,,,,,,,,,,
,,,,,,,,,,stimuli/images/PICTURE_380.png,PHOTO,5ef767e022eb1d49042c4410,2020-06-30_19h41.03.881,proactive,2020.1.2,Win32,60,5efb791ed4cb570da489e737,5efb87255769c70f1c5f8a1e,1,,,,,,gorilla,,,,,,0,8,8,52,1,6,0,,,,,,,,,,,
,,,,,,,,,,stimuli/images/PICTURE_744.png,SAKE,5ef767e022eb1d49042c4410,2020-06-30_19h41.03.881,proactive,2020.1.2,Win32,60,5efb791ed4cb570da489e737,5efb87255769c70f1c5f8a1e,1,,,,,,ring,,,,,,0,9,9,17,1,2,0,,,,,,,,,,,
,,,,,,,,,,stimuli/images/PICTURE_285.png,ADVICE,5ef767e022eb1d49042c4410,2020-06-30_19h41.03.881,proactive,2020.1.2,Win32,60,5efb791ed4cb570da489e737,5efb87255769c70f1c5f8a1e,1,,,,,,carrot,,,,,,0,10,10,12,1,2,0,,,,,,,,,,,
,,,,,,,,,,stimuli/images/PICTURE_509.png,PHOTO,5ef767e022eb1d49042c4410,2020-06-30_19h41.03.881,proactive,2020.1.2,Win32,60,5efb791ed4cb570da489e737,5efb87255769c70f1c5f8a1e,1,,,,,,telephone,,,,,,0,11,11,21,1,3,0,,,,,,,,,,,
,,,,,,,,,,stimuli/images/PICTURE_203.png,ARTIST,5ef767e022eb1d49042c4410,2020-06-30_19h41.03.881,proactive,2020.1.2,Win32,60,5efb791ed4cb570da489e737,5efb87255769c70f1c5f8a1e,1,,,,,,cap,,,,,,0,12,12,26,1,3,0,,,,,,,,,,,
,,,,,,,,,,stimuli/images/PICTURE_339.png,PLENTY,5ef767e022eb1d49042c4410,2020-06-30_19h41.03.881,proactive,2020.1.2,Win32,60,5efb791ed4cb570da489e737,5efb87255769c70f1c5f8a1e,1,,,,,,backpack,,,,,,0,13,13,0,1,1,0,,,,,,,,,,,
,,,,,,,,,,stimuli/images/PICTURE_123.png,ADVICE,5ef767e022eb1d49042c4410,2020-06-30_19h41.03.881,proactive,2020.1.2,Win32,60,5efb791ed4cb570da489e737,5efb87255769c70f1c5f8a1e,1,,,,,,dart,,,,,,0,14,14,50,1,6,0,,,,,,,,,,,
,,,,,,,,,,stimuli/images/PICTURE_208.png,THING,5ef767e022eb1d49042c4410,2020-06-30_19h41.03.881,proactive,2020.1.2,Win32,60,5efb791ed4cb570da489e737,5efb87255769c70f1c5f8a1e,1,,,,,,microphone,,,,,,0,15,15,47,1,5,0,,,,,,,,,,,
,,,,,,,,,,stimuli/images/PICTURE_449.png,THING,5ef767e022eb1d49042c4410,2020-06-30_19h41.03.881,proactive,2020.1.2,Win32,60,5efb791ed4cb570da489e737,5efb87255769c70f1c5f8a1e,1,,,,,,bench,,,,,,0,16,16,59,1,6,0,,,,,,,,,,,
,,,,,,,,,,stimuli/images/PICTURE_488.png,STYLE,5ef767e022eb1d49042c4410,2020-06-30_19h41.03.881,proactive,2020.1.2,Win32,60,5efb791ed4cb570da489e737,5efb87255769c70f1c5f8a1e,1,,,,,,sun,,,,,,0,17,17,33,1,4,0,,,,,,,,,,,
,,,,,,,,,,stimuli/images/PICTURE_487.png,FLIGHT,5ef767e022eb1d49042c4410,2020-06-30_19h41.03.881,proactive,2020.1.2,Win32,60,5efb791ed4cb570da489e737,5efb87255769c70f1c5f8a1e,1,,,,,,basket,,,,,,0,18,18,9,1,1,0,,,,,,,,,,,
,,,,,,,,,,stimuli/images/PICTURE_470.png,CASINO,5ef767e022eb1d49042c4410,2020-06-30_19h41.03.881,proactive,2020.1.2,Win32,60,5efb791ed4cb570da489e737,5efb87255769c70f1c5f8a1e,1,,,,,,motorbike,,,,,,0,19,19,36,1,4,0,,,,,,,,,,,
,,,,,,,,,,stimuli/images/PICTURE_692.png,MONTH,5ef767e022eb1d49042c4410,2020-06-30_19h41.03.881,proactive,2020.1.2,Win32,60,5efb791ed4cb570da489e737,5efb87255769c70f1c5f8a1e,1,,,,,,cherry,,,,,,0,20,20,16,1,2,0,,,,,,,,,,,
,,,,,,,,,,stimuli/images/PICTURE_151.png,GIRL,5ef767e022eb1d49042c4410,2020-06-30_19h41.03.881,proactive,2020.1.2,Win32,60,5efb791ed4cb570da489e737,5efb87255769c70f1c5f8a1e,1,,,,,,tray,,,,,,0,21,21,19,1,2,0,,,,,,,,,,,
,,,,,,,,,,stimuli/images/PICTURE_688.png,WOMEN,5ef767e022eb1d49042c4410,2020-06-30_19h41.03.881,proactive,2020.1.2,Win32,60,5efb791ed4cb570da489e737,5efb87255769c70f1c5f8a1e,1,,,,,,runner,,,,,,0,22,22,14,1,2,0,,,,,,,,,,,
,,,,,,,,,,stimuli/images/PICTURE_314.png,GODS,5ef767e022eb1d49042c4410,2020-06-30_19h41.03.881,proactive,2020.1.2,Win32,60,5efb791ed4cb570da489e737,5efb87255769c70f1c5f8a1e,1,,,,,,perfume,,,,,,0,23,23,11,1,2,0,,,,,,,,,,,
,,,,,,,,,,stimuli/images/PICTURE_744.png,SYSTEM,5ef767e022eb1d49042c4410,2020-06-30_19h41.03.881,proactive,2020.1.2,Win32,60,5efb791ed4cb570da489e737,5efb87255769c70f1c5f8a1e,1,,,,,,ring,,,,,,0,24,24,43,1,5,0,,,,,,,,,,,
,,,,,,,,,,stimuli/images/PICTURE_208.png,LOTS,5ef767e022eb1d49042c4410,2020-06-30_19h41.03.881,proactive,2020.1.2,Win32,60,5efb791ed4cb570da489e737,5efb87255769c70f1c5f8a1e,1,,,,,,microphone,,,,,,0,25,25,10,1,2,0,,,,,,,,,,,
,,,,,,,,,,stimuli/images/PICTURE_208.png,MONTH,5ef767e022eb1d49042c4410,2020-06-30_19h41.03.881,proactive,2020.1.2,Win32,60,5efb791ed4cb570da489e737,5efb87255769c70f1c5f8a1e,1,,,,,,microphone,,,,,,0,26,26,53,1,6,0,,,,,,,,,,,
,,,,,,,,,,stimuli/images/PICTURE_380.png,DEATH,5ef767e022eb1d49042c4410,2020-06-30_19h41.03.881,proactive,2020.1.2,Win32,60,5efb791ed4cb570da489e737,5efb87255769c70f1c5f8a1e,1,,,,,,gorilla,,,,,,0,27,27,49,1,5,0,,,,,,,,,,,
,,,,,,,,,,stimuli/images/PICTURE_491.png,ROOF,5ef767e022eb1d49042c4410,2020-06-30_19h41.03.881,proactive,2020.1.2,Win32,60,5efb791ed4cb570da489e737,5efb87255769c70f1c5f8a1e,1,,,,,,rug,,,,,,0,28,28,24,1,3,0,,,,,,,,,,,
,,,,,,,,,,stimuli/images/PICTURE_215.png,PLENTY,5ef767e022eb1d49042c4410,2020-06-30_19h41.03.881,proactive,2020.1.2,Win32,60,5efb791ed4cb570da489e737,5efb87255769c70f1c5f8a1e,1,,,,,,boot,,,,,,0,29,29,37,1,4,0,,,,,,,,,,,
,,,,,,,,,,stimuli/images/PICTURE_504.png,BODY,5ef767e022eb1d49042c4410,2020-06-30_19h41.03.881,proactive,2020.1.2,Win32,60,5efb791ed4cb570da489e737,5efb87255769c70f1c5f8a1e,1,,,,,,wheel,,,,,,0,30,30,8,1,1,0,,,,,,,,,,,
,,,,,,,,,,stimuli/images/PICTURE_314.png,SAKE,5ef767e022eb1d49042c4410,2020-06-30_19h41.03.881,proactive,2020.1.2,Win32,60,5efb791ed4cb570da489e737,5efb87255769c70f1c5f8a1e,1,,,,,,perfume,,,,,,0,31,31,7,1,1,0,,,,,,,,,,,
,,,,,,,,,,stimuli/images/PICTURE_356.png,DANGER,5ef767e022eb1d49042c4410,2020-06-30_19h41.03.881,proactive,2020.1.2,Win32,60,5efb791ed4cb570da489e737,5efb87255769c70f1c5f8a1e,1,,,,,,pawn,,,,,,0,32,32,55,1,6,0,,,,,,,,,,,
,,,,,,,,,,stimuli/images/PICTURE_677.png,MILE,5ef767e022eb1d49042c4410,2020-06-30_19h41.03.881,proactive,2020.1.2,Win32,60,5efb791ed4cb570da489e737,5efb87255769c70f1c5f8a1e,1,,,,,,map,,,,,,0,33,33,30,1,4,0,,,,,,,,,,,
,,,,,,,,,,stimuli/images/PICTURE_68.png,MILE,5ef767e022eb1d49042c4410,2020-06-30_19h41.03.881,proactive,2020.1.2,Win32,60,5efb791ed4cb570da489e737,5efb87255769c70f1c5f8a1e,1,,,,,,candle,,,,,,0,34,34,44,1,5,0,,,,,,,,,,,
,,,,,,,,,,stimuli/images/PICTURE_233.png,WOMEN,5ef767e022eb1d49042c4410,2020-06-30_19h41.03.881,proactive,2020.1.2,Win32,60,5efb791ed4cb570da489e737,5efb87255769c70f1c5f8a1e,1,,,,,,salt,,,,,,0,35,35,38,1,4,0,,,,,,,,,,,
,,,,,,,,,,stimuli/images/PICTURE_160.png,LEADER,5ef767e022eb1d49042c4410,2020-06-30_19h41.03.881,proactive,2020.1.2,Win32,60,5efb791ed4cb570da489e737,5efb87255769c70f1c5f8a1e,1,,,,,,wheelbarrow,,,,,,0,36,36,3,1,1,0,,,,,,,,,,,
,,,,,,,,,,stimuli/images/PICTURE_708.png,YARD,5ef767e022eb1d49042c4410,2020-06-30_19h41.03.881,proactive,2020.1.2,Win32,60,5efb791ed4cb570da489e737,5efb87255769c70f1c5f8a1e,1,,,,,,monkey,,,,,,0,37,37,29,1,3,0,,,,,,,,,,,
,,,,,,,,,,stimuli/images/PICTURE_160.png,FEET,5ef767e022eb1d49042c4410,2020-06-30_19h41.03.881,proactive,2020.1.2,Win32,60,5efb791ed4cb570da489e737,5efb87255769c70f1c5f8a1e,1,,,,,,wheelbarrow,,,,,,0,38,38,58,1,6,0,,,,,,,,,,,
,,,,,,,,,,stimuli/images/PICTURE_688.png,CASINO,5ef767e022eb1d49042c4410,2020-06-30_19h41.03.881,proactive,2020.1.2,Win32,60,5efb791ed4cb570da489e737,5efb87255769c70f1c5f8a1e,1,,,,,,runner,,,,,,0,39,39,2,1,1,0,,,,,,,,,,,
,,,,,,,,,,stimuli/images/PICTURE_327.png,BEAUTY,5ef767e022eb1d49042c4410,2020-06-30_19h41.03.881,proactive,2020.1.2,Win32,60,5efb791ed4cb570da489e737,5efb87255769c70f1c5f8a1e,1,,,,,,helmet,,,,,,0,40,40,48,1,5,0,,,,,,,,,,,
,,,,,,,,,,stimuli/images/PICTURE_177.png,CARS,5ef767e022eb1d49042c4410,2020-06-30_19h41.03.881,proactive,2020.1.2,Win32,60,5efb791ed4cb570da489e737,5efb87255769c70f1c5f8a1e,1,,,,,,mushroom,,,,,,0,41,41,35,1,4,0,,,,,,,,,,,
,,,,,,,,,,stimuli/images/PICTURE_311.png,FRIEND,5ef767e022eb1d49042c4410,2020-06-30_19h41.03.881,proactive,2020.1.2,Win32,60,5efb791ed4cb570da489e737,5efb87255769c70f1c5f8a1e,1,,,,,,razor,,,,,,0,42,42,34,1,4,0,,,,,,,,,,,
,,,,,,,,,,stimuli/images/PICTURE_708.png,PENNY,5ef767e022eb1d49042c4410,2020-06-30_19h41.03.881,proactive,2020.1.2,Win32,60,5efb791ed4cb570da489e737,5efb87255769c70f1c5f8a1e,1,,,,,,monkey,,,,,,0,43,43,31,1,4,0,,,,,,,,,,,
,,,,,,,,,,stimuli/images/PICTURE_308.png,KIND,5ef767e022eb1d49042c4410,2020-06-30_19h41.03.881,proactive,2020.1.2,Win32,60,5efb791ed4cb570da489e737,5efb87255769c70f1c5f8a1e,1,,,,,,dice,,,,,,0,44,44,54,1,6,0,,,,,,,,,,,
,,,,,,,,,,stimuli/images/PICTURE_467.png,DEMON,5ef767e022eb1d49042c4410,2020-06-30_19h41.03.881,proactive,2020.1.2,Win32,60,5efb791ed4cb570da489e737,5efb87255769c70f1c5f8a1e,1,,,,,,peg,,,,,,0,45,45,23,1,3,0,,,,,,,,,,,
,,,,,,,,,,stimuli/images/PICTURE_85.png,THING,5ef767e022eb1d49042c4410,2020-06-30_19h41.03.881,proactive,2020.1.2,Win32,60,5efb791ed4cb570da489e737,5efb87255769c70f1c5f8a1e,1,,,,,,diamond,,,,,,0,46,46,15,1,2,0,,,,,,,,,,,
,,,,,,,,,,stimuli/images/PICTURE_469.png,LETTER,5ef767e022eb1d49042c4410,2020-06-30_19h41.03.881,proactive,2020.1.2,Win32,60,5efb791ed4cb570da489e737,5efb87255769c70f1c5f8a1e,1,,,,,,stool,,,,,,0,47,47,42,1,5,0,,,,,,,,,,,
,,,,,,,,,,stimuli/images/PICTURE_667.png,BATH,5ef767e022eb1d49042c4410,2020-06-30_19h41.03.881,proactive,2020.1.2,Win32,60,5efb791ed4cb570da489e737,5efb87255769c70f1c5f8a1e,1,,,,,,daisy,,,,,,0,48,48,4,1,1,0,,,,,,,,,,,
,,,,,,,,,,stimuli/images/PICTURE_311.png,BEAUTY,5ef767e022eb1d49042c4410,2020-06-30_19h41.03.881,proactive,2020.1.2,Win32,60,5efb791ed4cb570da489e737,5efb87255769c70f1c5f8a1e,1,,,,,,razor,,,,,,0,49,49,13,1,2,0,,,,,,,,,,,
,,,,,,,,,,stimuli/images/PICTURE_302.png,FAMILY,5ef767e022eb1d49042c4410,2020-06-30_19h41.03.881,proactive,2020.1.2,Win32,60,5efb791ed4cb570da489e737,5efb87255769c70f1c5f8a1e,1,,,,,,taxi,,,,,,0,50,50,18,1,2,0,,,,,,,,,,,
,,,,,,,,,,stimuli/images/PICTURE_248.png,DOZEN,5ef767e022eb1d49042c4410,2020-06-30_19h41.03.881,proactive,2020.1.2,Win32,60,5efb791ed4cb570da489e737,5efb87255769c70f1c5f8a1e,1,,,,,,cart,,,,,,0,51,51,39,1,4,0,,,,,,,,,,,
,,,,,,,,,,stimuli/images/PICTURE_147.png,MOMENT,5ef767e022eb1d49042c4410,2020-06-30_19h41.03.881,proactive,2020.1.2,Win32,60,5efb791ed4cb570da489e737,5efb87255769c70f1c5f8a1e,1,,,,,,hanger,,,,,,0,52,52,51,1,6,0,,,,,,,,,,,
,,,,,,,,,,stimuli/images/PICTURE_255.png,AREA,5ef767e022eb1d49042c4410,2020-06-30_19h41.03.881,proactive,2020.1.2,Win32,60,5efb791ed4cb570da489e737,5efb87255769c70f1c5f8a1e,1,,,,,,shovel,,,,,,0,53,53,22,1,3,0,,,,,,,,,,,
,,,,,,,,,,stimuli/images/PICTURE_348.png,SPEECH,5ef767e022eb1d49042c4410,2020-06-30_19h41.03.881,proactive,2020.1.2,Win32,60,5efb791ed4cb570da489e737,5efb87255769c70f1c5f8a1e,1,,,,,,pepper,,,,,,0,54,54,20,1,3,0,,,,,,,,,,,
,,,,,,,,,,stimuli/images/PICTURE_667.png,PLENTY,5ef767e022eb1d49042c4410,2020-06-30_19h41.03.881,proactive,2020.1.2,Win32,60,5efb791ed4cb570da489e737,5efb87255769c70f1c5f8a1e,1,,,,,,daisy,,,,,,0,55,55,41,1,5,0,,,,,,,,,,,
,,,,,,,,,,stimuli/images/PICTURE_95.png,STYLE,5ef767e022eb1d49042c4410,2020-06-30_19h41.03.881,proactive,2020.1.2,Win32,60,5efb791ed4cb570da489e737,5efb87255769c70f1c5f8a1e,1,,,,,,suitcase,,,,,,0,56,56,25,1,3,0,,,,,,,,,,,
,,,,,,,,,,stimuli/images/PICTURE_32.png,JUNGLE,5ef767e022eb1d49042c4410,2020-06-30_19h41.03.881,proactive,2020.1.2,Win32,60,5efb791ed4cb570da489e737,5efb87255769c70f1c5f8a1e,1,,,,,,crown,,,,,,0,57,57,45,1,5,0,,,,,,,,,,,
,,,,,,,,,,stimuli/images/PICTURE_123.png,ADVICE,5ef767e022eb1d49042c4410,2020-06-30_19h41.03.881,proactive,2020.1.2,Win32,60,5efb791ed4cb570da489e737,5efb87255769c70f1c5f8a1e,1,,,,,,dart,,,,,,0,58,58,40,1,5,0,,,,,,,,,,,
,,?,0.00109,0,,,,,,stimuli/images/PICTURE_151.png,GIRL,5ef767e022eb1d49042c4410,2020-06-30_19h41.03.881,proactive,2020.1.2,Win32,60,5efb791ed4cb570da489e737,5efb87255769c70f1c5f8a1e,1,,,,,,tray,,,,,,,,,,,2,0,0,0,0,19,1,,,,,,
,,FLIGHT,10.010005,1,,,,,,stimuli/images/PICTURE_487.png,FLIGHT,5ef767e022eb1d49042c4410,2020-06-30_19h41.03.881,proactive,2020.1.2,Win32,60,5efb791ed4cb570da489e737,5efb87255769c70f1c5f8a1e,1,,,,,,basket,,,,,,,,,,,1,0,0,1,1,9,1,,,,,,
,,?,0.00126,0,,,,,,stimuli/images/PICTURE_692.png,MONTH,5ef767e022eb1d49042c4410,2020-06-30_19h41.03.881,proactive,2020.1.2,Win32,60,5efb791ed4cb570da489e737,5efb87255769c70f1c5f8a1e,1,,,,,,cherry,,,,,,,,,,,2,0,0,2,2,16,1,,,,,,
,,?,0.001375,0,,,,,,stimuli/images/PICTURE_248.png,DOZEN,5ef767e022eb1d49042c4410,2020-06-30_19h41.03.881,proactive,2020.1.2,Win32,60,5efb791ed4cb570da489e737,5efb87255769c70f1c5f8a1e,1,,,,,,cart,,,,,,,,,,,4,0,0,3,3,39,1,,,,,,
,,?,0.00068,0,,,,,,stimuli/images/PICTURE_667.png,PLENTY,5ef767e022eb1d49042c4410,2020-06-30_19h41.03.881,proactive,2020.1.2,Win32,60,5efb791ed4cb570da489e737,5efb87255769c70f1c5f8a1e,1,,,,,,daisy,,,,,,,,,,,5,0,0,4,4,41,1,,,,,,
,,?,0.00234,0,,,,,,stimuli/images/PICTURE_285.png,ADVICE,5ef767e022eb1d49042c4410,2020-06-30_19h41.03.881,proactive,2020.1.2,Win32,60,5efb791ed4cb570da489e737,5efb87255769c70f1c5f8a1e,1,,,,,,carrot,,,,,,,,,,,2,0,0,5,5,12,1,,,,,,
,,?,0.001095,0,,,,,,stimuli/images/PICTURE_744.png,SYSTEM,5ef767e022eb1d49042c4410,2020-06-30_19h41.03.881,proactive,2020.1.2,Win32,60,5efb791ed4cb570da489e737,5efb87255769c70f1c5f8a1e,1,,,,,,ring,,,,,,,,,,,5,0,0,6,6,43,1,,,,,,
,,?,0.00082,0,,,,,,stimuli/images/PICTURE_208.png,MONTH,5ef767e022eb1d49042c4410,2020-06-30_19h41.03.881,proactive,2020.1.2,Win32,60,5efb791ed4cb570da489e737,5efb87255769c70f1c5f8a1e,1,,,,,,microphone,,,,,,,,,,,6,0,0,7,7,53,1,,,,,,
,,?,0.0008,0,,,,,,stimuli/images/PICTURE_255.png,AREA,5ef767e022eb1d49042c4410,2020-06-30_19h41.03.881,proactive,2020.1.2,Win32,60,5efb791ed4cb570da489e737,5efb87255769c70f1c5f8a1e,1,,,,,,shovel,,,,,,,,,,,3,0,0,8,8,22,1,,,,,,
,,?,0.000655,0,,,,,,stimuli/images/PICTURE_348.png,SPEECH,5ef767e022eb1d49042c4410,2020-06-30_19h41.03.881,proactive,2020.1.2,Win32,60,5efb791ed4cb570da489e737,5efb87255769c70f1c5f8a1e,1,,,,,,pepper,,,,,,,,,,,3,0,0,9,9,20,1,,,,,,
,,?,0.00063,0,,,,,,stimuli/images/PICTURE_449.png,THING,5ef767e022eb1d49042c4410,2020-06-30_19h41.03.881,proactive,2020.1.2,Win32,60,5efb791ed4cb570da489e737,5efb87255769c70f1c5f8a1e,1,,,,,,bench,,,,,,,,,,,6,0,0,10,10,59,1,,,,,,
,,?,0.00088,0,,,,,,stimuli/images/PICTURE_177.png,CARS,5ef767e022eb1d49042c4410,2020-06-30_19h41.03.881,proactive,2020.1.2,Win32,60,5efb791ed4cb570da489e737,5efb87255769c70f1c5f8a1e,1,,,,,,mushroom,,,,,,,,,,,4,0,0,11,11,35,1,,,,,,
,,?,0.00067,0,,,,,,stimuli/images/PICTURE_311.png,FRIEND,5ef767e022eb1d49042c4410,2020-06-30_19h41.03.881,proactive,2020.1.2,Win32,60,5efb791ed4cb570da489e737,5efb87255769c70f1c5f8a1e,1,,,,,,razor,,,,,,,,,,,4,0,0,12,12,34,1,,,,,,
,,?,0.00063,0,,,,,,stimuli/images/PICTURE_356.png,DANGER,5ef767e022eb1d49042c4410,2020-06-30_19h41.03.881,proactive,2020.1.2,Win32,60,5efb791ed4cb570da489e737,5efb87255769c70f1c5f8a1e,1,,,,,,pawn,,,,,,,,,,,6,0,0,13,13,55,1,,,,,,
,,?,0.00066,0,,,,,,stimuli/images/PICTURE_708.png,PENNY,5ef767e022eb1d49042c4410,2020-06-30_19h41.03.881,proactive,2020.1.2,Win32,60,5efb791ed4cb570da489e737,5efb87255769c70f1c5f8a1e,1,,,,,,monkey,,,,,,,,,,,4,0,0,14,14,31,1,,,,,,
,,?,0.000635,0,,,,,,stimuli/images/PICTURE_327.png,BEAUTY,5ef767e022eb1d49042c4410,2020-06-30_19h41.03.881,proactive,2020.1.2,Win32,60,5efb791ed4cb570da489e737,5efb87255769c70f1c5f8a1e,1,,,,,,helmet,,,,,,,,,,,5,0,0,15,15,48,1,,,,,,
,,?,0.00063,0,,,,,,stimuli/images/PICTURE_311.png,BEAUTY,5ef767e022eb1d49042c4410,2020-06-30_19h41.03.881,proactive,2020.1.2,Win32,60,5efb791ed4cb570da489e737,5efb87255769c70f1c5f8a1e,1,,,,,,razor,,,,,,,,,,,2,0,0,16,16,13,1,,,,,,
,,?,0.00092,0,,,,,,stimuli/images/PICTURE_491.png,WRITER,5ef767e022eb1d49042c4410,2020-06-30_19h41.03.881,proactive,2020.1.2,Win32,60,5efb791ed4cb570da489e737,5efb87255769c70f1c5f8a1e,1,,,,,,rug,,,,,,,,,,,6,0,0,17,17,57,1,,,,,,
,,?,0.001075,0,,,,,,stimuli/images/PICTURE_675.png,WEAPON,5ef767e022eb1d49042c4410,2020-06-30_19h41.03.881,proactive,2020.1.2,Win32,60,5efb791ed4cb570da489e737,5efb87255769c70f1c5f8a1e,1,,,,,,windmill,,,,,,,,,,,4,0,0,18,18,32,1,,,,,,
,,ARTIST,10.00747,1,,,,,,stimuli/images/PICTURE_469.png,ARTIST,5ef767e022eb1d49042c4410,2020-06-30_19h41.03.881,proactive,2020.1.2,Win32,60,5efb791ed4cb570da489e737,5efb87255769c70f1c5f8a1e,1,,,,,,stool,,,,,,,,,,,1,0,0,19,19,6,1,,,,,,
,,?,0.0012,0,,,,,,stimuli/images/PICTURE_708.png,YARD,5ef767e022eb1d49042c4410,2020-06-30_19h41.03.881,proactive,2020.1.2,Win32,60,5efb791ed4cb570da489e737,5efb87255769c70f1c5f8a1e,1,,,,,,monkey,,,,,,,,,,,3,0,0,20,20,29,1,,,,,,
,,?,0.00331,0,,,,,,stimuli/images/PICTURE_85.png,THING,5ef767e022eb1d49042c4410,2020-06-30_19h41.03.881,proactive,2020.1.2,Win32,60,5efb791ed4cb570da489e737,5efb87255769c70f1c5f8a1e,1,,,,,,diamond,,,,,,,,,,,2,0,0,21,21,15,1,,,,,,
,,?,0.000955,0,,,,,,stimuli/images/PICTURE_203.png,ARTIST,5ef767e022eb1d49042c4410,2020-06-30_19h41.03.881,proactive,2020.1.2,Win32,60,5efb791ed4cb570da489e737,5efb87255769c70f1c5f8a1e,1,,,,,,cap,,,,,,,,,,,3,0,0,22,22,26,1,,,,,,
,,?,0.00117,0,,,,,,stimuli/images/PICTURE_688.png,WOMEN,5ef767e022eb1d49042c4410,2020-06-30_19h41.03.881,proactive,2020.1.2,Win32,60,5efb791ed4cb570da489e737,5efb87255769c70f1c5f8a1e,1,,,,,,runner,,,,,,,,,,,2,0,0,23,23,14,1,,,,,,
,,PLENTY,10.013655,1,,,,,,stimuli/images/PICTURE_339.png,PLENTY,5ef767e022eb1d49042c4410,2020-06-30_19h41.03.881,proactive,2020.1.2,Win32,60,5efb791ed4cb570da489e737,5efb87255769c70f1c5f8a1e,1,,,,,,backpack,,,,,,,,,,,1,0,0,24,24,0,1,,,,,,
,,?,0.00139,0,,,,,,stimuli/images/PICTURE_123.png,ADVICE,5ef767e022eb1d49042c4410,2020-06-30_19h41.03.881,proactive,2020.1.2,Win32,60,5efb791ed4cb570da489e737,5efb87255769c70f1c5f8a1e,1,,,,,,dart,,,,,,,,,,,5,0,0,25,25,40,1,,,,,,
,,?,0.00257,0,,,,,,stimuli/images/PICTURE_453.png,PLENTY,5ef767e022eb1d49042c4410,2020-06-30_19h41.03.881,proactive,2020.1.2,Win32,60,5efb791ed4cb570da489e737,5efb87255769c70f1c5f8a1e,1,,,,,,scissors,,,,,,,,,,,6,0,0,26,26,56,1,,,,,,
,,?,0.00131,0,,,,,,stimuli/images/PICTURE_380.png,DEATH,5ef767e022eb1d49042c4410,2020-06-30_19h41.03.881,proactive,2020.1.2,Win32,60,5efb791ed4cb570da489e737,5efb87255769c70f1c5f8a1e,1,,,,,,gorilla,,,,,,,,,,,5,0,0,27,27,49,1,,,,,,
,,?,0.001275,0,,,,,,stimuli/images/PICTURE_160.png,FEET,5ef767e022eb1d49042c4410,2020-06-30_19h41.03.881,proactive,2020.1.2,Win32,60,5efb791ed4cb570da489e737,5efb87255769c70f1c5f8a1e,1,,,,,,wheelbarrow,,,,,,,,,,,6,0,0,28,28,58,1,,,,,,
,,?,10.003025,0,,,,,,stimuli/images/PICTURE_654.png,VALLEY,5ef767e022eb1d49042c4410,2020-06-30_19h41.03.881,proactive,2020.1.2,Win32,60,5efb791ed4cb570da489e737,5efb87255769c70f1c5f8a1e,1,,,,,,pencil,,,,,,,,,,,1,0,0,29,29,1,1,,,,,,
,,BATH,6.548925,1,,,,,,stimuli/images/PICTURE_667.png,BATH,5ef767e022eb1d49042c4410,2020-06-30_19h41.03.881,proactive,2020.1.2,Win32,60,5efb791ed4cb570da489e737,5efb87255769c70f1c5f8a1e,1,,,,,,daisy,,,,,,,,,,,1,0,0,30,30,4,1,,,,,,
,,?,0.00126,0,,,,,,stimuli/images/PICTURE_491.png,ROOF,5ef767e022eb1d49042c4410,2020-06-30_19h41.03.881,proactive,2020.1.2,Win32,60,5efb791ed4cb570da489e737,5efb87255769c70f1c5f8a1e,1,,,,,,rug,,,,,,,,,,,3,0,0,31,31,24,1,,,,,,
,,LEADER,10.01276,1,,,,,,stimuli/images/PICTURE_160.png,LEADER,5ef767e022eb1d49042c4410,2020-06-30_19h41.03.881,proactive,2020.1.2,Win32,60,5efb791ed4cb570da489e737,5efb87255769c70f1c5f8a1e,1,,,,,,wheelbarrow,,,,,,,,,,,1,0,0,32,32,3,1,,,,,,
,,?,0.0012,0,,,,,,stimuli/images/PICTURE_488.png,STYLE,5ef767e022eb1d49042c4410,2020-06-30_19h41.03.881,proactive,2020.1.2,Win32,60,5efb791ed4cb570da489e737,5efb87255769c70f1c5f8a1e,1,,,,,,sun,,,,,,,,,,,4,0,0,33,33,33,1,,,,,,
,,CASINO,5.920465,1,,,,,,stimuli/images/PICTURE_688.png,CASINO,5ef767e022eb1d49042c4410,2020-06-30_19h41.03.881,proactive,2020.1.2,Win32,60,5efb791ed4cb570da489e737,5efb87255769c70f1c5f8a1e,1,,,,,,runner,,,,,,,,,,,1,0,0,34,34,2,1,,,,,,
,,?,0.001245,0,,,,,,stimuli/images/PICTURE_380.png,PHOTO,5ef767e022eb1d49042c4410,2020-06-30_19h41.03.881,proactive,2020.1.2,Win32,60,5efb791ed4cb570da489e737,5efb87255769c70f1c5f8a1e,1,,,,,,gorilla,,,,,,,,,,,6,0,0,35,35,52,1,,,,,,
,,?,0.001115,0,,,,,,stimuli/images/PICTURE_509.png,PHOTO,5ef767e022eb1d49042c4410,2020-06-30_19h41.03.881,proactive,2020.1.2,Win32,60,5efb791ed4cb570da489e737,5efb87255769c70f1c5f8a1e,1,,,,,,telephone,,,,,,,,,,,3,0,0,36,36,21,1,,,,,,
,,?,0.00101,0,,,,,,stimuli/images/PICTURE_215.png,PLENTY,5ef767e022eb1d49042c4410,2020-06-30_19h41.03.881,proactive,2020.1.2,Win32,60,5efb791ed4cb570da489e737,5efb87255769c70f1c5f8a1e,1,,,,,,boot,,,,,,,,,,,4,0,0,37,37,37,1,,,,,,
,,?,0.000865,0,,,,,,stimuli/images/PICTURE_233.png,WOMEN,5ef767e022eb1d49042c4410,2020-06-30_19h41.03.881,proactive,2020.1.2,Win32,60,5efb791ed4cb570da489e737,5efb87255769c70f1c5f8a1e,1,,,,,,salt,,,,,,,,,,,4,0,0,38,38,38,1,,,,,,
,,?,0.00091,0,,,,,,stimuli/images/PICTURE_123.png,ADVICE,5ef767e022eb1d49042c4410,2020-06-30_19h41.03.881,proactive,2020.1.2,Win32,60,5efb791ed4cb570da489e737,5efb87255769c70f1c5f8a1e,1,,,,,,dart,,,,,,,,,,,6,0,0,39,39,50,1,,,,,,
,,?,0.00086,0,,,,,,stimuli/images/PICTURE_677.png,MILE,5ef767e022eb1d49042c4410,2020-06-30_19h41.03.881,proactive,2020.1.2,Win32,60,5efb791ed4cb570da489e737,5efb87255769c70f1c5f8a1e,1,,,,,,map,,,,,,,,,,,4,0,0,40,40,30,1,,,,,,
,,BODY,6.619845,1,,,,,,stimuli/images/PICTURE_504.png,BODY,5ef767e022eb1d49042c4410,2020-06-30_19h41.03.881,proactive,2020.1.2,Win32,60,5efb791ed4cb570da489e737,5efb87255769c70f1c5f8a1e,1,,,,,,wheel,,,,,,,,,,,1,0,0,41,41,8,1,,,,,,
,,?,0.00161,0,,,,,,stimuli/images/PICTURE_308.png,KIND,5ef767e022eb1d49042c4410,2020-06-30_19h41.03.881,proactive,2020.1.2,Win32,60,5efb791ed4cb570da489e737,5efb87255769c70f1c5f8a1e,1,,,,,,dice,,,,,,,,,,,6,0,0,42,42,54,1,,,,,,
,,?,0.002115,0,,,,,,stimuli/images/PICTURE_453.png,DUDE,5ef767e022eb1d49042c4410,2020-06-30_19h41.03.881,proactive,2020.1.2,Win32,60,5efb791ed4cb570da489e737,5efb87255769c70f1c5f8a1e,1,,,,,,scissors,,,,,,,,,,,3,0,0,43,43,27,1,,,,,,
,,?,0.00107,0,,,,,,stimuli/images/PICTURE_469.png,LETTER,5ef767e022eb1d49042c4410,2020-06-30_19h41.03.881,proactive,2020.1.2,Win32,60,5efb791ed4cb570da489e737,5efb87255769c70f1c5f8a1e,1,,,,,,stool,,,,,,,,,,,5,0,0,44,44,42,1,,,,,,
,,SAKE,5.207985,1,,,,,,stimuli/images/PICTURE_314.png,SAKE,5ef767e022eb1d49042c4410,2020-06-30_19h41.03.881,proactive,2020.1.2,Win32,60,5efb791ed4cb570da489e737,5efb87255769c70f1c5f8a1e,1,,,,,,perfume,,,,,,,,,,,1,0,0,45,45,7,1,,,,,,
,,?,0.00156,0,,,,,,stimuli/images/PICTURE_744.png,SAKE,5ef767e022eb1d49042c4410,2020-06-30_19h41.03.881,proactive,2020.1.2,Win32,60,5efb791ed4cb570da489e737,5efb87255769c70f1c5f8a1e,1,,,,,,ring,,,,,,,,,,,2,0,0,46,46,17,1,,,,,,
,,?,0.001555,0,,,,,,stimuli/images/PICTURE_208.png,LOTS,5ef767e022eb1d49042c4410,2020-06-30_19h41.03.881,proactive,2020.1.2,Win32,60,5efb791ed4cb570da489e737,5efb87255769c70f1c5f8a1e,1,,,,,,microphone,,,,,,,,,,,2,0,0,47,47,10,1,,,,,,
,,?,0.000955,0,,,,,,stimuli/images/PICTURE_308.png,ESTATE,5ef767e022eb1d49042c4410,2020-06-30_19h41.03.881,proactive,2020.1.2,Win32,60,5efb791ed4cb570da489e737,5efb87255769c70f1c5f8a1e,1,,,,,,dice,,,,,,,,,,,5,0,0,48,48,46,1,,,,,,
,,?,0.000745,0,,,,,,stimuli/images/PICTURE_470.png,CASINO,5ef767e022eb1d49042c4410,2020-06-30_19h41.03.881,proactive,2020.1.2,Win32,60,5efb791ed4cb570da489e737,5efb87255769c70f1c5f8a1e,1,,,,,,motorbike,,,,,,,,,,,4,0,0,49,49,36,1,,,,,,
,,CLIENT,8.39237,1,,,,,,stimuli/images/PICTURE_708.png,CLIENT,5ef767e022eb1d49042c4410,2020-06-30_19h41.03.881,proactive,2020.1.2,Win32,60,5efb791ed4cb570da489e737,5efb87255769c70f1c5f8a1e,1,,,,,,monkey,,,,,,,,,,,1,0,0,50,50,5,1,,,,,,
,,?,0.001125,0,,,,,,stimuli/images/PICTURE_95.png,STYLE,5ef767e022eb1d49042c4410,2020-06-30_19h41.03.881,proactive,2020.1.2,Win32,60,5efb791ed4cb570da489e737,5efb87255769c70f1c5f8a1e,1,,,,,,suitcase,,,,,,,,,,,3,0,0,51,51,25,1,,,,,,
,,?,0.00337,0,,,,,,stimuli/images/PICTURE_233.png,IDEAS,5ef767e022eb1d49042c4410,2020-06-30_19h41.03.881,proactive,2020.1.2,Win32,60,5efb791ed4cb570da489e737,5efb87255769c70f1c5f8a1e,1,,,,,,salt,,,,,,,,,,,3,0,0,52,52,28,1,,,,,,
,,?,0.000985,0,,,,,,stimuli/images/PICTURE_208.png,THING,5ef767e022eb1d49042c4410,2020-06-30_19h41.03.881,proactive,2020.1.2,Win32,60,5efb791ed4cb570da489e737,5efb87255769c70f1c5f8a1e,1,,,,,,microphone,,,,,,,,,,,5,0,0,53,53,47,1,,,,,,
,,?,0.000915,0,,,,,,stimuli/images/PICTURE_32.png,JUNGLE,5ef767e022eb1d49042c4410,2020-06-30_19h41.03.881,proactive,2020.1.2,Win32,60,5efb791ed4cb570da489e737,5efb87255769c70f1c5f8a1e,1,,,,,,crown,,,,,,,,,,,5,0,0,54,54,45,1,,,,,,
,,?,0.000885,0,,,,,,stimuli/images/PICTURE_467.png,DEMON,5ef767e022eb1d49042c4410,2020-06-30_19h41.03.881,proactive,2020.1.2,Win32,60,5efb791ed4cb570da489e737,5efb87255769c70f1c5f8a1e,1,,,,,,peg,,,,,,,,,,,3,0,0,55,55,23,1,,,,,,
,,?,0.000895,0,,,,,,stimuli/images/PICTURE_314.png,GODS,5ef767e022eb1d49042c4410,2020-06-30_19h41.03.881,proactive,2020.1.2,Win32,60,5efb791ed4cb570da489e737,5efb87255769c70f1c5f8a1e,1,,,,,,perfume,,,,,,,,,,,2,0,0,56,56,11,1,,,,,,
,,?,0.00105,0,,,,,,stimuli/images/PICTURE_68.png,MILE,5ef767e022eb1d49042c4410,2020-06-30_19h41.03.881,proactive,2020.1.2,Win32,60,5efb791ed4cb570da489e737,5efb87255769c70f1c5f8a1e,1,,,,,,candle,,,,,,,,,,,5,0,0,57,57,44,1,,,,,,
,,?,0.00175,0,,,,,,stimuli/images/PICTURE_147.png,MOMENT,5ef767e022eb1d49042c4410,2020-06-30_19h41.03.881,proactive,2020.1.2,Win32,60,5efb791ed4cb570da489e737,5efb87255769c70f1c5f8a1e,1,,,,,,hanger,,,,,,,,,,,6,0,0,58,58,51,1,,,,,,
,,?,0.001115,0,,,,,,stimuli/images/PICTURE_302.png,FAMILY,5ef767e022eb1d49042c4410,2020-06-30_19h41.03.881,proactive,2020.1.2,Win32,60,5efb791ed4cb570da489e737,5efb87255769c70f1c5f8a1e,1,,,,,,taxi,,,,,,,,,,,2,0,0,59,59,18,1,,,,,,
,,,,,,,,,,,,5ef767e022eb1d49042c4410,2020-06-30_19h41.03.881,proactive,2020.1.2,Win32,60,5efb791ed4cb570da489e737,5efb87255769c70f1c5f8a1e,1,,,,,,,,,,,,,,,,,,,,,,,,0,1,1,0,1,stimuli/learn-block1.csv
,,,,,,,,,,stimuli/images/PICTURE_233.png,LOTS,5ef767e022eb1d49042c4410,2020-06-30_19h41.03.881,proactive,2020.1.2,Win32,60,5efb791ed4cb570da489e737,5efb87255769c70f1c5f8a1e,1,,,,,,salt,,,,,,0,0,0,42,1,5,1,,,,,,,,,,,
,,,,,,,,,,stimuli/images/PICTURE_42.png,BOYS,5ef767e022eb1d49042c4410,2020-06-30_19h41.03.881,proactive,2020.1.2,Win32,60,5efb791ed4cb570da489e737,5efb87255769c70f1c5f8a1e,1,,,,,,pear,,,,,,0,1,1,55,1,6,1,,,,,,,,,,,
,,,,,,,,,,stimuli/images/PICTURE_487.png,GIRL,5ef767e022eb1d49042c4410,2020-06-30_19h41.03.881,proactive,2020.1.2,Win32,60,5efb791ed4cb570da489e737,5efb87255769c70f1c5f8a1e,1,,,,,,basket,,,,,,0,2,2,45,1,5,1,,,,,,,,,,,
,,,,,,,,,,stimuli/images/PICTURE_564.png,BATH,5ef767e022eb1d49042c4410,2020-06-30_19h41.03.881,proactive,2020.1.2,Win32,60,5efb791ed4cb570da489e737,5efb87255769c70f1c5f8a1e,1,,,,,,spoon,,,,,,0,3,3,26,1,3,1,,,,,,,,,,,
,,,,,,,,,,stimuli/images/PICTURE_340.png,LETTER,5ef767e022eb1d49042c4410,2020-06-30_19h41.03.881,proactive,2020.1.2,Win32,60,5efb791ed4cb570da489e737,5efb87255769c70f1c5f8a1e,1,,,,,,mirror,,,,,,0,4,4,24,1,3,1,,,,,,,,,,,
,,,,,,,,,,stimuli/images/PICTURE_147.png,YEAR,5ef767e022eb1d49042c4410,2020-06-30_19h41.03.881,proactive,2020.1.2,Win32,60,5efb791ed4cb570da489e737,5efb87255769c70f1c5f8a1e,1,,,,,,hanger,,,,,,0,5,5,21,1,3,1,,,,,,,,,,,
,,,,,,,,,,stimuli/images/PICTURE_108.png,POLICY,5ef767e022eb1d49042c4410,2020-06-30_19h41.03.881,proactive,2020.1.2,Win32,60,5efb791ed4cb570da489e737,5efb87255769c70f1c5f8a1e,1,,,,,,calendar,,,,,,0,6,6,22,1,3,1,,,,,,,,,,,
,,,,,,,,,,stimuli/images/PICTURE_308.png,FAMILY,5ef767e022eb1d49042c4410,2020-06-30_19h41.03.881,proactive,2020.1.2,Win32,60,5efb791ed4cb570da489e737,5efb87255769c70f1c5f8a1e,1,,,,,,dice,,,,,,0,7,7,36,1,4,1,,,,,,,,,,,
,,,,,,,,,,stimuli/images/PICTURE_677.png,APPLE,5ef767e022eb1d49042c4410,2020-06-30_19h41.03.881,proactive,2020.1.2,Win32,60,5efb791ed4cb570da489e737,5efb87255769c70f1c5f8a1e,1,,,,,,map,,,,,,0,8,8,43,1,5,1,,,,,,,,,,,
,,,,,,,,,,stimuli/images/PICTURE_685.png,PENNY,5ef767e022eb1d49042c4410,2020-06-30_19h41.03.881,proactive,2020.1.2,Win32,60,5efb791ed4cb570da489e737,5efb87255769c70f1c5f8a1e,1,,,,,,goose,,,,,,0,9,9,4,1,1,1,,,,,,,,,,,
,,,,,,,,,,stimuli/images/PICTURE_675.png,SALE,5ef767e022eb1d49042c4410,2020-06-30_19h41.03.881,proactive,2020.1.2,Win32,60,5efb791ed4cb570da489e737,5efb87255769c70f1c5f8a1e,1,,,,,,windmill,,,,,,0,10,10,47,1,5,1,,,,,,,,,,,
,,,,,,,,,,stimuli/images/PICTURE_57.png,MOMENT,5ef767e022eb1d49042c4410,2020-06-30_19h41.03.881,proactive,2020.1.2,Win32,60,5efb791ed4cb570da489e737,5efb87255769c70f1c5f8a1e,1,,,,,,stamp,,,,,,0,11,11,37,1,4,1,,,,,,,,,,,
,,,,,,,,,,stimuli/images/PICTURE_654.png,MONTH,5ef767e022eb1d49042c4410,2020-06-30_19h41.03.881,proactive,2020.1.2,Win32,60,5efb791ed4cb570da489e737,5efb87255769c70f1c5f8a1e,1,,,,,,pencil,,,,,,0,12,12,29,1,3,1,,,,,,,,,,,
,,,,,,,,,,stimuli/images/PICTURE_177.png,WRITER,5ef767e022eb1d49042c4410,2020-06-30_19h41.03.881,proactive,2020.1.2,Win32,60,5efb791ed4cb570da489e737,5efb87255769c70f1c5f8a1e,1,,,,,,mushroom,,,,,,0,13,13,41,1,5,1,,,,,,,,,,,
,,,,,,,,,,stimuli/images/PICTURE_296.png,LIFE,5ef767e022eb1d49042c4410,2020-06-30_19h41.03.881,proactive,2020.1.2,Win32,60,5efb791ed4cb570da489e737,5efb87255769c70f1c5f8a1e,1,,,,,,bolt,,,,,,0,14,14,57,1,6,1,,,,,,,,,,,
,,,,,,,,,,stimuli/images/PICTURE_108.png,FLIGHT,5ef767e022eb1d49042c4410,2020-06-30_19h41.03.881,proactive,2020.1.2,Win32,60,5efb791ed4cb570da489e737,5efb87255769c70f1c5f8a1e,1,,,,,,calendar,,,,,,0,15,15,59,1,6,1,,,,,,,,,,,
,,,,,,,,,,stimuli/images/PICTURE_383.png,WRITER,5ef767e022eb1d49042c4410,2020-06-30_19h41.03.881,proactive,2020.1.2,Win32,60,5efb791ed4cb570da489e737,5efb87255769c70f1c5f8a1e,1,,,,,,coin,,,,,,0,16,16,28,1,3,1,,,,,,,,,,,
,,,,,,,,,,stimuli/images/PICTURE_297.png,RIVER,5ef767e022eb1d49042c4410,2020-06-30_19h41.03.881,proactive,2020.1.2,Win32,60,5efb791ed4cb570da489e737,5efb87255769c70f1c5f8a1e,1,,,,,,aeroplane,,,,,,0,17,17,39,1,4,1,,,,,,,,,,,
,,,,,,,,,,stimuli/images/PICTURE_33.png,FRIEND,5ef767e022eb1d49042c4410,2020-06-30_19h41.03.881,proactive,2020.1.2,Win32,60,5efb791ed4cb570da489e737,5efb87255769c70f1c5f8a1e,1,,,,,,frame,,,,,,0,18,18,8,1,1,1,,,,,,,,,,,
,,,,,,,,,,stimuli/images/PICTURE_85.png,TOILET,5ef767e022eb1d49042c4410,2020-06-30_19h41.03.881,proactive,2020.1.2,Win32,60,5efb791ed4cb570da489e737,5efb87255769c70f1c5f8a1e,1,,,,,,diamond,,,,,,0,19,19,48,1,5,1,,,,,,,,,,,
,,,,,,,,,,stimuli/images/PICTURE_667.png,RIVER,5ef767e022eb1d49042c4410,2020-06-30_19h41.03.881,proactive,2020.1.2,Win32,60,5efb791ed4cb570da489e737,5efb87255769c70f1c5f8a1e,1,,,,,,daisy,,,,,,0,20,20,10,1,2,1,,,,,,,,,,,
,,,,,,,,,,stimuli/images/PICTURE_403.png,WRITER,5ef767e022eb1d49042c4410,2020-06-30_19h41.03.881,proactive,2020.1.2,Win32,60,5efb791ed4cb570da489e737,5efb87255769c70f1c5f8a1e,1,,,,,,cathedral,,,,,,0,21,21,31,1,4,1,,,,,,,,,,,
,,,,,,,,,,stimuli/images/PICTURE_2.png,FLIGHT,5ef767e022eb1d49042c4410,2020-06-30_19h41.03.881,proactive,2020.1.2,Win32,60,5efb791ed4cb570da489e737,5efb87255769c70f1c5f8a1e,1,,,,,,tyre,,,,,,0,22,22,15,1,2,1,,,,,,,,,,,
,,,,,,,,,,stimuli/images/PICTURE_380.png,CANDY,5ef767e022eb1d49042c4410,2020-06-30_19h41.03.881,proactive,2020.1.2,Win32,60,5efb791ed4cb570da489e737,5efb87255769c70f1c5f8a1e,1,,,,,,gorilla,,,,,,0,23,23,0,1,1,1,,,,,,,,,,,
,,,,,,,,,,stimuli/images/PICTURE_655.png,TOILET,5ef767e022eb1d49042c4410,2020-06-30_19h41.03.881,proactive,2020.1.2,Win32,60,5efb791ed4cb570da489e737,5efb87255769c70f1c5f8a1e,1,,,,,,megaphone,,,,,,0,24,24,12,1,2,1,,,,,,,,,,,
,,,,,,,,,,stimuli/images/PICTURE_383.png,SERIES,5ef767e022eb1d49042c4410,2020-06-30_19h41.03.881,proactive,2020.1.2,Win32,60,5efb791ed4cb570da489e737,5efb87255769c70f1c5f8a1e,1,,,,,,coin,,,,,,0,25,25,46,1,5,1,,,,,,,,,,,
,,,,,,,,,,stimuli/images/PICTURE_95.png,BOYS,5ef767e022eb1d49042c4410,2020-06-30_19h41.03.881,proactive,2020.1.2,Win32,60,5efb791ed4cb570da489e737,5efb87255769c70f1c5f8a1e,1,,,,,,suitcase,,,,,,0,26,26,1,1,1,1,,,,,,,,,,,
,,,,,,,,,,stimuli/images/PICTURE_449.png,DUDE,5ef767e022eb1d49042c4410,2020-06-30_19h41.03.881,proactive,2020.1.2,Win32,60,5efb791ed4cb570da489e737,5efb87255769c70f1c5f8a1e,1,,,,,,bench,,,,,,0,27,27,17,1,2,1,,,,,,,,,,,
,,,,,,,,,,stimuli/images/PICTURE_296.png,LOTS,5ef767e022eb1d49042c4410,2020-06-30_19h41.03.881,proactive,2020.1.2,Win32,60,5efb791ed4cb570da489e737,5efb87255769c70f1c5f8a1e,1,,,,,,bolt,,,,,,0,28,28,9,1,1,1,,,,,,,,,,,
,,,,,,,,,,stimuli/images/PICTURE_339.png,CLIENT,5ef767e022eb1d49042c4410,2020-06-30_19h41.03.881,proactive,2020.1.2,Win32,60,5efb791ed4cb570da489e737,5efb87255769c70f1c5f8a1e,1,,,,,,backpack,,,,,,0,29,29,11,1,2,1,,,,,,,,,,,
,,,,,,,,,,stimuli/images/PICTURE_85.png,NATION,5ef767e022eb1d49042c4410,2020-06-30_19h41.03.881,proactive,2020.1.2,Win32,60,5efb791ed4cb570da489e737,5efb87255769c70f1c5f8a1e,1,,,,,,diamond,,,,,,0,30,30,5,1,1,1,,,,,,,,,,,
,,,,,,,,,,stimuli/images/PICTURE_327.png,CASINO,5ef767e022eb1d49042c4410,2020-06-30_19h41.03.881,proactive,2020.1.2,Win32,60,5efb791ed4cb570da489e737,5efb87255769c70f1c5f8a1e,1,,,,,,helmet,,,,,,0,31,31,20,1,3,1,,,,,,,,,,,
,,,,,,,,,,stimuli/images/PICTURE_285.png,LIFE,5ef767e022eb1d49042c4410,2020-06-30_19h41.03.881,proactive,2020.1.2,Win32,60,5efb791ed4cb570da489e737,5efb87255769c70f1c5f8a1e,1,,,,,,carrot,,,,,,0,32,32,33,1,4,1,,,,,,,,,,,
,,,,,,,,,,stimuli/images/PICTURE_491.png,GLASS,5ef767e022eb1d49042c4410,2020-06-30_19h41.03.881,proactive,2020.1.2,Win32,60,5efb791ed4cb570da489e737,5efb87255769c70f1c5f8a1e,1,,,,,,rug,,,,,,0,33,33,14,1,2,1,,,,,,,,,,,
,,,,,,,,,,stimuli/images/PICTURE_380.png,HONEY,5ef767e022eb1d49042c4410,2020-06-30_19h41.03.881,proactive,2020.1.2,Win32,60,5efb791ed4cb570da489e737,5efb87255769c70f1c5f8a1e,1,,,,,,gorilla,,,,,,0,34,34,19,1,2,1,,,,,,,,,,,
,,,,,,,,,,stimuli/images/PICTURE_340.png,VALLEY,5ef767e022eb1d49042c4410,2020-06-30_19h41.03.881,proactive,2020.1.2,Win32,60,5efb791ed4cb570da489e737,5efb87255769c70f1c5f8a1e,1,,,,,,mirror,,,,,,0,35,35,54,1,6,1,,,,,,,,,,,
,,,,,,,,,,stimuli/images/PICTURE_327.png,SERIES,5ef767e022eb1d49042c4410,2020-06-30_19h41.03.881,proactive,2020.1.2,Win32,60,5efb791ed4cb570da489e737,5efb87255769c70f1c5f8a1e,1,,,,,,helmet,,,,,,0,36,36,3,1,1,1,,,,,,,,,,,
,,,,,,,,,,stimuli/images/PICTURE_68.png,MILE,5ef767e022eb1d49042c4410,2020-06-30_19h41.03.881,proactive,2020.1.2,Win32,60,5efb791ed4cb570da489e737,5efb87255769c70f1c5f8a1e,1,,,,,,candle,,,,,,0,37,37,51,1,6,1,,,,,,,,,,,
,,,,,,,,,,stimuli/images/PICTURE_405.png,YEAR,5ef767e022eb1d49042c4410,2020-06-30_19h41.03.881,proactive,2020.1.2,Win32,60,5efb791ed4cb570da489e737,5efb87255769c70f1c5f8a1e,1,,,,,,anchor,,,,,,0,38,38,34,1,4,1,,,,,,,,,,,
,,,,,,,,,,stimuli/images/PICTURE_469.png,AGENT,5ef767e022eb1d49042c4410,2020-06-30_19h41.03.881,proactive,2020.1.2,Win32,60,5efb791ed4cb570da489e737,5efb87255769c70f1c5f8a1e,1,,,,,,stool,,,,,,0,39,39,16,1,2,1,,,,,,,,,,,
,,,,,,,,,,stimuli/images/PICTURE_403.png,RIVER,5ef767e022eb1d49042c4410,2020-06-30_19h41.03.881,proactive,2020.1.2,Win32,60,5efb791ed4cb570da489e737,5efb87255769c70f1c5f8a1e,1,,,,,,cathedral,,,,,,0,40,40,40,1,5,1,,,,,,,,,,,
,,,,,,,,,,stimuli/images/PICTURE_405.png,PLENTY,5ef767e022eb1d49042c4410,2020-06-30_19h41.03.881,proactive,2020.1.2,Win32,60,5efb791ed4cb570da489e737,5efb87255769c70f1c5f8a1e,1,,,,,,anchor,,,,,,0,41,41,23,1,3,1,,,,,,,,,,,
,,,,,,,,,,stimuli/images/PICTURE_208.png,SYSTEM,5ef767e022eb1d49042c4410,2020-06-30_19h41.03.881,proactive,2020.1.2,Win32,60,5efb791ed4cb570da489e737,5efb87255769c70f1c5f8a1e,1,,,,,,microphone,,,,,,0,42,42,32,1,4,1,,,,,,,,,,,
,,,,,,,,,,stimuli/images/PICTURE_491.png,RIVER,5ef767e022eb1d49042c4410,2020-06-30_19h41.03.881,proactive,2020.1.2,Win32,60,5efb791ed4cb570da489e737,5efb87255769c70f1c5f8a1e,1,,,,,,rug,,,,,,0,43,43,6,1,1,1,,,,,,,,,,,
,,,,,,,,,,stimuli/images/PICTURE_467.png,POLICY,5ef767e022eb1d49042c4410,2020-06-30_19h41.03.881,proactive,2020.1.2,Win32,60,5efb791ed4cb570da489e737,5efb87255769c70f1c5f8a1e,1,,,,,,peg,,,,,,0,44,44,53,1,6,1,,,,,,,,,,,
,,,,,,,,,,stimuli/images/PICTURE_95.png,MILLER,5ef767e022eb1d49042c4410,2020-06-30_19h41.03.881,proactive,2020.1.2,Win32,60,5efb791ed4cb570da489e737,5efb87255769c70f1c5f8a1e,1,,,,,,suitcase,,,,,,0,45,45,56,1,6,1,,,,,,,,,,,
,,,,,,,,,,stimuli/images/PICTURE_68.png,ROOF,5ef767e022eb1d49042c4410,2020-06-30_19h41.03.881,proactive,2020.1.2,Win32,60,5efb791ed4cb570da489e737,5efb87255769c70f1c5f8a1e,1,,,,,,candle,,,,,,0,46,46,38,1,4,1,,,,,,,,,,,
,,,,,,,,,,stimuli/images/PICTURE_708.png,RECORD,5ef767e022eb1d49042c4410,2020-06-30_19h41.03.881,proactive,2020.1.2,Win32,60,5efb791ed4cb570da489e737,5efb87255769c70f1c5f8a1e,1,,,,,,monkey,,,,,,0,47,47,58,1,6,1,,,,,,,,,,,
,,,,,,,,,,stimuli/images/PICTURE_504.png,COPS,5ef767e022eb1d49042c4410,2020-06-30_19h41.03.881,proactive,2020.1.2,Win32,60,5efb791ed4cb570da489e737,5efb87255769c70f1c5f8a1e,1,,,,,,wheel,,,,,,0,48,48,52,1,6,1,,,,,,,,,,,
,,,,,,,,,,stimuli/images/PICTURE_744.png,WEAPON,5ef767e022eb1d49042c4410,2020-06-30_19h41.03.881,proactive,2020.1.2,Win32,60,5efb791ed4cb570da489e737,5efb87255769c70f1c5f8a1e,1,,,,,,ring,,,,,,0,49,49,50,1,6,1,,,,,,,,,,,
,,,,,,,,,,stimuli/images/PICTURE_750.png,HOTEL,5ef767e022eb1d49042c4410,2020-06-30_19h41.03.881,proactive,2020.1.2,Win32,60,5efb791ed4cb570da489e737,5efb87255769c70f1c5f8a1e,1,,,,,,kettle,,,,,,0,50,50,27,1,3,1,,,,,,,,,,,
,,,,,,,,,,stimuli/images/PICTURE_95.png,HONEY,5ef767e022eb1d49042c4410,2020-06-30_19h41.03.881,proactive,2020.1.2,Win32,60,5efb791ed4cb570da489e737,5efb87255769c70f1c5f8a1e,1,,,,,,suitcase,,,,,,0,51,51,44,1,5,1,,,,,,,,,,,
,,,,,,,,,,stimuli/images/PICTURE_504.png,ARTIST,5ef767e022eb1d49042c4410,2020-06-30_19h41.03.881,proactive,2020.1.2,Win32,60,5efb791ed4cb570da489e737,5efb87255769c70f1c5f8a1e,1,,,,,,wheel,,,,,,0,52,52,49,1,5,1,,,,,,,,,,,
,,,,,,,,,,stimuli/images/PICTURE_203.png,GODS,5ef767e022eb1d49042c4410,2020-06-30_19h41.03.881,proactive,2020.1.2,Win32,60,5efb791ed4cb570da489e737,5efb87255769c70f1c5f8a1e,1,,,,,,cap,,,,,,0,53,53,30,1,4,1,,,,,,,,,,,
,,,,,,,,,,stimuli/images/PICTURE_403.png,TOILET,5ef767e022eb1d49042c4410,2020-06-30_19h41.03.881,proactive,2020.1.2,Win32,60,5efb791ed4cb570da489e737,5efb87255769c70f1c5f8a1e,1,,,,,,cathedral,,,,,,0,54,54,25,1,3,1,,,,,,,,,,,
,,,,,,,,,,stimuli/images/PICTURE_32.png,PILLS,5ef767e022eb1d49042c4410,2020-06-30_19h41.03.881,proactive,2020.1.2,Win32,60,5efb791ed4cb570da489e737,5efb87255769c70f1c5f8a1e,1,,,,,,crown,,,,,,0,55,55,18,1,2,1,,,,,,,,,,,
,,,,,,,,,,stimuli/images/PICTURE_32.png,KIND,5ef767e022eb1d49042c4410,2020-06-30_19h41.03.881,proactive,2020.1.2,Win32,60,5efb791ed4cb570da489e737,5efb87255769c70f1c5f8a1e,1,,,,,,crown,,,,,,0,56,56,35,1,4,1,,,,,,,,,,,
,,,,,,,,,,stimuli/images/PICTURE_203.png,NIGHT,5ef767e022eb1d49042c4410,2020-06-30_19h41.03.881,proactive,2020.1.2,Win32,60,5efb791ed4cb570da489e737,5efb87255769c70f1c5f8a1e,1,,,,,,cap,,,,,,0,57,57,2,1,1,1,,,,,,,,,,,
,,,,,,,,,,stimuli/images/PICTURE_147.png,WOMEN,5ef767e022eb1d49042c4410,2020-06-30_19h41.03.881,proactive,2020.1.2,Win32,60,5efb791ed4cb570da489e737,5efb87255769c70f1c5f8a1e,1,,,,,,hanger,,,,,,0,58,58,7,1,1,1,,,,,,,,,,,
,,?,0.00121,0,,,,,,stimuli/images/PICTURE_203.png,GODS,5ef767e022eb1d49042c4410,2020-06-30_19h41.03.881,proactive,2020.1.2,Win32,60,5efb791ed4cb570da489e737,5efb87255769c70f1c5f8a1e,1,,,,,,cap,,,,,,,,,,,4,1,0,0,0,30,1,,,,,,
,,?,0.00088,0,,,,,,stimuli/images/PICTURE_383.png,WRITER,5ef767e022eb1d49042c4410,2020-06-30_19h41.03.881,proactive,2020.1.2,Win32,60,5efb791ed4cb570da489e737,5efb87255769c70f1c5f8a1e,1,,,,,,coin,,,,,,,,,,,3,1,0,1,1,28,1,,,,,,
,,?,0.000705,0,,,,,,stimuli/images/PICTURE_487.png,GIRL,5ef767e022eb1d49042c4410,2020-06-30_19h41.03.881,proactive,2020.1.2,Win32,60,5efb791ed4cb570da489e737,5efb87255769c70f1c5f8a1e,1,,,,,,basket,,,,,,,,,,,5,1,0,2,2,45,1,,,,,,
,,?,0.000665,0,,,,,,stimuli/images/PICTURE_285.png,LIFE,5ef767e022eb1d49042c4410,2020-06-30_19h41.03.881,proactive,2020.1.2,Win32,60,5efb791ed4cb570da489e737,5efb87255769c70f1c5f8a1e,1,,,,,,carrot,,,,,,,,,,,4,1,0,3,3,33,1,,,,,,
,,?,0.0007,0,,,,,,stimuli/images/PICTURE_296.png,LIFE,5ef767e022eb1d49042c4410,2020-06-30_19h41.03.881,proactive,2020.1.2,Win32,60,5efb791ed4cb570da489e737,5efb87255769c70f1c5f8a1e,1,,,,,,bolt,,,,,,,,,,,6,1,0,4,4,57,1,,,,,,
,,?,0.001485,0,,,,,,stimuli/images/PICTURE_655.png,TOILET,5ef767e022eb1d49042c4410,2020-06-30_19h41.03.881,proactive,2020.1.2,Win32,60,5efb791ed4cb570da489e737,5efb87255769c70f1c5f8a1e,1,,,,,,megaphone,,,,,,,,,,,2,1,0,5,5,12,1,,,,,,
,,?,0.00096,0,,,,,,stimuli/images/PICTURE_654.png,MONTH,5ef767e022eb1d49042c4410,2020-06-30_19h41.03.881,proactive,2020.1.2,Win32,60,5efb791ed4cb570da489e737,5efb87255769c70f1c5f8a1e,1,,,,,,pencil,,,,,,,,,,,3,1,0,6,6,29,1,,,,,,
,,?,0.00169,0,,,,,,stimuli/images/PICTURE_208.png,SYSTEM,5ef767e022eb1d49042c4410,2020-06-30_19h41.03.881,proactive,2020.1.2,Win32,60,5efb791ed4cb570da489e737,5efb87255769c70f1c5f8a1e,1,,,,,,microphone,,,,,,,,,,,4,1,0,7,7,32,1,,,,,,
,,?,0.001465,0,,,,,,stimuli/images/PICTURE_504.png,YEAR,5ef767e022eb1d49042c4410,2020-06-30_19h41.03.881,proactive,2020.1.2,Win32,60,5efb791ed4cb570da489e737,5efb87255769c70f1c5f8a1e,1,,,,,,wheel,,,,,,,,,,,2,1,0,8,8,13,1,,,,,,
,,?,0.00114,0,,,,,,stimuli/images/PICTURE_340.png,VALLEY,5ef767e022eb1d49042c4410,2020-06-30_19h41.03.881,proactive,2020.1.2,Win32,60,5efb791ed4cb570da489e737,5efb87255769c70f1c5f8a1e,1,,,,,,mirror,,,,,,,,,,,6,1,0,9,9,54,1,,,,,,
,,NIGHT,10.011325,1,,,,,,stimuli/images/PICTURE_203.png,NIGHT,5ef767e022eb1d49042c4410,2020-06-30_19h41.03.881,proactive,2020.1.2,Win32,60,5efb791ed4cb570da489e737,5efb87255769c70f1c5f8a1e,1,,,,,,cap,,,,,,,,,,,1,1,0,10,10,2,1,,,,,,
,,CANDY,10.015675,1,,,,,,stimuli/images/PICTURE_380.png,CANDY,5ef767e022eb1d49042c4410,2020-06-30_19h41.03.881,proactive,2020.1.2,Win32,60,5efb791ed4cb570da489e737,5efb87255769c70f1c5f8a1e,1,,,,,,gorilla,,,,,,,,,,,1,1,0,11,11,0,1,,,,,,
,,SERIES,10.012135,1,,,,,,stimuli/images/PICTURE_327.png,SERIES,5ef767e022eb1d49042c4410,2020-06-30_19h41.03.881,proactive,2020.1.2,Win32,60,5efb791ed4cb570da489e737,5efb87255769c70f1c5f8a1e,1,,,,,,helmet,,,,,,,,,,,1,1,0,12,12,3,1,,,,,,
,,?,0.002035,0,,,,,,stimuli/images/PICTURE_564.png,BATH,5ef767e022eb1d49042c4410,2020-06-30_19h41.03.881,proactive,2020.1.2,Win32,60,5efb791ed4cb570da489e737,5efb87255769c70f1c5f8a1e,1,,,,,,spoon,,,,,,,,,,,3,1,0,13,13,26,1,,,,,,
,,RIVER,10.01063,1,,,,,,stimuli/images/PICTURE_491.png,RIVER,5ef767e022eb1d49042c4410,2020-06-30_19h41.03.881,proactive,2020.1.2,Win32,60,5efb791ed4cb570da489e737,5efb87255769c70f1c5f8a1e,1,,,,,,rug,,,,,,,,,,,1,1,0,14,14,6,1,,,,,,
,,?,0.00121,0,,,,,,stimuli/images/PICTURE_32.png,KIND,5ef767e022eb1d49042c4410,2020-06-30_19h41.03.881,proactive,2020.1.2,Win32,60,5efb791ed4cb570da489e737,5efb87255769c70f1c5f8a1e,1,,,,,,crown,,,,,,,,,,,4,1,0,15,15,35,1,,,,,,
,,?,0.002865,0,,,,,,stimuli/images/PICTURE_339.png,CLIENT,5ef767e022eb1d49042c4410,2020-06-30_19h41.03.881,proactive,2020.1.2,Win32,60,5efb791ed4cb570da489e737,5efb87255769c70f1c5f8a1e,1,,,,,,backpack,,,,,,,,,,,2,1,0,16,16,11,1,,,,,,
,,?,0.00075,0,,,,,,stimuli/images/PICTURE_383.png,SERIES,5ef767e022eb1d49042c4410,2020-06-30_19h41.03.881,proactive,2020.1.2,Win32,60,5efb791ed4cb570da489e737,5efb87255769c70f1c5f8a1e,1,,,,,,coin,,,,,,,,,,,5,1,0,17,17,46,1,,,,,,
,,?,0.00069,0,,,,,,stimuli/images/PICTURE_708.png,RECORD,5ef767e022eb1d49042c4410,2020-06-30_19h41.03.881,proactive,2020.1.2,Win32,60,5efb791ed4cb570da489e737,5efb87255769c70f1c5f8a1e,1,,,,,,monkey,,,,,,,,,,,6,1,0,18,18,58,1,,,,,,
,,?,0.000915,0,,,,,,stimuli/images/PICTURE_177.png,WRITER,5ef767e022eb1d49042c4410,2020-06-30_19h41.03.881,proactive,2020.1.2,Win32,60,5efb791ed4cb570da489e737,5efb87255769c70f1c5f8a1e,1,,,,,,mushroom,,,,,,,,,,,5,1,0,19,19,41,1,,,,,,
,,?,0.00065,0,,,,,,stimuli/images/PICTURE_233.png,LOTS,5ef767e022eb1d49042c4410,2020-06-30_19h41.03.881,proactive,2020.1.2,Win32,60,5efb791ed4cb570da489e737,5efb87255769c70f1c5f8a1e,1,,,,,,salt,,,,,,,,,,,5,1,0,20,20,42,1,,,,,,
,,?,0.000635,0,,,,,,stimuli/images/PICTURE_68.png,ROOF,5ef767e022eb1d49042c4410,2020-06-30_19h41.03.881,proactive,2020.1.2,Win32,60,5efb791ed4cb570da489e737,5efb87255769c70f1c5f8a1e,1,,,,,,candle,,,,,,,,,,,4,1,0,21,21,38,1,,,,,,
,,LOTS,5.21458,1,,,,,,stimuli/images/PICTURE_296.png,LOTS,5ef767e022eb1d49042c4410,2020-06-30_19h41.03.881,proactive,2020.1.2,Win32,60,5efb791ed4cb570da489e737,5efb87255769c70f1c5f8a1e,1,,,,,,bolt,,,,,,,,,,,1,1,0,22,22,9,1,,,,,,
,,?,0.00149,0,,,,,,stimuli/images/PICTURE_750.png,HOTEL,5ef767e022eb1d49042c4410,2020-06-30_19h41.03.881,proactive,2020.1.2,Win32,60,5efb791ed4cb570da489e737,5efb87255769c70f1c5f8a1e,1,,,,,,kettle,,,,,,,,,,,3,1,0,23,23,27,1,,,,,,
,,?,0.00134,0,,,,,,stimuli/images/PICTURE_308.png,FAMILY,5ef767e022eb1d49042c4410,2020-06-30_19h41.03.881,proactive,2020.1.2,Win32,60,5efb791ed4cb570da489e737,5efb87255769c70f1c5f8a1e,1,,,,,,dice,,,,,,,,,,,4,1,0,24,24,36,1,,,,,,
,,NATION,10.0055,1,,,,,,stimuli/images/PICTURE_85.png,NATION,5ef767e022eb1d49042c4410,2020-06-30_19h41.03.881,proactive,2020.1.2,Win32,60,5efb791ed4cb570da489e737,5efb87255769c70f1c5f8a1e,1,,,,,,diamond,,,,,,,,,,,1,1,0,25,25,5,1,,,,,,
,,?,0.00161,0,,,,,,stimuli/images/PICTURE_744.png,WEAPON,5ef767e022eb1d49042c4410,2020-06-30_19h41.03.881,proactive,2020.1.2,Win32,60,5efb791ed4cb570da489e737,5efb87255769c70f1c5f8a1e,1,,,,,,ring,,,,,,,,,,,6,1,0,26,26,50,1,,,,,,
,,?,0.001525,0,,,,,,stimuli/images/PICTURE_147.png,YEAR,5ef767e022eb1d49042c4410,2020-06-30_19h41.03.881,proactive,2020.1.2,Win32,60,5efb791ed4cb570da489e737,5efb87255769c70f1c5f8a1e,1,,,,,,hanger,,,,,,,,,,,3,1,0,27,27,21,1,,,,,,
,,?,0.00091,0,,,,,,stimuli/images/PICTURE_85.png,TOILET,5ef767e022eb1d49042c4410,2020-06-30_19h41.03.881,proactive,2020.1.2,Win32,60,5efb791ed4cb570da489e737,5efb87255769c70f1c5f8a1e,1,,,,,,diamond,,,,,,,,,,,5,1,0,28,28,48,1,,,,,,
,,FRIEND,7.27014,1,,,,,,stimuli/images/PICTURE_33.png,FRIEND,5ef767e022eb1d49042c4410,2020-06-30_19h41.03.881,proactive,2020.1.2,Win32,60,5efb791ed4cb570da489e737,5efb87255769c70f1c5f8a1e,1,,,,,,frame,,,,,,,,,,,1,1,0,29,29,8,1,,,,,,
,,?,0.00153,0,,,,,,stimuli/images/PICTURE_403.png,RIVER,5ef767e022eb1d49042c4410,2020-06-30_19h41.03.881,proactive,2020.1.2,Win32,60,5efb791ed4cb570da489e737,5efb87255769c70f1c5f8a1e,1,,,,,,cathedral,,,,,,,,,,,5,1,0,30,30,40,1,,,,,,
,,?,0.001,0,,,,,,stimuli/images/PICTURE_340.png,LETTER,5ef767e022eb1d49042c4410,2020-06-30_19h41.03.881,proactive,2020.1.2,Win32,60,5efb791ed4cb570da489e737,5efb87255769c70f1c5f8a1e,1,,,,,,mirror,,,,,,,,,,,3,1,0,31,31,24,1,,,,,,
,,?,0.00069,0,,,,,,stimuli/images/PICTURE_405.png,YEAR,5ef767e022eb1d49042c4410,2020-06-30_19h41.03.881,proactive,2020.1.2,Win32,60,5efb791ed4cb570da489e737,5efb87255769c70f1c5f8a1e,1,,,,,,anchor,,,,,,,,,,,4,1,0,32,32,34,1,,,,,,
,,?,0.00103,0,,,,,,stimuli/images/PICTURE_32.png,PILLS,5ef767e022eb1d49042c4410,2020-06-30_19h41.03.881,proactive,2020.1.2,Win32,60,5efb791ed4cb570da489e737,5efb87255769c70f1c5f8a1e,1,,,,,,crown,,,,,,,,,,,2,1,0,33,33,18,1,,,,,,
,,?,0.00065,0,,,,,,stimuli/images/PICTURE_504.png,ARTIST,5ef767e022eb1d49042c4410,2020-06-30_19h41.03.881,proactive,2020.1.2,Win32,60,5efb791ed4cb570da489e737,5efb87255769c70f1c5f8a1e,1,,,,,,wheel,,,,,,,,,,,5,1,0,34,34,49,1,,,,,,
,,?,0.000635,0,,,,,,stimuli/images/PICTURE_327.png,CASINO,5ef767e022eb1d49042c4410,2020-06-30_19h41.03.881,proactive,2020.1.2,Win32,60,5efb791ed4cb570da489e737,5efb87255769c70f1c5f8a1e,1,,,,,,helmet,,,,,,,,,,,3,1,0,35,35,20,1,,,,,,
,,?,0.00068,0,,,,,,stimuli/images/PICTURE_380.png,HONEY,5ef767e022eb1d49042c4410,2020-06-30_19h41.03.881,proactive,2020.1.2,Win32,60,5efb791ed4cb570da489e737,5efb87255769c70f1c5f8a1e,1,,,,,,gorilla,,,,,,,,,,,2,1,0,36,36,19,1,,,,,,
,,?,0.00068,0,,,,,,stimuli/images/PICTURE_403.png,TOILET,5ef767e022eb1d49042c4410,2020-06-30_19h41.03.881,proactive,2020.1.2,Win32,60,5efb791ed4cb570da489e737,5efb87255769c70f1c5f8a1e,1,,,,,,cathedral,,,,,,,,,,,3,1,0,37,37,25,1,,,,,,
,,?,0.00069,0,,,,,,stimuli/images/PICTURE_677.png,APPLE,5ef767e022eb1d49042c4410,2020-06-30_19h41.03.881,proactive,2020.1.2,Win32,60,5efb791ed4cb570da489e737,5efb87255769c70f1c5f8a1e,1,,,,,,map,,,,,,,,,,,5,1,0,38,38,43,1,,,,,,
,,?,0.00087,0,,,,,,stimuli/images/PICTURE_95.png,HONEY,5ef767e022eb1d49042c4410,2020-06-30_19h41.03.881,proactive,2020.1.2,Win32,60,5efb791ed4cb570da489e737,5efb87255769c70f1c5f8a1e,1,,,,,,suitcase,,,,,,,,,,,5,1,0,39,39,44,1,,,,,,
,,?,0.005725,0,,,,,,stimuli/images/PICTURE_467.png,POLICY,5ef767e022eb1d49042c4410,2020-06-30_19h41.03.881,proactive,2020.1.2,Win32,60,5efb791ed4cb570da489e737,5efb87255769c70f1c5f8a1e,1,,,,,,peg,,,,,,,,,,,6,1,0,40,40,53,1,,,,,,
,,?,0.00092,0,,,,,,stimuli/images/PICTURE_297.png,RIVER,5ef767e022eb1d49042c4410,2020-06-30_19h41.03.881,proactive,2020.1.2,Win32,60,5efb791ed4cb570da489e737,5efb87255769c70f1c5f8a1e,1,,,,,,aeroplane,,,,,,,,,,,4,1,0,41,41,39,1,,,,,,
,,?,0.000845,0,,,,,,stimuli/images/PICTURE_449.png,DUDE,5ef767e022eb1d49042c4410,2020-06-30_19h41.03.881,proactive,2020.1.2,Win32,60,5efb791ed4cb570da489e737,5efb87255769c70f1c5f8a1e,1,,,,,,bench,,,,,,,,,,,2,1,0,42,42,17,1,,,,,,
,,?,0.000825,0,,,,,,stimuli/images/PICTURE_108.png,FLIGHT,5ef767e022eb1d49042c4410,2020-06-30_19h41.03.881,proactive,2020.1.2,Win32,60,5efb791ed4cb570da489e737,5efb87255769c70f1c5f8a1e,1,,,,,,calendar,,,,,,,,,,,6,1,0,43,43,59,1,,,,,,
,,?,0.000845,0,,,,,,stimuli/images/PICTURE_68.png,MILE,5ef767e022eb1d49042c4410,2020-06-30_19h41.03.881,proactive,2020.1.2,Win32,60,5efb791ed4cb570da489e737,5efb87255769c70f1c5f8a1e,1,,,,,,candle,,,,,,,,,,,6,1,0,44,44,51,1,,,,,,
,,?,0.00094,0,,,,,,stimuli/images/PICTURE_57.png,MOMENT,5ef767e022eb1d49042c4410,2020-06-30_19h41.03.881,proactive,2020.1.2,Win32,60,5efb791ed4cb570da489e737,5efb87255769c70f1c5f8a1e,1,,,,,,stamp,,,,,,,,,,,4,1,0,45,45,37,1,,,,,,
,,?,0.000885,0,,,,,,stimuli/images/PICTURE_405.png,PLENTY,5ef767e022eb1d49042c4410,2020-06-30_19h41.03.881,proactive,2020.1.2,Win32,60,5efb791ed4cb570da489e737,5efb87255769c70f1c5f8a1e,1,,,,,,anchor,,,,,,,,,,,3,1,0,46,46,23,1,,,,,,
,,BOYS,5.030935,1,,,,,,stimuli/images/PICTURE_95.png,BOYS,5ef767e022eb1d49042c4410,2020-06-30_19h41.03.881,proactive,2020.1.2,Win32,60,5efb791ed4cb570da489e737,5efb87255769c70f1c5f8a1e,1,,,,,,suitcase,,,,,,,,,,,1,1,0,47,47,1,1,,,,,,
,,?,0.001885,0,,,,,,stimuli/images/PICTURE_667.png,RIVER,5ef767e022eb1d49042c4410,2020-06-30_19h41.03.881,proactive,2020.1.2,Win32,60,5efb791ed4cb570da489e737,5efb87255769c70f1c5f8a1e,1,,,,,,daisy,,,,,,,,,,,2,1,0,48,48,10,1,,,,,,
,,PENNY,7.37358,1,,,,,,stimuli/images/PICTURE_685.png,PENNY,5ef767e022eb1d49042c4410,2020-06-30_19h41.03.881,proactive,2020.1.2,Win32,60,5efb791ed4cb570da489e737,5efb87255769c70f1c5f8a1e,1,,,,,,goose,,,,,,,,,,,1,1,0,49,49,4,1,,,,,,
,,?,0.002845,0,,,,,,stimuli/images/PICTURE_491.png,GLASS,5ef767e022eb1d49042c4410,2020-06-30_19h41.03.881,proactive,2020.1.2,Win32,60,5efb791ed4cb570da489e737,5efb87255769c70f1c5f8a1e,1,,,,,,rug,,,,,,,,,,,2,1,0,50,50,14,1,,,,,,
,,?,0.00097,0,,,,,,stimuli/images/PICTURE_403.png,WRITER,5ef767e022eb1d49042c4410,2020-06-30_19h41.03.881,proactive,2020.1.2,Win32,60,5efb791ed4cb570da489e737,5efb87255769c70f1c5f8a1e,1,,,,,,cathedral,,,,,,,,,,,4,1,0,51,51,31,1,,,,,,
,,?,0.000695,0,,,,,,stimuli/images/PICTURE_469.png,AGENT,5ef767e022eb1d49042c4410,2020-06-30_19h41.03.881,proactive,2020.1.2,Win32,60,5efb791ed4cb570da489e737,5efb87255769c70f1c5f8a1e,1,,,,,,stool,,,,,,,,,,,2,1,0,52,52,16,1,,,,,,
,,?,0.00062,0,,,,,,stimuli/images/PICTURE_42.png,BOYS,5ef767e022eb1d49042c4410,2020-06-30_19h41.03.881,proactive,2020.1.2,Win32,60,5efb791ed4cb570da489e737,5efb87255769c70f1c5f8a1e,1,,,,,,pear,,,,,,,,,,,6,1,0,53,53,55,1,,,,,,
,,?,0.000625,0,,,,,,stimuli/images/PICTURE_2.png,FLIGHT,5ef767e022eb1d49042c4410,2020-06-30_19h41.03.881,proactive,2020.1.2,Win32,60,5efb791ed4cb570da489e737,5efb87255769c70f1c5f8a1e,1,,,,,,tyre,,,,,,,,,,,2,1,0,54,54,15,1,,,,,,
,,?,0.000625,0,,,,,,stimuli/images/PICTURE_95.png,MILLER,5ef767e022eb1d49042c4410,2020-06-30_19h41.03.881,proactive,2020.1.2,Win32,60,5efb791ed4cb570da489e737,5efb87255769c70f1c5f8a1e,1,,,,,,suitcase,,,,,,,,,,,6,1,0,55,55,56,1,,,,,,
,,?,0.0055,0,,,,,,stimuli/images/PICTURE_504.png,COPS,5ef767e022eb1d49042c4410,2020-06-30_19h41.03.881,proactive,2020.1.2,Win32,60,5efb791ed4cb570da489e737,5efb87255769c70f1c5f8a1e,1,,,,,,wheel,,,,,,,,,,,6,1,0,56,56,52,1,,,,,,
,,?,0.000875,0,,,,,,stimuli/images/PICTURE_675.png,SALE,5ef767e022eb1d49042c4410,2020-06-30_19h41.03.881,proactive,2020.1.2,Win32,60,5efb791ed4cb570da489e737,5efb87255769c70f1c5f8a1e,1,,,,,,windmill,,,,,,,,,,,5,1,0,57,57,47,1,,,,,,
,,?,0.001055,0,,,,,,stimuli/images/PICTURE_108.png,POLICY,5ef767e022eb1d49042c4410,2020-06-30_19h41.03.881,proactive,2020.1.2,Win32,60,5efb791ed4cb570da489e737,5efb87255769c70f1c5f8a1e,1,,,,,,calendar,,,,,,,,,,,3,1,0,58,58,22,1,,,,,,
,,WOMEN,5.445885,1,,,,,,stimuli/images/PICTURE_147.png,WOMEN,5ef767e022eb1d49042c4410,2020-06-30_19h41.03.881,proactive,2020.1.2,Win32,60,5efb791ed4cb570da489e737,5efb87255769c70f1c5f8a1e,1,,,,,,hanger,,,,,,,,,,,1,1,0,59,59,7,1,,,,,,
