consent_key.keys,consent_key.rt,recalled,recalled_rt,recall_acc,example_recall.thisRepN,example_recall.thisTrialN,example_recall.thisN,example_recall.thisIndex,example_recall.ran,file,word,participant,please enter your date of birth (dd/mm/yyyy),date,expName,psychopyVersion,OS,frameRate,STUDY_ID,SESSION_ID,list,prac_learn_study_loop.thisRepN,prac_learn_study_loop.thisTrialN,prac_learn_study_loop.thisN,prac_learn_study_loop.thisIndex,prac_learn_study_loop.ran,image,prac_learn_test_loop.thisRepN,prac_learn_test_loop.thisTrialN,prac_learn_test_loop.thisN,prac_learn_test_loop.thisIndex,prac_learn_test_loop.ran,learn_study_loop.thisRepN,learn_study_loop.thisTrialN,learn_study_loop.thisN,learn_study_loop.thisIndex,learn_study_loop.ran,list_no,block_no,learn_test_loop.thisRepN,learn_test_loop.thisTrialN,learn_test_loop.thisN,learn_test_loop.thisIndex,learn_test_loop.ran,learn_blocks.thisRepN,learn_blocks.thisTrialN,learn_blocks.thisN,learn_blocks.thisIndex,learn_blocks.ran,block_csv,key_resp_13.keys,key_resp_13.rt,learn_blocks_loop.thisRepN,learn_blocks_loop.thisTrialN,learn_blocks_loop.thisN,learn_blocks_loop.thisIndex,learn_blocks_loop.ran,final_learn_test.thisRepN,final_learn_test.thisTrialN,final_learn_test.thisN,final_learn_test.thisIndex,final_learn_test.ran,prac_wm_test_loop.thisRepN,prac_wm_test_loop.thisTrialN,prac_wm_test_loop.thisN,prac_wm_test_loop.thisIndex,prac_wm_test_loop.ran,wm_recalled1,wm_recall_rt1,wm_probed1,wm_recall_acc1,wm_recalled2,wm_recall_rt2,wm_probed2,wm_recall_acc2,wm_recalled3,wm_recall_rt3,wm_probed3,wm_recall_acc3,wm_recalled4,wm_recall_rt4,wm_probed4,wm_recall_acc4,prac_wm_trial_loop.thisRepN,prac_wm_trial_loop.thisTrialN,prac_wm_trial_loop.thisN,prac_wm_trial_loop.thisIndex,prac_wm_trial_loop.ran,word1,image1,file1,item_type1,word2,image2,file2,item_type2,word4,image4,file4,item_type4,word3,image3,file3,item_type3,wm_test_loop.thisRepN,wm_test_loop.thisTrialN,wm_test_loop.thisN,wm_test_loop.thisIndex,wm_test_loop.ran,wm_trial_loop.thisRepN,wm_trial_loop.thisTrialN,wm_trial_loop.thisN,wm_trial_loop.thisIndex,wm_trial_loop.ran
y,40.640905,TOUGH,3.43627,1,0,0,0,0,1,stimuli/images/PICTURE_747.png,TOUGH,5efa8a9b3080998d5ea3fc87,21/01/1994,2020-07-08_16h16.18.986,proactive,2020.1.2,Win32,60,5f035e5afe130c270d6ae6dd,5f05e31da81c730c304e7bad,4,,,,,,,,,,,,,,,,,,,,,,,,,,,,,,,,,,,,,,,,,,,,,,,,,,,,,,,,,,,,,,,,,,,,,,,,,,,,,,,,,,,,,,,,,,,,,
,,,,,,,,,,stimuli/images/PICTURE_658.png,DEVIL,5efa8a9b3080998d5ea3fc87,21/01/1994,2020-07-08_16h16.18.986,proactive,2020.1.2,Win32,60,5f035e5afe130c270d6ae6dd,5f05e31da81c730c304e7bad,4,0,0,0,3,1,crow,,,,,,,,,,,,,,,,,,,,,,,,,,,,,,,,,,,,,,,,,,,,,,,,,,,,,,,,,,,,,,,,,,,,,,,,,,,,,,,,,,,,,,,
,,,,,,,,,,stimuli/images/PICTURE_727.png,CELL,5efa8a9b3080998d5ea3fc87,21/01/1994,2020-07-08_16h16.18.986,proactive,2020.1.2,Win32,60,5f035e5afe130c270d6ae6dd,5f05e31da81c730c304e7bad,4,0,1,1,1,1,hose,,,,,,,,,,,,,,,,,,,,,,,,,,,,,,,,,,,,,,,,,,,,,,,,,,,,,,,,,,,,,,,,,,,,,,,,,,,,,,,,,,,,,,,
,,,,,,,,,,stimuli/images/PICTURE_378.png,LOSS,5efa8a9b3080998d5ea3fc87,21/01/1994,2020-07-08_16h16.18.986,proactive,2020.1.2,Win32,60,5f035e5afe130c270d6ae6dd,5f05e31da81c730c304e7bad,4,0,2,2,2,1,lobster,,,,,,,,,,,,,,,,,,,,,,,,,,,,,,,,,,,,,,,,,,,,,,,,,,,,,,,,,,,,,,,,,,,,,,,,,,,,,,,,,,,,,,,
,,,,,,,,,,stimuli/images/PICTURE_697.png,KILLER,5efa8a9b3080998d5ea3fc87,21/01/1994,2020-07-08_16h16.18.986,proactive,2020.1.2,Win32,60,5f035e5afe130c270d6ae6dd,5f05e31da81c730c304e7bad,4,0,3,3,4,1,peach,,,,,,,,,,,,,,,,,,,,,,,,,,,,,,,,,,,,,,,,,,,,,,,,,,,,,,,,,,,,,,,,,,,,,,,,,,,,,,,,,,,,,,,
,,DEVIL,3.493585,1,,,,,,stimuli/images/PICTURE_658.png,DEVIL,5efa8a9b3080998d5ea3fc87,21/01/1994,2020-07-08_16h16.18.986,proactive,2020.1.2,Win32,60,5f035e5afe130c270d6ae6dd,5f05e31da81c730c304e7bad,4,,,,,,crow,0,0,0,3,1,,,,,,,,,,,,,,,,,,,,,,,,,,,,,,,,,,,,,,,,,,,,,,,,,,,,,,,,,,,,,,,,,,,,,,,,,,,,,,,,,,
,,LOSS,1.615335,1,,,,,,stimuli/images/PICTURE_378.png,LOSS,5efa8a9b3080998d5ea3fc87,21/01/1994,2020-07-08_16h16.18.986,proactive,2020.1.2,Win32,60,5f035e5afe130c270d6ae6dd,5f05e31da81c730c304e7bad,4,,,,,,lobster,0,1,1,2,1,,,,,,,,,,,,,,,,,,,,,,,,,,,,,,,,,,,,,,,,,,,,,,,,,,,,,,,,,,,,,,,,,,,,,,,,,,,,,,,,,,
,,GENIUS,3.363145,1,,,,,,stimuli/images/PICTURE_269.png,GENIUS,5efa8a9b3080998d5ea3fc87,21/01/1994,2020-07-08_16h16.18.986,proactive,2020.1.2,Win32,60,5f035e5afe130c270d6ae6dd,5f05e31da81c730c304e7bad,4,,,,,,chameleon,0,2,2,0,1,,,,,,,,,,,,,,,,,,,,,,,,,,,,,,,,,,,,,,,,,,,,,,,,,,,,,,,,,,,,,,,,,,,,,,,,,,,,,,,,,,
,,CLEVER,5.99702,0,,,,,,stimuli/images/PICTURE_697.png,KILLER,5efa8a9b3080998d5ea3fc87,21/01/1994,2020-07-08_16h16.18.986,proactive,2020.1.2,Win32,60,5f035e5afe130c270d6ae6dd,5f05e31da81c730c304e7bad,4,,,,,,peach,0,3,3,4,1,,,,,,,,,,,,,,,,,,,,,,,,,,,,,,,,,,,,,,,,,,,,,,,,,,,,,,,,,,,,,,,,,,,,,,,,,,,,,,,,,,
,,CELL,2.094115,1,,,,,,stimuli/images/PICTURE_727.png,CELL,5efa8a9b3080998d5ea3fc87,21/01/1994,2020-07-08_16h16.18.986,proactive,2020.1.2,Win32,60,5f035e5afe130c270d6ae6dd,5f05e31da81c730c304e7bad,4,,,,,,hose,0,4,4,1,1,,,,,,,,,,,,,,,,,,,,,,,,,,,,,,,,,,,,,,,,,,,,,,,,,,,,,,,,,,,,,,,,,,,,,,,,,,,,,,,,,,
,,,,,,,,,,stimuli/images/PICTURE_469.png,AGENT,5efa8a9b3080998d5ea3fc87,21/01/1994,2020-07-08_16h16.18.986,proactive,2020.1.2,Win32,60,5f035e5afe130c270d6ae6dd,5f05e31da81c730c304e7bad,4,,,,,,stool,,,,,,0,0,0,16,1,2,1,,,,,,,,,,,,,,,,,,,,,,,,,,,,,,,,,,,,,,,,,,,,,,,,,,,,,,,,,,,,,,,,,,,,,,,,,,,
,,,,,,,,,,stimuli/images/PICTURE_68.png,ROOF,5efa8a9b3080998d5ea3fc87,21/01/1994,2020-07-08_16h16.18.986,proactive,2020.1.2,Win32,60,5f035e5afe130c270d6ae6dd,5f05e31da81c730c304e7bad,4,,,,,,candle,,,,,,0,1,1,38,1,4,1,,,,,,,,,,,,,,,,,,,,,,,,,,,,,,,,,,,,,,,,,,,,,,,,,,,,,,,,,,,,,,,,,,,,,,,,,,,
,,,,,,,,,,stimuli/images/PICTURE_177.png,WRITER,5efa8a9b3080998d5ea3fc87,21/01/1994,2020-07-08_16h16.18.986,proactive,2020.1.2,Win32,60,5f035e5afe130c270d6ae6dd,5f05e31da81c730c304e7bad,4,,,,,,mushroom,,,,,,0,2,2,41,1,5,1,,,,,,,,,,,,,,,,,,,,,,,,,,,,,,,,,,,,,,,,,,,,,,,,,,,,,,,,,,,,,,,,,,,,,,,,,,,
,,,,,,,,,,stimuli/images/PICTURE_380.png,HONEY,5efa8a9b3080998d5ea3fc87,21/01/1994,2020-07-08_16h16.18.986,proactive,2020.1.2,Win32,60,5f035e5afe130c270d6ae6dd,5f05e31da81c730c304e7bad,4,,,,,,gorilla,,,,,,0,3,3,19,1,2,1,,,,,,,,,,,,,,,,,,,,,,,,,,,,,,,,,,,,,,,,,,,,,,,,,,,,,,,,,,,,,,,,,,,,,,,,,,,
,,,,,,,,,,stimuli/images/PICTURE_95.png,BOYS,5efa8a9b3080998d5ea3fc87,21/01/1994,2020-07-08_16h16.18.986,proactive,2020.1.2,Win32,60,5f035e5afe130c270d6ae6dd,5f05e31da81c730c304e7bad,4,,,,,,suitcase,,,,,,0,4,4,1,1,1,1,,,,,,,,,,,,,,,,,,,,,,,,,,,,,,,,,,,,,,,,,,,,,,,,,,,,,,,,,,,,,,,,,,,,,,,,,,,
,,,,,,,,,,stimuli/images/PICTURE_383.png,SERIES,5efa8a9b3080998d5ea3fc87,21/01/1994,2020-07-08_16h16.18.986,proactive,2020.1.2,Win32,60,5f035e5afe130c270d6ae6dd,5f05e31da81c730c304e7bad,4,,,,,,coin,,,,,,0,5,5,46,1,5,1,,,,,,,,,,,,,,,,,,,,,,,,,,,,,,,,,,,,,,,,,,,,,,,,,,,,,,,,,,,,,,,,,,,,,,,,,,,
,,,,,,,,,,stimuli/images/PICTURE_383.png,WRITER,5efa8a9b3080998d5ea3fc87,21/01/1994,2020-07-08_16h16.18.986,proactive,2020.1.2,Win32,60,5f035e5afe130c270d6ae6dd,5f05e31da81c730c304e7bad,4,,,,,,coin,,,,,,0,6,6,28,1,3,1,,,,,,,,,,,,,,,,,,,,,,,,,,,,,,,,,,,,,,,,,,,,,,,,,,,,,,,,,,,,,,,,,,,,,,,,,,,
,,,,,,,,,,stimuli/images/PICTURE_403.png,RIVER,5efa8a9b3080998d5ea3fc87,21/01/1994,2020-07-08_16h16.18.986,proactive,2020.1.2,Win32,60,5f035e5afe130c270d6ae6dd,5f05e31da81c730c304e7bad,4,,,,,,cathedral,,,,,,0,7,7,40,1,5,1,,,,,,,,,,,,,,,,,,,,,,,,,,,,,,,,,,,,,,,,,,,,,,,,,,,,,,,,,,,,,,,,,,,,,,,,,,,
,,,,,,,,,,stimuli/images/PICTURE_403.png,TOILET,5efa8a9b3080998d5ea3fc87,21/01/1994,2020-07-08_16h16.18.986,proactive,2020.1.2,Win32,60,5f035e5afe130c270d6ae6dd,5f05e31da81c730c304e7bad,4,,,,,,cathedral,,,,,,0,8,8,25,1,3,1,,,,,,,,,,,,,,,,,,,,,,,,,,,,,,,,,,,,,,,,,,,,,,,,,,,,,,,,,,,,,,,,,,,,,,,,,,,
,,,,,,,,,,stimuli/images/PICTURE_405.png,PLENTY,5efa8a9b3080998d5ea3fc87,21/01/1994,2020-07-08_16h16.18.986,proactive,2020.1.2,Win32,60,5f035e5afe130c270d6ae6dd,5f05e31da81c730c304e7bad,4,,,,,,anchor,,,,,,0,9,9,23,1,3,1,,,,,,,,,,,,,,,,,,,,,,,,,,,,,,,,,,,,,,,,,,,,,,,,,,,,,,,,,,,,,,,,,,,,,,,,,,,
,,,,,,,,,,stimuli/images/PICTURE_467.png,POLICY,5efa8a9b3080998d5ea3fc87,21/01/1994,2020-07-08_16h16.18.986,proactive,2020.1.2,Win32,60,5f035e5afe130c270d6ae6dd,5f05e31da81c730c304e7bad,4,,,,,,peg,,,,,,0,10,10,53,1,6,1,,,,,,,,,,,,,,,,,,,,,,,,,,,,,,,,,,,,,,,,,,,,,,,,,,,,,,,,,,,,,,,,,,,,,,,,,,,
,,,,,,,,,,stimuli/images/PICTURE_405.png,YEAR,5efa8a9b3080998d5ea3fc87,21/01/1994,2020-07-08_16h16.18.986,proactive,2020.1.2,Win32,60,5f035e5afe130c270d6ae6dd,5f05e31da81c730c304e7bad,4,,,,,,anchor,,,,,,0,11,11,34,1,4,1,,,,,,,,,,,,,,,,,,,,,,,,,,,,,,,,,,,,,,,,,,,,,,,,,,,,,,,,,,,,,,,,,,,,,,,,,,,
,,,,,,,,,,stimuli/images/PICTURE_42.png,BOYS,5efa8a9b3080998d5ea3fc87,21/01/1994,2020-07-08_16h16.18.986,proactive,2020.1.2,Win32,60,5f035e5afe130c270d6ae6dd,5f05e31da81c730c304e7bad,4,,,,,,pear,,,,,,0,12,12,55,1,6,1,,,,,,,,,,,,,,,,,,,,,,,,,,,,,,,,,,,,,,,,,,,,,,,,,,,,,,,,,,,,,,,,,,,,,,,,,,,
,,,,,,,,,,stimuli/images/PICTURE_744.png,WEAPON,5efa8a9b3080998d5ea3fc87,21/01/1994,2020-07-08_16h16.18.986,proactive,2020.1.2,Win32,60,5f035e5afe130c270d6ae6dd,5f05e31da81c730c304e7bad,4,,,,,,ring,,,,,,0,13,13,50,1,6,1,,,,,,,,,,,,,,,,,,,,,,,,,,,,,,,,,,,,,,,,,,,,,,,,,,,,,,,,,,,,,,,,,,,,,,,,,,,
,,,,,,,,,,stimuli/images/PICTURE_339.png,CLIENT,5efa8a9b3080998d5ea3fc87,21/01/1994,2020-07-08_16h16.18.986,proactive,2020.1.2,Win32,60,5f035e5afe130c270d6ae6dd,5f05e31da81c730c304e7bad,4,,,,,,backpack,,,,,,0,14,14,11,1,2,1,,,,,,,,,,,,,,,,,,,,,,,,,,,,,,,,,,,,,,,,,,,,,,,,,,,,,,,,,,,,,,,,,,,,,,,,,,,
,,,,,,,,,,stimuli/images/PICTURE_32.png,PILLS,5efa8a9b3080998d5ea3fc87,21/01/1994,2020-07-08_16h16.18.986,proactive,2020.1.2,Win32,60,5f035e5afe130c270d6ae6dd,5f05e31da81c730c304e7bad,4,,,,,,crown,,,,,,0,15,15,18,1,2,1,,,,,,,,,,,,,,,,,,,,,,,,,,,,,,,,,,,,,,,,,,,,,,,,,,,,,,,,,,,,,,,,,,,,,,,,,,,
,,,,,,,,,,stimuli/images/PICTURE_504.png,ARTIST,5efa8a9b3080998d5ea3fc87,21/01/1994,2020-07-08_16h16.18.986,proactive,2020.1.2,Win32,60,5f035e5afe130c270d6ae6dd,5f05e31da81c730c304e7bad,4,,,,,,wheel,,,,,,0,16,16,49,1,5,1,,,,,,,,,,,,,,,,,,,,,,,,,,,,,,,,,,,,,,,,,,,,,,,,,,,,,,,,,,,,,,,,,,,,,,,,,,,
,,,,,,,,,,stimuli/images/PICTURE_85.png,NATION,5efa8a9b3080998d5ea3fc87,21/01/1994,2020-07-08_16h16.18.986,proactive,2020.1.2,Win32,60,5f035e5afe130c270d6ae6dd,5f05e31da81c730c304e7bad,4,,,,,,diamond,,,,,,0,17,17,5,1,1,1,,,,,,,,,,,,,,,,,,,,,,,,,,,,,,,,,,,,,,,,,,,,,,,,,,,,,,,,,,,,,,,,,,,,,,,,,,,
,,,,,,,,,,stimuli/images/PICTURE_750.png,HOTEL,5efa8a9b3080998d5ea3fc87,21/01/1994,2020-07-08_16h16.18.986,proactive,2020.1.2,Win32,60,5f035e5afe130c270d6ae6dd,5f05e31da81c730c304e7bad,4,,,,,,kettle,,,,,,0,18,18,27,1,3,1,,,,,,,,,,,,,,,,,,,,,,,,,,,,,,,,,,,,,,,,,,,,,,,,,,,,,,,,,,,,,,,,,,,,,,,,,,,
,,,,,,,,,,stimuli/images/PICTURE_208.png,SYSTEM,5efa8a9b3080998d5ea3fc87,21/01/1994,2020-07-08_16h16.18.986,proactive,2020.1.2,Win32,60,5f035e5afe130c270d6ae6dd,5f05e31da81c730c304e7bad,4,,,,,,microphone,,,,,,0,19,19,32,1,4,1,,,,,,,,,,,,,,,,,,,,,,,,,,,,,,,,,,,,,,,,,,,,,,,,,,,,,,,,,,,,,,,,,,,,,,,,,,,
,,,,,,,,,,stimuli/images/PICTURE_491.png,RIVER,5efa8a9b3080998d5ea3fc87,21/01/1994,2020-07-08_16h16.18.986,proactive,2020.1.2,Win32,60,5f035e5afe130c270d6ae6dd,5f05e31da81c730c304e7bad,4,,,,,,rug,,,,,,0,20,20,6,1,1,1,,,,,,,,,,,,,,,,,,,,,,,,,,,,,,,,,,,,,,,,,,,,,,,,,,,,,,,,,,,,,,,,,,,,,,,,,,,
,,,,,,,,,,stimuli/images/PICTURE_147.png,YEAR,5efa8a9b3080998d5ea3fc87,21/01/1994,2020-07-08_16h16.18.986,proactive,2020.1.2,Win32,60,5f035e5afe130c270d6ae6dd,5f05e31da81c730c304e7bad,4,,,,,,hanger,,,,,,0,21,21,21,1,3,1,,,,,,,,,,,,,,,,,,,,,,,,,,,,,,,,,,,,,,,,,,,,,,,,,,,,,,,,,,,,,,,,,,,,,,,,,,,
,,,,,,,,,,stimuli/images/PICTURE_233.png,LOTS,5efa8a9b3080998d5ea3fc87,21/01/1994,2020-07-08_16h16.18.986,proactive,2020.1.2,Win32,60,5f035e5afe130c270d6ae6dd,5f05e31da81c730c304e7bad,4,,,,,,salt,,,,,,0,22,22,42,1,5,1,,,,,,,,,,,,,,,,,,,,,,,,,,,,,,,,,,,,,,,,,,,,,,,,,,,,,,,,,,,,,,,,,,,,,,,,,,,
,,,,,,,,,,stimuli/images/PICTURE_403.png,WRITER,5efa8a9b3080998d5ea3fc87,21/01/1994,2020-07-08_16h16.18.986,proactive,2020.1.2,Win32,60,5f035e5afe130c270d6ae6dd,5f05e31da81c730c304e7bad,4,,,,,,cathedral,,,,,,0,23,23,31,1,4,1,,,,,,,,,,,,,,,,,,,,,,,,,,,,,,,,,,,,,,,,,,,,,,,,,,,,,,,,,,,,,,,,,,,,,,,,,,,
,,,,,,,,,,stimuli/images/PICTURE_68.png,MILE,5efa8a9b3080998d5ea3fc87,21/01/1994,2020-07-08_16h16.18.986,proactive,2020.1.2,Win32,60,5f035e5afe130c270d6ae6dd,5f05e31da81c730c304e7bad,4,,,,,,candle,,,,,,0,24,24,51,1,6,1,,,,,,,,,,,,,,,,,,,,,,,,,,,,,,,,,,,,,,,,,,,,,,,,,,,,,,,,,,,,,,,,,,,,,,,,,,,
,,,,,,,,,,stimuli/images/PICTURE_677.png,APPLE,5efa8a9b3080998d5ea3fc87,21/01/1994,2020-07-08_16h16.18.986,proactive,2020.1.2,Win32,60,5f035e5afe130c270d6ae6dd,5f05e31da81c730c304e7bad,4,,,,,,map,,,,,,0,25,25,43,1,5,1,,,,,,,,,,,,,,,,,,,,,,,,,,,,,,,,,,,,,,,,,,,,,,,,,,,,,,,,,,,,,,,,,,,,,,,,,,,
,,,,,,,,,,stimuli/images/PICTURE_654.png,MONTH,5efa8a9b3080998d5ea3fc87,21/01/1994,2020-07-08_16h16.18.986,proactive,2020.1.2,Win32,60,5f035e5afe130c270d6ae6dd,5f05e31da81c730c304e7bad,4,,,,,,pencil,,,,,,0,26,26,29,1,3,1,,,,,,,,,,,,,,,,,,,,,,,,,,,,,,,,,,,,,,,,,,,,,,,,,,,,,,,,,,,,,,,,,,,,,,,,,,,
,,,,,,,,,,stimuli/images/PICTURE_285.png,LIFE,5efa8a9b3080998d5ea3fc87,21/01/1994,2020-07-08_16h16.18.986,proactive,2020.1.2,Win32,60,5f035e5afe130c270d6ae6dd,5f05e31da81c730c304e7bad,4,,,,,,carrot,,,,,,0,27,27,33,1,4,1,,,,,,,,,,,,,,,,,,,,,,,,,,,,,,,,,,,,,,,,,,,,,,,,,,,,,,,,,,,,,,,,,,,,,,,,,,,
,,,,,,,,,,stimuli/images/PICTURE_504.png,COPS,5efa8a9b3080998d5ea3fc87,21/01/1994,2020-07-08_16h16.18.986,proactive,2020.1.2,Win32,60,5f035e5afe130c270d6ae6dd,5f05e31da81c730c304e7bad,4,,,,,,wheel,,,,,,0,28,28,52,1,6,1,,,,,,,,,,,,,,,,,,,,,,,,,,,,,,,,,,,,,,,,,,,,,,,,,,,,,,,,,,,,,,,,,,,,,,,,,,,
,,,,,,,,,,stimuli/images/PICTURE_340.png,LETTER,5efa8a9b3080998d5ea3fc87,21/01/1994,2020-07-08_16h16.18.986,proactive,2020.1.2,Win32,60,5f035e5afe130c270d6ae6dd,5f05e31da81c730c304e7bad,4,,,,,,mirror,,,,,,0,29,29,24,1,3,1,,,,,,,,,,,,,,,,,,,,,,,,,,,,,,,,,,,,,,,,,,,,,,,,,,,,,,,,,,,,,,,,,,,,,,,,,,,
,,,,,,,,,,stimuli/images/PICTURE_667.png,RIVER,5efa8a9b3080998d5ea3fc87,21/01/1994,2020-07-08_16h16.18.986,proactive,2020.1.2,Win32,60,5f035e5afe130c270d6ae6dd,5f05e31da81c730c304e7bad,4,,,,,,daisy,,,,,,0,30,30,10,1,2,1,,,,,,,,,,,,,,,,,,,,,,,,,,,,,,,,,,,,,,,,,,,,,,,,,,,,,,,,,,,,,,,,,,,,,,,,,,,
,,,,,,,,,,stimuli/images/PICTURE_685.png,PENNY,5efa8a9b3080998d5ea3fc87,21/01/1994,2020-07-08_16h16.18.986,proactive,2020.1.2,Win32,60,5f035e5afe130c270d6ae6dd,5f05e31da81c730c304e7bad,4,,,,,,goose,,,,,,0,31,31,4,1,1,1,,,,,,,,,,,,,,,,,,,,,,,,,,,,,,,,,,,,,,,,,,,,,,,,,,,,,,,,,,,,,,,,,,,,,,,,,,,
,,,,,,,,,,stimuli/images/PICTURE_57.png,MOMENT,5efa8a9b3080998d5ea3fc87,21/01/1994,2020-07-08_16h16.18.986,proactive,2020.1.2,Win32,60,5f035e5afe130c270d6ae6dd,5f05e31da81c730c304e7bad,4,,,,,,stamp,,,,,,0,32,32,37,1,4,1,,,,,,,,,,,,,,,,,,,,,,,,,,,,,,,,,,,,,,,,,,,,,,,,,,,,,,,,,,,,,,,,,,,,,,,,,,,
,,,,,,,,,,stimuli/images/PICTURE_296.png,LOTS,5efa8a9b3080998d5ea3fc87,21/01/1994,2020-07-08_16h16.18.986,proactive,2020.1.2,Win32,60,5f035e5afe130c270d6ae6dd,5f05e31da81c730c304e7bad,4,,,,,,bolt,,,,,,0,33,33,9,1,1,1,,,,,,,,,,,,,,,,,,,,,,,,,,,,,,,,,,,,,,,,,,,,,,,,,,,,,,,,,,,,,,,,,,,,,,,,,,,
,,,,,,,,,,stimuli/images/PICTURE_308.png,FAMILY,5efa8a9b3080998d5ea3fc87,21/01/1994,2020-07-08_16h16.18.986,proactive,2020.1.2,Win32,60,5f035e5afe130c270d6ae6dd,5f05e31da81c730c304e7bad,4,,,,,,dice,,,,,,0,34,34,36,1,4,1,,,,,,,,,,,,,,,,,,,,,,,,,,,,,,,,,,,,,,,,,,,,,,,,,,,,,,,,,,,,,,,,,,,,,,,,,,,
,,,,,,,,,,stimuli/images/PICTURE_108.png,POLICY,5efa8a9b3080998d5ea3fc87,21/01/1994,2020-07-08_16h16.18.986,proactive,2020.1.2,Win32,60,5f035e5afe130c270d6ae6dd,5f05e31da81c730c304e7bad,4,,,,,,calendar,,,,,,0,35,35,22,1,3,1,,,,,,,,,,,,,,,,,,,,,,,,,,,,,,,,,,,,,,,,,,,,,,,,,,,,,,,,,,,,,,,,,,,,,,,,,,,
,,,,,,,,,,stimuli/images/PICTURE_203.png,GODS,5efa8a9b3080998d5ea3fc87,21/01/1994,2020-07-08_16h16.18.986,proactive,2020.1.2,Win32,60,5f035e5afe130c270d6ae6dd,5f05e31da81c730c304e7bad,4,,,,,,cap,,,,,,0,36,36,30,1,4,1,,,,,,,,,,,,,,,,,,,,,,,,,,,,,,,,,,,,,,,,,,,,,,,,,,,,,,,,,,,,,,,,,,,,,,,,,,,
,,,,,,,,,,stimuli/images/PICTURE_327.png,CASINO,5efa8a9b3080998d5ea3fc87,21/01/1994,2020-07-08_16h16.18.986,proactive,2020.1.2,Win32,60,5f035e5afe130c270d6ae6dd,5f05e31da81c730c304e7bad,4,,,,,,helmet,,,,,,0,37,37,20,1,3,1,,,,,,,,,,,,,,,,,,,,,,,,,,,,,,,,,,,,,,,,,,,,,,,,,,,,,,,,,,,,,,,,,,,,,,,,,,,
,,,,,,,,,,stimuli/images/PICTURE_203.png,NIGHT,5efa8a9b3080998d5ea3fc87,21/01/1994,2020-07-08_16h16.18.986,proactive,2020.1.2,Win32,60,5f035e5afe130c270d6ae6dd,5f05e31da81c730c304e7bad,4,,,,,,cap,,,,,,0,38,38,2,1,1,1,,,,,,,,,,,,,,,,,,,,,,,,,,,,,,,,,,,,,,,,,,,,,,,,,,,,,,,,,,,,,,,,,,,,,,,,,,,
,,,,,,,,,,stimuli/images/PICTURE_108.png,FLIGHT,5efa8a9b3080998d5ea3fc87,21/01/1994,2020-07-08_16h16.18.986,proactive,2020.1.2,Win32,60,5f035e5afe130c270d6ae6dd,5f05e31da81c730c304e7bad,4,,,,,,calendar,,,,,,0,39,39,59,1,6,1,,,,,,,,,,,,,,,,,,,,,,,,,,,,,,,,,,,,,,,,,,,,,,,,,,,,,,,,,,,,,,,,,,,,,,,,,,,
,,,,,,,,,,stimuli/images/PICTURE_95.png,MILLER,5efa8a9b3080998d5ea3fc87,21/01/1994,2020-07-08_16h16.18.986,proactive,2020.1.2,Win32,60,5f035e5afe130c270d6ae6dd,5f05e31da81c730c304e7bad,4,,,,,,suitcase,,,,,,0,40,40,56,1,6,1,,,,,,,,,,,,,,,,,,,,,,,,,,,,,,,,,,,,,,,,,,,,,,,,,,,,,,,,,,,,,,,,,,,,,,,,,,,
,,,,,,,,,,stimuli/images/PICTURE_487.png,GIRL,5efa8a9b3080998d5ea3fc87,21/01/1994,2020-07-08_16h16.18.986,proactive,2020.1.2,Win32,60,5f035e5afe130c270d6ae6dd,5f05e31da81c730c304e7bad,4,,,,,,basket,,,,,,0,41,41,45,1,5,1,,,,,,,,,,,,,,,,,,,,,,,,,,,,,,,,,,,,,,,,,,,,,,,,,,,,,,,,,,,,,,,,,,,,,,,,,,,
,,,,,,,,,,stimuli/images/PICTURE_327.png,SERIES,5efa8a9b3080998d5ea3fc87,21/01/1994,2020-07-08_16h16.18.986,proactive,2020.1.2,Win32,60,5f035e5afe130c270d6ae6dd,5f05e31da81c730c304e7bad,4,,,,,,helmet,,,,,,0,42,42,3,1,1,1,,,,,,,,,,,,,,,,,,,,,,,,,,,,,,,,,,,,,,,,,,,,,,,,,,,,,,,,,,,,,,,,,,,,,,,,,,,
,,,,,,,,,,stimuli/images/PICTURE_504.png,YEAR,5efa8a9b3080998d5ea3fc87,21/01/1994,2020-07-08_16h16.18.986,proactive,2020.1.2,Win32,60,5f035e5afe130c270d6ae6dd,5f05e31da81c730c304e7bad,4,,,,,,wheel,,,,,,0,43,43,13,1,2,1,,,,,,,,,,,,,,,,,,,,,,,,,,,,,,,,,,,,,,,,,,,,,,,,,,,,,,,,,,,,,,,,,,,,,,,,,,,
,,,,,,,,,,stimuli/images/PICTURE_655.png,TOILET,5efa8a9b3080998d5ea3fc87,21/01/1994,2020-07-08_16h16.18.986,proactive,2020.1.2,Win32,60,5f035e5afe130c270d6ae6dd,5f05e31da81c730c304e7bad,4,,,,,,megaphone,,,,,,0,44,44,12,1,2,1,,,,,,,,,,,,,,,,,,,,,,,,,,,,,,,,,,,,,,,,,,,,,,,,,,,,,,,,,,,,,,,,,,,,,,,,,,,
,,,,,,,,,,stimuli/images/PICTURE_85.png,TOILET,5efa8a9b3080998d5ea3fc87,21/01/1994,2020-07-08_16h16.18.986,proactive,2020.1.2,Win32,60,5f035e5afe130c270d6ae6dd,5f05e31da81c730c304e7bad,4,,,,,,diamond,,,,,,0,45,45,48,1,5,1,,,,,,,,,,,,,,,,,,,,,,,,,,,,,,,,,,,,,,,,,,,,,,,,,,,,,,,,,,,,,,,,,,,,,,,,,,,
,,,,,,,,,,stimuli/images/PICTURE_449.png,DUDE,5efa8a9b3080998d5ea3fc87,21/01/1994,2020-07-08_16h16.18.986,proactive,2020.1.2,Win32,60,5f035e5afe130c270d6ae6dd,5f05e31da81c730c304e7bad,4,,,,,,bench,,,,,,0,46,46,17,1,2,1,,,,,,,,,,,,,,,,,,,,,,,,,,,,,,,,,,,,,,,,,,,,,,,,,,,,,,,,,,,,,,,,,,,,,,,,,,,
,,,,,,,,,,stimuli/images/PICTURE_33.png,FRIEND,5efa8a9b3080998d5ea3fc87,21/01/1994,2020-07-08_16h16.18.986,proactive,2020.1.2,Win32,60,5f035e5afe130c270d6ae6dd,5f05e31da81c730c304e7bad,4,,,,,,frame,,,,,,0,47,47,8,1,1,1,,,,,,,,,,,,,,,,,,,,,,,,,,,,,,,,,,,,,,,,,,,,,,,,,,,,,,,,,,,,,,,,,,,,,,,,,,,
,,,,,,,,,,stimuli/images/PICTURE_340.png,VALLEY,5efa8a9b3080998d5ea3fc87,21/01/1994,2020-07-08_16h16.18.986,proactive,2020.1.2,Win32,60,5f035e5afe130c270d6ae6dd,5f05e31da81c730c304e7bad,4,,,,,,mirror,,,,,,0,48,48,54,1,6,1,,,,,,,,,,,,,,,,,,,,,,,,,,,,,,,,,,,,,,,,,,,,,,,,,,,,,,,,,,,,,,,,,,,,,,,,,,,
,,,,,,,,,,stimuli/images/PICTURE_95.png,HONEY,5efa8a9b3080998d5ea3fc87,21/01/1994,2020-07-08_16h16.18.986,proactive,2020.1.2,Win32,60,5f035e5afe130c270d6ae6dd,5f05e31da81c730c304e7bad,4,,,,,,suitcase,,,,,,0,49,49,44,1,5,1,,,,,,,,,,,,,,,,,,,,,,,,,,,,,,,,,,,,,,,,,,,,,,,,,,,,,,,,,,,,,,,,,,,,,,,,,,,
,,,,,,,,,,stimuli/images/PICTURE_564.png,BATH,5efa8a9b3080998d5ea3fc87,21/01/1994,2020-07-08_16h16.18.986,proactive,2020.1.2,Win32,60,5f035e5afe130c270d6ae6dd,5f05e31da81c730c304e7bad,4,,,,,,spoon,,,,,,0,50,50,26,1,3,1,,,,,,,,,,,,,,,,,,,,,,,,,,,,,,,,,,,,,,,,,,,,,,,,,,,,,,,,,,,,,,,,,,,,,,,,,,,
,,,,,,,,,,stimuli/images/PICTURE_2.png,FLIGHT,5efa8a9b3080998d5ea3fc87,21/01/1994,2020-07-08_16h16.18.986,proactive,2020.1.2,Win32,60,5f035e5afe130c270d6ae6dd,5f05e31da81c730c304e7bad,4,,,,,,tyre,,,,,,0,51,51,15,1,2,1,,,,,,,,,,,,,,,,,,,,,,,,,,,,,,,,,,,,,,,,,,,,,,,,,,,,,,,,,,,,,,,,,,,,,,,,,,,
,,,,,,,,,,stimuli/images/PICTURE_380.png,CANDY,5efa8a9b3080998d5ea3fc87,21/01/1994,2020-07-08_16h16.18.986,proactive,2020.1.2,Win32,60,5f035e5afe130c270d6ae6dd,5f05e31da81c730c304e7bad,4,,,,,,gorilla,,,,,,0,52,52,0,1,1,1,,,,,,,,,,,,,,,,,,,,,,,,,,,,,,,,,,,,,,,,,,,,,,,,,,,,,,,,,,,,,,,,,,,,,,,,,,,
,,,,,,,,,,stimuli/images/PICTURE_32.png,KIND,5efa8a9b3080998d5ea3fc87,21/01/1994,2020-07-08_16h16.18.986,proactive,2020.1.2,Win32,60,5f035e5afe130c270d6ae6dd,5f05e31da81c730c304e7bad,4,,,,,,crown,,,,,,0,53,53,35,1,4,1,,,,,,,,,,,,,,,,,,,,,,,,,,,,,,,,,,,,,,,,,,,,,,,,,,,,,,,,,,,,,,,,,,,,,,,,,,,
,,,,,,,,,,stimuli/images/PICTURE_296.png,LIFE,5efa8a9b3080998d5ea3fc87,21/01/1994,2020-07-08_16h16.18.986,proactive,2020.1.2,Win32,60,5f035e5afe130c270d6ae6dd,5f05e31da81c730c304e7bad,4,,,,,,bolt,,,,,,0,54,54,57,1,6,1,,,,,,,,,,,,,,,,,,,,,,,,,,,,,,,,,,,,,,,,,,,,,,,,,,,,,,,,,,,,,,,,,,,,,,,,,,,
,,,,,,,,,,stimuli/images/PICTURE_708.png,RECORD,5efa8a9b3080998d5ea3fc87,21/01/1994,2020-07-08_16h16.18.986,proactive,2020.1.2,Win32,60,5f035e5afe130c270d6ae6dd,5f05e31da81c730c304e7bad,4,,,,,,monkey,,,,,,0,55,55,58,1,6,1,,,,,,,,,,,,,,,,,,,,,,,,,,,,,,,,,,,,,,,,,,,,,,,,,,,,,,,,,,,,,,,,,,,,,,,,,,,
,,,,,,,,,,stimuli/images/PICTURE_491.png,GLASS,5efa8a9b3080998d5ea3fc87,21/01/1994,2020-07-08_16h16.18.986,proactive,2020.1.2,Win32,60,5f035e5afe130c270d6ae6dd,5f05e31da81c730c304e7bad,4,,,,,,rug,,,,,,0,56,56,14,1,2,1,,,,,,,,,,,,,,,,,,,,,,,,,,,,,,,,,,,,,,,,,,,,,,,,,,,,,,,,,,,,,,,,,,,,,,,,,,,
,,,,,,,,,,stimuli/images/PICTURE_297.png,RIVER,5efa8a9b3080998d5ea3fc87,21/01/1994,2020-07-08_16h16.18.986,proactive,2020.1.2,Win32,60,5f035e5afe130c270d6ae6dd,5f05e31da81c730c304e7bad,4,,,,,,aeroplane,,,,,,0,57,57,39,1,4,1,,,,,,,,,,,,,,,,,,,,,,,,,,,,,,,,,,,,,,,,,,,,,,,,,,,,,,,,,,,,,,,,,,,,,,,,,,,
,,,,,,,,,,stimuli/images/PICTURE_147.png,WOMEN,5efa8a9b3080998d5ea3fc87,21/01/1994,2020-07-08_16h16.18.986,proactive,2020.1.2,Win32,60,5f035e5afe130c270d6ae6dd,5f05e31da81c730c304e7bad,4,,,,,,hanger,,,,,,0,58,58,7,1,1,1,,,,,,,,,,,,,,,,,,,,,,,,,,,,,,,,,,,,,,,,,,,,,,,,,,,,,,,,,,,,,,,,,,,,,,,,,,,
,,?,0.00207,0,,,,,,stimuli/images/PICTURE_95.png,HONEY,5efa8a9b3080998d5ea3fc87,21/01/1994,2020-07-08_16h16.18.986,proactive,2020.1.2,Win32,60,5f035e5afe130c270d6ae6dd,5f05e31da81c730c304e7bad,4,,,,,,suitcase,,,,,,,,,,,5,1,0,0,0,44,1,,,,,,,,,,,,,,,,,,,,,,,,,,,,,,,,,,,,,,,,,,,,,,,,,,,,,,,,,,,,,,,,,,,,,,
,,SYSTEM,3.22807,1,,,,,,stimuli/images/PICTURE_208.png,SYSTEM,5efa8a9b3080998d5ea3fc87,21/01/1994,2020-07-08_16h16.18.986,proactive,2020.1.2,Win32,60,5f035e5afe130c270d6ae6dd,5f05e31da81c730c304e7bad,4,,,,,,microphone,,,,,,,,,,,4,1,0,1,1,32,1,,,,,,,,,,,,,,,,,,,,,,,,,,,,,,,,,,,,,,,,,,,,,,,,,,,,,,,,,,,,,,,,,,,,,,
,,LIFE,3.11459,0,,,,,,stimuli/images/PICTURE_203.png,GODS,5efa8a9b3080998d5ea3fc87,21/01/1994,2020-07-08_16h16.18.986,proactive,2020.1.2,Win32,60,5f035e5afe130c270d6ae6dd,5f05e31da81c730c304e7bad,4,,,,,,cap,,,,,,,,,,,4,1,0,2,2,30,1,,,,,,,,,,,,,,,,,,,,,,,,,,,,,,,,,,,,,,,,,,,,,,,,,,,,,,,,,,,,,,,,,,,,,,
,,?,0.00177,0,,,,,,stimuli/images/PICTURE_504.png,ARTIST,5efa8a9b3080998d5ea3fc87,21/01/1994,2020-07-08_16h16.18.986,proactive,2020.1.2,Win32,60,5f035e5afe130c270d6ae6dd,5f05e31da81c730c304e7bad,4,,,,,,wheel,,,,,,,,,,,5,1,0,3,3,49,1,,,,,,,,,,,,,,,,,,,,,,,,,,,,,,,,,,,,,,,,,,,,,,,,,,,,,,,,,,,,,,,,,,,,,,
,,?,0.000975,0,,,,,,stimuli/images/PICTURE_340.png,LETTER,5efa8a9b3080998d5ea3fc87,21/01/1994,2020-07-08_16h16.18.986,proactive,2020.1.2,Win32,60,5f035e5afe130c270d6ae6dd,5f05e31da81c730c304e7bad,4,,,,,,mirror,,,,,,,,,,,3,1,0,4,4,24,1,,,,,,,,,,,,,,,,,,,,,,,,,,,,,,,,,,,,,,,,,,,,,,,,,,,,,,,,,,,,,,,,,,,,,,
,,?,0.0009,0,,,,,,stimuli/images/PICTURE_2.png,FLIGHT,5efa8a9b3080998d5ea3fc87,21/01/1994,2020-07-08_16h16.18.986,proactive,2020.1.2,Win32,60,5f035e5afe130c270d6ae6dd,5f05e31da81c730c304e7bad,4,,,,,,tyre,,,,,,,,,,,2,1,0,5,5,15,1,,,,,,,,,,,,,,,,,,,,,,,,,,,,,,,,,,,,,,,,,,,,,,,,,,,,,,,,,,,,,,,,,,,,,,
,,?,0.001065,0,,,,,,stimuli/images/PICTURE_147.png,YEAR,5efa8a9b3080998d5ea3fc87,21/01/1994,2020-07-08_16h16.18.986,proactive,2020.1.2,Win32,60,5f035e5afe130c270d6ae6dd,5f05e31da81c730c304e7bad,4,,,,,,hanger,,,,,,,,,,,3,1,0,6,6,21,1,,,,,,,,,,,,,,,,,,,,,,,,,,,,,,,,,,,,,,,,,,,,,,,,,,,,,,,,,,,,,,,,,,,,,,
,,?,0.00109,0,,,,,,stimuli/images/PICTURE_449.png,DUDE,5efa8a9b3080998d5ea3fc87,21/01/1994,2020-07-08_16h16.18.986,proactive,2020.1.2,Win32,60,5f035e5afe130c270d6ae6dd,5f05e31da81c730c304e7bad,4,,,,,,bench,,,,,,,,,,,2,1,0,7,7,17,1,,,,,,,,,,,,,,,,,,,,,,,,,,,,,,,,,,,,,,,,,,,,,,,,,,,,,,,,,,,,,,,,,,,,,,
,,?,0.002395,0,,,,,,stimuli/images/PICTURE_708.png,RECORD,5efa8a9b3080998d5ea3fc87,21/01/1994,2020-07-08_16h16.18.986,proactive,2020.1.2,Win32,60,5f035e5afe130c270d6ae6dd,5f05e31da81c730c304e7bad,4,,,,,,monkey,,,,,,,,,,,6,1,0,8,8,58,1,,,,,,,,,,,,,,,,,,,,,,,,,,,,,,,,,,,,,,,,,,,,,,,,,,,,,,,,,,,,,,,,,,,,,,
,,?,0.001105,0,,,,,,stimuli/images/PICTURE_467.png,POLICY,5efa8a9b3080998d5ea3fc87,21/01/1994,2020-07-08_16h16.18.986,proactive,2020.1.2,Win32,60,5f035e5afe130c270d6ae6dd,5f05e31da81c730c304e7bad,4,,,,,,peg,,,,,,,,,,,6,1,0,9,9,53,1,,,,,,,,,,,,,,,,,,,,,,,,,,,,,,,,,,,,,,,,,,,,,,,,,,,,,,,,,,,,,,,,,,,,,,
,,?,0.001035,0,,,,,,stimuli/images/PICTURE_383.png,SERIES,5efa8a9b3080998d5ea3fc87,21/01/1994,2020-07-08_16h16.18.986,proactive,2020.1.2,Win32,60,5f035e5afe130c270d6ae6dd,5f05e31da81c730c304e7bad,4,,,,,,coin,,,,,,,,,,,5,1,0,10,10,46,1,,,,,,,,,,,,,,,,,,,,,,,,,,,,,,,,,,,,,,,,,,,,,,,,,,,,,,,,,,,,,,,,,,,,,,
,,?,0.001115,0,,,,,,stimuli/images/PICTURE_42.png,BOYS,5efa8a9b3080998d5ea3fc87,21/01/1994,2020-07-08_16h16.18.986,proactive,2020.1.2,Win32,60,5f035e5afe130c270d6ae6dd,5f05e31da81c730c304e7bad,4,,,,,,pear,,,,,,,,,,,6,1,0,11,11,55,1,,,,,,,,,,,,,,,,,,,,,,,,,,,,,,,,,,,,,,,,,,,,,,,,,,,,,,,,,,,,,,,,,,,,,,
,,?,0.0011,0,,,,,,stimuli/images/PICTURE_177.png,WRITER,5efa8a9b3080998d5ea3fc87,21/01/1994,2020-07-08_16h16.18.986,proactive,2020.1.2,Win32,60,5f035e5afe130c270d6ae6dd,5f05e31da81c730c304e7bad,4,,,,,,mushroom,,,,,,,,,,,5,1,0,12,12,41,1,,,,,,,,,,,,,,,,,,,,,,,,,,,,,,,,,,,,,,,,,,,,,,,,,,,,,,,,,,,,,,,,,,,,,,
,,FAMILY,2.233525,1,,,,,,stimuli/images/PICTURE_308.png,FAMILY,5efa8a9b3080998d5ea3fc87,21/01/1994,2020-07-08_16h16.18.986,proactive,2020.1.2,Win32,60,5f035e5afe130c270d6ae6dd,5f05e31da81c730c304e7bad,4,,,,,,dice,,,,,,,,,,,4,1,0,13,13,36,1,,,,,,,,,,,,,,,,,,,,,,,,,,,,,,,,,,,,,,,,,,,,,,,,,,,,,,,,,,,,,,,,,,,,,,
,,?,0.002935,0,,,,,,stimuli/images/PICTURE_405.png,PLENTY,5efa8a9b3080998d5ea3fc87,21/01/1994,2020-07-08_16h16.18.986,proactive,2020.1.2,Win32,60,5f035e5afe130c270d6ae6dd,5f05e31da81c730c304e7bad,4,,,,,,anchor,,,,,,,,,,,3,1,0,14,14,23,1,,,,,,,,,,,,,,,,,,,,,,,,,,,,,,,,,,,,,,,,,,,,,,,,,,,,,,,,,,,,,,,,,,,,,,
,,?,0.001655,0,,,,,,stimuli/images/PICTURE_403.png,TOILET,5efa8a9b3080998d5ea3fc87,21/01/1994,2020-07-08_16h16.18.986,proactive,2020.1.2,Win32,60,5f035e5afe130c270d6ae6dd,5f05e31da81c730c304e7bad,4,,,,,,cathedral,,,,,,,,,,,3,1,0,15,15,25,1,,,,,,,,,,,,,,,,,,,,,,,,,,,,,,,,,,,,,,,,,,,,,,,,,,,,,,,,,,,,,,,,,,,,,,
,,?,0.001595,0,,,,,,stimuli/images/PICTURE_504.png,YEAR,5efa8a9b3080998d5ea3fc87,21/01/1994,2020-07-08_16h16.18.986,proactive,2020.1.2,Win32,60,5f035e5afe130c270d6ae6dd,5f05e31da81c730c304e7bad,4,,,,,,wheel,,,,,,,,,,,2,1,0,16,16,13,1,,,,,,,,,,,,,,,,,,,,,,,,,,,,,,,,,,,,,,,,,,,,,,,,,,,,,,,,,,,,,,,,,,,,,,
,,?,0.00161,0,,,,,,stimuli/images/PICTURE_85.png,NATION,5efa8a9b3080998d5ea3fc87,21/01/1994,2020-07-08_16h16.18.986,proactive,2020.1.2,Win32,60,5f035e5afe130c270d6ae6dd,5f05e31da81c730c304e7bad,4,,,,,,diamond,,,,,,,,,,,1,1,0,17,17,5,1,,,,,,,,,,,,,,,,,,,,,,,,,,,,,,,,,,,,,,,,,,,,,,,,,,,,,,,,,,,,,,,,,,,,,,
,,?,0.001635,0,,,,,,stimuli/images/PICTURE_491.png,RIVER,5efa8a9b3080998d5ea3fc87,21/01/1994,2020-07-08_16h16.18.986,proactive,2020.1.2,Win32,60,5f035e5afe130c270d6ae6dd,5f05e31da81c730c304e7bad,4,,,,,,rug,,,,,,,,,,,1,1,0,18,18,6,1,,,,,,,,,,,,,,,,,,,,,,,,,,,,,,,,,,,,,,,,,,,,,,,,,,,,,,,,,,,,,,,,,,,,,,
,,?,0.001565,0,,,,,,stimuli/images/PICTURE_95.png,MILLER,5efa8a9b3080998d5ea3fc87,21/01/1994,2020-07-08_16h16.18.986,proactive,2020.1.2,Win32,60,5f035e5afe130c270d6ae6dd,5f05e31da81c730c304e7bad,4,,,,,,suitcase,,,,,,,,,,,6,1,0,19,19,56,1,,,,,,,,,,,,,,,,,,,,,,,,,,,,,,,,,,,,,,,,,,,,,,,,,,,,,,,,,,,,,,,,,,,,,,
,,?,0.00117,0,,,,,,stimuli/images/PICTURE_33.png,FRIEND,5efa8a9b3080998d5ea3fc87,21/01/1994,2020-07-08_16h16.18.986,proactive,2020.1.2,Win32,60,5f035e5afe130c270d6ae6dd,5f05e31da81c730c304e7bad,4,,,,,,frame,,,,,,,,,,,1,1,0,20,20,8,1,,,,,,,,,,,,,,,,,,,,,,,,,,,,,,,,,,,,,,,,,,,,,,,,,,,,,,,,,,,,,,,,,,,,,,
,,YEAR,4.934585,1,,,,,,stimuli/images/PICTURE_405.png,YEAR,5efa8a9b3080998d5ea3fc87,21/01/1994,2020-07-08_16h16.18.986,proactive,2020.1.2,Win32,60,5f035e5afe130c270d6ae6dd,5f05e31da81c730c304e7bad,4,,,,,,anchor,,,,,,,,,,,4,1,0,21,21,34,1,,,,,,,,,,,,,,,,,,,,,,,,,,,,,,,,,,,,,,,,,,,,,,,,,,,,,,,,,,,,,,,,,,,,,,
,,?,0.00219,0,,,,,,stimuli/images/PICTURE_655.png,TOILET,5efa8a9b3080998d5ea3fc87,21/01/1994,2020-07-08_16h16.18.986,proactive,2020.1.2,Win32,60,5f035e5afe130c270d6ae6dd,5f05e31da81c730c304e7bad,4,,,,,,megaphone,,,,,,,,,,,2,1,0,22,22,12,1,,,,,,,,,,,,,,,,,,,,,,,,,,,,,,,,,,,,,,,,,,,,,,,,,,,,,,,,,,,,,,,,,,,,,,
,,LIFE,5.52581,1,,,,,,stimuli/images/PICTURE_285.png,LIFE,5efa8a9b3080998d5ea3fc87,21/01/1994,2020-07-08_16h16.18.986,proactive,2020.1.2,Win32,60,5f035e5afe130c270d6ae6dd,5f05e31da81c730c304e7bad,4,,,,,,carrot,,,,,,,,,,,4,1,0,23,23,33,1,,,,,,,,,,,,,,,,,,,,,,,,,,,,,,,,,,,,,,,,,,,,,,,,,,,,,,,,,,,,,,,,,,,,,,
,,?,0.00304,0,,,,,,stimuli/images/PICTURE_491.png,GLASS,5efa8a9b3080998d5ea3fc87,21/01/1994,2020-07-08_16h16.18.986,proactive,2020.1.2,Win32,60,5f035e5afe130c270d6ae6dd,5f05e31da81c730c304e7bad,4,,,,,,rug,,,,,,,,,,,2,1,0,24,24,14,1,,,,,,,,,,,,,,,,,,,,,,,,,,,,,,,,,,,,,,,,,,,,,,,,,,,,,,,,,,,,,,,,,,,,,,
,,?,0.001805,0,,,,,,stimuli/images/PICTURE_487.png,GIRL,5efa8a9b3080998d5ea3fc87,21/01/1994,2020-07-08_16h16.18.986,proactive,2020.1.2,Win32,60,5f035e5afe130c270d6ae6dd,5f05e31da81c730c304e7bad,4,,,,,,basket,,,,,,,,,,,5,1,0,25,25,45,1,,,,,,,,,,,,,,,,,,,,,,,,,,,,,,,,,,,,,,,,,,,,,,,,,,,,,,,,,,,,,,,,,,,,,,
,,?,0.00169,0,,,,,,stimuli/images/PICTURE_340.png,VALLEY,5efa8a9b3080998d5ea3fc87,21/01/1994,2020-07-08_16h16.18.986,proactive,2020.1.2,Win32,60,5f035e5afe130c270d6ae6dd,5f05e31da81c730c304e7bad,4,,,,,,mirror,,,,,,,,,,,6,1,0,26,26,54,1,,,,,,,,,,,,,,,,,,,,,,,,,,,,,,,,,,,,,,,,,,,,,,,,,,,,,,,,,,,,,,,,,,,,,,
,,RIVER,2.89916,1,,,,,,stimuli/images/PICTURE_297.png,RIVER,5efa8a9b3080998d5ea3fc87,21/01/1994,2020-07-08_16h16.18.986,proactive,2020.1.2,Win32,60,5f035e5afe130c270d6ae6dd,5f05e31da81c730c304e7bad,4,,,,,,aeroplane,,,,,,,,,,,4,1,0,27,27,39,1,,,,,,,,,,,,,,,,,,,,,,,,,,,,,,,,,,,,,,,,,,,,,,,,,,,,,,,,,,,,,,,,,,,,,,
,,?,0.002685,0,,,,,,stimuli/images/PICTURE_147.png,WOMEN,5efa8a9b3080998d5ea3fc87,21/01/1994,2020-07-08_16h16.18.986,proactive,2020.1.2,Win32,60,5f035e5afe130c270d6ae6dd,5f05e31da81c730c304e7bad,4,,,,,,hanger,,,,,,,,,,,1,1,0,28,28,7,1,,,,,,,,,,,,,,,,,,,,,,,,,,,,,,,,,,,,,,,,,,,,,,,,,,,,,,,,,,,,,,,,,,,,,,
,,?,0.00143,0,,,,,,stimuli/images/PICTURE_685.png,PENNY,5efa8a9b3080998d5ea3fc87,21/01/1994,2020-07-08_16h16.18.986,proactive,2020.1.2,Win32,60,5f035e5afe130c270d6ae6dd,5f05e31da81c730c304e7bad,4,,,,,,goose,,,,,,,,,,,1,1,0,29,29,4,1,,,,,,,,,,,,,,,,,,,,,,,,,,,,,,,,,,,,,,,,,,,,,,,,,,,,,,,,,,,,,,,,,,,,,,
,,?,0.001425,0,,,,,,stimuli/images/PICTURE_677.png,APPLE,5efa8a9b3080998d5ea3fc87,21/01/1994,2020-07-08_16h16.18.986,proactive,2020.1.2,Win32,60,5f035e5afe130c270d6ae6dd,5f05e31da81c730c304e7bad,4,,,,,,map,,,,,,,,,,,5,1,0,30,30,43,1,,,,,,,,,,,,,,,,,,,,,,,,,,,,,,,,,,,,,,,,,,,,,,,,,,,,,,,,,,,,,,,,,,,,,,
,,?,0.001505,0,,,,,,stimuli/images/PICTURE_32.png,PILLS,5efa8a9b3080998d5ea3fc87,21/01/1994,2020-07-08_16h16.18.986,proactive,2020.1.2,Win32,60,5f035e5afe130c270d6ae6dd,5f05e31da81c730c304e7bad,4,,,,,,crown,,,,,,,,,,,2,1,0,31,31,18,1,,,,,,,,,,,,,,,,,,,,,,,,,,,,,,,,,,,,,,,,,,,,,,,,,,,,,,,,,,,,,,,,,,,,,,
,,?,0.00158,0,,,,,,stimuli/images/PICTURE_85.png,TOILET,5efa8a9b3080998d5ea3fc87,21/01/1994,2020-07-08_16h16.18.986,proactive,2020.1.2,Win32,60,5f035e5afe130c270d6ae6dd,5f05e31da81c730c304e7bad,4,,,,,,diamond,,,,,,,,,,,5,1,0,32,32,48,1,,,,,,,,,,,,,,,,,,,,,,,,,,,,,,,,,,,,,,,,,,,,,,,,,,,,,,,,,,,,,,,,,,,,,,
,,?,0.001445,0,,,,,,stimuli/images/PICTURE_327.png,CASINO,5efa8a9b3080998d5ea3fc87,21/01/1994,2020-07-08_16h16.18.986,proactive,2020.1.2,Win32,60,5f035e5afe130c270d6ae6dd,5f05e31da81c730c304e7bad,4,,,,,,helmet,,,,,,,,,,,3,1,0,33,33,20,1,,,,,,,,,,,,,,,,,,,,,,,,,,,,,,,,,,,,,,,,,,,,,,,,,,,,,,,,,,,,,,,,,,,,,,
,,?,0.00116,0,,,,,,stimuli/images/PICTURE_654.png,MONTH,5efa8a9b3080998d5ea3fc87,21/01/1994,2020-07-08_16h16.18.986,proactive,2020.1.2,Win32,60,5f035e5afe130c270d6ae6dd,5f05e31da81c730c304e7bad,4,,,,,,pencil,,,,,,,,,,,3,1,0,34,34,29,1,,,,,,,,,,,,,,,,,,,,,,,,,,,,,,,,,,,,,,,,,,,,,,,,,,,,,,,,,,,,,,,,,,,,,,
,,?,0.00129,0,,,,,,stimuli/images/PICTURE_403.png,RIVER,5efa8a9b3080998d5ea3fc87,21/01/1994,2020-07-08_16h16.18.986,proactive,2020.1.2,Win32,60,5f035e5afe130c270d6ae6dd,5f05e31da81c730c304e7bad,4,,,,,,cathedral,,,,,,,,,,,5,1,0,35,35,40,1,,,,,,,,,,,,,,,,,,,,,,,,,,,,,,,,,,,,,,,,,,,,,,,,,,,,,,,,,,,,,,,,,,,,,,
,,?,0.000735,0,,,,,,stimuli/images/PICTURE_564.png,BATH,5efa8a9b3080998d5ea3fc87,21/01/1994,2020-07-08_16h16.18.986,proactive,2020.1.2,Win32,60,5f035e5afe130c270d6ae6dd,5f05e31da81c730c304e7bad,4,,,,,,spoon,,,,,,,,,,,3,1,0,36,36,26,1,,,,,,,,,,,,,,,,,,,,,,,,,,,,,,,,,,,,,,,,,,,,,,,,,,,,,,,,,,,,,,,,,,,,,,
,,?,0.00074,0,,,,,,stimuli/images/PICTURE_383.png,WRITER,5efa8a9b3080998d5ea3fc87,21/01/1994,2020-07-08_16h16.18.986,proactive,2020.1.2,Win32,60,5f035e5afe130c270d6ae6dd,5f05e31da81c730c304e7bad,4,,,,,,coin,,,,,,,,,,,3,1,0,37,37,28,1,,,,,,,,,,,,,,,,,,,,,,,,,,,,,,,,,,,,,,,,,,,,,,,,,,,,,,,,,,,,,,,,,,,,,,
,,?,0.000795,0,,,,,,stimuli/images/PICTURE_95.png,BOYS,5efa8a9b3080998d5ea3fc87,21/01/1994,2020-07-08_16h16.18.986,proactive,2020.1.2,Win32,60,5f035e5afe130c270d6ae6dd,5f05e31da81c730c304e7bad,4,,,,,,suitcase,,,,,,,,,,,1,1,0,38,38,1,1,,,,,,,,,,,,,,,,,,,,,,,,,,,,,,,,,,,,,,,,,,,,,,,,,,,,,,,,,,,,,,,,,,,,,,
,,ROOF,4.329355,1,,,,,,stimuli/images/PICTURE_68.png,ROOF,5efa8a9b3080998d5ea3fc87,21/01/1994,2020-07-08_16h16.18.986,proactive,2020.1.2,Win32,60,5f035e5afe130c270d6ae6dd,5f05e31da81c730c304e7bad,4,,,,,,candle,,,,,,,,,,,4,1,0,39,39,38,1,,,,,,,,,,,,,,,,,,,,,,,,,,,,,,,,,,,,,,,,,,,,,,,,,,,,,,,,,,,,,,,,,,,,,,
,,LETTER,7.044795,0,,,,,,stimuli/images/PICTURE_403.png,WRITER,5efa8a9b3080998d5ea3fc87,21/01/1994,2020-07-08_16h16.18.986,proactive,2020.1.2,Win32,60,5f035e5afe130c270d6ae6dd,5f05e31da81c730c304e7bad,4,,,,,,cathedral,,,,,,,,,,,4,1,0,40,40,31,1,,,,,,,,,,,,,,,,,,,,,,,,,,,,,,,,,,,,,,,,,,,,,,,,,,,,,,,,,,,,,,,,,,,,,,
,,?,0.00201,0,,,,,,stimuli/images/PICTURE_504.png,COPS,5efa8a9b3080998d5ea3fc87,21/01/1994,2020-07-08_16h16.18.986,proactive,2020.1.2,Win32,60,5f035e5afe130c270d6ae6dd,5f05e31da81c730c304e7bad,4,,,,,,wheel,,,,,,,,,,,6,1,0,41,41,52,1,,,,,,,,,,,,,,,,,,,,,,,,,,,,,,,,,,,,,,,,,,,,,,,,,,,,,,,,,,,,,,,,,,,,,,
,,?,0.00138,0,,,,,,stimuli/images/PICTURE_203.png,NIGHT,5efa8a9b3080998d5ea3fc87,21/01/1994,2020-07-08_16h16.18.986,proactive,2020.1.2,Win32,60,5f035e5afe130c270d6ae6dd,5f05e31da81c730c304e7bad,4,,,,,,cap,,,,,,,,,,,1,1,0,42,42,2,1,,,,,,,,,,,,,,,,,,,,,,,,,,,,,,,,,,,,,,,,,,,,,,,,,,,,,,,,,,,,,,,,,,,,,,
,,?,0.001345,0,,,,,,stimuli/images/PICTURE_68.png,MILE,5efa8a9b3080998d5ea3fc87,21/01/1994,2020-07-08_16h16.18.986,proactive,2020.1.2,Win32,60,5f035e5afe130c270d6ae6dd,5f05e31da81c730c304e7bad,4,,,,,,candle,,,,,,,,,,,6,1,0,43,43,51,1,,,,,,,,,,,,,,,,,,,,,,,,,,,,,,,,,,,,,,,,,,,,,,,,,,,,,,,,,,,,,,,,,,,,,,
,,?,0.001505,0,,,,,,stimuli/images/PICTURE_339.png,CLIENT,5efa8a9b3080998d5ea3fc87,21/01/1994,2020-07-08_16h16.18.986,proactive,2020.1.2,Win32,60,5f035e5afe130c270d6ae6dd,5f05e31da81c730c304e7bad,4,,,,,,backpack,,,,,,,,,,,2,1,0,44,44,11,1,,,,,,,,,,,,,,,,,,,,,,,,,,,,,,,,,,,,,,,,,,,,,,,,,,,,,,,,,,,,,,,,,,,,,,
,,?,0.00164,0,,,,,,stimuli/images/PICTURE_108.png,POLICY,5efa8a9b3080998d5ea3fc87,21/01/1994,2020-07-08_16h16.18.986,proactive,2020.1.2,Win32,60,5f035e5afe130c270d6ae6dd,5f05e31da81c730c304e7bad,4,,,,,,calendar,,,,,,,,,,,3,1,0,45,45,22,1,,,,,,,,,,,,,,,,,,,,,,,,,,,,,,,,,,,,,,,,,,,,,,,,,,,,,,,,,,,,,,,,,,,,,,
,,?,0.001355,0,,,,,,stimuli/images/PICTURE_667.png,RIVER,5efa8a9b3080998d5ea3fc87,21/01/1994,2020-07-08_16h16.18.986,proactive,2020.1.2,Win32,60,5f035e5afe130c270d6ae6dd,5f05e31da81c730c304e7bad,4,,,,,,daisy,,,,,,,,,,,2,1,0,46,46,10,1,,,,,,,,,,,,,,,,,,,,,,,,,,,,,,,,,,,,,,,,,,,,,,,,,,,,,,,,,,,,,,,,,,,,,,
,,?,0.001345,0,,,,,,stimuli/images/PICTURE_233.png,LOTS,5efa8a9b3080998d5ea3fc87,21/01/1994,2020-07-08_16h16.18.986,proactive,2020.1.2,Win32,60,5f035e5afe130c270d6ae6dd,5f05e31da81c730c304e7bad,4,,,,,,salt,,,,,,,,,,,5,1,0,47,47,42,1,,,,,,,,,,,,,,,,,,,,,,,,,,,,,,,,,,,,,,,,,,,,,,,,,,,,,,,,,,,,,,,,,,,,,,
,,?,0.00135,0,,,,,,stimuli/images/PICTURE_469.png,AGENT,5efa8a9b3080998d5ea3fc87,21/01/1994,2020-07-08_16h16.18.986,proactive,2020.1.2,Win32,60,5f035e5afe130c270d6ae6dd,5f05e31da81c730c304e7bad,4,,,,,,stool,,,,,,,,,,,2,1,0,48,48,16,1,,,,,,,,,,,,,,,,,,,,,,,,,,,,,,,,,,,,,,,,,,,,,,,,,,,,,,,,,,,,,,,,,,,,,,
,,?,0.0027,0,,,,,,stimuli/images/PICTURE_327.png,SERIES,5efa8a9b3080998d5ea3fc87,21/01/1994,2020-07-08_16h16.18.986,proactive,2020.1.2,Win32,60,5f035e5afe130c270d6ae6dd,5f05e31da81c730c304e7bad,4,,,,,,helmet,,,,,,,,,,,1,1,0,49,49,3,1,,,,,,,,,,,,,,,,,,,,,,,,,,,,,,,,,,,,,,,,,,,,,,,,,,,,,,,,,,,,,,,,,,,,,,
,,FAMILY,6.52078,0,,,,,,stimuli/images/PICTURE_32.png,KIND,5efa8a9b3080998d5ea3fc87,21/01/1994,2020-07-08_16h16.18.986,proactive,2020.1.2,Win32,60,5f035e5afe130c270d6ae6dd,5f05e31da81c730c304e7bad,4,,,,,,crown,,,,,,,,,,,4,1,0,50,50,35,1,,,,,,,,,,,,,,,,,,,,,,,,,,,,,,,,,,,,,,,,,,,,,,,,,,,,,,,,,,,,,,,,,,,,,,
,,?,0.001695,0,,,,,,stimuli/images/PICTURE_750.png,HOTEL,5efa8a9b3080998d5ea3fc87,21/01/1994,2020-07-08_16h16.18.986,proactive,2020.1.2,Win32,60,5f035e5afe130c270d6ae6dd,5f05e31da81c730c304e7bad,4,,,,,,kettle,,,,,,,,,,,3,1,0,51,51,27,1,,,,,,,,,,,,,,,,,,,,,,,,,,,,,,,,,,,,,,,,,,,,,,,,,,,,,,,,,,,,,,,,,,,,,,
,,MEMORY,9.621885,0,,,,,,stimuli/images/PICTURE_57.png,MOMENT,5efa8a9b3080998d5ea3fc87,21/01/1994,2020-07-08_16h16.18.986,proactive,2020.1.2,Win32,60,5f035e5afe130c270d6ae6dd,5f05e31da81c730c304e7bad,4,,,,,,stamp,,,,,,,,,,,4,1,0,52,52,37,1,,,,,,,,,,,,,,,,,,,,,,,,,,,,,,,,,,,,,,,,,,,,,,,,,,,,,,,,,,,,,,,,,,,,,,
,,?,0.00168,0,,,,,,stimuli/images/PICTURE_296.png,LOTS,5efa8a9b3080998d5ea3fc87,21/01/1994,2020-07-08_16h16.18.986,proactive,2020.1.2,Win32,60,5f035e5afe130c270d6ae6dd,5f05e31da81c730c304e7bad,4,,,,,,bolt,,,,,,,,,,,1,1,0,53,53,9,1,,,,,,,,,,,,,,,,,,,,,,,,,,,,,,,,,,,,,,,,,,,,,,,,,,,,,,,,,,,,,,,,,,,,,,
,,?,0.00136,0,,,,,,stimuli/images/PICTURE_380.png,HONEY,5efa8a9b3080998d5ea3fc87,21/01/1994,2020-07-08_16h16.18.986,proactive,2020.1.2,Win32,60,5f035e5afe130c270d6ae6dd,5f05e31da81c730c304e7bad,4,,,,,,gorilla,,,,,,,,,,,2,1,0,54,54,19,1,,,,,,,,,,,,,,,,,,,,,,,,,,,,,,,,,,,,,,,,,,,,,,,,,,,,,,,,,,,,,,,,,,,,,,
,,?,0.00139,0,,,,,,stimuli/images/PICTURE_296.png,LIFE,5efa8a9b3080998d5ea3fc87,21/01/1994,2020-07-08_16h16.18.986,proactive,2020.1.2,Win32,60,5f035e5afe130c270d6ae6dd,5f05e31da81c730c304e7bad,4,,,,,,bolt,,,,,,,,,,,6,1,0,55,55,57,1,,,,,,,,,,,,,,,,,,,,,,,,,,,,,,,,,,,,,,,,,,,,,,,,,,,,,,,,,,,,,,,,,,,,,,
,,?,0.0017,0,,,,,,stimuli/images/PICTURE_744.png,WEAPON,5efa8a9b3080998d5ea3fc87,21/01/1994,2020-07-08_16h16.18.986,proactive,2020.1.2,Win32,60,5f035e5afe130c270d6ae6dd,5f05e31da81c730c304e7bad,4,,,,,,ring,,,,,,,,,,,6,1,0,56,56,50,1,,,,,,,,,,,,,,,,,,,,,,,,,,,,,,,,,,,,,,,,,,,,,,,,,,,,,,,,,,,,,,,,,,,,,,
,,?,0.00112,0,,,,,,stimuli/images/PICTURE_675.png,SALE,5efa8a9b3080998d5ea3fc87,21/01/1994,2020-07-08_16h16.18.986,proactive,2020.1.2,Win32,60,5f035e5afe130c270d6ae6dd,5f05e31da81c730c304e7bad,4,,,,,,windmill,,,,,,,,,,,5,1,0,57,57,47,1,,,,,,,,,,,,,,,,,,,,,,,,,,,,,,,,,,,,,,,,,,,,,,,,,,,,,,,,,,,,,,,,,,,,,,
,,?,0.00089,0,,,,,,stimuli/images/PICTURE_108.png,FLIGHT,5efa8a9b3080998d5ea3fc87,21/01/1994,2020-07-08_16h16.18.986,proactive,2020.1.2,Win32,60,5f035e5afe130c270d6ae6dd,5f05e31da81c730c304e7bad,4,,,,,,calendar,,,,,,,,,,,6,1,0,58,58,59,1,,,,,,,,,,,,,,,,,,,,,,,,,,,,,,,,,,,,,,,,,,,,,,,,,,,,,,,,,,,,,,,,,,,,,,
,,?,0.000655,0,,,,,,stimuli/images/PICTURE_380.png,CANDY,5efa8a9b3080998d5ea3fc87,21/01/1994,2020-07-08_16h16.18.986,proactive,2020.1.2,Win32,60,5f035e5afe130c270d6ae6dd,5f05e31da81c730c304e7bad,4,,,,,,gorilla,,,,,,,,,,,1,1,0,59,59,0,1,,,,,,,,,,,,,,,,,,,,,,,,,,,,,,,,,,,,,,,,,,,,,,,,,,,,,,,,,,,,,,,,,,,,,,
,,,,,,,,,,,,5efa8a9b3080998d5ea3fc87,21/01/1994,2020-07-08_16h16.18.986,proactive,2020.1.2,Win32,60,5f035e5afe130c270d6ae6dd,5f05e31da81c730c304e7bad,4,,,,,,,,,,,,,,,,,,,,,,,,0,0,0,1,1,stimuli/learn-block2.csv,,,,,,,,,,,,,,,,,,,,,,,,,,,,,,,,,,,,,,,,,,,,,,,,,,,,,,,,,,,,,,,,
,,,,,,,,,,stimuli/images/PICTURE_469.png,LETTER,5efa8a9b3080998d5ea3fc87,21/01/1994,2020-07-08_16h16.18.986,proactive,2020.1.2,Win32,60,5f035e5afe130c270d6ae6dd,5f05e31da81c730c304e7bad,4,,,,,,stool,,,,,,0,0,0,42,1,5,0,,,,,,,,,,,,,,,,,,,,,,,,,,,,,,,,,,,,,,,,,,,,,,,,,,,,,,,,,,,,,,,,,,,,,,,,,,,
,,,,,,,,,,stimuli/images/PICTURE_692.png,MONTH,5efa8a9b3080998d5ea3fc87,21/01/1994,2020-07-08_16h16.18.986,proactive,2020.1.2,Win32,60,5f035e5afe130c270d6ae6dd,5f05e31da81c730c304e7bad,4,,,,,,cherry,,,,,,0,1,1,16,1,2,0,,,,,,,,,,,,,,,,,,,,,,,,,,,,,,,,,,,,,,,,,,,,,,,,,,,,,,,,,,,,,,,,,,,,,,,,,,,
,,,,,,,,,,stimuli/images/PICTURE_233.png,WOMEN,5efa8a9b3080998d5ea3fc87,21/01/1994,2020-07-08_16h16.18.986,proactive,2020.1.2,Win32,60,5f035e5afe130c270d6ae6dd,5f05e31da81c730c304e7bad,4,,,,,,salt,,,,,,0,2,2,38,1,4,0,,,,,,,,,,,,,,,,,,,,,,,,,,,,,,,,,,,,,,,,,,,,,,,,,,,,,,,,,,,,,,,,,,,,,,,,,,,
,,,,,,,,,,stimuli/images/PICTURE_208.png,THING,5efa8a9b3080998d5ea3fc87,21/01/1994,2020-07-08_16h16.18.986,proactive,2020.1.2,Win32,60,5f035e5afe130c270d6ae6dd,5f05e31da81c730c304e7bad,4,,,,,,microphone,,,,,,0,3,3,47,1,5,0,,,,,,,,,,,,,,,,,,,,,,,,,,,,,,,,,,,,,,,,,,,,,,,,,,,,,,,,,,,,,,,,,,,,,,,,,,,
,,,,,,,,,,stimuli/images/PICTURE_233.png,IDEAS,5efa8a9b3080998d5ea3fc87,21/01/1994,2020-07-08_16h16.18.986,proactive,2020.1.2,Win32,60,5f035e5afe130c270d6ae6dd,5f05e31da81c730c304e7bad,4,,,,,,salt,,,,,,0,4,4,28,1,3,0,,,,,,,,,,,,,,,,,,,,,,,,,,,,,,,,,,,,,,,,,,,,,,,,,,,,,,,,,,,,,,,,,,,,,,,,,,,
,,,,,,,,,,stimuli/images/PICTURE_203.png,ARTIST,5efa8a9b3080998d5ea3fc87,21/01/1994,2020-07-08_16h16.18.986,proactive,2020.1.2,Win32,60,5f035e5afe130c270d6ae6dd,5f05e31da81c730c304e7bad,4,,,,,,cap,,,,,,0,5,5,26,1,3,0,,,,,,,,,,,,,,,,,,,,,,,,,,,,,,,,,,,,,,,,,,,,,,,,,,,,,,,,,,,,,,,,,,,,,,,,,,,
,,,,,,,,,,stimuli/images/PICTURE_311.png,FRIEND,5efa8a9b3080998d5ea3fc87,21/01/1994,2020-07-08_16h16.18.986,proactive,2020.1.2,Win32,60,5f035e5afe130c270d6ae6dd,5f05e31da81c730c304e7bad,4,,,,,,razor,,,,,,0,6,6,34,1,4,0,,,,,,,,,,,,,,,,,,,,,,,,,,,,,,,,,,,,,,,,,,,,,,,,,,,,,,,,,,,,,,,,,,,,,,,,,,,
,,,,,,,,,,stimuli/images/PICTURE_654.png,VALLEY,5efa8a9b3080998d5ea3fc87,21/01/1994,2020-07-08_16h16.18.986,proactive,2020.1.2,Win32,60,5f035e5afe130c270d6ae6dd,5f05e31da81c730c304e7bad,4,,,,,,pencil,,,,,,0,7,7,1,1,1,0,,,,,,,,,,,,,,,,,,,,,,,,,,,,,,,,,,,,,,,,,,,,,,,,,,,,,,,,,,,,,,,,,,,,,,,,,,,
,,,,,,,,,,stimuli/images/PICTURE_348.png,SPEECH,5efa8a9b3080998d5ea3fc87,21/01/1994,2020-07-08_16h16.18.986,proactive,2020.1.2,Win32,60,5f035e5afe130c270d6ae6dd,5f05e31da81c730c304e7bad,4,,,,,,pepper,,,,,,0,8,8,20,1,3,0,,,,,,,,,,,,,,,,,,,,,,,,,,,,,,,,,,,,,,,,,,,,,,,,,,,,,,,,,,,,,,,,,,,,,,,,,,,
,,,,,,,,,,stimuli/images/PICTURE_380.png,DEATH,5efa8a9b3080998d5ea3fc87,21/01/1994,2020-07-08_16h16.18.986,proactive,2020.1.2,Win32,60,5f035e5afe130c270d6ae6dd,5f05e31da81c730c304e7bad,4,,,,,,gorilla,,,,,,0,9,9,49,1,5,0,,,,,,,,,,,,,,,,,,,,,,,,,,,,,,,,,,,,,,,,,,,,,,,,,,,,,,,,,,,,,,,,,,,,,,,,,,,
,,,,,,,,,,stimuli/images/PICTURE_744.png,SYSTEM,5efa8a9b3080998d5ea3fc87,21/01/1994,2020-07-08_16h16.18.986,proactive,2020.1.2,Win32,60,5f035e5afe130c270d6ae6dd,5f05e31da81c730c304e7bad,4,,,,,,ring,,,,,,0,10,10,43,1,5,0,,,,,,,,,,,,,,,,,,,,,,,,,,,,,,,,,,,,,,,,,,,,,,,,,,,,,,,,,,,,,,,,,,,,,,,,,,,
,,,,,,,,,,stimuli/images/PICTURE_208.png,MONTH,5efa8a9b3080998d5ea3fc87,21/01/1994,2020-07-08_16h16.18.986,proactive,2020.1.2,Win32,60,5f035e5afe130c270d6ae6dd,5f05e31da81c730c304e7bad,4,,,,,,microphone,,,,,,0,11,11,53,1,6,0,,,,,,,,,,,,,,,,,,,,,,,,,,,,,,,,,,,,,,,,,,,,,,,,,,,,,,,,,,,,,,,,,,,,,,,,,,,
,,,,,,,,,,stimuli/images/PICTURE_255.png,AREA,5efa8a9b3080998d5ea3fc87,21/01/1994,2020-07-08_16h16.18.986,proactive,2020.1.2,Win32,60,5f035e5afe130c270d6ae6dd,5f05e31da81c730c304e7bad,4,,,,,,shovel,,,,,,0,12,12,22,1,3,0,,,,,,,,,,,,,,,,,,,,,,,,,,,,,,,,,,,,,,,,,,,,,,,,,,,,,,,,,,,,,,,,,,,,,,,,,,,
,,,,,,,,,,stimuli/images/PICTURE_467.png,DEMON,5efa8a9b3080998d5ea3fc87,21/01/1994,2020-07-08_16h16.18.986,proactive,2020.1.2,Win32,60,5f035e5afe130c270d6ae6dd,5f05e31da81c730c304e7bad,4,,,,,,peg,,,,,,0,13,13,23,1,3,0,,,,,,,,,,,,,,,,,,,,,,,,,,,,,,,,,,,,,,,,,,,,,,,,,,,,,,,,,,,,,,,,,,,,,,,,,,,
,,,,,,,,,,stimuli/images/PICTURE_667.png,BATH,5efa8a9b3080998d5ea3fc87,21/01/1994,2020-07-08_16h16.18.986,proactive,2020.1.2,Win32,60,5f035e5afe130c270d6ae6dd,5f05e31da81c730c304e7bad,4,,,,,,daisy,,,,,,0,14,14,4,1,1,0,,,,,,,,,,,,,,,,,,,,,,,,,,,,,,,,,,,,,,,,,,,,,,,,,,,,,,,,,,,,,,,,,,,,,,,,,,,
,,,,,,,,,,stimuli/images/PICTURE_744.png,SAKE,5efa8a9b3080998d5ea3fc87,21/01/1994,2020-07-08_16h16.18.986,proactive,2020.1.2,Win32,60,5f035e5afe130c270d6ae6dd,5f05e31da81c730c304e7bad,4,,,,,,ring,,,,,,0,15,15,17,1,2,0,,,,,,,,,,,,,,,,,,,,,,,,,,,,,,,,,,,,,,,,,,,,,,,,,,,,,,,,,,,,,,,,,,,,,,,,,,,
,,,,,,,,,,stimuli/images/PICTURE_488.png,STYLE,5efa8a9b3080998d5ea3fc87,21/01/1994,2020-07-08_16h16.18.986,proactive,2020.1.2,Win32,60,5f035e5afe130c270d6ae6dd,5f05e31da81c730c304e7bad,4,,,,,,sun,,,,,,0,16,16,33,1,4,0,,,,,,,,,,,,,,,,,,,,,,,,,,,,,,,,,,,,,,,,,,,,,,,,,,,,,,,,,,,,,,,,,,,,,,,,,,,
,,,,,,,,,,stimuli/images/PICTURE_453.png,PLENTY,5efa8a9b3080998d5ea3fc87,21/01/1994,2020-07-08_16h16.18.986,proactive,2020.1.2,Win32,60,5f035e5afe130c270d6ae6dd,5f05e31da81c730c304e7bad,4,,,,,,scissors,,,,,,0,17,17,56,1,6,0,,,,,,,,,,,,,,,,,,,,,,,,,,,,,,,,,,,,,,,,,,,,,,,,,,,,,,,,,,,,,,,,,,,,,,,,,,,
,,,,,,,,,,stimuli/images/PICTURE_160.png,FEET,5efa8a9b3080998d5ea3fc87,21/01/1994,2020-07-08_16h16.18.986,proactive,2020.1.2,Win32,60,5f035e5afe130c270d6ae6dd,5f05e31da81c730c304e7bad,4,,,,,,wheelbarrow,,,,,,0,18,18,58,1,6,0,,,,,,,,,,,,,,,,,,,,,,,,,,,,,,,,,,,,,,,,,,,,,,,,,,,,,,,,,,,,,,,,,,,,,,,,,,,
,,,,,,,,,,stimuli/images/PICTURE_302.png,FAMILY,5efa8a9b3080998d5ea3fc87,21/01/1994,2020-07-08_16h16.18.986,proactive,2020.1.2,Win32,60,5f035e5afe130c270d6ae6dd,5f05e31da81c730c304e7bad,4,,,,,,taxi,,,,,,0,19,19,18,1,2,0,,,,,,,,,,,,,,,,,,,,,,,,,,,,,,,,,,,,,,,,,,,,,,,,,,,,,,,,,,,,,,,,,,,,,,,,,,,
,,,,,,,,,,stimuli/images/PICTURE_314.png,GODS,5efa8a9b3080998d5ea3fc87,21/01/1994,2020-07-08_16h16.18.986,proactive,2020.1.2,Win32,60,5f035e5afe130c270d6ae6dd,5f05e31da81c730c304e7bad,4,,,,,,perfume,,,,,,0,20,20,11,1,2,0,,,,,,,,,,,,,,,,,,,,,,,,,,,,,,,,,,,,,,,,,,,,,,,,,,,,,,,,,,,,,,,,,,,,,,,,,,,
,,,,,,,,,,stimuli/images/PICTURE_677.png,MILE,5efa8a9b3080998d5ea3fc87,21/01/1994,2020-07-08_16h16.18.986,proactive,2020.1.2,Win32,60,5f035e5afe130c270d6ae6dd,5f05e31da81c730c304e7bad,4,,,,,,map,,,,,,0,21,21,30,1,4,0,,,,,,,,,,,,,,,,,,,,,,,,,,,,,,,,,,,,,,,,,,,,,,,,,,,,,,,,,,,,,,,,,,,,,,,,,,,
,,,,,,,,,,stimuli/images/PICTURE_491.png,ROOF,5efa8a9b3080998d5ea3fc87,21/01/1994,2020-07-08_16h16.18.986,proactive,2020.1.2,Win32,60,5f035e5afe130c270d6ae6dd,5f05e31da81c730c304e7bad,4,,,,,,rug,,,,,,0,22,22,24,1,3,0,,,,,,,,,,,,,,,,,,,,,,,,,,,,,,,,,,,,,,,,,,,,,,,,,,,,,,,,,,,,,,,,,,,,,,,,,,,
,,,,,,,,,,stimuli/images/PICTURE_147.png,MOMENT,5efa8a9b3080998d5ea3fc87,21/01/1994,2020-07-08_16h16.18.986,proactive,2020.1.2,Win32,60,5f035e5afe130c270d6ae6dd,5f05e31da81c730c304e7bad,4,,,,,,hanger,,,,,,0,23,23,51,1,6,0,,,,,,,,,,,,,,,,,,,,,,,,,,,,,,,,,,,,,,,,,,,,,,,,,,,,,,,,,,,,,,,,,,,,,,,,,,,
,,,,,,,,,,stimuli/images/PICTURE_380.png,PHOTO,5efa8a9b3080998d5ea3fc87,21/01/1994,2020-07-08_16h16.18.986,proactive,2020.1.2,Win32,60,5f035e5afe130c270d6ae6dd,5f05e31da81c730c304e7bad,4,,,,,,gorilla,,,,,,0,24,24,52,1,6,0,,,,,,,,,,,,,,,,,,,,,,,,,,,,,,,,,,,,,,,,,,,,,,,,,,,,,,,,,,,,,,,,,,,,,,,,,,,
,,,,,,,,,,stimuli/images/PICTURE_208.png,LOTS,5efa8a9b3080998d5ea3fc87,21/01/1994,2020-07-08_16h16.18.986,proactive,2020.1.2,Win32,60,5f035e5afe130c270d6ae6dd,5f05e31da81c730c304e7bad,4,,,,,,microphone,,,,,,0,25,25,10,1,2,0,,,,,,,,,,,,,,,,,,,,,,,,,,,,,,,,,,,,,,,,,,,,,,,,,,,,,,,,,,,,,,,,,,,,,,,,,,,
,,,,,,,,,,stimuli/images/PICTURE_453.png,DUDE,5efa8a9b3080998d5ea3fc87,21/01/1994,2020-07-08_16h16.18.986,proactive,2020.1.2,Win32,60,5f035e5afe130c270d6ae6dd,5f05e31da81c730c304e7bad,4,,,,,,scissors,,,,,,0,26,26,27,1,3,0,,,,,,,,,,,,,,,,,,,,,,,,,,,,,,,,,,,,,,,,,,,,,,,,,,,,,,,,,,,,,,,,,,,,,,,,,,,
,,,,,,,,,,stimuli/images/PICTURE_160.png,LEADER,5efa8a9b3080998d5ea3fc87,21/01/1994,2020-07-08_16h16.18.986,proactive,2020.1.2,Win32,60,5f035e5afe130c270d6ae6dd,5f05e31da81c730c304e7bad,4,,,,,,wheelbarrow,,,,,,0,27,27,3,1,1,0,,,,,,,,,,,,,,,,,,,,,,,,,,,,,,,,,,,,,,,,,,,,,,,,,,,,,,,,,,,,,,,,,,,,,,,,,,,
,,,,,,,,,,stimuli/images/PICTURE_688.png,WOMEN,5efa8a9b3080998d5ea3fc87,21/01/1994,2020-07-08_16h16.18.986,proactive,2020.1.2,Win32,60,5f035e5afe130c270d6ae6dd,5f05e31da81c730c304e7bad,4,,,,,,runner,,,,,,0,28,28,14,1,2,0,,,,,,,,,,,,,,,,,,,,,,,,,,,,,,,,,,,,,,,,,,,,,,,,,,,,,,,,,,,,,,,,,,,,,,,,,,,
,,,,,,,,,,stimuli/images/PICTURE_487.png,FLIGHT,5efa8a9b3080998d5ea3fc87,21/01/1994,2020-07-08_16h16.18.986,proactive,2020.1.2,Win32,60,5f035e5afe130c270d6ae6dd,5f05e31da81c730c304e7bad,4,,,,,,basket,,,,,,0,29,29,9,1,1,0,,,,,,,,,,,,,,,,,,,,,,,,,,,,,,,,,,,,,,,,,,,,,,,,,,,,,,,,,,,,,,,,,,,,,,,,,,,
,,,,,,,,,,stimuli/images/PICTURE_688.png,CASINO,5efa8a9b3080998d5ea3fc87,21/01/1994,2020-07-08_16h16.18.986,proactive,2020.1.2,Win32,60,5f035e5afe130c270d6ae6dd,5f05e31da81c730c304e7bad,4,,,,,,runner,,,,,,0,30,30,2,1,1,0,,,,,,,,,,,,,,,,,,,,,,,,,,,,,,,,,,,,,,,,,,,,,,,,,,,,,,,,,,,,,,,,,,,,,,,,,,,
,,,,,,,,,,stimuli/images/PICTURE_504.png,BODY,5efa8a9b3080998d5ea3fc87,21/01/1994,2020-07-08_16h16.18.986,proactive,2020.1.2,Win32,60,5f035e5afe130c270d6ae6dd,5f05e31da81c730c304e7bad,4,,,,,,wheel,,,,,,0,31,31,8,1,1,0,,,,,,,,,,,,,,,,,,,,,,,,,,,,,,,,,,,,,,,,,,,,,,,,,,,,,,,,,,,,,,,,,,,,,,,,,,,
,,,,,,,,,,stimuli/images/PICTURE_311.png,BEAUTY,5efa8a9b3080998d5ea3fc87,21/01/1994,2020-07-08_16h16.18.986,proactive,2020.1.2,Win32,60,5f035e5afe130c270d6ae6dd,5f05e31da81c730c304e7bad,4,,,,,,razor,,,,,,0,32,32,13,1,2,0,,,,,,,,,,,,,,,,,,,,,,,,,,,,,,,,,,,,,,,,,,,,,,,,,,,,,,,,,,,,,,,,,,,,,,,,,,,
,,,,,,,,,,stimuli/images/PICTURE_314.png,SAKE,5efa8a9b3080998d5ea3fc87,21/01/1994,2020-07-08_16h16.18.986,proactive,2020.1.2,Win32,60,5f035e5afe130c270d6ae6dd,5f05e31da81c730c304e7bad,4,,,,,,perfume,,,,,,0,33,33,7,1,1,0,,,,,,,,,,,,,,,,,,,,,,,,,,,,,,,,,,,,,,,,,,,,,,,,,,,,,,,,,,,,,,,,,,,,,,,,,,,
,,,,,,,,,,stimuli/images/PICTURE_308.png,KIND,5efa8a9b3080998d5ea3fc87,21/01/1994,2020-07-08_16h16.18.986,proactive,2020.1.2,Win32,60,5f035e5afe130c270d6ae6dd,5f05e31da81c730c304e7bad,4,,,,,,dice,,,,,,0,34,34,54,1,6,0,,,,,,,,,,,,,,,,,,,,,,,,,,,,,,,,,,,,,,,,,,,,,,,,,,,,,,,,,,,,,,,,,,,,,,,,,,,
,,,,,,,,,,stimuli/images/PICTURE_708.png,PENNY,5efa8a9b3080998d5ea3fc87,21/01/1994,2020-07-08_16h16.18.986,proactive,2020.1.2,Win32,60,5f035e5afe130c270d6ae6dd,5f05e31da81c730c304e7bad,4,,,,,,monkey,,,,,,0,35,35,31,1,4,0,,,,,,,,,,,,,,,,,,,,,,,,,,,,,,,,,,,,,,,,,,,,,,,,,,,,,,,,,,,,,,,,,,,,,,,,,,,
,,,,,,,,,,stimuli/images/PICTURE_85.png,THING,5efa8a9b3080998d5ea3fc87,21/01/1994,2020-07-08_16h16.18.986,proactive,2020.1.2,Win32,60,5f035e5afe130c270d6ae6dd,5f05e31da81c730c304e7bad,4,,,,,,diamond,,,,,,0,36,36,15,1,2,0,,,,,,,,,,,,,,,,,,,,,,,,,,,,,,,,,,,,,,,,,,,,,,,,,,,,,,,,,,,,,,,,,,,,,,,,,,,
,,,,,,,,,,stimuli/images/PICTURE_675.png,WEAPON,5efa8a9b3080998d5ea3fc87,21/01/1994,2020-07-08_16h16.18.986,proactive,2020.1.2,Win32,60,5f035e5afe130c270d6ae6dd,5f05e31da81c730c304e7bad,4,,,,,,windmill,,,,,,0,37,37,32,1,4,0,,,,,,,,,,,,,,,,,,,,,,,,,,,,,,,,,,,,,,,,,,,,,,,,,,,,,,,,,,,,,,,,,,,,,,,,,,,
,,,,,,,,,,stimuli/images/PICTURE_470.png,CASINO,5efa8a9b3080998d5ea3fc87,21/01/1994,2020-07-08_16h16.18.986,proactive,2020.1.2,Win32,60,5f035e5afe130c270d6ae6dd,5f05e31da81c730c304e7bad,4,,,,,,motorbike,,,,,,0,38,38,36,1,4,0,,,,,,,,,,,,,,,,,,,,,,,,,,,,,,,,,,,,,,,,,,,,,,,,,,,,,,,,,,,,,,,,,,,,,,,,,,,
,,,,,,,,,,stimuli/images/PICTURE_248.png,DOZEN,5efa8a9b3080998d5ea3fc87,21/01/1994,2020-07-08_16h16.18.986,proactive,2020.1.2,Win32,60,5f035e5afe130c270d6ae6dd,5f05e31da81c730c304e7bad,4,,,,,,cart,,,,,,0,39,39,39,1,4,0,,,,,,,,,,,,,,,,,,,,,,,,,,,,,,,,,,,,,,,,,,,,,,,,,,,,,,,,,,,,,,,,,,,,,,,,,,,
,,,,,,,,,,stimuli/images/PICTURE_491.png,WRITER,5efa8a9b3080998d5ea3fc87,21/01/1994,2020-07-08_16h16.18.986,proactive,2020.1.2,Win32,60,5f035e5afe130c270d6ae6dd,5f05e31da81c730c304e7bad,4,,,,,,rug,,,,,,0,40,40,57,1,6,0,,,,,,,,,,,,,,,,,,,,,,,,,,,,,,,,,,,,,,,,,,,,,,,,,,,,,,,,,,,,,,,,,,,,,,,,,,,
,,,,,,,,,,stimuli/images/PICTURE_285.png,ADVICE,5efa8a9b3080998d5ea3fc87,21/01/1994,2020-07-08_16h16.18.986,proactive,2020.1.2,Win32,60,5f035e5afe130c270d6ae6dd,5f05e31da81c730c304e7bad,4,,,,,,carrot,,,,,,0,41,41,12,1,2,0,,,,,,,,,,,,,,,,,,,,,,,,,,,,,,,,,,,,,,,,,,,,,,,,,,,,,,,,,,,,,,,,,,,,,,,,,,,
,,,,,,,,,,stimuli/images/PICTURE_327.png,BEAUTY,5efa8a9b3080998d5ea3fc87,21/01/1994,2020-07-08_16h16.18.986,proactive,2020.1.2,Win32,60,5f035e5afe130c270d6ae6dd,5f05e31da81c730c304e7bad,4,,,,,,helmet,,,,,,0,42,42,48,1,5,0,,,,,,,,,,,,,,,,,,,,,,,,,,,,,,,,,,,,,,,,,,,,,,,,,,,,,,,,,,,,,,,,,,,,,,,,,,,
,,,,,,,,,,stimuli/images/PICTURE_509.png,PHOTO,5efa8a9b3080998d5ea3fc87,21/01/1994,2020-07-08_16h16.18.986,proactive,2020.1.2,Win32,60,5f035e5afe130c270d6ae6dd,5f05e31da81c730c304e7bad,4,,,,,,telephone,,,,,,0,43,43,21,1,3,0,,,,,,,,,,,,,,,,,,,,,,,,,,,,,,,,,,,,,,,,,,,,,,,,,,,,,,,,,,,,,,,,,,,,,,,,,,,
,,,,,,,,,,stimuli/images/PICTURE_177.png,CARS,5efa8a9b3080998d5ea3fc87,21/01/1994,2020-07-08_16h16.18.986,proactive,2020.1.2,Win32,60,5f035e5afe130c270d6ae6dd,5f05e31da81c730c304e7bad,4,,,,,,mushroom,,,,,,0,44,44,35,1,4,0,,,,,,,,,,,,,,,,,,,,,,,,,,,,,,,,,,,,,,,,,,,,,,,,,,,,,,,,,,,,,,,,,,,,,,,,,,,
,,,,,,,,,,stimuli/images/PICTURE_32.png,JUNGLE,5efa8a9b3080998d5ea3fc87,21/01/1994,2020-07-08_16h16.18.986,proactive,2020.1.2,Win32,60,5f035e5afe130c270d6ae6dd,5f05e31da81c730c304e7bad,4,,,,,,crown,,,,,,0,45,45,45,1,5,0,,,,,,,,,,,,,,,,,,,,,,,,,,,,,,,,,,,,,,,,,,,,,,,,,,,,,,,,,,,,,,,,,,,,,,,,,,,
,,,,,,,,,,stimuli/images/PICTURE_95.png,STYLE,5efa8a9b3080998d5ea3fc87,21/01/1994,2020-07-08_16h16.18.986,proactive,2020.1.2,Win32,60,5f035e5afe130c270d6ae6dd,5f05e31da81c730c304e7bad,4,,,,,,suitcase,,,,,,0,46,46,25,1,3,0,,,,,,,,,,,,,,,,,,,,,,,,,,,,,,,,,,,,,,,,,,,,,,,,,,,,,,,,,,,,,,,,,,,,,,,,,,,
,,,,,,,,,,stimuli/images/PICTURE_151.png,GIRL,5efa8a9b3080998d5ea3fc87,21/01/1994,2020-07-08_16h16.18.986,proactive,2020.1.2,Win32,60,5f035e5afe130c270d6ae6dd,5f05e31da81c730c304e7bad,4,,,,,,tray,,,,,,0,47,47,19,1,2,0,,,,,,,,,,,,,,,,,,,,,,,,,,,,,,,,,,,,,,,,,,,,,,,,,,,,,,,,,,,,,,,,,,,,,,,,,,,
,,,,,,,,,,stimuli/images/PICTURE_215.png,PLENTY,5efa8a9b3080998d5ea3fc87,21/01/1994,2020-07-08_16h16.18.986,proactive,2020.1.2,Win32,60,5f035e5afe130c270d6ae6dd,5f05e31da81c730c304e7bad,4,,,,,,boot,,,,,,0,48,48,37,1,4,0,,,,,,,,,,,,,,,,,,,,,,,,,,,,,,,,,,,,,,,,,,,,,,,,,,,,,,,,,,,,,,,,,,,,,,,,,,,
,,,,,,,,,,stimuli/images/PICTURE_356.png,DANGER,5efa8a9b3080998d5ea3fc87,21/01/1994,2020-07-08_16h16.18.986,proactive,2020.1.2,Win32,60,5f035e5afe130c270d6ae6dd,5f05e31da81c730c304e7bad,4,,,,,,pawn,,,,,,0,49,49,55,1,6,0,,,,,,,,,,,,,,,,,,,,,,,,,,,,,,,,,,,,,,,,,,,,,,,,,,,,,,,,,,,,,,,,,,,,,,,,,,,
,,,,,,,,,,stimuli/images/PICTURE_308.png,ESTATE,5efa8a9b3080998d5ea3fc87,21/01/1994,2020-07-08_16h16.18.986,proactive,2020.1.2,Win32,60,5f035e5afe130c270d6ae6dd,5f05e31da81c730c304e7bad,4,,,,,,dice,,,,,,0,50,50,46,1,5,0,,,,,,,,,,,,,,,,,,,,,,,,,,,,,,,,,,,,,,,,,,,,,,,,,,,,,,,,,,,,,,,,,,,,,,,,,,,
,,,,,,,,,,stimuli/images/PICTURE_68.png,MILE,5efa8a9b3080998d5ea3fc87,21/01/1994,2020-07-08_16h16.18.986,proactive,2020.1.2,Win32,60,5f035e5afe130c270d6ae6dd,5f05e31da81c730c304e7bad,4,,,,,,candle,,,,,,0,51,51,44,1,5,0,,,,,,,,,,,,,,,,,,,,,,,,,,,,,,,,,,,,,,,,,,,,,,,,,,,,,,,,,,,,,,,,,,,,,,,,,,,
,,,,,,,,,,stimuli/images/PICTURE_449.png,THING,5efa8a9b3080998d5ea3fc87,21/01/1994,2020-07-08_16h16.18.986,proactive,2020.1.2,Win32,60,5f035e5afe130c270d6ae6dd,5f05e31da81c730c304e7bad,4,,,,,,bench,,,,,,0,52,52,59,1,6,0,,,,,,,,,,,,,,,,,,,,,,,,,,,,,,,,,,,,,,,,,,,,,,,,,,,,,,,,,,,,,,,,,,,,,,,,,,,
,,,,,,,,,,stimuli/images/PICTURE_667.png,PLENTY,5efa8a9b3080998d5ea3fc87,21/01/1994,2020-07-08_16h16.18.986,proactive,2020.1.2,Win32,60,5f035e5afe130c270d6ae6dd,5f05e31da81c730c304e7bad,4,,,,,,daisy,,,,,,0,53,53,41,1,5,0,,,,,,,,,,,,,,,,,,,,,,,,,,,,,,,,,,,,,,,,,,,,,,,,,,,,,,,,,,,,,,,,,,,,,,,,,,,
,,,,,,,,,,stimuli/images/PICTURE_708.png,CLIENT,5efa8a9b3080998d5ea3fc87,21/01/1994,2020-07-08_16h16.18.986,proactive,2020.1.2,Win32,60,5f035e5afe130c270d6ae6dd,5f05e31da81c730c304e7bad,4,,,,,,monkey,,,,,,0,54,54,5,1,1,0,,,,,,,,,,,,,,,,,,,,,,,,,,,,,,,,,,,,,,,,,,,,,,,,,,,,,,,,,,,,,,,,,,,,,,,,,,,
,,,,,,,,,,stimuli/images/PICTURE_123.png,ADVICE,5efa8a9b3080998d5ea3fc87,21/01/1994,2020-07-08_16h16.18.986,proactive,2020.1.2,Win32,60,5f035e5afe130c270d6ae6dd,5f05e31da81c730c304e7bad,4,,,,,,dart,,,,,,0,55,55,50,1,6,0,,,,,,,,,,,,,,,,,,,,,,,,,,,,,,,,,,,,,,,,,,,,,,,,,,,,,,,,,,,,,,,,,,,,,,,,,,,
,,,,,,,,,,stimuli/images/PICTURE_708.png,YARD,5efa8a9b3080998d5ea3fc87,21/01/1994,2020-07-08_16h16.18.986,proactive,2020.1.2,Win32,60,5f035e5afe130c270d6ae6dd,5f05e31da81c730c304e7bad,4,,,,,,monkey,,,,,,0,56,56,29,1,3,0,,,,,,,,,,,,,,,,,,,,,,,,,,,,,,,,,,,,,,,,,,,,,,,,,,,,,,,,,,,,,,,,,,,,,,,,,,,
,,,,,,,,,,stimuli/images/PICTURE_339.png,PLENTY,5efa8a9b3080998d5ea3fc87,21/01/1994,2020-07-08_16h16.18.986,proactive,2020.1.2,Win32,60,5f035e5afe130c270d6ae6dd,5f05e31da81c730c304e7bad,4,,,,,,backpack,,,,,,0,57,57,0,1,1,0,,,,,,,,,,,,,,,,,,,,,,,,,,,,,,,,,,,,,,,,,,,,,,,,,,,,,,,,,,,,,,,,,,,,,,,,,,,
,,,,,,,,,,stimuli/images/PICTURE_123.png,ADVICE,5efa8a9b3080998d5ea3fc87,21/01/1994,2020-07-08_16h16.18.986,proactive,2020.1.2,Win32,60,5f035e5afe130c270d6ae6dd,5f05e31da81c730c304e7bad,4,,,,,,dart,,,,,,0,58,58,40,1,5,0,,,,,,,,,,,,,,,,,,,,,,,,,,,,,,,,,,,,,,,,,,,,,,,,,,,,,,,,,,,,,,,,,,,,,,,,,,,
,,RI,10.00194,0,,,,,,stimuli/images/PICTURE_470.png,CASINO,5efa8a9b3080998d5ea3fc87,21/01/1994,2020-07-08_16h16.18.986,proactive,2020.1.2,Win32,60,5f035e5afe130c270d6ae6dd,5f05e31da81c730c304e7bad,4,,,,,,motorbike,,,,,,,,,,,4,0,0,0,0,36,1,,,,,,,,,,,,,,,,,,,,,,,,,,,,,,,,,,,,,,,,,,,,,,,,,,,,,,,,,,,,,,,,,,,,,,
,,?,0.00167,0,,,,,,stimuli/images/PICTURE_504.png,BODY,5efa8a9b3080998d5ea3fc87,21/01/1994,2020-07-08_16h16.18.986,proactive,2020.1.2,Win32,60,5f035e5afe130c270d6ae6dd,5f05e31da81c730c304e7bad,4,,,,,,wheel,,,,,,,,,,,1,0,0,1,1,8,1,,,,,,,,,,,,,,,,,,,,,,,,,,,,,,,,,,,,,,,,,,,,,,,,,,,,,,,,,,,,,,,,,,,,,,
,,?,0.001275,0,,,,,,stimuli/images/PICTURE_688.png,WOMEN,5efa8a9b3080998d5ea3fc87,21/01/1994,2020-07-08_16h16.18.986,proactive,2020.1.2,Win32,60,5f035e5afe130c270d6ae6dd,5f05e31da81c730c304e7bad,4,,,,,,runner,,,,,,,,,,,2,0,0,2,2,14,1,,,,,,,,,,,,,,,,,,,,,,,,,,,,,,,,,,,,,,,,,,,,,,,,,,,,,,,,,,,,,,,,,,,,,,
,,MILE,7.75242,0,,,,,,stimuli/images/PICTURE_215.png,PLENTY,5efa8a9b3080998d5ea3fc87,21/01/1994,2020-07-08_16h16.18.986,proactive,2020.1.2,Win32,60,5f035e5afe130c270d6ae6dd,5f05e31da81c730c304e7bad,4,,,,,,boot,,,,,,,,,,,4,0,0,3,3,37,1,,,,,,,,,,,,,,,,,,,,,,,,,,,,,,,,,,,,,,,,,,,,,,,,,,,,,,,,,,,,,,,,,,,,,,
,,?,0.00168,0,,,,,,stimuli/images/PICTURE_449.png,THING,5efa8a9b3080998d5ea3fc87,21/01/1994,2020-07-08_16h16.18.986,proactive,2020.1.2,Win32,60,5f035e5afe130c270d6ae6dd,5f05e31da81c730c304e7bad,4,,,,,,bench,,,,,,,,,,,6,0,0,4,4,59,1,,,,,,,,,,,,,,,,,,,,,,,,,,,,,,,,,,,,,,,,,,,,,,,,,,,,,,,,,,,,,,,,,,,,,,
,,PLENTY,3.82411,0,,,,,,stimuli/images/PICTURE_708.png,PENNY,5efa8a9b3080998d5ea3fc87,21/01/1994,2020-07-08_16h16.18.986,proactive,2020.1.2,Win32,60,5f035e5afe130c270d6ae6dd,5f05e31da81c730c304e7bad,4,,,,,,monkey,,,,,,,,,,,4,0,0,5,5,31,1,,,,,,,,,,,,,,,,,,,,,,,,,,,,,,,,,,,,,,,,,,,,,,,,,,,,,,,,,,,,,,,,,,,,,,
,,?,0.001775,0,,,,,,stimuli/images/PICTURE_487.png,FLIGHT,5efa8a9b3080998d5ea3fc87,21/01/1994,2020-07-08_16h16.18.986,proactive,2020.1.2,Win32,60,5f035e5afe130c270d6ae6dd,5f05e31da81c730c304e7bad,4,,,,,,basket,,,,,,,,,,,1,0,0,6,6,9,1,,,,,,,,,,,,,,,,,,,,,,,,,,,,,,,,,,,,,,,,,,,,,,,,,,,,,,,,,,,,,,,,,,,,,,
,,?,0.00147,0,,,,,,stimuli/images/PICTURE_327.png,BEAUTY,5efa8a9b3080998d5ea3fc87,21/01/1994,2020-07-08_16h16.18.986,proactive,2020.1.2,Win32,60,5f035e5afe130c270d6ae6dd,5f05e31da81c730c304e7bad,4,,,,,,helmet,,,,,,,,,,,5,0,0,7,7,48,1,,,,,,,,,,,,,,,,,,,,,,,,,,,,,,,,,,,,,,,,,,,,,,,,,,,,,,,,,,,,,,,,,,,,,,
,,?,0.001405,0,,,,,,stimuli/images/PICTURE_708.png,YARD,5efa8a9b3080998d5ea3fc87,21/01/1994,2020-07-08_16h16.18.986,proactive,2020.1.2,Win32,60,5f035e5afe130c270d6ae6dd,5f05e31da81c730c304e7bad,4,,,,,,monkey,,,,,,,,,,,3,0,0,8,8,29,1,,,,,,,,,,,,,,,,,,,,,,,,,,,,,,,,,,,,,,,,,,,,,,,,,,,,,,,,,,,,,,,,,,,,,,
,,?,0.003045,0,,,,,,stimuli/images/PICTURE_160.png,LEADER,5efa8a9b3080998d5ea3fc87,21/01/1994,2020-07-08_16h16.18.986,proactive,2020.1.2,Win32,60,5f035e5afe130c270d6ae6dd,5f05e31da81c730c304e7bad,4,,,,,,wheelbarrow,,,,,,,,,,,1,0,0,9,9,3,1,,,,,,,,,,,,,,,,,,,,,,,,,,,,,,,,,,,,,,,,,,,,,,,,,,,,,,,,,,,,,,,,,,,,,,
,,?,0.00128,0,,,,,,stimuli/images/PICTURE_160.png,FEET,5efa8a9b3080998d5ea3fc87,21/01/1994,2020-07-08_16h16.18.986,proactive,2020.1.2,Win32,60,5f035e5afe130c270d6ae6dd,5f05e31da81c730c304e7bad,4,,,,,,wheelbarrow,,,,,,,,,,,6,0,0,10,10,58,1,,,,,,,,,,,,,,,,,,,,,,,,,,,,,,,,,,,,,,,,,,,,,,,,,,,,,,,,,,,,,,,,,,,,,,
,,?,0.00103,0,,,,,,stimuli/images/PICTURE_708.png,CLIENT,5efa8a9b3080998d5ea3fc87,21/01/1994,2020-07-08_16h16.18.986,proactive,2020.1.2,Win32,60,5f035e5afe130c270d6ae6dd,5f05e31da81c730c304e7bad,4,,,,,,monkey,,,,,,,,,,,1,0,0,11,11,5,1,,,,,,,,,,,,,,,,,,,,,,,,,,,,,,,,,,,,,,,,,,,,,,,,,,,,,,,,,,,,,,,,,,,,,,
,,WEAPON,2.536115,1,,,,,,stimuli/images/PICTURE_675.png,WEAPON,5efa8a9b3080998d5ea3fc87,21/01/1994,2020-07-08_16h16.18.986,proactive,2020.1.2,Win32,60,5f035e5afe130c270d6ae6dd,5f05e31da81c730c304e7bad,4,,,,,,windmill,,,,,,,,,,,4,0,0,12,12,32,1,,,,,,,,,,,,,,,,,,,,,,,,,,,,,,,,,,,,,,,,,,,,,,,,,,,,,,,,,,,,,,,,,,,,,,
,,?,0.0022,0,,,,,,stimuli/images/PICTURE_744.png,SYSTEM,5efa8a9b3080998d5ea3fc87,21/01/1994,2020-07-08_16h16.18.986,proactive,2020.1.2,Win32,60,5f035e5afe130c270d6ae6dd,5f05e31da81c730c304e7bad,4,,,,,,ring,,,,,,,,,,,5,0,0,13,13,43,1,,,,,,,,,,,,,,,,,,,,,,,,,,,,,,,,,,,,,,,,,,,,,,,,,,,,,,,,,,,,,,,,,,,,,,
,,?,0.00084,0,,,,,,stimuli/images/PICTURE_453.png,DUDE,5efa8a9b3080998d5ea3fc87,21/01/1994,2020-07-08_16h16.18.986,proactive,2020.1.2,Win32,60,5f035e5afe130c270d6ae6dd,5f05e31da81c730c304e7bad,4,,,,,,scissors,,,,,,,,,,,3,0,0,14,14,27,1,,,,,,,,,,,,,,,,,,,,,,,,,,,,,,,,,,,,,,,,,,,,,,,,,,,,,,,,,,,,,,,,,,,,,,
,,?,0.000805,0,,,,,,stimuli/images/PICTURE_380.png,PHOTO,5efa8a9b3080998d5ea3fc87,21/01/1994,2020-07-08_16h16.18.986,proactive,2020.1.2,Win32,60,5f035e5afe130c270d6ae6dd,5f05e31da81c730c304e7bad,4,,,,,,gorilla,,,,,,,,,,,6,0,0,15,15,52,1,,,,,,,,,,,,,,,,,,,,,,,,,,,,,,,,,,,,,,,,,,,,,,,,,,,,,,,,,,,,,,,,,,,,,,
,,?,0.00082,0,,,,,,stimuli/images/PICTURE_744.png,SAKE,5efa8a9b3080998d5ea3fc87,21/01/1994,2020-07-08_16h16.18.986,proactive,2020.1.2,Win32,60,5f035e5afe130c270d6ae6dd,5f05e31da81c730c304e7bad,4,,,,,,ring,,,,,,,,,,,2,0,0,16,16,17,1,,,,,,,,,,,,,,,,,,,,,,,,,,,,,,,,,,,,,,,,,,,,,,,,,,,,,,,,,,,,,,,,,,,,,,
,,?,0.000785,0,,,,,,stimuli/images/PICTURE_151.png,GIRL,5efa8a9b3080998d5ea3fc87,21/01/1994,2020-07-08_16h16.18.986,proactive,2020.1.2,Win32,60,5f035e5afe130c270d6ae6dd,5f05e31da81c730c304e7bad,4,,,,,,tray,,,,,,,,,,,2,0,0,17,17,19,1,,,,,,,,,,,,,,,,,,,,,,,,,,,,,,,,,,,,,,,,,,,,,,,,,,,,,,,,,,,,,,,,,,,,,,
,,?,0.000825,0,,,,,,stimuli/images/PICTURE_469.png,LETTER,5efa8a9b3080998d5ea3fc87,21/01/1994,2020-07-08_16h16.18.986,proactive,2020.1.2,Win32,60,5f035e5afe130c270d6ae6dd,5f05e31da81c730c304e7bad,4,,,,,,stool,,,,,,,,,,,5,0,0,18,18,42,1,,,,,,,,,,,,,,,,,,,,,,,,,,,,,,,,,,,,,,,,,,,,,,,,,,,,,,,,,,,,,,,,,,,,,,
,,?,0.00077,0,,,,,,stimuli/images/PICTURE_314.png,GODS,5efa8a9b3080998d5ea3fc87,21/01/1994,2020-07-08_16h16.18.986,proactive,2020.1.2,Win32,60,5f035e5afe130c270d6ae6dd,5f05e31da81c730c304e7bad,4,,,,,,perfume,,,,,,,,,,,2,0,0,19,19,11,1,,,,,,,,,,,,,,,,,,,,,,,,,,,,,,,,,,,,,,,,,,,,,,,,,,,,,,,,,,,,,,,,,,,,,,
,,?,0.001065,0,,,,,,stimuli/images/PICTURE_667.png,BATH,5efa8a9b3080998d5ea3fc87,21/01/1994,2020-07-08_16h16.18.986,proactive,2020.1.2,Win32,60,5f035e5afe130c270d6ae6dd,5f05e31da81c730c304e7bad,4,,,,,,daisy,,,,,,,,,,,1,0,0,20,20,4,1,,,,,,,,,,,,,,,,,,,,,,,,,,,,,,,,,,,,,,,,,,,,,,,,,,,,,,,,,,,,,,,,,,,,,,
,,?,0.00084,0,,,,,,stimuli/images/PICTURE_147.png,MOMENT,5efa8a9b3080998d5ea3fc87,21/01/1994,2020-07-08_16h16.18.986,proactive,2020.1.2,Win32,60,5f035e5afe130c270d6ae6dd,5f05e31da81c730c304e7bad,4,,,,,,hanger,,,,,,,,,,,6,0,0,21,21,51,1,,,,,,,,,,,,,,,,,,,,,,,,,,,,,,,,,,,,,,,,,,,,,,,,,,,,,,,,,,,,,,,,,,,,,,
,,?,0.000765,0,,,,,,stimuli/images/PICTURE_453.png,PLENTY,5efa8a9b3080998d5ea3fc87,21/01/1994,2020-07-08_16h16.18.986,proactive,2020.1.2,Win32,60,5f035e5afe130c270d6ae6dd,5f05e31da81c730c304e7bad,4,,,,,,scissors,,,,,,,,,,,6,0,0,22,22,56,1,,,,,,,,,,,,,,,,,,,,,,,,,,,,,,,,,,,,,,,,,,,,,,,,,,,,,,,,,,,,,,,,,,,,,,
,,?,0.0008,0,,,,,,stimuli/images/PICTURE_692.png,MONTH,5efa8a9b3080998d5ea3fc87,21/01/1994,2020-07-08_16h16.18.986,proactive,2020.1.2,Win32,60,5f035e5afe130c270d6ae6dd,5f05e31da81c730c304e7bad,4,,,,,,cherry,,,,,,,,,,,2,0,0,23,23,16,1,,,,,,,,,,,,,,,,,,,,,,,,,,,,,,,,,,,,,,,,,,,,,,,,,,,,,,,,,,,,,,,,,,,,,,
,,?,0.00086,0,,,,,,stimuli/images/PICTURE_32.png,JUNGLE,5efa8a9b3080998d5ea3fc87,21/01/1994,2020-07-08_16h16.18.986,proactive,2020.1.2,Win32,60,5f035e5afe130c270d6ae6dd,5f05e31da81c730c304e7bad,4,,,,,,crown,,,,,,,,,,,5,0,0,24,24,45,1,,,,,,,,,,,,,,,,,,,,,,,,,,,,,,,,,,,,,,,,,,,,,,,,,,,,,,,,,,,,,,,,,,,,,,
,,?,0.00083,0,,,,,,stimuli/images/PICTURE_314.png,SAKE,5efa8a9b3080998d5ea3fc87,21/01/1994,2020-07-08_16h16.18.986,proactive,2020.1.2,Win32,60,5f035e5afe130c270d6ae6dd,5f05e31da81c730c304e7bad,4,,,,,,perfume,,,,,,,,,,,1,0,0,25,25,7,1,,,,,,,,,,,,,,,,,,,,,,,,,,,,,,,,,,,,,,,,,,,,,,,,,,,,,,,,,,,,,,,,,,,,,,
,,?,0.000755,0,,,,,,stimuli/images/PICTURE_85.png,THING,5efa8a9b3080998d5ea3fc87,21/01/1994,2020-07-08_16h16.18.986,proactive,2020.1.2,Win32,60,5f035e5afe130c270d6ae6dd,5f05e31da81c730c304e7bad,4,,,,,,diamond,,,,,,,,,,,2,0,0,26,26,15,1,,,,,,,,,,,,,,,,,,,,,,,,,,,,,,,,,,,,,,,,,,,,,,,,,,,,,,,,,,,,,,,,,,,,,,
,,MILE,2.63481,1,,,,,,stimuli/images/PICTURE_677.png,MILE,5efa8a9b3080998d5ea3fc87,21/01/1994,2020-07-08_16h16.18.986,proactive,2020.1.2,Win32,60,5f035e5afe130c270d6ae6dd,5f05e31da81c730c304e7bad,4,,,,,,map,,,,,,,,,,,4,0,0,27,27,30,1,,,,,,,,,,,,,,,,,,,,,,,,,,,,,,,,,,,,,,,,,,,,,,,,,,,,,,,,,,,,,,,,,,,,,,
,,DOZEN,2.826065,1,,,,,,stimuli/images/PICTURE_248.png,DOZEN,5efa8a9b3080998d5ea3fc87,21/01/1994,2020-07-08_16h16.18.986,proactive,2020.1.2,Win32,60,5f035e5afe130c270d6ae6dd,5f05e31da81c730c304e7bad,4,,,,,,cart,,,,,,,,,,,4,0,0,28,28,39,1,,,,,,,,,,,,,,,,,,,,,,,,,,,,,,,,,,,,,,,,,,,,,,,,,,,,,,,,,,,,,,,,,,,,,,
,,?,0.00252,0,,,,,,stimuli/images/PICTURE_308.png,KIND,5efa8a9b3080998d5ea3fc87,21/01/1994,2020-07-08_16h16.18.986,proactive,2020.1.2,Win32,60,5f035e5afe130c270d6ae6dd,5f05e31da81c730c304e7bad,4,,,,,,dice,,,,,,,,,,,6,0,0,29,29,54,1,,,,,,,,,,,,,,,,,,,,,,,,,,,,,,,,,,,,,,,,,,,,,,,,,,,,,,,,,,,,,,,,,,,,,,
,,?,0.001385,0,,,,,,stimuli/images/PICTURE_208.png,LOTS,5efa8a9b3080998d5ea3fc87,21/01/1994,2020-07-08_16h16.18.986,proactive,2020.1.2,Win32,60,5f035e5afe130c270d6ae6dd,5f05e31da81c730c304e7bad,4,,,,,,microphone,,,,,,,,,,,2,0,0,30,30,10,1,,,,,,,,,,,,,,,,,,,,,,,,,,,,,,,,,,,,,,,,,,,,,,,,,,,,,,,,,,,,,,,,,,,,,,
,,?,0.001405,0,,,,,,stimuli/images/PICTURE_356.png,DANGER,5efa8a9b3080998d5ea3fc87,21/01/1994,2020-07-08_16h16.18.986,proactive,2020.1.2,Win32,60,5f035e5afe130c270d6ae6dd,5f05e31da81c730c304e7bad,4,,,,,,pawn,,,,,,,,,,,6,0,0,31,31,55,1,,,,,,,,,,,,,,,,,,,,,,,,,,,,,,,,,,,,,,,,,,,,,,,,,,,,,,,,,,,,,,,,,,,,,,
,,?,0.001625,0,,,,,,stimuli/images/PICTURE_688.png,CASINO,5efa8a9b3080998d5ea3fc87,21/01/1994,2020-07-08_16h16.18.986,proactive,2020.1.2,Win32,60,5f035e5afe130c270d6ae6dd,5f05e31da81c730c304e7bad,4,,,,,,runner,,,,,,,,,,,1,0,0,32,32,2,1,,,,,,,,,,,,,,,,,,,,,,,,,,,,,,,,,,,,,,,,,,,,,,,,,,,,,,,,,,,,,,,,,,,,,,
,,WOMEN,2.979885,1,,,,,,stimuli/images/PICTURE_233.png,WOMEN,5efa8a9b3080998d5ea3fc87,21/01/1994,2020-07-08_16h16.18.986,proactive,2020.1.2,Win32,60,5f035e5afe130c270d6ae6dd,5f05e31da81c730c304e7bad,4,,,,,,salt,,,,,,,,,,,4,0,0,33,33,38,1,,,,,,,,,,,,,,,,,,,,,,,,,,,,,,,,,,,,,,,,,,,,,,,,,,,,,,,,,,,,,,,,,,,,,,
,,?,0.002555,0,,,,,,stimuli/images/PICTURE_95.png,STYLE,5efa8a9b3080998d5ea3fc87,21/01/1994,2020-07-08_16h16.18.986,proactive,2020.1.2,Win32,60,5f035e5afe130c270d6ae6dd,5f05e31da81c730c304e7bad,4,,,,,,suitcase,,,,,,,,,,,3,0,0,34,34,25,1,,,,,,,,,,,,,,,,,,,,,,,,,,,,,,,,,,,,,,,,,,,,,,,,,,,,,,,,,,,,,,,,,,,,,,
,,?,8.008185,0,,,,,,stimuli/images/PICTURE_177.png,CARS,5efa8a9b3080998d5ea3fc87,21/01/1994,2020-07-08_16h16.18.986,proactive,2020.1.2,Win32,60,5f035e5afe130c270d6ae6dd,5f05e31da81c730c304e7bad,4,,,,,,mushroom,,,,,,,,,,,4,0,0,35,35,35,1,,,,,,,,,,,,,,,,,,,,,,,,,,,,,,,,,,,,,,,,,,,,,,,,,,,,,,,,,,,,,,,,,,,,,,
,,?,0.001735,0,,,,,,stimuli/images/PICTURE_311.png,BEAUTY,5efa8a9b3080998d5ea3fc87,21/01/1994,2020-07-08_16h16.18.986,proactive,2020.1.2,Win32,60,5f035e5afe130c270d6ae6dd,5f05e31da81c730c304e7bad,4,,,,,,razor,,,,,,,,,,,2,0,0,36,36,13,1,,,,,,,,,,,,,,,,,,,,,,,,,,,,,,,,,,,,,,,,,,,,,,,,,,,,,,,,,,,,,,,,,,,,,,
,,?,0.001265,0,,,,,,stimuli/images/PICTURE_654.png,VALLEY,5efa8a9b3080998d5ea3fc87,21/01/1994,2020-07-08_16h16.18.986,proactive,2020.1.2,Win32,60,5f035e5afe130c270d6ae6dd,5f05e31da81c730c304e7bad,4,,,,,,pencil,,,,,,,,,,,1,0,0,37,37,1,1,,,,,,,,,,,,,,,,,,,,,,,,,,,,,,,,,,,,,,,,,,,,,,,,,,,,,,,,,,,,,,,,,,,,,,
,,STYLE,2.171695,1,,,,,,stimuli/images/PICTURE_488.png,STYLE,5efa8a9b3080998d5ea3fc87,21/01/1994,2020-07-08_16h16.18.986,proactive,2020.1.2,Win32,60,5f035e5afe130c270d6ae6dd,5f05e31da81c730c304e7bad,4,,,,,,sun,,,,,,,,,,,4,0,0,38,38,33,1,,,,,,,,,,,,,,,,,,,,,,,,,,,,,,,,,,,,,,,,,,,,,,,,,,,,,,,,,,,,,,,,,,,,,,
,,?,0.00265,0,,,,,,stimuli/images/PICTURE_208.png,MONTH,5efa8a9b3080998d5ea3fc87,21/01/1994,2020-07-08_16h16.18.986,proactive,2020.1.2,Win32,60,5f035e5afe130c270d6ae6dd,5f05e31da81c730c304e7bad,4,,,,,,microphone,,,,,,,,,,,6,0,0,39,39,53,1,,,,,,,,,,,,,,,,,,,,,,,,,,,,,,,,,,,,,,,,,,,,,,,,,,,,,,,,,,,,,,,,,,,,,,
,,?,0.0013,0,,,,,,stimuli/images/PICTURE_348.png,SPEECH,5efa8a9b3080998d5ea3fc87,21/01/1994,2020-07-08_16h16.18.986,proactive,2020.1.2,Win32,60,5f035e5afe130c270d6ae6dd,5f05e31da81c730c304e7bad,4,,,,,,pepper,,,,,,,,,,,3,0,0,40,40,20,1,,,,,,,,,,,,,,,,,,,,,,,,,,,,,,,,,,,,,,,,,,,,,,,,,,,,,,,,,,,,,,,,,,,,,,
,,?,0.00129,0,,,,,,stimuli/images/PICTURE_123.png,ADVICE,5efa8a9b3080998d5ea3fc87,21/01/1994,2020-07-08_16h16.18.986,proactive,2020.1.2,Win32,60,5f035e5afe130c270d6ae6dd,5f05e31da81c730c304e7bad,4,,,,,,dart,,,,,,,,,,,5,0,0,41,41,40,1,,,,,,,,,,,,,,,,,,,,,,,,,,,,,,,,,,,,,,,,,,,,,,,,,,,,,,,,,,,,,,,,,,,,,,
,,?,0.001305,0,,,,,,stimuli/images/PICTURE_339.png,PLENTY,5efa8a9b3080998d5ea3fc87,21/01/1994,2020-07-08_16h16.18.986,proactive,2020.1.2,Win32,60,5f035e5afe130c270d6ae6dd,5f05e31da81c730c304e7bad,4,,,,,,backpack,,,,,,,,,,,1,0,0,42,42,0,1,,,,,,,,,,,,,,,,,,,,,,,,,,,,,,,,,,,,,,,,,,,,,,,,,,,,,,,,,,,,,,,,,,,,,,
,,?,0.00381,0,,,,,,stimuli/images/PICTURE_491.png,WRITER,5efa8a9b3080998d5ea3fc87,21/01/1994,2020-07-08_16h16.18.986,proactive,2020.1.2,Win32,60,5f035e5afe130c270d6ae6dd,5f05e31da81c730c304e7bad,4,,,,,,rug,,,,,,,,,,,6,0,0,43,43,57,1,,,,,,,,,,,,,,,,,,,,,,,,,,,,,,,,,,,,,,,,,,,,,,,,,,,,,,,,,,,,,,,,,,,,,,
,,?,0.00091,0,,,,,,stimuli/images/PICTURE_509.png,PHOTO,5efa8a9b3080998d5ea3fc87,21/01/1994,2020-07-08_16h16.18.986,proactive,2020.1.2,Win32,60,5f035e5afe130c270d6ae6dd,5f05e31da81c730c304e7bad,4,,,,,,telephone,,,,,,,,,,,3,0,0,44,44,21,1,,,,,,,,,,,,,,,,,,,,,,,,,,,,,,,,,,,,,,,,,,,,,,,,,,,,,,,,,,,,,,,,,,,,,,
,,FRIEND,1.83892,1,,,,,,stimuli/images/PICTURE_311.png,FRIEND,5efa8a9b3080998d5ea3fc87,21/01/1994,2020-07-08_16h16.18.986,proactive,2020.1.2,Win32,60,5f035e5afe130c270d6ae6dd,5f05e31da81c730c304e7bad,4,,,,,,razor,,,,,,,,,,,4,0,0,45,45,34,1,,,,,,,,,,,,,,,,,,,,,,,,,,,,,,,,,,,,,,,,,,,,,,,,,,,,,,,,,,,,,,,,,,,,,,
,,?,0.00268,0,,,,,,stimuli/images/PICTURE_285.png,ADVICE,5efa8a9b3080998d5ea3fc87,21/01/1994,2020-07-08_16h16.18.986,proactive,2020.1.2,Win32,60,5f035e5afe130c270d6ae6dd,5f05e31da81c730c304e7bad,4,,,,,,carrot,,,,,,,,,,,2,0,0,46,46,12,1,,,,,,,,,,,,,,,,,,,,,,,,,,,,,,,,,,,,,,,,,,,,,,,,,,,,,,,,,,,,,,,,,,,,,,
,,?,0.001265,0,,,,,,stimuli/images/PICTURE_308.png,ESTATE,5efa8a9b3080998d5ea3fc87,21/01/1994,2020-07-08_16h16.18.986,proactive,2020.1.2,Win32,60,5f035e5afe130c270d6ae6dd,5f05e31da81c730c304e7bad,4,,,,,,dice,,,,,,,,,,,5,0,0,47,47,46,1,,,,,,,,,,,,,,,,,,,,,,,,,,,,,,,,,,,,,,,,,,,,,,,,,,,,,,,,,,,,,,,,,,,,,,
,,?,0.001565,0,,,,,,stimuli/images/PICTURE_469.png,ARTIST,5efa8a9b3080998d5ea3fc87,21/01/1994,2020-07-08_16h16.18.986,proactive,2020.1.2,Win32,60,5f035e5afe130c270d6ae6dd,5f05e31da81c730c304e7bad,4,,,,,,stool,,,,,,,,,,,1,0,0,48,48,6,1,,,,,,,,,,,,,,,,,,,,,,,,,,,,,,,,,,,,,,,,,,,,,,,,,,,,,,,,,,,,,,,,,,,,,,
,,?,0.00583,0,,,,,,stimuli/images/PICTURE_233.png,IDEAS,5efa8a9b3080998d5ea3fc87,21/01/1994,2020-07-08_16h16.18.986,proactive,2020.1.2,Win32,60,5f035e5afe130c270d6ae6dd,5f05e31da81c730c304e7bad,4,,,,,,salt,,,,,,,,,,,3,0,0,49,49,28,1,,,,,,,,,,,,,,,,,,,,,,,,,,,,,,,,,,,,,,,,,,,,,,,,,,,,,,,,,,,,,,,,,,,,,,
,,?,0.00102,0,,,,,,stimuli/images/PICTURE_208.png,THING,5efa8a9b3080998d5ea3fc87,21/01/1994,2020-07-08_16h16.18.986,proactive,2020.1.2,Win32,60,5f035e5afe130c270d6ae6dd,5f05e31da81c730c304e7bad,4,,,,,,microphone,,,,,,,,,,,5,0,0,50,50,47,1,,,,,,,,,,,,,,,,,,,,,,,,,,,,,,,,,,,,,,,,,,,,,,,,,,,,,,,,,,,,,,,,,,,,,,
,,?,0.00073,0,,,,,,stimuli/images/PICTURE_255.png,AREA,5efa8a9b3080998d5ea3fc87,21/01/1994,2020-07-08_16h16.18.986,proactive,2020.1.2,Win32,60,5f035e5afe130c270d6ae6dd,5f05e31da81c730c304e7bad,4,,,,,,shovel,,,,,,,,,,,3,0,0,51,51,22,1,,,,,,,,,,,,,,,,,,,,,,,,,,,,,,,,,,,,,,,,,,,,,,,,,,,,,,,,,,,,,,,,,,,,,,
,,?,0.000775,0,,,,,,stimuli/images/PICTURE_123.png,ADVICE,5efa8a9b3080998d5ea3fc87,21/01/1994,2020-07-08_16h16.18.986,proactive,2020.1.2,Win32,60,5f035e5afe130c270d6ae6dd,5f05e31da81c730c304e7bad,4,,,,,,dart,,,,,,,,,,,6,0,0,52,52,50,1,,,,,,,,,,,,,,,,,,,,,,,,,,,,,,,,,,,,,,,,,,,,,,,,,,,,,,,,,,,,,,,,,,,,,,
,,?,0.00074,0,,,,,,stimuli/images/PICTURE_302.png,FAMILY,5efa8a9b3080998d5ea3fc87,21/01/1994,2020-07-08_16h16.18.986,proactive,2020.1.2,Win32,60,5f035e5afe130c270d6ae6dd,5f05e31da81c730c304e7bad,4,,,,,,taxi,,,,,,,,,,,2,0,0,53,53,18,1,,,,,,,,,,,,,,,,,,,,,,,,,,,,,,,,,,,,,,,,,,,,,,,,,,,,,,,,,,,,,,,,,,,,,,
,,?,0.00069,0,,,,,,stimuli/images/PICTURE_68.png,MILE,5efa8a9b3080998d5ea3fc87,21/01/1994,2020-07-08_16h16.18.986,proactive,2020.1.2,Win32,60,5f035e5afe130c270d6ae6dd,5f05e31da81c730c304e7bad,4,,,,,,candle,,,,,,,,,,,5,0,0,54,54,44,1,,,,,,,,,,,,,,,,,,,,,,,,,,,,,,,,,,,,,,,,,,,,,,,,,,,,,,,,,,,,,,,,,,,,,,
,,?,0.000815,0,,,,,,stimuli/images/PICTURE_491.png,ROOF,5efa8a9b3080998d5ea3fc87,21/01/1994,2020-07-08_16h16.18.986,proactive,2020.1.2,Win32,60,5f035e5afe130c270d6ae6dd,5f05e31da81c730c304e7bad,4,,,,,,rug,,,,,,,,,,,3,0,0,55,55,24,1,,,,,,,,,,,,,,,,,,,,,,,,,,,,,,,,,,,,,,,,,,,,,,,,,,,,,,,,,,,,,,,,,,,,,,
,,?,0.000685,0,,,,,,stimuli/images/PICTURE_380.png,DEATH,5efa8a9b3080998d5ea3fc87,21/01/1994,2020-07-08_16h16.18.986,proactive,2020.1.2,Win32,60,5f035e5afe130c270d6ae6dd,5f05e31da81c730c304e7bad,4,,,,,,gorilla,,,,,,,,,,,5,0,0,56,56,49,1,,,,,,,,,,,,,,,,,,,,,,,,,,,,,,,,,,,,,,,,,,,,,,,,,,,,,,,,,,,,,,,,,,,,,,
,,?,0.00069,0,,,,,,stimuli/images/PICTURE_667.png,PLENTY,5efa8a9b3080998d5ea3fc87,21/01/1994,2020-07-08_16h16.18.986,proactive,2020.1.2,Win32,60,5f035e5afe130c270d6ae6dd,5f05e31da81c730c304e7bad,4,,,,,,daisy,,,,,,,,,,,5,0,0,57,57,41,1,,,,,,,,,,,,,,,,,,,,,,,,,,,,,,,,,,,,,,,,,,,,,,,,,,,,,,,,,,,,,,,,,,,,,,
,,?,0.000685,0,,,,,,stimuli/images/PICTURE_467.png,DEMON,5efa8a9b3080998d5ea3fc87,21/01/1994,2020-07-08_16h16.18.986,proactive,2020.1.2,Win32,60,5f035e5afe130c270d6ae6dd,5f05e31da81c730c304e7bad,4,,,,,,peg,,,,,,,,,,,3,0,0,58,58,23,1,,,,,,,,,,,,,,,,,,,,,,,,,,,,,,,,,,,,,,,,,,,,,,,,,,,,,,,,,,,,,,,,,,,,,,
,,?,0.000705,0,,,,,,stimuli/images/PICTURE_203.png,ARTIST,5efa8a9b3080998d5ea3fc87,21/01/1994,2020-07-08_16h16.18.986,proactive,2020.1.2,Win32,60,5f035e5afe130c270d6ae6dd,5f05e31da81c730c304e7bad,4,,,,,,cap,,,,,,,,,,,3,0,0,59,59,26,1,,,,,,,,,,,,,,,,,,,,,,,,,,,,,,,,,,,,,,,,,,,,,,,,,,,,,,,,,,,,,,,,,,,,,,
,,,,,,,,,,,,5efa8a9b3080998d5ea3fc87,21/01/1994,2020-07-08_16h16.18.986,proactive,2020.1.2,Win32,60,5f035e5afe130c270d6ae6dd,5f05e31da81c730c304e7bad,4,,,,,,,,,,,,,,,,,,,,,,,,0,1,1,0,1,stimuli/learn-block1.csv,,,,,,,,,,,,,,,,,,,,,,,,,,,,,,,,,,,,,,,,,,,,,,,,,,,,,,,,,,,,,,,,
,,,,,,,,,,stimuli/images/PICTURE_311.png,FLESH,5efa8a9b3080998d5ea3fc87,21/01/1994,2020-07-08_16h16.18.986,proactive,2020.1.2,Win32,60,5f035e5afe130c270d6ae6dd,5f05e31da81c730c304e7bad,4,,,,,,razor,,,,,,0,0,0,3,1,1,2,,,,,,,,,,,,,,,,,,,,,,,,,,,,,,,,,,,,,,,,,,,,,,,,,,,,,,,,,,,,,,,,,,,,,,,,,,,
,,,,,,,,,,stimuli/images/PICTURE_147.png,LEADER,5efa8a9b3080998d5ea3fc87,21/01/1994,2020-07-08_16h16.18.986,proactive,2020.1.2,Win32,60,5f035e5afe130c270d6ae6dd,5f05e31da81c730c304e7bad,4,,,,,,hanger,,,,,,0,1,1,33,1,4,2,,,,,,,,,,,,,,,,,,,,,,,,,,,,,,,,,,,,,,,,,,,,,,,,,,,,,,,,,,,,,,,,,,,,,,,,,,,
,,,,,,,,,,stimuli/images/PICTURE_470.png,MOMENT,5efa8a9b3080998d5ea3fc87,21/01/1994,2020-07-08_16h16.18.986,proactive,2020.1.2,Win32,60,5f035e5afe130c270d6ae6dd,5f05e31da81c730c304e7bad,4,,,,,,motorbike,,,,,,0,2,2,40,1,5,2,,,,,,,,,,,,,,,,,,,,,,,,,,,,,,,,,,,,,,,,,,,,,,,,,,,,,,,,,,,,,,,,,,,,,,,,,,,
,,,,,,,,,,stimuli/images/PICTURE_57.png,CANDY,5efa8a9b3080998d5ea3fc87,21/01/1994,2020-07-08_16h16.18.986,proactive,2020.1.2,Win32,60,5f035e5afe130c270d6ae6dd,5f05e31da81c730c304e7bad,4,,,,,,stamp,,,,,,0,3,3,52,1,6,2,,,,,,,,,,,,,,,,,,,,,,,,,,,,,,,,,,,,,,,,,,,,,,,,,,,,,,,,,,,,,,,,,,,,,,,,,,,
,,,,,,,,,,stimuli/images/PICTURE_311.png,TOILET,5efa8a9b3080998d5ea3fc87,21/01/1994,2020-07-08_16h16.18.986,proactive,2020.1.2,Win32,60,5f035e5afe130c270d6ae6dd,5f05e31da81c730c304e7bad,4,,,,,,razor,,,,,,0,4,4,54,1,6,2,,,,,,,,,,,,,,,,,,,,,,,,,,,,,,,,,,,,,,,,,,,,,,,,,,,,,,,,,,,,,,,,,,,,,,,,,,,
,,,,,,,,,,stimuli/images/PICTURE_68.png,KIND,5efa8a9b3080998d5ea3fc87,21/01/1994,2020-07-08_16h16.18.986,proactive,2020.1.2,Win32,60,5f035e5afe130c270d6ae6dd,5f05e31da81c730c304e7bad,4,,,,,,candle,,,,,,0,5,5,23,1,3,2,,,,,,,,,,,,,,,,,,,,,,,,,,,,,,,,,,,,,,,,,,,,,,,,,,,,,,,,,,,,,,,,,,,,,,,,,,,
,,,,,,,,,,stimuli/images/PICTURE_487.png,ROOF,5efa8a9b3080998d5ea3fc87,21/01/1994,2020-07-08_16h16.18.986,proactive,2020.1.2,Win32,60,5f035e5afe130c270d6ae6dd,5f05e31da81c730c304e7bad,4,,,,,,basket,,,,,,0,6,6,50,1,6,2,,,,,,,,,,,,,,,,,,,,,,,,,,,,,,,,,,,,,,,,,,,,,,,,,,,,,,,,,,,,,,,,,,,,,,,,,,,
,,,,,,,,,,stimuli/images/PICTURE_215.png,LEADER,5efa8a9b3080998d5ea3fc87,21/01/1994,2020-07-08_16h16.18.986,proactive,2020.1.2,Win32,60,5f035e5afe130c270d6ae6dd,5f05e31da81c730c304e7bad,4,,,,,,boot,,,,,,0,7,7,43,1,5,2,,,,,,,,,,,,,,,,,,,,,,,,,,,,,,,,,,,,,,,,,,,,,,,,,,,,,,,,,,,,,,,,,,,,,,,,,,,
,,,,,,,,,,stimuli/images/PICTURE_57.png,NATION,5efa8a9b3080998d5ea3fc87,21/01/1994,2020-07-08_16h16.18.986,proactive,2020.1.2,Win32,60,5f035e5afe130c270d6ae6dd,5f05e31da81c730c304e7bad,4,,,,,,stamp,,,,,,0,8,8,21,1,3,2,,,,,,,,,,,,,,,,,,,,,,,,,,,,,,,,,,,,,,,,,,,,,,,,,,,,,,,,,,,,,,,,,,,,,,,,,,,
,,,,,,,,,,stimuli/images/PICTURE_509.png,APPLE,5efa8a9b3080998d5ea3fc87,21/01/1994,2020-07-08_16h16.18.986,proactive,2020.1.2,Win32,60,5f035e5afe130c270d6ae6dd,5f05e31da81c730c304e7bad,4,,,,,,telephone,,,,,,0,9,9,38,1,4,2,,,,,,,,,,,,,,,,,,,,,,,,,,,,,,,,,,,,,,,,,,,,,,,,,,,,,,,,,,,,,,,,,,,,,,,,,,,
,,,,,,,,,,stimuli/images/PICTURE_452.png,COPS,5efa8a9b3080998d5ea3fc87,21/01/1994,2020-07-08_16h16.18.986,proactive,2020.1.2,Win32,60,5f035e5afe130c270d6ae6dd,5f05e31da81c730c304e7bad,4,,,,,,watch,,,,,,0,10,10,0,1,1,2,,,,,,,,,,,,,,,,,,,,,,,,,,,,,,,,,,,,,,,,,,,,,,,,,,,,,,,,,,,,,,,,,,,,,,,,,,,
,,,,,,,,,,stimuli/images/PICTURE_160.png,HOTEL,5efa8a9b3080998d5ea3fc87,21/01/1994,2020-07-08_16h16.18.986,proactive,2020.1.2,Win32,60,5f035e5afe130c270d6ae6dd,5f05e31da81c730c304e7bad,4,,,,,,wheelbarrow,,,,,,0,11,11,16,1,2,2,,,,,,,,,,,,,,,,,,,,,,,,,,,,,,,,,,,,,,,,,,,,,,,,,,,,,,,,,,,,,,,,,,,,,,,,,,,
,,,,,,,,,,stimuli/images/PICTURE_327.png,LEADER,5efa8a9b3080998d5ea3fc87,21/01/1994,2020-07-08_16h16.18.986,proactive,2020.1.2,Win32,60,5f035e5afe130c270d6ae6dd,5f05e31da81c730c304e7bad,4,,,,,,helmet,,,,,,0,12,12,17,1,2,2,,,,,,,,,,,,,,,,,,,,,,,,,,,,,,,,,,,,,,,,,,,,,,,,,,,,,,,,,,,,,,,,,,,,,,,,,,,
,,,,,,,,,,stimuli/images/PICTURE_356.png,CANDY,5efa8a9b3080998d5ea3fc87,21/01/1994,2020-07-08_16h16.18.986,proactive,2020.1.2,Win32,60,5f035e5afe130c270d6ae6dd,5f05e31da81c730c304e7bad,4,,,,,,pawn,,,,,,0,13,13,46,1,5,2,,,,,,,,,,,,,,,,,,,,,,,,,,,,,,,,,,,,,,,,,,,,,,,,,,,,,,,,,,,,,,,,,,,,,,,,,,,
,,,,,,,,,,stimuli/images/PICTURE_177.png,HOUSE,5efa8a9b3080998d5ea3fc87,21/01/1994,2020-07-08_16h16.18.986,proactive,2020.1.2,Win32,60,5f035e5afe130c270d6ae6dd,5f05e31da81c730c304e7bad,4,,,,,,mushroom,,,,,,0,14,14,25,1,3,2,,,,,,,,,,,,,,,,,,,,,,,,,,,,,,,,,,,,,,,,,,,,,,,,,,,,,,,,,,,,,,,,,,,,,,,,,,,
,,,,,,,,,,stimuli/images/PICTURE_509.png,MILLER,5efa8a9b3080998d5ea3fc87,21/01/1994,2020-07-08_16h16.18.986,proactive,2020.1.2,Win32,60,5f035e5afe130c270d6ae6dd,5f05e31da81c730c304e7bad,4,,,,,,telephone,,,,,,0,15,15,49,1,5,2,,,,,,,,,,,,,,,,,,,,,,,,,,,,,,,,,,,,,,,,,,,,,,,,,,,,,,,,,,,,,,,,,,,,,,,,,,,
,,,,,,,,,,stimuli/images/PICTURE_348.png,DUDE,5efa8a9b3080998d5ea3fc87,21/01/1994,2020-07-08_16h16.18.986,proactive,2020.1.2,Win32,60,5f035e5afe130c270d6ae6dd,5f05e31da81c730c304e7bad,4,,,,,,pepper,,,,,,0,16,16,59,1,6,2,,,,,,,,,,,,,,,,,,,,,,,,,,,,,,,,,,,,,,,,,,,,,,,,,,,,,,,,,,,,,,,,,,,,,,,,,,,
,,,,,,,,,,stimuli/images/PICTURE_667.png,GLASS,5efa8a9b3080998d5ea3fc87,21/01/1994,2020-07-08_16h16.18.986,proactive,2020.1.2,Win32,60,5f035e5afe130c270d6ae6dd,5f05e31da81c730c304e7bad,4,,,,,,daisy,,,,,,0,17,17,27,1,3,2,,,,,,,,,,,,,,,,,,,,,,,,,,,,,,,,,,,,,,,,,,,,,,,,,,,,,,,,,,,,,,,,,,,,,,,,,,,
,,,,,,,,,,stimuli/images/PICTURE_18.png,RIVER,5efa8a9b3080998d5ea3fc87,21/01/1994,2020-07-08_16h16.18.986,proactive,2020.1.2,Win32,60,5f035e5afe130c270d6ae6dd,5f05e31da81c730c304e7bad,4,,,,,,planet,,,,,,0,18,18,22,1,3,2,,,,,,,,,,,,,,,,,,,,,,,,,,,,,,,,,,,,,,,,,,,,,,,,,,,,,,,,,,,,,,,,,,,,,,,,,,,
,,,,,,,,,,stimuli/images/PICTURE_297.png,BODY,5efa8a9b3080998d5ea3fc87,21/01/1994,2020-07-08_16h16.18.986,proactive,2020.1.2,Win32,60,5f035e5afe130c270d6ae6dd,5f05e31da81c730c304e7bad,4,,,,,,aeroplane,,,,,,0,19,19,51,1,6,2,,,,,,,,,,,,,,,,,,,,,,,,,,,,,,,,,,,,,,,,,,,,,,,,,,,,,,,,,,,,,,,,,,,,,,,,,,,
,,,,,,,,,,stimuli/images/PICTURE_285.png,WRITER,5efa8a9b3080998d5ea3fc87,21/01/1994,2020-07-08_16h16.18.986,proactive,2020.1.2,Win32,60,5f035e5afe130c270d6ae6dd,5f05e31da81c730c304e7bad,4,,,,,,carrot,,,,,,0,20,20,6,1,1,2,,,,,,,,,,,,,,,,,,,,,,,,,,,,,,,,,,,,,,,,,,,,,,,,,,,,,,,,,,,,,,,,,,,,,,,,,,,
,,,,,,,,,,stimuli/images/PICTURE_453.png,FAMILY,5efa8a9b3080998d5ea3fc87,21/01/1994,2020-07-08_16h16.18.986,proactive,2020.1.2,Win32,60,5f035e5afe130c270d6ae6dd,5f05e31da81c730c304e7bad,4,,,,,,scissors,,,,,,0,21,21,48,1,5,2,,,,,,,,,,,,,,,,,,,,,,,,,,,,,,,,,,,,,,,,,,,,,,,,,,,,,,,,,,,,,,,,,,,,,,,,,,,
,,,,,,,,,,stimuli/images/PICTURE_677.png,FAMILY,5efa8a9b3080998d5ea3fc87,21/01/1994,2020-07-08_16h16.18.986,proactive,2020.1.2,Win32,60,5f035e5afe130c270d6ae6dd,5f05e31da81c730c304e7bad,4,,,,,,map,,,,,,0,22,22,53,1,6,2,,,,,,,,,,,,,,,,,,,,,,,,,,,,,,,,,,,,,,,,,,,,,,,,,,,,,,,,,,,,,,,,,,,,,,,,,,,
,,,,,,,,,,stimuli/images/PICTURE_509.png,BATH,5efa8a9b3080998d5ea3fc87,21/01/1994,2020-07-08_16h16.18.986,proactive,2020.1.2,Win32,60,5f035e5afe130c270d6ae6dd,5f05e31da81c730c304e7bad,4,,,,,,telephone,,,,,,0,23,23,15,1,2,2,,,,,,,,,,,,,,,,,,,,,,,,,,,,,,,,,,,,,,,,,,,,,,,,,,,,,,,,,,,,,,,,,,,,,,,,,,,
,,,,,,,,,,stimuli/images/PICTURE_403.png,FAMILY,5efa8a9b3080998d5ea3fc87,21/01/1994,2020-07-08_16h16.18.986,proactive,2020.1.2,Win32,60,5f035e5afe130c270d6ae6dd,5f05e31da81c730c304e7bad,4,,,,,,cathedral,,,,,,0,24,24,9,1,1,2,,,,,,,,,,,,,,,,,,,,,,,,,,,,,,,,,,,,,,,,,,,,,,,,,,,,,,,,,,,,,,,,,,,,,,,,,,,
,,,,,,,,,,stimuli/images/PICTURE_504.png,HOUSE,5efa8a9b3080998d5ea3fc87,21/01/1994,2020-07-08_16h16.18.986,proactive,2020.1.2,Win32,60,5f035e5afe130c270d6ae6dd,5f05e31da81c730c304e7bad,4,,,,,,wheel,,,,,,0,25,25,36,1,4,2,,,,,,,,,,,,,,,,,,,,,,,,,,,,,,,,,,,,,,,,,,,,,,,,,,,,,,,,,,,,,,,,,,,,,,,,,,,
,,,,,,,,,,stimuli/images/PICTURE_405.png,HOUSE,5efa8a9b3080998d5ea3fc87,21/01/1994,2020-07-08_16h16.18.986,proactive,2020.1.2,Win32,60,5f035e5afe130c270d6ae6dd,5f05e31da81c730c304e7bad,4,,,,,,anchor,,,,,,0,26,26,2,1,1,2,,,,,,,,,,,,,,,,,,,,,,,,,,,,,,,,,,,,,,,,,,,,,,,,,,,,,,,,,,,,,,,,,,,,,,,,,,,
,,,,,,,,,,stimuli/images/PICTURE_405.png,JUNGLE,5efa8a9b3080998d5ea3fc87,21/01/1994,2020-07-08_16h16.18.986,proactive,2020.1.2,Win32,60,5f035e5afe130c270d6ae6dd,5f05e31da81c730c304e7bad,4,,,,,,anchor,,,,,,0,27,27,13,1,2,2,,,,,,,,,,,,,,,,,,,,,,,,,,,,,,,,,,,,,,,,,,,,,,,,,,,,,,,,,,,,,,,,,,,,,,,,,,,
,,,,,,,,,,stimuli/images/PICTURE_296.png,CLOCK,5efa8a9b3080998d5ea3fc87,21/01/1994,2020-07-08_16h16.18.986,proactive,2020.1.2,Win32,60,5f035e5afe130c270d6ae6dd,5f05e31da81c730c304e7bad,4,,,,,,bolt,,,,,,0,28,28,18,1,2,2,,,,,,,,,,,,,,,,,,,,,,,,,,,,,,,,,,,,,,,,,,,,,,,,,,,,,,,,,,,,,,,,,,,,,,,,,,,
,,,,,,,,,,stimuli/images/PICTURE_255.png,PENNY,5efa8a9b3080998d5ea3fc87,21/01/1994,2020-07-08_16h16.18.986,proactive,2020.1.2,Win32,60,5f035e5afe130c270d6ae6dd,5f05e31da81c730c304e7bad,4,,,,,,shovel,,,,,,0,29,29,19,1,2,2,,,,,,,,,,,,,,,,,,,,,,,,,,,,,,,,,,,,,,,,,,,,,,,,,,,,,,,,,,,,,,,,,,,,,,,,,,,
,,,,,,,,,,stimuli/images/PICTURE_470.png,BEAUTY,5efa8a9b3080998d5ea3fc87,21/01/1994,2020-07-08_16h16.18.986,proactive,2020.1.2,Win32,60,5f035e5afe130c270d6ae6dd,5f05e31da81c730c304e7bad,4,,,,,,motorbike,,,,,,0,30,30,26,1,3,2,,,,,,,,,,,,,,,,,,,,,,,,,,,,,,,,,,,,,,,,,,,,,,,,,,,,,,,,,,,,,,,,,,,,,,,,,,,
,,,,,,,,,,stimuli/images/PICTURE_405.png,JUNGLE,5efa8a9b3080998d5ea3fc87,21/01/1994,2020-07-08_16h16.18.986,proactive,2020.1.2,Win32,60,5f035e5afe130c270d6ae6dd,5f05e31da81c730c304e7bad,4,,,,,,anchor,,,,,,0,31,31,58,1,6,2,,,,,,,,,,,,,,,,,,,,,,,,,,,,,,,,,,,,,,,,,,,,,,,,,,,,,,,,,,,,,,,,,,,,,,,,,,,
,,,,,,,,,,stimuli/images/PICTURE_654.png,YEAR,5efa8a9b3080998d5ea3fc87,21/01/1994,2020-07-08_16h16.18.986,proactive,2020.1.2,Win32,60,5f035e5afe130c270d6ae6dd,5f05e31da81c730c304e7bad,4,,,,,,pencil,,,,,,0,32,32,41,1,5,2,,,,,,,,,,,,,,,,,,,,,,,,,,,,,,,,,,,,,,,,,,,,,,,,,,,,,,,,,,,,,,,,,,,,,,,,,,,
,,,,,,,,,,stimuli/images/PICTURE_215.png,BOYS,5efa8a9b3080998d5ea3fc87,21/01/1994,2020-07-08_16h16.18.986,proactive,2020.1.2,Win32,60,5f035e5afe130c270d6ae6dd,5f05e31da81c730c304e7bad,4,,,,,,boot,,,,,,0,33,33,24,1,3,2,,,,,,,,,,,,,,,,,,,,,,,,,,,,,,,,,,,,,,,,,,,,,,,,,,,,,,,,,,,,,,,,,,,,,,,,,,,
,,,,,,,,,,stimuli/images/PICTURE_141.png,CLIENT,5efa8a9b3080998d5ea3fc87,21/01/1994,2020-07-08_16h16.18.986,proactive,2020.1.2,Win32,60,5f035e5afe130c270d6ae6dd,5f05e31da81c730c304e7bad,4,,,,,,sunflower,,,,,,0,34,34,30,1,4,2,,,,,,,,,,,,,,,,,,,,,,,,,,,,,,,,,,,,,,,,,,,,,,,,,,,,,,,,,,,,,,,,,,,,,,,,,,,
,,,,,,,,,,stimuli/images/PICTURE_677.png,PHOTO,5efa8a9b3080998d5ea3fc87,21/01/1994,2020-07-08_16h16.18.986,proactive,2020.1.2,Win32,60,5f035e5afe130c270d6ae6dd,5f05e31da81c730c304e7bad,4,,,,,,map,,,,,,0,35,35,14,1,2,2,,,,,,,,,,,,,,,,,,,,,,,,,,,,,,,,,,,,,,,,,,,,,,,,,,,,,,,,,,,,,,,,,,,,,,,,,,,
,,,,,,,,,,stimuli/images/PICTURE_215.png,FOOD,5efa8a9b3080998d5ea3fc87,21/01/1994,2020-07-08_16h16.18.986,proactive,2020.1.2,Win32,60,5f035e5afe130c270d6ae6dd,5f05e31da81c730c304e7bad,4,,,,,,boot,,,,,,0,36,36,5,1,1,2,,,,,,,,,,,,,,,,,,,,,,,,,,,,,,,,,,,,,,,,,,,,,,,,,,,,,,,,,,,,,,,,,,,,,,,,,,,
,,,,,,,,,,stimuli/images/PICTURE_208.png,SPIRIT,5efa8a9b3080998d5ea3fc87,21/01/1994,2020-07-08_16h16.18.986,proactive,2020.1.2,Win32,60,5f035e5afe130c270d6ae6dd,5f05e31da81c730c304e7bad,4,,,,,,microphone,,,,,,0,37,37,28,1,3,2,,,,,,,,,,,,,,,,,,,,,,,,,,,,,,,,,,,,,,,,,,,,,,,,,,,,,,,,,,,,,,,,,,,,,,,,,,,
,,,,,,,,,,stimuli/images/PICTURE_93.png,GIRL,5efa8a9b3080998d5ea3fc87,21/01/1994,2020-07-08_16h16.18.986,proactive,2020.1.2,Win32,60,5f035e5afe130c270d6ae6dd,5f05e31da81c730c304e7bad,4,,,,,,skateboard,,,,,,0,38,38,31,1,4,2,,,,,,,,,,,,,,,,,,,,,,,,,,,,,,,,,,,,,,,,,,,,,,,,,,,,,,,,,,,,,,,,,,,,,,,,,,,
,,,,,,,,,,stimuli/images/PICTURE_2.png,AREA,5efa8a9b3080998d5ea3fc87,21/01/1994,2020-07-08_16h16.18.986,proactive,2020.1.2,Win32,60,5f035e5afe130c270d6ae6dd,5f05e31da81c730c304e7bad,4,,,,,,tyre,,,,,,0,39,39,32,1,4,2,,,,,,,,,,,,,,,,,,,,,,,,,,,,,,,,,,,,,,,,,,,,,,,,,,,,,,,,,,,,,,,,,,,,,,,,,,,
,,,,,,,,,,stimuli/images/PICTURE_33.png,COPS,5efa8a9b3080998d5ea3fc87,21/01/1994,2020-07-08_16h16.18.986,proactive,2020.1.2,Win32,60,5f035e5afe130c270d6ae6dd,5f05e31da81c730c304e7bad,4,,,,,,frame,,,,,,0,40,40,29,1,3,2,,,,,,,,,,,,,,,,,,,,,,,,,,,,,,,,,,,,,,,,,,,,,,,,,,,,,,,,,,,,,,,,,,,,,,,,,,,
,,,,,,,,,,stimuli/images/PICTURE_348.png,TOILET,5efa8a9b3080998d5ea3fc87,21/01/1994,2020-07-08_16h16.18.986,proactive,2020.1.2,Win32,60,5f035e5afe130c270d6ae6dd,5f05e31da81c730c304e7bad,4,,,,,,pepper,,,,,,0,41,41,4,1,1,2,,,,,,,,,,,,,,,,,,,,,,,,,,,,,,,,,,,,,,,,,,,,,,,,,,,,,,,,,,,,,,,,,,,,,,,,,,,
,,,,,,,,,,stimuli/images/PICTURE_688.png,CLOCK,5efa8a9b3080998d5ea3fc87,21/01/1994,2020-07-08_16h16.18.986,proactive,2020.1.2,Win32,60,5f035e5afe130c270d6ae6dd,5f05e31da81c730c304e7bad,4,,,,,,runner,,,,,,0,42,42,42,1,5,2,,,,,,,,,,,,,,,,,,,,,,,,,,,,,,,,,,,,,,,,,,,,,,,,,,,,,,,,,,,,,,,,,,,,,,,,,,,
,,,,,,,,,,stimuli/images/PICTURE_654.png,COPS,5efa8a9b3080998d5ea3fc87,21/01/1994,2020-07-08_16h16.18.986,proactive,2020.1.2,Win32,60,5f035e5afe130c270d6ae6dd,5f05e31da81c730c304e7bad,4,,,,,,pencil,,,,,,0,43,43,10,1,2,2,,,,,,,,,,,,,,,,,,,,,,,,,,,,,,,,,,,,,,,,,,,,,,,,,,,,,,,,,,,,,,,,,,,,,,,,,,,
,,,,,,,,,,stimuli/images/PICTURE_57.png,CASINO,5efa8a9b3080998d5ea3fc87,21/01/1994,2020-07-08_16h16.18.986,proactive,2020.1.2,Win32,60,5f035e5afe130c270d6ae6dd,5f05e31da81c730c304e7bad,4,,,,,,stamp,,,,,,0,44,44,12,1,2,2,,,,,,,,,,,,,,,,,,,,,,,,,,,,,,,,,,,,,,,,,,,,,,,,,,,,,,,,,,,,,,,,,,,,,,,,,,,
,,,,,,,,,,stimuli/images/PICTURE_2.png,YARD,5efa8a9b3080998d5ea3fc87,21/01/1994,2020-07-08_16h16.18.986,proactive,2020.1.2,Win32,60,5f035e5afe130c270d6ae6dd,5f05e31da81c730c304e7bad,4,,,,,,tyre,,,,,,0,45,45,55,1,6,2,,,,,,,,,,,,,,,,,,,,,,,,,,,,,,,,,,,,,,,,,,,,,,,,,,,,,,,,,,,,,,,,,,,,,,,,,,,
,,,,,,,,,,stimuli/images/PICTURE_564.png,PLENTY,5efa8a9b3080998d5ea3fc87,21/01/1994,2020-07-08_16h16.18.986,proactive,2020.1.2,Win32,60,5f035e5afe130c270d6ae6dd,5f05e31da81c730c304e7bad,4,,,,,,spoon,,,,,,0,46,46,11,1,2,2,,,,,,,,,,,,,,,,,,,,,,,,,,,,,,,,,,,,,,,,,,,,,,,,,,,,,,,,,,,,,,,,,,,,,,,,,,,
,,,,,,,,,,stimuli/images/PICTURE_2.png,JUNGLE,5efa8a9b3080998d5ea3fc87,21/01/1994,2020-07-08_16h16.18.986,proactive,2020.1.2,Win32,60,5f035e5afe130c270d6ae6dd,5f05e31da81c730c304e7bad,4,,,,,,tyre,,,,,,0,47,47,1,1,1,2,,,,,,,,,,,,,,,,,,,,,,,,,,,,,,,,,,,,,,,,,,,,,,,,,,,,,,,,,,,,,,,,,,,,,,,,,,,
,,,,,,,,,,stimuli/images/PICTURE_32.png,LETTER,5efa8a9b3080998d5ea3fc87,21/01/1994,2020-07-08_16h16.18.986,proactive,2020.1.2,Win32,60,5f035e5afe130c270d6ae6dd,5f05e31da81c730c304e7bad,4,,,,,,crown,,,,,,0,48,48,56,1,6,2,,,,,,,,,,,,,,,,,,,,,,,,,,,,,,,,,,,,,,,,,,,,,,,,,,,,,,,,,,,,,,,,,,,,,,,,,,,
,,,,,,,,,,stimuli/images/PICTURE_123.png,SALE,5efa8a9b3080998d5ea3fc87,21/01/1994,2020-07-08_16h16.18.986,proactive,2020.1.2,Win32,60,5f035e5afe130c270d6ae6dd,5f05e31da81c730c304e7bad,4,,,,,,dart,,,,,,0,49,49,8,1,1,2,,,,,,,,,,,,,,,,,,,,,,,,,,,,,,,,,,,,,,,,,,,,,,,,,,,,,,,,,,,,,,,,,,,,,,,,,,,
,,,,,,,,,,stimuli/images/PICTURE_692.png,DUDE,5efa8a9b3080998d5ea3fc87,21/01/1994,2020-07-08_16h16.18.986,proactive,2020.1.2,Win32,60,5f035e5afe130c270d6ae6dd,5f05e31da81c730c304e7bad,4,,,,,,cherry,,,,,,0,50,50,47,1,5,2,,,,,,,,,,,,,,,,,,,,,,,,,,,,,,,,,,,,,,,,,,,,,,,,,,,,,,,,,,,,,,,,,,,,,,,,,,,
,,,,,,,,,,stimuli/images/PICTURE_509.png,SHOTS,5efa8a9b3080998d5ea3fc87,21/01/1994,2020-07-08_16h16.18.986,proactive,2020.1.2,Win32,60,5f035e5afe130c270d6ae6dd,5f05e31da81c730c304e7bad,4,,,,,,telephone,,,,,,0,51,51,7,1,1,2,,,,,,,,,,,,,,,,,,,,,,,,,,,,,,,,,,,,,,,,,,,,,,,,,,,,,,,,,,,,,,,,,,,,,,,,,,,
,,,,,,,,,,stimuli/images/PICTURE_285.png,PRINCE,5efa8a9b3080998d5ea3fc87,21/01/1994,2020-07-08_16h16.18.986,proactive,2020.1.2,Win32,60,5f035e5afe130c270d6ae6dd,5f05e31da81c730c304e7bad,4,,,,,,carrot,,,,,,0,52,52,20,1,3,2,,,,,,,,,,,,,,,,,,,,,,,,,,,,,,,,,,,,,,,,,,,,,,,,,,,,,,,,,,,,,,,,,,,,,,,,,,,
,,,,,,,,,,stimuli/images/PICTURE_314.png,SPEECH,5efa8a9b3080998d5ea3fc87,21/01/1994,2020-07-08_16h16.18.986,proactive,2020.1.2,Win32,60,5f035e5afe130c270d6ae6dd,5f05e31da81c730c304e7bad,4,,,,,,perfume,,,,,,0,53,53,35,1,4,2,,,,,,,,,,,,,,,,,,,,,,,,,,,,,,,,,,,,,,,,,,,,,,,,,,,,,,,,,,,,,,,,,,,,,,,,,,,
,,,,,,,,,,stimuli/images/PICTURE_487.png,POLICY,5efa8a9b3080998d5ea3fc87,21/01/1994,2020-07-08_16h16.18.986,proactive,2020.1.2,Win32,60,5f035e5afe130c270d6ae6dd,5f05e31da81c730c304e7bad,4,,,,,,basket,,,,,,0,54,54,34,1,4,2,,,,,,,,,,,,,,,,,,,,,,,,,,,,,,,,,,,,,,,,,,,,,,,,,,,,,,,,,,,,,,,,,,,,,,,,,,,
,,,,,,,,,,stimuli/images/PICTURE_655.png,SALE,5efa8a9b3080998d5ea3fc87,21/01/1994,2020-07-08_16h16.18.986,proactive,2020.1.2,Win32,60,5f035e5afe130c270d6ae6dd,5f05e31da81c730c304e7bad,4,,,,,,megaphone,,,,,,0,55,55,57,1,6,2,,,,,,,,,,,,,,,,,,,,,,,,,,,,,,,,,,,,,,,,,,,,,,,,,,,,,,,,,,,,,,,,,,,,,,,,,,,
,,,,,,,,,,stimuli/images/PICTURE_750.png,POLICY,5efa8a9b3080998d5ea3fc87,21/01/1994,2020-07-08_16h16.18.986,proactive,2020.1.2,Win32,60,5f035e5afe130c270d6ae6dd,5f05e31da81c730c304e7bad,4,,,,,,kettle,,,,,,0,56,56,44,1,5,2,,,,,,,,,,,,,,,,,,,,,,,,,,,,,,,,,,,,,,,,,,,,,,,,,,,,,,,,,,,,,,,,,,,,,,,,,,,
,,,,,,,,,,stimuli/images/PICTURE_95.png,NIGHT,5efa8a9b3080998d5ea3fc87,21/01/1994,2020-07-08_16h16.18.986,proactive,2020.1.2,Win32,60,5f035e5afe130c270d6ae6dd,5f05e31da81c730c304e7bad,4,,,,,,suitcase,,,,,,0,57,57,37,1,4,2,,,,,,,,,,,,,,,,,,,,,,,,,,,,,,,,,,,,,,,,,,,,,,,,,,,,,,,,,,,,,,,,,,,,,,,,,,,
,,,,,,,,,,stimuli/images/PICTURE_491.png,SERIES,5efa8a9b3080998d5ea3fc87,21/01/1994,2020-07-08_16h16.18.986,proactive,2020.1.2,Win32,60,5f035e5afe130c270d6ae6dd,5f05e31da81c730c304e7bad,4,,,,,,rug,,,,,,0,58,58,39,1,4,2,,,,,,,,,,,,,,,,,,,,,,,,,,,,,,,,,,,,,,,,,,,,,,,,,,,,,,,,,,,,,,,,,,,,,,,,,,,
,,?,0.002355,0,,,,,,stimuli/images/PICTURE_348.png,TOILET,5efa8a9b3080998d5ea3fc87,21/01/1994,2020-07-08_16h16.18.986,proactive,2020.1.2,Win32,60,5f035e5afe130c270d6ae6dd,5f05e31da81c730c304e7bad,4,,,,,,pepper,,,,,,,,,,,1,2,0,0,0,4,1,,,,,,,,,,,,,,,,,,,,,,,,,,,,,,,,,,,,,,,,,,,,,,,,,,,,,,,,,,,,,,,,,,,,,,
,,?,0.00138,0,,,,,,stimuli/images/PICTURE_296.png,CLOCK,5efa8a9b3080998d5ea3fc87,21/01/1994,2020-07-08_16h16.18.986,proactive,2020.1.2,Win32,60,5f035e5afe130c270d6ae6dd,5f05e31da81c730c304e7bad,4,,,,,,bolt,,,,,,,,,,,2,2,0,1,1,18,1,,,,,,,,,,,,,,,,,,,,,,,,,,,,,,,,,,,,,,,,,,,,,,,,,,,,,,,,,,,,,,,,,,,,,,
,,?,0.00104,0,,,,,,stimuli/images/PICTURE_160.png,HOTEL,5efa8a9b3080998d5ea3fc87,21/01/1994,2020-07-08_16h16.18.986,proactive,2020.1.2,Win32,60,5f035e5afe130c270d6ae6dd,5f05e31da81c730c304e7bad,4,,,,,,wheelbarrow,,,,,,,,,,,2,2,0,2,2,16,1,,,,,,,,,,,,,,,,,,,,,,,,,,,,,,,,,,,,,,,,,,,,,,,,,,,,,,,,,,,,,,,,,,,,,,
,,SPEECH,2.972565,1,,,,,,stimuli/images/PICTURE_314.png,SPEECH,5efa8a9b3080998d5ea3fc87,21/01/1994,2020-07-08_16h16.18.986,proactive,2020.1.2,Win32,60,5f035e5afe130c270d6ae6dd,5f05e31da81c730c304e7bad,4,,,,,,perfume,,,,,,,,,,,4,2,0,3,3,35,1,,,,,,,,,,,,,,,,,,,,,,,,,,,,,,,,,,,,,,,,,,,,,,,,,,,,,,,,,,,,,,,,,,,,,,
,,?,0.00256,0,,,,,,stimuli/images/PICTURE_509.png,SHOTS,5efa8a9b3080998d5ea3fc87,21/01/1994,2020-07-08_16h16.18.986,proactive,2020.1.2,Win32,60,5f035e5afe130c270d6ae6dd,5f05e31da81c730c304e7bad,4,,,,,,telephone,,,,,,,,,,,1,2,0,4,4,7,1,,,,,,,,,,,,,,,,,,,,,,,,,,,,,,,,,,,,,,,,,,,,,,,,,,,,,,,,,,,,,,,,,,,,,,
,,?,0.001355,0,,,,,,stimuli/images/PICTURE_708.png,VALLEY,5efa8a9b3080998d5ea3fc87,21/01/1994,2020-07-08_16h16.18.986,proactive,2020.1.2,Win32,60,5f035e5afe130c270d6ae6dd,5f05e31da81c730c304e7bad,4,,,,,,monkey,,,,,,,,,,,5,2,0,5,5,45,1,,,,,,,,,,,,,,,,,,,,,,,,,,,,,,,,,,,,,,,,,,,,,,,,,,,,,,,,,,,,,,,,,,,,,,
,,?,0.001345,0,,,,,,stimuli/images/PICTURE_348.png,DUDE,5efa8a9b3080998d5ea3fc87,21/01/1994,2020-07-08_16h16.18.986,proactive,2020.1.2,Win32,60,5f035e5afe130c270d6ae6dd,5f05e31da81c730c304e7bad,4,,,,,,pepper,,,,,,,,,,,6,2,0,6,6,59,1,,,,,,,,,,,,,,,,,,,,,,,,,,,,,,,,,,,,,,,,,,,,,,,,,,,,,,,,,,,,,,,,,,,,,,
,,?,0.00132,0,,,,,,stimuli/images/PICTURE_654.png,YEAR,5efa8a9b3080998d5ea3fc87,21/01/1994,2020-07-08_16h16.18.986,proactive,2020.1.2,Win32,60,5f035e5afe130c270d6ae6dd,5f05e31da81c730c304e7bad,4,,,,,,pencil,,,,,,,,,,,5,2,0,7,7,41,1,,,,,,,,,,,,,,,,,,,,,,,,,,,,,,,,,,,,,,,,,,,,,,,,,,,,,,,,,,,,,,,,,,,,,,
,,?,0.00174,0,,,,,,stimuli/images/PICTURE_297.png,BODY,5efa8a9b3080998d5ea3fc87,21/01/1994,2020-07-08_16h16.18.986,proactive,2020.1.2,Win32,60,5f035e5afe130c270d6ae6dd,5f05e31da81c730c304e7bad,4,,,,,,aeroplane,,,,,,,,,,,6,2,0,8,8,51,1,,,,,,,,,,,,,,,,,,,,,,,,,,,,,,,,,,,,,,,,,,,,,,,,,,,,,,,,,,,,,,,,,,,,,,
,,?,0.001645,0,,,,,,stimuli/images/PICTURE_470.png,MOMENT,5efa8a9b3080998d5ea3fc87,21/01/1994,2020-07-08_16h16.18.986,proactive,2020.1.2,Win32,60,5f035e5afe130c270d6ae6dd,5f05e31da81c730c304e7bad,4,,,,,,motorbike,,,,,,,,,,,5,2,0,9,9,40,1,,,,,,,,,,,,,,,,,,,,,,,,,,,,,,,,,,,,,,,,,,,,,,,,,,,,,,,,,,,,,,,,,,,,,,
,,?,0.000925,0,,,,,,stimuli/images/PICTURE_57.png,CASINO,5efa8a9b3080998d5ea3fc87,21/01/1994,2020-07-08_16h16.18.986,proactive,2020.1.2,Win32,60,5f035e5afe130c270d6ae6dd,5f05e31da81c730c304e7bad,4,,,,,,stamp,,,,,,,,,,,2,2,0,10,10,12,1,,,,,,,,,,,,,,,,,,,,,,,,,,,,,,,,,,,,,,,,,,,,,,,,,,,,,,,,,,,,,,,,,,,,,,
,,?,0.00094,0,,,,,,stimuli/images/PICTURE_215.png,BOYS,5efa8a9b3080998d5ea3fc87,21/01/1994,2020-07-08_16h16.18.986,proactive,2020.1.2,Win32,60,5f035e5afe130c270d6ae6dd,5f05e31da81c730c304e7bad,4,,,,,,boot,,,,,,,,,,,3,2,0,11,11,24,1,,,,,,,,,,,,,,,,,,,,,,,,,,,,,,,,,,,,,,,,,,,,,,,,,,,,,,,,,,,,,,,,,,,,,,
,,?,0.000985,0,,,,,,stimuli/images/PICTURE_692.png,DUDE,5efa8a9b3080998d5ea3fc87,21/01/1994,2020-07-08_16h16.18.986,proactive,2020.1.2,Win32,60,5f035e5afe130c270d6ae6dd,5f05e31da81c730c304e7bad,4,,,,,,cherry,,,,,,,,,,,5,2,0,12,12,47,1,,,,,,,,,,,,,,,,,,,,,,,,,,,,,,,,,,,,,,,,,,,,,,,,,,,,,,,,,,,,,,,,,,,,,,
,,?,0.000715,0,,,,,,stimuli/images/PICTURE_655.png,SALE,5efa8a9b3080998d5ea3fc87,21/01/1994,2020-07-08_16h16.18.986,proactive,2020.1.2,Win32,60,5f035e5afe130c270d6ae6dd,5f05e31da81c730c304e7bad,4,,,,,,megaphone,,,,,,,,,,,6,2,0,13,13,57,1,,,,,,,,,,,,,,,,,,,,,,,,,,,,,,,,,,,,,,,,,,,,,,,,,,,,,,,,,,,,,,,,,,,,,,
,,?,0.0008,0,,,,,,stimuli/images/PICTURE_177.png,HOUSE,5efa8a9b3080998d5ea3fc87,21/01/1994,2020-07-08_16h16.18.986,proactive,2020.1.2,Win32,60,5f035e5afe130c270d6ae6dd,5f05e31da81c730c304e7bad,4,,,,,,mushroom,,,,,,,,,,,3,2,0,14,14,25,1,,,,,,,,,,,,,,,,,,,,,,,,,,,,,,,,,,,,,,,,,,,,,,,,,,,,,,,,,,,,,,,,,,,,,,
,,?,0.00061,0,,,,,,stimuli/images/PICTURE_405.png,JUNGLE,5efa8a9b3080998d5ea3fc87,21/01/1994,2020-07-08_16h16.18.986,proactive,2020.1.2,Win32,60,5f035e5afe130c270d6ae6dd,5f05e31da81c730c304e7bad,4,,,,,,anchor,,,,,,,,,,,6,2,0,15,15,58,1,,,,,,,,,,,,,,,,,,,,,,,,,,,,,,,,,,,,,,,,,,,,,,,,,,,,,,,,,,,,,,,,,,,,,,
,,?,0.00072,0,,,,,,stimuli/images/PICTURE_487.png,ROOF,5efa8a9b3080998d5ea3fc87,21/01/1994,2020-07-08_16h16.18.986,proactive,2020.1.2,Win32,60,5f035e5afe130c270d6ae6dd,5f05e31da81c730c304e7bad,4,,,,,,basket,,,,,,,,,,,6,2,0,16,16,50,1,,,,,,,,,,,,,,,,,,,,,,,,,,,,,,,,,,,,,,,,,,,,,,,,,,,,,,,,,,,,,,,,,,,,,,
