consent_key.keys,consent_key.rt,recalled,recalled_rt,recall_acc,example_recall.thisRepN,example_recall.thisTrialN,example_recall.thisN,example_recall.thisIndex,example_recall.ran,file,word,participant,please enter your date of birth (dd/mm/yyyy),date,expName,psychopyVersion,OS,frameRate,STUDY_ID,SESSION_ID,list,prac_learn_study_loop.thisRepN,prac_learn_study_loop.thisTrialN,prac_learn_study_loop.thisN,prac_learn_study_loop.thisIndex,prac_learn_study_loop.ran,image,prac_learn_test_loop.thisRepN,prac_learn_test_loop.thisTrialN,prac_learn_test_loop.thisN,prac_learn_test_loop.thisIndex,prac_learn_test_loop.ran,learn_study_loop.thisRepN,learn_study_loop.thisTrialN,learn_study_loop.thisN,learn_study_loop.thisIndex,learn_study_loop.ran,list_no,block_no,learn_test_loop.thisRepN,learn_test_loop.thisTrialN,learn_test_loop.thisN,learn_test_loop.thisIndex,learn_test_loop.ran,learn_blocks.thisRepN,learn_blocks.thisTrialN,learn_blocks.thisN,learn_blocks.thisIndex,learn_blocks.ran,block_csv,key_resp_13.keys,key_resp_13.rt,learn_blocks_loop.thisRepN,learn_blocks_loop.thisTrialN,learn_blocks_loop.thisN,learn_blocks_loop.thisIndex,learn_blocks_loop.ran,final_learn_test.thisRepN,final_learn_test.thisTrialN,final_learn_test.thisN,final_learn_test.thisIndex,final_learn_test.ran,prac_wm_test_loop.thisRepN,prac_wm_test_loop.thisTrialN,prac_wm_test_loop.thisN,prac_wm_test_loop.thisIndex,prac_wm_test_loop.ran,wm_recalled1,wm_recall_rt1,wm_probed1,wm_recall_acc1,wm_recalled2,wm_recall_rt2,wm_probed2,wm_recall_acc2,wm_recalled3,wm_recall_rt3,wm_probed3,wm_recall_acc3,wm_recalled4,wm_recall_rt4,wm_probed4,wm_recall_acc4,prac_wm_trial_loop.thisRepN,prac_wm_trial_loop.thisTrialN,prac_wm_trial_loop.thisN,prac_wm_trial_loop.thisIndex,prac_wm_trial_loop.ran,word1,image1,file1,item_type1,word2,image2,file2,item_type2,word4,image4,file4,item_type4,word3,image3,file3,item_type3,wm_test_loop.thisRepN,wm_test_loop.thisTrialN,wm_test_loop.thisN,wm_test_loop.thisIndex,wm_test_loop.ran,wm_trial_loop.thisRepN,wm_trial_loop.thisTrialN,wm_trial_loop.thisN,wm_trial_loop.thisIndex,wm_trial_loop.ran
y,50.520745,TOUGH,4.35745,1,0,0,0,0,1,stimuli/images/PICTURE_747.png,TOUGH,5f03579ef3d5b3546f323d47,17/03/1950,2020-07-09_15h16.15.760,proactive,2020.1.2,MacIntel,60,5f073de81c76c3308c0e4fb3,5f076cd8d03a5413224f32cf,6,,,,,,,,,,,,,,,,,,,,,,,,,,,,,,,,,,,,,,,,,,,,,,,,,,,,,,,,,,,,,,,,,,,,,,,,,,,,,,,,,,,,,,,,,,,,,
,,,,,,,,,,stimuli/images/PICTURE_727.png,CELL,5f03579ef3d5b3546f323d47,17/03/1950,2020-07-09_15h16.15.760,proactive,2020.1.2,MacIntel,60,5f073de81c76c3308c0e4fb3,5f076cd8d03a5413224f32cf,6,0,0,0,1,1,hose,,,,,,,,,,,,,,,,,,,,,,,,,,,,,,,,,,,,,,,,,,,,,,,,,,,,,,,,,,,,,,,,,,,,,,,,,,,,,,,,,,,,,,,
,,,,,,,,,,stimuli/images/PICTURE_658.png,DEVIL,5f03579ef3d5b3546f323d47,17/03/1950,2020-07-09_15h16.15.760,proactive,2020.1.2,MacIntel,60,5f073de81c76c3308c0e4fb3,5f076cd8d03a5413224f32cf,6,0,1,1,3,1,crow,,,,,,,,,,,,,,,,,,,,,,,,,,,,,,,,,,,,,,,,,,,,,,,,,,,,,,,,,,,,,,,,,,,,,,,,,,,,,,,,,,,,,,,
,,,,,,,,,,stimuli/images/PICTURE_697.png,KILLER,5f03579ef3d5b3546f323d47,17/03/1950,2020-07-09_15h16.15.760,proactive,2020.1.2,MacIntel,60,5f073de81c76c3308c0e4fb3,5f076cd8d03a5413224f32cf,6,0,2,2,4,1,peach,,,,,,,,,,,,,,,,,,,,,,,,,,,,,,,,,,,,,,,,,,,,,,,,,,,,,,,,,,,,,,,,,,,,,,,,,,,,,,,,,,,,,,,
,,,,,,,,,,stimuli/images/PICTURE_269.png,GENIUS,5f03579ef3d5b3546f323d47,17/03/1950,2020-07-09_15h16.15.760,proactive,2020.1.2,MacIntel,60,5f073de81c76c3308c0e4fb3,5f076cd8d03a5413224f32cf,6,0,3,3,0,1,chameleon,,,,,,,,,,,,,,,,,,,,,,,,,,,,,,,,,,,,,,,,,,,,,,,,,,,,,,,,,,,,,,,,,,,,,,,,,,,,,,,,,,,,,,,
,,GENIUS,5.313015,0,,,,,,stimuli/images/PICTURE_378.png,LOSS,5f03579ef3d5b3546f323d47,17/03/1950,2020-07-09_15h16.15.760,proactive,2020.1.2,MacIntel,60,5f073de81c76c3308c0e4fb3,5f076cd8d03a5413224f32cf,6,,,,,,lobster,0,0,0,2,1,,,,,,,,,,,,,,,,,,,,,,,,,,,,,,,,,,,,,,,,,,,,,,,,,,,,,,,,,,,,,,,,,,,,,,,,,,,,,,,,,,
,,CELL,2.23155,1,,,,,,stimuli/images/PICTURE_727.png,CELL,5f03579ef3d5b3546f323d47,17/03/1950,2020-07-09_15h16.15.760,proactive,2020.1.2,MacIntel,60,5f073de81c76c3308c0e4fb3,5f076cd8d03a5413224f32cf,6,,,,,,hose,0,1,1,1,1,,,,,,,,,,,,,,,,,,,,,,,,,,,,,,,,,,,,,,,,,,,,,,,,,,,,,,,,,,,,,,,,,,,,,,,,,,,,,,,,,,
,,GENI,15.001765,0,,,,,,stimuli/images/PICTURE_269.png,GENIUS,5f03579ef3d5b3546f323d47,17/03/1950,2020-07-09_15h16.15.760,proactive,2020.1.2,MacIntel,60,5f073de81c76c3308c0e4fb3,5f076cd8d03a5413224f32cf,6,,,,,,chameleon,0,2,2,0,1,,,,,,,,,,,,,,,,,,,,,,,,,,,,,,,,,,,,,,,,,,,,,,,,,,,,,,,,,,,,,,,,,,,,,,,,,,,,,,,,,,
,,DEVIL,1.5169,1,,,,,,stimuli/images/PICTURE_658.png,DEVIL,5f03579ef3d5b3546f323d47,17/03/1950,2020-07-09_15h16.15.760,proactive,2020.1.2,MacIntel,60,5f073de81c76c3308c0e4fb3,5f076cd8d03a5413224f32cf,6,,,,,,crow,0,3,3,3,1,,,,,,,,,,,,,,,,,,,,,,,,,,,,,,,,,,,,,,,,,,,,,,,,,,,,,,,,,,,,,,,,,,,,,,,,,,,,,,,,,,
,,KILL,3.247795,0,,,,,,stimuli/images/PICTURE_697.png,KILLER,5f03579ef3d5b3546f323d47,17/03/1950,2020-07-09_15h16.15.760,proactive,2020.1.2,MacIntel,60,5f073de81c76c3308c0e4fb3,5f076cd8d03a5413224f32cf,6,,,,,,peach,0,4,4,4,1,,,,,,,,,,,,,,,,,,,,,,,,,,,,,,,,,,,,,,,,,,,,,,,,,,,,,,,,,,,,,,,,,,,,,,,,,,,,,,,,,,
,,,,,,,,,,stimuli/images/PICTURE_491.png,WRITER,5f03579ef3d5b3546f323d47,17/03/1950,2020-07-09_15h16.15.760,proactive,2020.1.2,MacIntel,60,5f073de81c76c3308c0e4fb3,5f076cd8d03a5413224f32cf,6,,,,,,rug,,,,,,0,0,0,57,1,6,0,,,,,,,,,,,,,,,,,,,,,,,,,,,,,,,,,,,,,,,,,,,,,,,,,,,,,,,,,,,,,,,,,,,,,,,,,,,
,,,,,,,,,,stimuli/images/PICTURE_488.png,STYLE,5f03579ef3d5b3546f323d47,17/03/1950,2020-07-09_15h16.15.760,proactive,2020.1.2,MacIntel,60,5f073de81c76c3308c0e4fb3,5f076cd8d03a5413224f32cf,6,,,,,,sun,,,,,,0,1,1,33,1,4,0,,,,,,,,,,,,,,,,,,,,,,,,,,,,,,,,,,,,,,,,,,,,,,,,,,,,,,,,,,,,,,,,,,,,,,,,,,,
,,,,,,,,,,stimuli/images/PICTURE_744.png,SAKE,5f03579ef3d5b3546f323d47,17/03/1950,2020-07-09_15h16.15.760,proactive,2020.1.2,MacIntel,60,5f073de81c76c3308c0e4fb3,5f076cd8d03a5413224f32cf,6,,,,,,ring,,,,,,0,2,2,17,1,2,0,,,,,,,,,,,,,,,,,,,,,,,,,,,,,,,,,,,,,,,,,,,,,,,,,,,,,,,,,,,,,,,,,,,,,,,,,,,
,,,,,,,,,,stimuli/images/PICTURE_504.png,BODY,5f03579ef3d5b3546f323d47,17/03/1950,2020-07-09_15h16.15.760,proactive,2020.1.2,MacIntel,60,5f073de81c76c3308c0e4fb3,5f076cd8d03a5413224f32cf,6,,,,,,wheel,,,,,,0,3,3,8,1,1,0,,,,,,,,,,,,,,,,,,,,,,,,,,,,,,,,,,,,,,,,,,,,,,,,,,,,,,,,,,,,,,,,,,,,,,,,,,,
,,,,,,,,,,stimuli/images/PICTURE_255.png,AREA,5f03579ef3d5b3546f323d47,17/03/1950,2020-07-09_15h16.15.760,proactive,2020.1.2,MacIntel,60,5f073de81c76c3308c0e4fb3,5f076cd8d03a5413224f32cf,6,,,,,,shovel,,,,,,0,4,4,22,1,3,0,,,,,,,,,,,,,,,,,,,,,,,,,,,,,,,,,,,,,,,,,,,,,,,,,,,,,,,,,,,,,,,,,,,,,,,,,,,
,,,,,,,,,,stimuli/images/PICTURE_147.png,MOMENT,5f03579ef3d5b3546f323d47,17/03/1950,2020-07-09_15h16.15.760,proactive,2020.1.2,MacIntel,60,5f073de81c76c3308c0e4fb3,5f076cd8d03a5413224f32cf,6,,,,,,hanger,,,,,,0,5,5,51,1,6,0,,,,,,,,,,,,,,,,,,,,,,,,,,,,,,,,,,,,,,,,,,,,,,,,,,,,,,,,,,,,,,,,,,,,,,,,,,,
,,,,,,,,,,stimuli/images/PICTURE_314.png,GODS,5f03579ef3d5b3546f323d47,17/03/1950,2020-07-09_15h16.15.760,proactive,2020.1.2,MacIntel,60,5f073de81c76c3308c0e4fb3,5f076cd8d03a5413224f32cf,6,,,,,,perfume,,,,,,0,6,6,11,1,2,0,,,,,,,,,,,,,,,,,,,,,,,,,,,,,,,,,,,,,,,,,,,,,,,,,,,,,,,,,,,,,,,,,,,,,,,,,,,
,,,,,,,,,,stimuli/images/PICTURE_151.png,GIRL,5f03579ef3d5b3546f323d47,17/03/1950,2020-07-09_15h16.15.760,proactive,2020.1.2,MacIntel,60,5f073de81c76c3308c0e4fb3,5f076cd8d03a5413224f32cf,6,,,,,,tray,,,,,,0,7,7,19,1,2,0,,,,,,,,,,,,,,,,,,,,,,,,,,,,,,,,,,,,,,,,,,,,,,,,,,,,,,,,,,,,,,,,,,,,,,,,,,,
,,,,,,,,,,stimuli/images/PICTURE_285.png,ADVICE,5f03579ef3d5b3546f323d47,17/03/1950,2020-07-09_15h16.15.760,proactive,2020.1.2,MacIntel,60,5f073de81c76c3308c0e4fb3,5f076cd8d03a5413224f32cf,6,,,,,,carrot,,,,,,0,8,8,12,1,2,0,,,,,,,,,,,,,,,,,,,,,,,,,,,,,,,,,,,,,,,,,,,,,,,,,,,,,,,,,,,,,,,,,,,,,,,,,,,
,,,,,,,,,,stimuli/images/PICTURE_160.png,LEADER,5f03579ef3d5b3546f323d47,17/03/1950,2020-07-09_15h16.15.760,proactive,2020.1.2,MacIntel,60,5f073de81c76c3308c0e4fb3,5f076cd8d03a5413224f32cf,6,,,,,,wheelbarrow,,,,,,0,9,9,3,1,1,0,,,,,,,,,,,,,,,,,,,,,,,,,,,,,,,,,,,,,,,,,,,,,,,,,,,,,,,,,,,,,,,,,,,,,,,,,,,
,,,,,,,,,,stimuli/images/PICTURE_233.png,WOMEN,5f03579ef3d5b3546f323d47,17/03/1950,2020-07-09_15h16.15.760,proactive,2020.1.2,MacIntel,60,5f073de81c76c3308c0e4fb3,5f076cd8d03a5413224f32cf,6,,,,,,salt,,,,,,0,10,10,38,1,4,0,,,,,,,,,,,,,,,,,,,,,,,,,,,,,,,,,,,,,,,,,,,,,,,,,,,,,,,,,,,,,,,,,,,,,,,,,,,
,,,,,,,,,,stimuli/images/PICTURE_654.png,VALLEY,5f03579ef3d5b3546f323d47,17/03/1950,2020-07-09_15h16.15.760,proactive,2020.1.2,MacIntel,60,5f073de81c76c3308c0e4fb3,5f076cd8d03a5413224f32cf,6,,,,,,pencil,,,,,,0,11,11,1,1,1,0,,,,,,,,,,,,,,,,,,,,,,,,,,,,,,,,,,,,,,,,,,,,,,,,,,,,,,,,,,,,,,,,,,,,,,,,,,,
,,,,,,,,,,stimuli/images/PICTURE_208.png,LOTS,5f03579ef3d5b3546f323d47,17/03/1950,2020-07-09_15h16.15.760,proactive,2020.1.2,MacIntel,60,5f073de81c76c3308c0e4fb3,5f076cd8d03a5413224f32cf,6,,,,,,microphone,,,,,,0,12,12,10,1,2,0,,,,,,,,,,,,,,,,,,,,,,,,,,,,,,,,,,,,,,,,,,,,,,,,,,,,,,,,,,,,,,,,,,,,,,,,,,,
,,,,,,,,,,stimuli/images/PICTURE_692.png,MONTH,5f03579ef3d5b3546f323d47,17/03/1950,2020-07-09_15h16.15.760,proactive,2020.1.2,MacIntel,60,5f073de81c76c3308c0e4fb3,5f076cd8d03a5413224f32cf,6,,,,,,cherry,,,,,,0,13,13,16,1,2,0,,,,,,,,,,,,,,,,,,,,,,,,,,,,,,,,,,,,,,,,,,,,,,,,,,,,,,,,,,,,,,,,,,,,,,,,,,,
,,,,,,,,,,stimuli/images/PICTURE_311.png,FRIEND,5f03579ef3d5b3546f323d47,17/03/1950,2020-07-09_15h16.15.760,proactive,2020.1.2,MacIntel,60,5f073de81c76c3308c0e4fb3,5f076cd8d03a5413224f32cf,6,,,,,,razor,,,,,,0,14,14,34,1,4,0,,,,,,,,,,,,,,,,,,,,,,,,,,,,,,,,,,,,,,,,,,,,,,,,,,,,,,,,,,,,,,,,,,,,,,,,,,,
,,,,,,,,,,stimuli/images/PICTURE_356.png,DANGER,5f03579ef3d5b3546f323d47,17/03/1950,2020-07-09_15h16.15.760,proactive,2020.1.2,MacIntel,60,5f073de81c76c3308c0e4fb3,5f076cd8d03a5413224f32cf,6,,,,,,pawn,,,,,,0,15,15,55,1,6,0,,,,,,,,,,,,,,,,,,,,,,,,,,,,,,,,,,,,,,,,,,,,,,,,,,,,,,,,,,,,,,,,,,,,,,,,,,,
,,,,,,,,,,stimuli/images/PICTURE_453.png,PLENTY,5f03579ef3d5b3546f323d47,17/03/1950,2020-07-09_15h16.15.760,proactive,2020.1.2,MacIntel,60,5f073de81c76c3308c0e4fb3,5f076cd8d03a5413224f32cf,6,,,,,,scissors,,,,,,0,16,16,56,1,6,0,,,,,,,,,,,,,,,,,,,,,,,,,,,,,,,,,,,,,,,,,,,,,,,,,,,,,,,,,,,,,,,,,,,,,,,,,,,
,,,,,,,,,,stimuli/images/PICTURE_339.png,PLENTY,5f03579ef3d5b3546f323d47,17/03/1950,2020-07-09_15h16.15.760,proactive,2020.1.2,MacIntel,60,5f073de81c76c3308c0e4fb3,5f076cd8d03a5413224f32cf,6,,,,,,backpack,,,,,,0,17,17,0,1,1,0,,,,,,,,,,,,,,,,,,,,,,,,,,,,,,,,,,,,,,,,,,,,,,,,,,,,,,,,,,,,,,,,,,,,,,,,,,,
,,,,,,,,,,stimuli/images/PICTURE_469.png,ARTIST,5f03579ef3d5b3546f323d47,17/03/1950,2020-07-09_15h16.15.760,proactive,2020.1.2,MacIntel,60,5f073de81c76c3308c0e4fb3,5f076cd8d03a5413224f32cf,6,,,,,,stool,,,,,,0,18,18,6,1,1,0,,,,,,,,,,,,,,,,,,,,,,,,,,,,,,,,,,,,,,,,,,,,,,,,,,,,,,,,,,,,,,,,,,,,,,,,,,,
,,,,,,,,,,stimuli/images/PICTURE_203.png,ARTIST,5f03579ef3d5b3546f323d47,17/03/1950,2020-07-09_15h16.15.760,proactive,2020.1.2,MacIntel,60,5f073de81c76c3308c0e4fb3,5f076cd8d03a5413224f32cf,6,,,,,,cap,,,,,,0,19,19,26,1,3,0,,,,,,,,,,,,,,,,,,,,,,,,,,,,,,,,,,,,,,,,,,,,,,,,,,,,,,,,,,,,,,,,,,,,,,,,,,,
,,,,,,,,,,stimuli/images/PICTURE_708.png,CLIENT,5f03579ef3d5b3546f323d47,17/03/1950,2020-07-09_15h16.15.760,proactive,2020.1.2,MacIntel,60,5f073de81c76c3308c0e4fb3,5f076cd8d03a5413224f32cf,6,,,,,,monkey,,,,,,0,20,20,5,1,1,0,,,,,,,,,,,,,,,,,,,,,,,,,,,,,,,,,,,,,,,,,,,,,,,,,,,,,,,,,,,,,,,,,,,,,,,,,,,
,,,,,,,,,,stimuli/images/PICTURE_302.png,FAMILY,5f03579ef3d5b3546f323d47,17/03/1950,2020-07-09_15h16.15.760,proactive,2020.1.2,MacIntel,60,5f073de81c76c3308c0e4fb3,5f076cd8d03a5413224f32cf,6,,,,,,taxi,,,,,,0,21,21,18,1,2,0,,,,,,,,,,,,,,,,,,,,,,,,,,,,,,,,,,,,,,,,,,,,,,,,,,,,,,,,,,,,,,,,,,,,,,,,,,,
,,,,,,,,,,stimuli/images/PICTURE_208.png,MONTH,5f03579ef3d5b3546f323d47,17/03/1950,2020-07-09_15h16.15.760,proactive,2020.1.2,MacIntel,60,5f073de81c76c3308c0e4fb3,5f076cd8d03a5413224f32cf,6,,,,,,microphone,,,,,,0,22,22,53,1,6,0,,,,,,,,,,,,,,,,,,,,,,,,,,,,,,,,,,,,,,,,,,,,,,,,,,,,,,,,,,,,,,,,,,,,,,,,,,,
,,,,,,,,,,stimuli/images/PICTURE_688.png,WOMEN,5f03579ef3d5b3546f323d47,17/03/1950,2020-07-09_15h16.15.760,proactive,2020.1.2,MacIntel,60,5f073de81c76c3308c0e4fb3,5f076cd8d03a5413224f32cf,6,,,,,,runner,,,,,,0,23,23,14,1,2,0,,,,,,,,,,,,,,,,,,,,,,,,,,,,,,,,,,,,,,,,,,,,,,,,,,,,,,,,,,,,,,,,,,,,,,,,,,,
,,,,,,,,,,stimuli/images/PICTURE_449.png,THING,5f03579ef3d5b3546f323d47,17/03/1950,2020-07-09_15h16.15.760,proactive,2020.1.2,MacIntel,60,5f073de81c76c3308c0e4fb3,5f076cd8d03a5413224f32cf,6,,,,,,bench,,,,,,0,24,24,59,1,6,0,,,,,,,,,,,,,,,,,,,,,,,,,,,,,,,,,,,,,,,,,,,,,,,,,,,,,,,,,,,,,,,,,,,,,,,,,,,
,,,,,,,,,,stimuli/images/PICTURE_667.png,BATH,5f03579ef3d5b3546f323d47,17/03/1950,2020-07-09_15h16.15.760,proactive,2020.1.2,MacIntel,60,5f073de81c76c3308c0e4fb3,5f076cd8d03a5413224f32cf,6,,,,,,daisy,,,,,,0,25,25,4,1,1,0,,,,,,,,,,,,,,,,,,,,,,,,,,,,,,,,,,,,,,,,,,,,,,,,,,,,,,,,,,,,,,,,,,,,,,,,,,,
,,,,,,,,,,stimuli/images/PICTURE_491.png,ROOF,5f03579ef3d5b3546f323d47,17/03/1950,2020-07-09_15h16.15.760,proactive,2020.1.2,MacIntel,60,5f073de81c76c3308c0e4fb3,5f076cd8d03a5413224f32cf,6,,,,,,rug,,,,,,0,26,26,24,1,3,0,,,,,,,,,,,,,,,,,,,,,,,,,,,,,,,,,,,,,,,,,,,,,,,,,,,,,,,,,,,,,,,,,,,,,,,,,,,
,,,,,,,,,,stimuli/images/PICTURE_177.png,CARS,5f03579ef3d5b3546f323d47,17/03/1950,2020-07-09_15h16.15.760,proactive,2020.1.2,MacIntel,60,5f073de81c76c3308c0e4fb3,5f076cd8d03a5413224f32cf,6,,,,,,mushroom,,,,,,0,27,27,35,1,4,0,,,,,,,,,,,,,,,,,,,,,,,,,,,,,,,,,,,,,,,,,,,,,,,,,,,,,,,,,,,,,,,,,,,,,,,,,,,
,,,,,,,,,,stimuli/images/PICTURE_160.png,FEET,5f03579ef3d5b3546f323d47,17/03/1950,2020-07-09_15h16.15.760,proactive,2020.1.2,MacIntel,60,5f073de81c76c3308c0e4fb3,5f076cd8d03a5413224f32cf,6,,,,,,wheelbarrow,,,,,,0,28,28,58,1,6,0,,,,,,,,,,,,,,,,,,,,,,,,,,,,,,,,,,,,,,,,,,,,,,,,,,,,,,,,,,,,,,,,,,,,,,,,,,,
,,,,,,,,,,stimuli/images/PICTURE_667.png,PLENTY,5f03579ef3d5b3546f323d47,17/03/1950,2020-07-09_15h16.15.760,proactive,2020.1.2,MacIntel,60,5f073de81c76c3308c0e4fb3,5f076cd8d03a5413224f32cf,6,,,,,,daisy,,,,,,0,29,29,41,1,5,0,,,,,,,,,,,,,,,,,,,,,,,,,,,,,,,,,,,,,,,,,,,,,,,,,,,,,,,,,,,,,,,,,,,,,,,,,,,
,,,,,,,,,,stimuli/images/PICTURE_469.png,LETTER,5f03579ef3d5b3546f323d47,17/03/1950,2020-07-09_15h16.15.760,proactive,2020.1.2,MacIntel,60,5f073de81c76c3308c0e4fb3,5f076cd8d03a5413224f32cf,6,,,,,,stool,,,,,,0,30,30,42,1,5,0,,,,,,,,,,,,,,,,,,,,,,,,,,,,,,,,,,,,,,,,,,,,,,,,,,,,,,,,,,,,,,,,,,,,,,,,,,,
,,,,,,,,,,stimuli/images/PICTURE_208.png,THING,5f03579ef3d5b3546f323d47,17/03/1950,2020-07-09_15h16.15.760,proactive,2020.1.2,MacIntel,60,5f073de81c76c3308c0e4fb3,5f076cd8d03a5413224f32cf,6,,,,,,microphone,,,,,,0,31,31,47,1,5,0,,,,,,,,,,,,,,,,,,,,,,,,,,,,,,,,,,,,,,,,,,,,,,,,,,,,,,,,,,,,,,,,,,,,,,,,,,,
,,,,,,,,,,stimuli/images/PICTURE_380.png,PHOTO,5f03579ef3d5b3546f323d47,17/03/1950,2020-07-09_15h16.15.760,proactive,2020.1.2,MacIntel,60,5f073de81c76c3308c0e4fb3,5f076cd8d03a5413224f32cf,6,,,,,,gorilla,,,,,,0,32,32,52,1,6,0,,,,,,,,,,,,,,,,,,,,,,,,,,,,,,,,,,,,,,,,,,,,,,,,,,,,,,,,,,,,,,,,,,,,,,,,,,,
,,,,,,,,,,stimuli/images/PICTURE_744.png,SYSTEM,5f03579ef3d5b3546f323d47,17/03/1950,2020-07-09_15h16.15.760,proactive,2020.1.2,MacIntel,60,5f073de81c76c3308c0e4fb3,5f076cd8d03a5413224f32cf,6,,,,,,ring,,,,,,0,33,33,43,1,5,0,,,,,,,,,,,,,,,,,,,,,,,,,,,,,,,,,,,,,,,,,,,,,,,,,,,,,,,,,,,,,,,,,,,,,,,,,,,
,,,,,,,,,,stimuli/images/PICTURE_123.png,ADVICE,5f03579ef3d5b3546f323d47,17/03/1950,2020-07-09_15h16.15.760,proactive,2020.1.2,MacIntel,60,5f073de81c76c3308c0e4fb3,5f076cd8d03a5413224f32cf,6,,,,,,dart,,,,,,0,34,34,40,1,5,0,,,,,,,,,,,,,,,,,,,,,,,,,,,,,,,,,,,,,,,,,,,,,,,,,,,,,,,,,,,,,,,,,,,,,,,,,,,
,,,,,,,,,,stimuli/images/PICTURE_308.png,KIND,5f03579ef3d5b3546f323d47,17/03/1950,2020-07-09_15h16.15.760,proactive,2020.1.2,MacIntel,60,5f073de81c76c3308c0e4fb3,5f076cd8d03a5413224f32cf,6,,,,,,dice,,,,,,0,35,35,54,1,6,0,,,,,,,,,,,,,,,,,,,,,,,,,,,,,,,,,,,,,,,,,,,,,,,,,,,,,,,,,,,,,,,,,,,,,,,,,,,
,,,,,,,,,,stimuli/images/PICTURE_677.png,MILE,5f03579ef3d5b3546f323d47,17/03/1950,2020-07-09_15h16.15.760,proactive,2020.1.2,MacIntel,60,5f073de81c76c3308c0e4fb3,5f076cd8d03a5413224f32cf,6,,,,,,map,,,,,,0,36,36,30,1,4,0,,,,,,,,,,,,,,,,,,,,,,,,,,,,,,,,,,,,,,,,,,,,,,,,,,,,,,,,,,,,,,,,,,,,,,,,,,,
,,,,,,,,,,stimuli/images/PICTURE_380.png,DEATH,5f03579ef3d5b3546f323d47,17/03/1950,2020-07-09_15h16.15.760,proactive,2020.1.2,MacIntel,60,5f073de81c76c3308c0e4fb3,5f076cd8d03a5413224f32cf,6,,,,,,gorilla,,,,,,0,37,37,49,1,5,0,,,,,,,,,,,,,,,,,,,,,,,,,,,,,,,,,,,,,,,,,,,,,,,,,,,,,,,,,,,,,,,,,,,,,,,,,,,
,,,,,,,,,,stimuli/images/PICTURE_95.png,STYLE,5f03579ef3d5b3546f323d47,17/03/1950,2020-07-09_15h16.15.760,proactive,2020.1.2,MacIntel,60,5f073de81c76c3308c0e4fb3,5f076cd8d03a5413224f32cf,6,,,,,,suitcase,,,,,,0,38,38,25,1,3,0,,,,,,,,,,,,,,,,,,,,,,,,,,,,,,,,,,,,,,,,,,,,,,,,,,,,,,,,,,,,,,,,,,,,,,,,,,,
,,,,,,,,,,stimuli/images/PICTURE_688.png,CASINO,5f03579ef3d5b3546f323d47,17/03/1950,2020-07-09_15h16.15.760,proactive,2020.1.2,MacIntel,60,5f073de81c76c3308c0e4fb3,5f076cd8d03a5413224f32cf,6,,,,,,runner,,,,,,0,39,39,2,1,1,0,,,,,,,,,,,,,,,,,,,,,,,,,,,,,,,,,,,,,,,,,,,,,,,,,,,,,,,,,,,,,,,,,,,,,,,,,,,
,,,,,,,,,,stimuli/images/PICTURE_470.png,CASINO,5f03579ef3d5b3546f323d47,17/03/1950,2020-07-09_15h16.15.760,proactive,2020.1.2,MacIntel,60,5f073de81c76c3308c0e4fb3,5f076cd8d03a5413224f32cf,6,,,,,,motorbike,,,,,,0,40,40,36,1,4,0,,,,,,,,,,,,,,,,,,,,,,,,,,,,,,,,,,,,,,,,,,,,,,,,,,,,,,,,,,,,,,,,,,,,,,,,,,,
,,,,,,,,,,stimuli/images/PICTURE_308.png,ESTATE,5f03579ef3d5b3546f323d47,17/03/1950,2020-07-09_15h16.15.760,proactive,2020.1.2,MacIntel,60,5f073de81c76c3308c0e4fb3,5f076cd8d03a5413224f32cf,6,,,,,,dice,,,,,,0,41,41,46,1,5,0,,,,,,,,,,,,,,,,,,,,,,,,,,,,,,,,,,,,,,,,,,,,,,,,,,,,,,,,,,,,,,,,,,,,,,,,,,,
,,,,,,,,,,stimuli/images/PICTURE_509.png,PHOTO,5f03579ef3d5b3546f323d47,17/03/1950,2020-07-09_15h16.15.760,proactive,2020.1.2,MacIntel,60,5f073de81c76c3308c0e4fb3,5f076cd8d03a5413224f32cf,6,,,,,,telephone,,,,,,0,42,42,21,1,3,0,,,,,,,,,,,,,,,,,,,,,,,,,,,,,,,,,,,,,,,,,,,,,,,,,,,,,,,,,,,,,,,,,,,,,,,,,,,
,,,,,,,,,,stimuli/images/PICTURE_467.png,DEMON,5f03579ef3d5b3546f323d47,17/03/1950,2020-07-09_15h16.15.760,proactive,2020.1.2,MacIntel,60,5f073de81c76c3308c0e4fb3,5f076cd8d03a5413224f32cf,6,,,,,,peg,,,,,,0,43,43,23,1,3,0,,,,,,,,,,,,,,,,,,,,,,,,,,,,,,,,,,,,,,,,,,,,,,,,,,,,,,,,,,,,,,,,,,,,,,,,,,,
,,,,,,,,,,stimuli/images/PICTURE_233.png,IDEAS,5f03579ef3d5b3546f323d47,17/03/1950,2020-07-09_15h16.15.760,proactive,2020.1.2,MacIntel,60,5f073de81c76c3308c0e4fb3,5f076cd8d03a5413224f32cf,6,,,,,,salt,,,,,,0,44,44,28,1,3,0,,,,,,,,,,,,,,,,,,,,,,,,,,,,,,,,,,,,,,,,,,,,,,,,,,,,,,,,,,,,,,,,,,,,,,,,,,,
,,,,,,,,,,stimuli/images/PICTURE_248.png,DOZEN,5f03579ef3d5b3546f323d47,17/03/1950,2020-07-09_15h16.15.760,proactive,2020.1.2,MacIntel,60,5f073de81c76c3308c0e4fb3,5f076cd8d03a5413224f32cf,6,,,,,,cart,,,,,,0,45,45,39,1,4,0,,,,,,,,,,,,,,,,,,,,,,,,,,,,,,,,,,,,,,,,,,,,,,,,,,,,,,,,,,,,,,,,,,,,,,,,,,,
,,,,,,,,,,stimuli/images/PICTURE_708.png,YARD,5f03579ef3d5b3546f323d47,17/03/1950,2020-07-09_15h16.15.760,proactive,2020.1.2,MacIntel,60,5f073de81c76c3308c0e4fb3,5f076cd8d03a5413224f32cf,6,,,,,,monkey,,,,,,0,46,46,29,1,3,0,,,,,,,,,,,,,,,,,,,,,,,,,,,,,,,,,,,,,,,,,,,,,,,,,,,,,,,,,,,,,,,,,,,,,,,,,,,
,,,,,,,,,,stimuli/images/PICTURE_32.png,JUNGLE,5f03579ef3d5b3546f323d47,17/03/1950,2020-07-09_15h16.15.760,proactive,2020.1.2,MacIntel,60,5f073de81c76c3308c0e4fb3,5f076cd8d03a5413224f32cf,6,,,,,,crown,,,,,,0,47,47,45,1,5,0,,,,,,,,,,,,,,,,,,,,,,,,,,,,,,,,,,,,,,,,,,,,,,,,,,,,,,,,,,,,,,,,,,,,,,,,,,,
,,,,,,,,,,stimuli/images/PICTURE_453.png,DUDE,5f03579ef3d5b3546f323d47,17/03/1950,2020-07-09_15h16.15.760,proactive,2020.1.2,MacIntel,60,5f073de81c76c3308c0e4fb3,5f076cd8d03a5413224f32cf,6,,,,,,scissors,,,,,,0,48,48,27,1,3,0,,,,,,,,,,,,,,,,,,,,,,,,,,,,,,,,,,,,,,,,,,,,,,,,,,,,,,,,,,,,,,,,,,,,,,,,,,,
,,,,,,,,,,stimuli/images/PICTURE_487.png,FLIGHT,5f03579ef3d5b3546f323d47,17/03/1950,2020-07-09_15h16.15.760,proactive,2020.1.2,MacIntel,60,5f073de81c76c3308c0e4fb3,5f076cd8d03a5413224f32cf,6,,,,,,basket,,,,,,0,49,49,9,1,1,0,,,,,,,,,,,,,,,,,,,,,,,,,,,,,,,,,,,,,,,,,,,,,,,,,,,,,,,,,,,,,,,,,,,,,,,,,,,
,,,,,,,,,,stimuli/images/PICTURE_675.png,WEAPON,5f03579ef3d5b3546f323d47,17/03/1950,2020-07-09_15h16.15.760,proactive,2020.1.2,MacIntel,60,5f073de81c76c3308c0e4fb3,5f076cd8d03a5413224f32cf,6,,,,,,windmill,,,,,,0,50,50,32,1,4,0,,,,,,,,,,,,,,,,,,,,,,,,,,,,,,,,,,,,,,,,,,,,,,,,,,,,,,,,,,,,,,,,,,,,,,,,,,,
,,,,,,,,,,stimuli/images/PICTURE_85.png,THING,5f03579ef3d5b3546f323d47,17/03/1950,2020-07-09_15h16.15.760,proactive,2020.1.2,MacIntel,60,5f073de81c76c3308c0e4fb3,5f076cd8d03a5413224f32cf,6,,,,,,diamond,,,,,,0,51,51,15,1,2,0,,,,,,,,,,,,,,,,,,,,,,,,,,,,,,,,,,,,,,,,,,,,,,,,,,,,,,,,,,,,,,,,,,,,,,,,,,,
,,,,,,,,,,stimuli/images/PICTURE_215.png,PLENTY,5f03579ef3d5b3546f323d47,17/03/1950,2020-07-09_15h16.15.760,proactive,2020.1.2,MacIntel,60,5f073de81c76c3308c0e4fb3,5f076cd8d03a5413224f32cf,6,,,,,,boot,,,,,,0,52,52,37,1,4,0,,,,,,,,,,,,,,,,,,,,,,,,,,,,,,,,,,,,,,,,,,,,,,,,,,,,,,,,,,,,,,,,,,,,,,,,,,,
,,,,,,,,,,stimuli/images/PICTURE_348.png,SPEECH,5f03579ef3d5b3546f323d47,17/03/1950,2020-07-09_15h16.15.760,proactive,2020.1.2,MacIntel,60,5f073de81c76c3308c0e4fb3,5f076cd8d03a5413224f32cf,6,,,,,,pepper,,,,,,0,53,53,20,1,3,0,,,,,,,,,,,,,,,,,,,,,,,,,,,,,,,,,,,,,,,,,,,,,,,,,,,,,,,,,,,,,,,,,,,,,,,,,,,
,,,,,,,,,,stimuli/images/PICTURE_327.png,BEAUTY,5f03579ef3d5b3546f323d47,17/03/1950,2020-07-09_15h16.15.760,proactive,2020.1.2,MacIntel,60,5f073de81c76c3308c0e4fb3,5f076cd8d03a5413224f32cf,6,,,,,,helmet,,,,,,0,54,54,48,1,5,0,,,,,,,,,,,,,,,,,,,,,,,,,,,,,,,,,,,,,,,,,,,,,,,,,,,,,,,,,,,,,,,,,,,,,,,,,,,
,,,,,,,,,,stimuli/images/PICTURE_311.png,BEAUTY,5f03579ef3d5b3546f323d47,17/03/1950,2020-07-09_15h16.15.760,proactive,2020.1.2,MacIntel,60,5f073de81c76c3308c0e4fb3,5f076cd8d03a5413224f32cf,6,,,,,,razor,,,,,,0,55,55,13,1,2,0,,,,,,,,,,,,,,,,,,,,,,,,,,,,,,,,,,,,,,,,,,,,,,,,,,,,,,,,,,,,,,,,,,,,,,,,,,,
,,,,,,,,,,stimuli/images/PICTURE_314.png,SAKE,5f03579ef3d5b3546f323d47,17/03/1950,2020-07-09_15h16.15.760,proactive,2020.1.2,MacIntel,60,5f073de81c76c3308c0e4fb3,5f076cd8d03a5413224f32cf,6,,,,,,perfume,,,,,,0,56,56,7,1,1,0,,,,,,,,,,,,,,,,,,,,,,,,,,,,,,,,,,,,,,,,,,,,,,,,,,,,,,,,,,,,,,,,,,,,,,,,,,,
,,,,,,,,,,stimuli/images/PICTURE_68.png,MILE,5f03579ef3d5b3546f323d47,17/03/1950,2020-07-09_15h16.15.760,proactive,2020.1.2,MacIntel,60,5f073de81c76c3308c0e4fb3,5f076cd8d03a5413224f32cf,6,,,,,,candle,,,,,,0,57,57,44,1,5,0,,,,,,,,,,,,,,,,,,,,,,,,,,,,,,,,,,,,,,,,,,,,,,,,,,,,,,,,,,,,,,,,,,,,,,,,,,,
,,,,,,,,,,stimuli/images/PICTURE_123.png,ADVICE,5f03579ef3d5b3546f323d47,17/03/1950,2020-07-09_15h16.15.760,proactive,2020.1.2,MacIntel,60,5f073de81c76c3308c0e4fb3,5f076cd8d03a5413224f32cf,6,,,,,,dart,,,,,,0,58,58,50,1,6,0,,,,,,,,,,,,,,,,,,,,,,,,,,,,,,,,,,,,,,,,,,,,,,,,,,,,,,,,,,,,,,,,,,,,,,,,,,,
,,?,0.001085,0,,,,,,stimuli/images/PICTURE_285.png,ADVICE,5f03579ef3d5b3546f323d47,17/03/1950,2020-07-09_15h16.15.760,proactive,2020.1.2,MacIntel,60,5f073de81c76c3308c0e4fb3,5f076cd8d03a5413224f32cf,6,,,,,,carrot,,,,,,,,,,,2,0,0,0,0,12,1,,,,,,,,,,,,,,,,,,,,,,,,,,,,,,,,,,,,,,,,,,,,,,,,,,,,,,,,,,,,,,,,,,,,,,
,,?,0.00085,0,,,,,,stimuli/images/PICTURE_667.png,PLENTY,5f03579ef3d5b3546f323d47,17/03/1950,2020-07-09_15h16.15.760,proactive,2020.1.2,MacIntel,60,5f073de81c76c3308c0e4fb3,5f076cd8d03a5413224f32cf,6,,,,,,daisy,,,,,,,,,,,5,0,0,1,1,41,1,,,,,,,,,,,,,,,,,,,,,,,,,,,,,,,,,,,,,,,,,,,,,,,,,,,,,,,,,,,,,,,,,,,,,,
,,SUCKS,11.00505,0,,,,,,stimuli/images/PICTURE_308.png,KIND,5f03579ef3d5b3546f323d47,17/03/1950,2020-07-09_15h16.15.760,proactive,2020.1.2,MacIntel,60,5f073de81c76c3308c0e4fb3,5f076cd8d03a5413224f32cf,6,,,,,,dice,,,,,,,,,,,6,0,0,2,2,54,1,,,,,,,,,,,,,,,,,,,,,,,,,,,,,,,,,,,,,,,,,,,,,,,,,,,,,,,,,,,,,,,,,,,,,,
,,?,0.00151,0,,,,,,stimuli/images/PICTURE_339.png,PLENTY,5f03579ef3d5b3546f323d47,17/03/1950,2020-07-09_15h16.15.760,proactive,2020.1.2,MacIntel,60,5f073de81c76c3308c0e4fb3,5f076cd8d03a5413224f32cf,6,,,,,,backpack,,,,,,,,,,,1,0,0,3,3,0,1,,,,,,,,,,,,,,,,,,,,,,,,,,,,,,,,,,,,,,,,,,,,,,,,,,,,,,,,,,,,,,,,,,,,,,
,,?,0.001105,0,,,,,,stimuli/images/PICTURE_469.png,ARTIST,5f03579ef3d5b3546f323d47,17/03/1950,2020-07-09_15h16.15.760,proactive,2020.1.2,MacIntel,60,5f073de81c76c3308c0e4fb3,5f076cd8d03a5413224f32cf,6,,,,,,stool,,,,,,,,,,,1,0,0,4,4,6,1,,,,,,,,,,,,,,,,,,,,,,,,,,,,,,,,,,,,,,,,,,,,,,,,,,,,,,,,,,,,,,,,,,,,,,
,,MOMENT,5.180075,1,,,,,,stimuli/images/PICTURE_147.png,MOMENT,5f03579ef3d5b3546f323d47,17/03/1950,2020-07-09_15h16.15.760,proactive,2020.1.2,MacIntel,60,5f073de81c76c3308c0e4fb3,5f076cd8d03a5413224f32cf,6,,,,,,hanger,,,,,,,,,,,6,0,0,5,5,51,1,,,,,,,,,,,,,,,,,,,,,,,,,,,,,,,,,,,,,,,,,,,,,,,,,,,,,,,,,,,,,,,,,,,,,,
,,?,0.001895,0,,,,,,stimuli/images/PICTURE_327.png,BEAUTY,5f03579ef3d5b3546f323d47,17/03/1950,2020-07-09_15h16.15.760,proactive,2020.1.2,MacIntel,60,5f073de81c76c3308c0e4fb3,5f076cd8d03a5413224f32cf,6,,,,,,helmet,,,,,,,,,,,5,0,0,6,6,48,1,,,,,,,,,,,,,,,,,,,,,,,,,,,,,,,,,,,,,,,,,,,,,,,,,,,,,,,,,,,,,,,,,,,,,,
,,?,0.00108,0,,,,,,stimuli/images/PICTURE_177.png,CARS,5f03579ef3d5b3546f323d47,17/03/1950,2020-07-09_15h16.15.760,proactive,2020.1.2,MacIntel,60,5f073de81c76c3308c0e4fb3,5f076cd8d03a5413224f32cf,6,,,,,,mushroom,,,,,,,,,,,4,0,0,7,7,35,1,,,,,,,,,,,,,,,,,,,,,,,,,,,,,,,,,,,,,,,,,,,,,,,,,,,,,,,,,,,,,,,,,,,,,,
,,WRITER,3.391545,1,,,,,,stimuli/images/PICTURE_491.png,WRITER,5f03579ef3d5b3546f323d47,17/03/1950,2020-07-09_15h16.15.760,proactive,2020.1.2,MacIntel,60,5f073de81c76c3308c0e4fb3,5f076cd8d03a5413224f32cf,6,,,,,,rug,,,,,,,,,,,6,0,0,8,8,57,1,,,,,,,,,,,,,,,,,,,,,,,,,,,,,,,,,,,,,,,,,,,,,,,,,,,,,,,,,,,,,,,,,,,,,,
,,?,0.00251,0,,,,,,stimuli/images/PICTURE_744.png,SAKE,5f03579ef3d5b3546f323d47,17/03/1950,2020-07-09_15h16.15.760,proactive,2020.1.2,MacIntel,60,5f073de81c76c3308c0e4fb3,5f076cd8d03a5413224f32cf,6,,,,,,ring,,,,,,,,,,,2,0,0,9,9,17,1,,,,,,,,,,,,,,,,,,,,,,,,,,,,,,,,,,,,,,,,,,,,,,,,,,,,,,,,,,,,,,,,,,,,,,
,,?,0.001045,0,,,,,,stimuli/images/PICTURE_302.png,FAMILY,5f03579ef3d5b3546f323d47,17/03/1950,2020-07-09_15h16.15.760,proactive,2020.1.2,MacIntel,60,5f073de81c76c3308c0e4fb3,5f076cd8d03a5413224f32cf,6,,,,,,taxi,,,,,,,,,,,2,0,0,10,10,18,1,,,,,,,,,,,,,,,,,,,,,,,,,,,,,,,,,,,,,,,,,,,,,,,,,,,,,,,,,,,,,,,,,,,,,,
,,?,0.00161,0,,,,,,stimuli/images/PICTURE_32.png,JUNGLE,5f03579ef3d5b3546f323d47,17/03/1950,2020-07-09_15h16.15.760,proactive,2020.1.2,MacIntel,60,5f073de81c76c3308c0e4fb3,5f076cd8d03a5413224f32cf,6,,,,,,crown,,,,,,,,,,,5,0,0,11,11,45,1,,,,,,,,,,,,,,,,,,,,,,,,,,,,,,,,,,,,,,,,,,,,,,,,,,,,,,,,,,,,,,,,,,,,,,
,,?,0.00079,0,,,,,,stimuli/images/PICTURE_708.png,CLIENT,5f03579ef3d5b3546f323d47,17/03/1950,2020-07-09_15h16.15.760,proactive,2020.1.2,MacIntel,60,5f073de81c76c3308c0e4fb3,5f076cd8d03a5413224f32cf,6,,,,,,monkey,,,,,,,,,,,1,0,0,12,12,5,1,,,,,,,,,,,,,,,,,,,,,,,,,,,,,,,,,,,,,,,,,,,,,,,,,,,,,,,,,,,,,,,,,,,,,,
,,?,0.00078,0,,,,,,stimuli/images/PICTURE_314.png,SAKE,5f03579ef3d5b3546f323d47,17/03/1950,2020-07-09_15h16.15.760,proactive,2020.1.2,MacIntel,60,5f073de81c76c3308c0e4fb3,5f076cd8d03a5413224f32cf,6,,,,,,perfume,,,,,,,,,,,1,0,0,13,13,7,1,,,,,,,,,,,,,,,,,,,,,,,,,,,,,,,,,,,,,,,,,,,,,,,,,,,,,,,,,,,,,,,,,,,,,,
,,PLENTY,3.603485,1,,,,,,stimuli/images/PICTURE_453.png,PLENTY,5f03579ef3d5b3546f323d47,17/03/1950,2020-07-09_15h16.15.760,proactive,2020.1.2,MacIntel,60,5f073de81c76c3308c0e4fb3,5f076cd8d03a5413224f32cf,6,,,,,,scissors,,,,,,,,,,,6,0,0,14,14,56,1,,,,,,,,,,,,,,,,,,,,,,,,,,,,,,,,,,,,,,,,,,,,,,,,,,,,,,,,,,,,,,,,,,,,,,
,,?,0.00257,0,,,,,,stimuli/images/PICTURE_160.png,LEADER,5f03579ef3d5b3546f323d47,17/03/1950,2020-07-09_15h16.15.760,proactive,2020.1.2,MacIntel,60,5f073de81c76c3308c0e4fb3,5f076cd8d03a5413224f32cf,6,,,,,,wheelbarrow,,,,,,,,,,,1,0,0,15,15,3,1,,,,,,,,,,,,,,,,,,,,,,,,,,,,,,,,,,,,,,,,,,,,,,,,,,,,,,,,,,,,,,,,,,,,,,
,,?,0.00104,0,,,,,,stimuli/images/PICTURE_208.png,LOTS,5f03579ef3d5b3546f323d47,17/03/1950,2020-07-09_15h16.15.760,proactive,2020.1.2,MacIntel,60,5f073de81c76c3308c0e4fb3,5f076cd8d03a5413224f32cf,6,,,,,,microphone,,,,,,,,,,,2,0,0,16,16,10,1,,,,,,,,,,,,,,,,,,,,,,,,,,,,,,,,,,,,,,,,,,,,,,,,,,,,,,,,,,,,,,,,,,,,,,
,,?,0.000875,0,,,,,,stimuli/images/PICTURE_311.png,BEAUTY,5f03579ef3d5b3546f323d47,17/03/1950,2020-07-09_15h16.15.760,proactive,2020.1.2,MacIntel,60,5f073de81c76c3308c0e4fb3,5f076cd8d03a5413224f32cf,6,,,,,,razor,,,,,,,,,,,2,0,0,17,17,13,1,,,,,,,,,,,,,,,,,,,,,,,,,,,,,,,,,,,,,,,,,,,,,,,,,,,,,,,,,,,,,,,,,,,,,,
,,?,0.000885,0,,,,,,stimuli/images/PICTURE_509.png,PHOTO,5f03579ef3d5b3546f323d47,17/03/1950,2020-07-09_15h16.15.760,proactive,2020.1.2,MacIntel,60,5f073de81c76c3308c0e4fb3,5f076cd8d03a5413224f32cf,6,,,,,,telephone,,,,,,,,,,,3,0,0,18,18,21,1,,,,,,,,,,,,,,,,,,,,,,,,,,,,,,,,,,,,,,,,,,,,,,,,,,,,,,,,,,,,,,,,,,,,,,
,,?,0.000945,0,,,,,,stimuli/images/PICTURE_348.png,SPEECH,5f03579ef3d5b3546f323d47,17/03/1950,2020-07-09_15h16.15.760,proactive,2020.1.2,MacIntel,60,5f073de81c76c3308c0e4fb3,5f076cd8d03a5413224f32cf,6,,,,,,pepper,,,,,,,,,,,3,0,0,19,19,20,1,,,,,,,,,,,,,,,,,,,,,,,,,,,,,,,,,,,,,,,,,,,,,,,,,,,,,,,,,,,,,,,,,,,,,,
,,?,0.000745,0,,,,,,stimuli/images/PICTURE_708.png,PENNY,5f03579ef3d5b3546f323d47,17/03/1950,2020-07-09_15h16.15.760,proactive,2020.1.2,MacIntel,60,5f073de81c76c3308c0e4fb3,5f076cd8d03a5413224f32cf,6,,,,,,monkey,,,,,,,,,,,4,0,0,20,20,31,1,,,,,,,,,,,,,,,,,,,,,,,,,,,,,,,,,,,,,,,,,,,,,,,,,,,,,,,,,,,,,,,,,,,,,,
,,?,0.00075,0,,,,,,stimuli/images/PICTURE_208.png,THING,5f03579ef3d5b3546f323d47,17/03/1950,2020-07-09_15h16.15.760,proactive,2020.1.2,MacIntel,60,5f073de81c76c3308c0e4fb3,5f076cd8d03a5413224f32cf,6,,,,,,microphone,,,,,,,,,,,5,0,0,21,21,47,1,,,,,,,,,,,,,,,,,,,,,,,,,,,,,,,,,,,,,,,,,,,,,,,,,,,,,,,,,,,,,,,,,,,,,,
,,?,0.000685,0,,,,,,stimuli/images/PICTURE_85.png,THING,5f03579ef3d5b3546f323d47,17/03/1950,2020-07-09_15h16.15.760,proactive,2020.1.2,MacIntel,60,5f073de81c76c3308c0e4fb3,5f076cd8d03a5413224f32cf,6,,,,,,diamond,,,,,,,,,,,2,0,0,22,22,15,1,,,,,,,,,,,,,,,,,,,,,,,,,,,,,,,,,,,,,,,,,,,,,,,,,,,,,,,,,,,,,,,,,,,,,,
,,?,0.00056,0,,,,,,stimuli/images/PICTURE_453.png,DUDE,5f03579ef3d5b3546f323d47,17/03/1950,2020-07-09_15h16.15.760,proactive,2020.1.2,MacIntel,60,5f073de81c76c3308c0e4fb3,5f076cd8d03a5413224f32cf,6,,,,,,scissors,,,,,,,,,,,3,0,0,23,23,27,1,,,,,,,,,,,,,,,,,,,,,,,,,,,,,,,,,,,,,,,,,,,,,,,,,,,,,,,,,,,,,,,,,,,,,,
,,?,0.000555,0,,,,,,stimuli/images/PICTURE_308.png,ESTATE,5f03579ef3d5b3546f323d47,17/03/1950,2020-07-09_15h16.15.760,proactive,2020.1.2,MacIntel,60,5f073de81c76c3308c0e4fb3,5f076cd8d03a5413224f32cf,6,,,,,,dice,,,,,,,,,,,5,0,0,24,24,46,1,,,,,,,,,,,,,,,,,,,,,,,,,,,,,,,,,,,,,,,,,,,,,,,,,,,,,,,,,,,,,,,,,,,,,,
,,ADVICE,3.81312,1,,,,,,stimuli/images/PICTURE_123.png,ADVICE,5f03579ef3d5b3546f323d47,17/03/1950,2020-07-09_15h16.15.760,proactive,2020.1.2,MacIntel,60,5f073de81c76c3308c0e4fb3,5f076cd8d03a5413224f32cf,6,,,,,,dart,,,,,,,,,,,6,0,0,25,25,50,1,,,,,,,,,,,,,,,,,,,,,,,,,,,,,,,,,,,,,,,,,,,,,,,,,,,,,,,,,,,,,,,,,,,,,,
,,?,0.001785,0,,,,,,stimuli/images/PICTURE_688.png,CASINO,5f03579ef3d5b3546f323d47,17/03/1950,2020-07-09_15h16.15.760,proactive,2020.1.2,MacIntel,60,5f073de81c76c3308c0e4fb3,5f076cd8d03a5413224f32cf,6,,,,,,runner,,,,,,,,,,,1,0,0,26,26,2,1,,,,,,,,,,,,,,,,,,,,,,,,,,,,,,,,,,,,,,,,,,,,,,,,,,,,,,,,,,,,,,,,,,,,,,
,,THING,3.51093,1,,,,,,stimuli/images/PICTURE_449.png,THING,5f03579ef3d5b3546f323d47,17/03/1950,2020-07-09_15h16.15.760,proactive,2020.1.2,MacIntel,60,5f073de81c76c3308c0e4fb3,5f076cd8d03a5413224f32cf,6,,,,,,bench,,,,,,,,,,,6,0,0,27,27,59,1,,,,,,,,,,,,,,,,,,,,,,,,,,,,,,,,,,,,,,,,,,,,,,,,,,,,,,,,,,,,,,,,,,,,,,
,,?,0.00191,0,,,,,,stimuli/images/PICTURE_688.png,WOMEN,5f03579ef3d5b3546f323d47,17/03/1950,2020-07-09_15h16.15.760,proactive,2020.1.2,MacIntel,60,5f073de81c76c3308c0e4fb3,5f076cd8d03a5413224f32cf,6,,,,,,runner,,,,,,,,,,,2,0,0,28,28,14,1,,,,,,,,,,,,,,,,,,,,,,,,,,,,,,,,,,,,,,,,,,,,,,,,,,,,,,,,,,,,,,,,,,,,,,
,,?,0.00106,0,,,,,,stimuli/images/PICTURE_667.png,BATH,5f03579ef3d5b3546f323d47,17/03/1950,2020-07-09_15h16.15.760,proactive,2020.1.2,MacIntel,60,5f073de81c76c3308c0e4fb3,5f076cd8d03a5413224f32cf,6,,,,,,daisy,,,,,,,,,,,1,0,0,29,29,4,1,,,,,,,,,,,,,,,,,,,,,,,,,,,,,,,,,,,,,,,,,,,,,,,,,,,,,,,,,,,,,,,,,,,,,,
,,?,0.00092,0,,,,,,stimuli/images/PICTURE_233.png,IDEAS,5f03579ef3d5b3546f323d47,17/03/1950,2020-07-09_15h16.15.760,proactive,2020.1.2,MacIntel,60,5f073de81c76c3308c0e4fb3,5f076cd8d03a5413224f32cf,6,,,,,,salt,,,,,,,,,,,3,0,0,30,30,28,1,,,,,,,,,,,,,,,,,,,,,,,,,,,,,,,,,,,,,,,,,,,,,,,,,,,,,,,,,,,,,,,,,,,,,,
,,?,0.00091,0,,,,,,stimuli/images/PICTURE_233.png,WOMEN,5f03579ef3d5b3546f323d47,17/03/1950,2020-07-09_15h16.15.760,proactive,2020.1.2,MacIntel,60,5f073de81c76c3308c0e4fb3,5f076cd8d03a5413224f32cf,6,,,,,,salt,,,,,,,,,,,4,0,0,31,31,38,1,,,,,,,,,,,,,,,,,,,,,,,,,,,,,,,,,,,,,,,,,,,,,,,,,,,,,,,,,,,,,,,,,,,,,,
,,?,0.00075,0,,,,,,stimuli/images/PICTURE_488.png,STYLE,5f03579ef3d5b3546f323d47,17/03/1950,2020-07-09_15h16.15.760,proactive,2020.1.2,MacIntel,60,5f073de81c76c3308c0e4fb3,5f076cd8d03a5413224f32cf,6,,,,,,sun,,,,,,,,,,,4,0,0,32,32,33,1,,,,,,,,,,,,,,,,,,,,,,,,,,,,,,,,,,,,,,,,,,,,,,,,,,,,,,,,,,,,,,,,,,,,,,
,,ALARM,5.969795,0,,,,,,stimuli/images/PICTURE_356.png,DANGER,5f03579ef3d5b3546f323d47,17/03/1950,2020-07-09_15h16.15.760,proactive,2020.1.2,MacIntel,60,5f073de81c76c3308c0e4fb3,5f076cd8d03a5413224f32cf,6,,,,,,pawn,,,,,,,,,,,6,0,0,33,33,55,1,,,,,,,,,,,,,,,,,,,,,,,,,,,,,,,,,,,,,,,,,,,,,,,,,,,,,,,,,,,,,,,,,,,,,,
,,?,0.002645,0,,,,,,stimuli/images/PICTURE_744.png,SYSTEM,5f03579ef3d5b3546f323d47,17/03/1950,2020-07-09_15h16.15.760,proactive,2020.1.2,MacIntel,60,5f073de81c76c3308c0e4fb3,5f076cd8d03a5413224f32cf,6,,,,,,ring,,,,,,,,,,,5,0,0,34,34,43,1,,,,,,,,,,,,,,,,,,,,,,,,,,,,,,,,,,,,,,,,,,,,,,,,,,,,,,,,,,,,,,,,,,,,,,
,,?,0.00111,0,,,,,,stimuli/images/PICTURE_203.png,ARTIST,5f03579ef3d5b3546f323d47,17/03/1950,2020-07-09_15h16.15.760,proactive,2020.1.2,MacIntel,60,5f073de81c76c3308c0e4fb3,5f076cd8d03a5413224f32cf,6,,,,,,cap,,,,,,,,,,,3,0,0,35,35,26,1,,,,,,,,,,,,,,,,,,,,,,,,,,,,,,,,,,,,,,,,,,,,,,,,,,,,,,,,,,,,,,,,,,,,,,
,,?,0.00088,0,,,,,,stimuli/images/PICTURE_151.png,GIRL,5f03579ef3d5b3546f323d47,17/03/1950,2020-07-09_15h16.15.760,proactive,2020.1.2,MacIntel,60,5f073de81c76c3308c0e4fb3,5f076cd8d03a5413224f32cf,6,,,,,,tray,,,,,,,,,,,2,0,0,36,36,19,1,,,,,,,,,,,,,,,,,,,,,,,,,,,,,,,,,,,,,,,,,,,,,,,,,,,,,,,,,,,,,,,,,,,,,,
,,MONTH,3.141945,1,,,,,,stimuli/images/PICTURE_208.png,MONTH,5f03579ef3d5b3546f323d47,17/03/1950,2020-07-09_15h16.15.760,proactive,2020.1.2,MacIntel,60,5f073de81c76c3308c0e4fb3,5f076cd8d03a5413224f32cf,6,,,,,,microphone,,,,,,,,,,,6,0,0,37,37,53,1,,,,,,,,,,,,,,,,,,,,,,,,,,,,,,,,,,,,,,,,,,,,,,,,,,,,,,,,,,,,,,,,,,,,,,
,,?,0.00112,0,,,,,,stimuli/images/PICTURE_675.png,WEAPON,5f03579ef3d5b3546f323d47,17/03/1950,2020-07-09_15h16.15.760,proactive,2020.1.2,MacIntel,60,5f073de81c76c3308c0e4fb3,5f076cd8d03a5413224f32cf,6,,,,,,windmill,,,,,,,,,,,4,0,0,38,38,32,1,,,,,,,,,,,,,,,,,,,,,,,,,,,,,,,,,,,,,,,,,,,,,,,,,,,,,,,,,,,,,,,,,,,,,,
,,?,0.00103,0,,,,,,stimuli/images/PICTURE_123.png,ADVICE,5f03579ef3d5b3546f323d47,17/03/1950,2020-07-09_15h16.15.760,proactive,2020.1.2,MacIntel,60,5f073de81c76c3308c0e4fb3,5f076cd8d03a5413224f32cf,6,,,,,,dart,,,,,,,,,,,5,0,0,39,39,40,1,,,,,,,,,,,,,,,,,,,,,,,,,,,,,,,,,,,,,,,,,,,,,,,,,,,,,,,,,,,,,,,,,,,,,,
,,?,0.001165,0,,,,,,stimuli/images/PICTURE_469.png,LETTER,5f03579ef3d5b3546f323d47,17/03/1950,2020-07-09_15h16.15.760,proactive,2020.1.2,MacIntel,60,5f073de81c76c3308c0e4fb3,5f076cd8d03a5413224f32cf,6,,,,,,stool,,,,,,,,,,,5,0,0,40,40,42,1,,,,,,,,,,,,,,,,,,,,,,,,,,,,,,,,,,,,,,,,,,,,,,,,,,,,,,,,,,,,,,,,,,,,,,
,,?,0.00072,0,,,,,,stimuli/images/PICTURE_248.png,DOZEN,5f03579ef3d5b3546f323d47,17/03/1950,2020-07-09_15h16.15.760,proactive,2020.1.2,MacIntel,60,5f073de81c76c3308c0e4fb3,5f076cd8d03a5413224f32cf,6,,,,,,cart,,,,,,,,,,,4,0,0,41,41,39,1,,,,,,,,,,,,,,,,,,,,,,,,,,,,,,,,,,,,,,,,,,,,,,,,,,,,,,,,,,,,,,,,,,,,,,
,,FEET,3.33755,1,,,,,,stimuli/images/PICTURE_160.png,FEET,5f03579ef3d5b3546f323d47,17/03/1950,2020-07-09_15h16.15.760,proactive,2020.1.2,MacIntel,60,5f073de81c76c3308c0e4fb3,5f076cd8d03a5413224f32cf,6,,,,,,wheelbarrow,,,,,,,,,,,6,0,0,42,42,58,1,,,,,,,,,,,,,,,,,,,,,,,,,,,,,,,,,,,,,,,,,,,,,,,,,,,,,,,,,,,,,,,,,,,,,,
,,?,0.002535,0,,,,,,stimuli/images/PICTURE_470.png,CASINO,5f03579ef3d5b3546f323d47,17/03/1950,2020-07-09_15h16.15.760,proactive,2020.1.2,MacIntel,60,5f073de81c76c3308c0e4fb3,5f076cd8d03a5413224f32cf,6,,,,,,motorbike,,,,,,,,,,,4,0,0,43,43,36,1,,,,,,,,,,,,,,,,,,,,,,,,,,,,,,,,,,,,,,,,,,,,,,,,,,,,,,,,,,,,,,,,,,,,,,
,,?,0.001055,0,,,,,,stimuli/images/PICTURE_215.png,PLENTY,5f03579ef3d5b3546f323d47,17/03/1950,2020-07-09_15h16.15.760,proactive,2020.1.2,MacIntel,60,5f073de81c76c3308c0e4fb3,5f076cd8d03a5413224f32cf,6,,,,,,boot,,,,,,,,,,,4,0,0,44,44,37,1,,,,,,,,,,,,,,,,,,,,,,,,,,,,,,,,,,,,,,,,,,,,,,,,,,,,,,,,,,,,,,,,,,,,,,
,,?,0.00088,0,,,,,,stimuli/images/PICTURE_692.png,MONTH,5f03579ef3d5b3546f323d47,17/03/1950,2020-07-09_15h16.15.760,proactive,2020.1.2,MacIntel,60,5f073de81c76c3308c0e4fb3,5f076cd8d03a5413224f32cf,6,,,,,,cherry,,,,,,,,,,,2,0,0,45,45,16,1,,,,,,,,,,,,,,,,,,,,,,,,,,,,,,,,,,,,,,,,,,,,,,,,,,,,,,,,,,,,,,,,,,,,,,
,,?,0.000965,0,,,,,,stimuli/images/PICTURE_708.png,YARD,5f03579ef3d5b3546f323d47,17/03/1950,2020-07-09_15h16.15.760,proactive,2020.1.2,MacIntel,60,5f073de81c76c3308c0e4fb3,5f076cd8d03a5413224f32cf,6,,,,,,monkey,,,,,,,,,,,3,0,0,46,46,29,1,,,,,,,,,,,,,,,,,,,,,,,,,,,,,,,,,,,,,,,,,,,,,,,,,,,,,,,,,,,,,,,,,,,,,,
,,?,0.00091,0,,,,,,stimuli/images/PICTURE_491.png,ROOF,5f03579ef3d5b3546f323d47,17/03/1950,2020-07-09_15h16.15.760,proactive,2020.1.2,MacIntel,60,5f073de81c76c3308c0e4fb3,5f076cd8d03a5413224f32cf,6,,,,,,rug,,,,,,,,,,,3,0,0,47,47,24,1,,,,,,,,,,,,,,,,,,,,,,,,,,,,,,,,,,,,,,,,,,,,,,,,,,,,,,,,,,,,,,,,,,,,,,
,,?,0.00243,0,,,,,,stimuli/images/PICTURE_380.png,DEATH,5f03579ef3d5b3546f323d47,17/03/1950,2020-07-09_15h16.15.760,proactive,2020.1.2,MacIntel,60,5f073de81c76c3308c0e4fb3,5f076cd8d03a5413224f32cf,6,,,,,,gorilla,,,,,,,,,,,5,0,0,48,48,49,1,,,,,,,,,,,,,,,,,,,,,,,,,,,,,,,,,,,,,,,,,,,,,,,,,,,,,,,,,,,,,,,,,,,,,,
,,?,0.000655,0,,,,,,stimuli/images/PICTURE_487.png,FLIGHT,5f03579ef3d5b3546f323d47,17/03/1950,2020-07-09_15h16.15.760,proactive,2020.1.2,MacIntel,60,5f073de81c76c3308c0e4fb3,5f076cd8d03a5413224f32cf,6,,,,,,basket,,,,,,,,,,,1,0,0,49,49,9,1,,,,,,,,,,,,,,,,,,,,,,,,,,,,,,,,,,,,,,,,,,,,,,,,,,,,,,,,,,,,,,,,,,,,,,
,,?,0.001055,0,,,,,,stimuli/images/PICTURE_311.png,FRIEND,5f03579ef3d5b3546f323d47,17/03/1950,2020-07-09_15h16.15.760,proactive,2020.1.2,MacIntel,60,5f073de81c76c3308c0e4fb3,5f076cd8d03a5413224f32cf,6,,,,,,razor,,,,,,,,,,,4,0,0,50,50,34,1,,,,,,,,,,,,,,,,,,,,,,,,,,,,,,,,,,,,,,,,,,,,,,,,,,,,,,,,,,,,,,,,,,,,,,
,,?,0.00071,0,,,,,,stimuli/images/PICTURE_95.png,STYLE,5f03579ef3d5b3546f323d47,17/03/1950,2020-07-09_15h16.15.760,proactive,2020.1.2,MacIntel,60,5f073de81c76c3308c0e4fb3,5f076cd8d03a5413224f32cf,6,,,,,,suitcase,,,,,,,,,,,3,0,0,51,51,25,1,,,,,,,,,,,,,,,,,,,,,,,,,,,,,,,,,,,,,,,,,,,,,,,,,,,,,,,,,,,,,,,,,,,,,,
,,?,0.000665,0,,,,,,stimuli/images/PICTURE_255.png,AREA,5f03579ef3d5b3546f323d47,17/03/1950,2020-07-09_15h16.15.760,proactive,2020.1.2,MacIntel,60,5f073de81c76c3308c0e4fb3,5f076cd8d03a5413224f32cf,6,,,,,,shovel,,,,,,,,,,,3,0,0,52,52,22,1,,,,,,,,,,,,,,,,,,,,,,,,,,,,,,,,,,,,,,,,,,,,,,,,,,,,,,,,,,,,,,,,,,,,,,
,,?,0.000545,0,,,,,,stimuli/images/PICTURE_314.png,GODS,5f03579ef3d5b3546f323d47,17/03/1950,2020-07-09_15h16.15.760,proactive,2020.1.2,MacIntel,60,5f073de81c76c3308c0e4fb3,5f076cd8d03a5413224f32cf,6,,,,,,perfume,,,,,,,,,,,2,0,0,53,53,11,1,,,,,,,,,,,,,,,,,,,,,,,,,,,,,,,,,,,,,,,,,,,,,,,,,,,,,,,,,,,,,,,,,,,,,,
,,?,11.055965,0,,,,,,stimuli/images/PICTURE_380.png,PHOTO,5f03579ef3d5b3546f323d47,17/03/1950,2020-07-09_15h16.15.760,proactive,2020.1.2,MacIntel,60,5f073de81c76c3308c0e4fb3,5f076cd8d03a5413224f32cf,6,,,,,,gorilla,,,,,,,,,,,6,0,0,54,54,52,1,,,,,,,,,,,,,,,,,,,,,,,,,,,,,,,,,,,,,,,,,,,,,,,,,,,,,,,,,,,,,,,,,,,,,,
,,?,0.002735,0,,,,,,stimuli/images/PICTURE_504.png,BODY,5f03579ef3d5b3546f323d47,17/03/1950,2020-07-09_15h16.15.760,proactive,2020.1.2,MacIntel,60,5f073de81c76c3308c0e4fb3,5f076cd8d03a5413224f32cf,6,,,,,,wheel,,,,,,,,,,,1,0,0,55,55,8,1,,,,,,,,,,,,,,,,,,,,,,,,,,,,,,,,,,,,,,,,,,,,,,,,,,,,,,,,,,,,,,,,,,,,,,
,,?,0.00095,0,,,,,,stimuli/images/PICTURE_654.png,VALLEY,5f03579ef3d5b3546f323d47,17/03/1950,2020-07-09_15h16.15.760,proactive,2020.1.2,MacIntel,60,5f073de81c76c3308c0e4fb3,5f076cd8d03a5413224f32cf,6,,,,,,pencil,,,,,,,,,,,1,0,0,56,56,1,1,,,,,,,,,,,,,,,,,,,,,,,,,,,,,,,,,,,,,,,,,,,,,,,,,,,,,,,,,,,,,,,,,,,,,,
,,?,0.000945,0,,,,,,stimuli/images/PICTURE_68.png,MILE,5f03579ef3d5b3546f323d47,17/03/1950,2020-07-09_15h16.15.760,proactive,2020.1.2,MacIntel,60,5f073de81c76c3308c0e4fb3,5f076cd8d03a5413224f32cf,6,,,,,,candle,,,,,,,,,,,5,0,0,57,57,44,1,,,,,,,,,,,,,,,,,,,,,,,,,,,,,,,,,,,,,,,,,,,,,,,,,,,,,,,,,,,,,,,,,,,,,,
,,?,0.000835,0,,,,,,stimuli/images/PICTURE_677.png,MILE,5f03579ef3d5b3546f323d47,17/03/1950,2020-07-09_15h16.15.760,proactive,2020.1.2,MacIntel,60,5f073de81c76c3308c0e4fb3,5f076cd8d03a5413224f32cf,6,,,,,,map,,,,,,,,,,,4,0,0,58,58,30,1,,,,,,,,,,,,,,,,,,,,,,,,,,,,,,,,,,,,,,,,,,,,,,,,,,,,,,,,,,,,,,,,,,,,,,
,,?,0.00108,0,,,,,,stimuli/images/PICTURE_467.png,DEMON,5f03579ef3d5b3546f323d47,17/03/1950,2020-07-09_15h16.15.760,proactive,2020.1.2,MacIntel,60,5f073de81c76c3308c0e4fb3,5f076cd8d03a5413224f32cf,6,,,,,,peg,,,,,,,,,,,3,0,0,59,59,23,1,,,,,,,,,,,,,,,,,,,,,,,,,,,,,,,,,,,,,,,,,,,,,,,,,,,,,,,,,,,,,,,,,,,,,,
,,,,,,,,,,,,5f03579ef3d5b3546f323d47,17/03/1950,2020-07-09_15h16.15.760,proactive,2020.1.2,MacIntel,60,5f073de81c76c3308c0e4fb3,5f076cd8d03a5413224f32cf,6,,,,,,,,,,,,,,,,,,,,,,,,0,0,0,0,1,stimuli/learn-block1.csv,,,,,,,,,,,,,,,,,,,,,,,,,,,,,,,,,,,,,,,,,,,,,,,,,,,,,,,,,,,,,,,,
,,,,,,,,,,stimuli/images/PICTURE_348.png,DUDE,5f03579ef3d5b3546f323d47,17/03/1950,2020-07-09_15h16.15.760,proactive,2020.1.2,MacIntel,60,5f073de81c76c3308c0e4fb3,5f076cd8d03a5413224f32cf,6,,,,,,pepper,,,,,,0,0,0,59,1,6,2,,,,,,,,,,,,,,,,,,,,,,,,,,,,,,,,,,,,,,,,,,,,,,,,,,,,,,,,,,,,,,,,,,,,,,,,,,,
,,,,,,,,,,stimuli/images/PICTURE_470.png,BEAUTY,5f03579ef3d5b3546f323d47,17/03/1950,2020-07-09_15h16.15.760,proactive,2020.1.2,MacIntel,60,5f073de81c76c3308c0e4fb3,5f076cd8d03a5413224f32cf,6,,,,,,motorbike,,,,,,0,1,1,26,1,3,2,,,,,,,,,,,,,,,,,,,,,,,,,,,,,,,,,,,,,,,,,,,,,,,,,,,,,,,,,,,,,,,,,,,,,,,,,,,
,,,,,,,,,,stimuli/images/PICTURE_311.png,FLESH,5f03579ef3d5b3546f323d47,17/03/1950,2020-07-09_15h16.15.760,proactive,2020.1.2,MacIntel,60,5f073de81c76c3308c0e4fb3,5f076cd8d03a5413224f32cf,6,,,,,,razor,,,,,,0,2,2,3,1,1,2,,,,,,,,,,,,,,,,,,,,,,,,,,,,,,,,,,,,,,,,,,,,,,,,,,,,,,,,,,,,,,,,,,,,,,,,,,,
,,,,,,,,,,stimuli/images/PICTURE_255.png,PENNY,5f03579ef3d5b3546f323d47,17/03/1950,2020-07-09_15h16.15.760,proactive,2020.1.2,MacIntel,60,5f073de81c76c3308c0e4fb3,5f076cd8d03a5413224f32cf,6,,,,,,shovel,,,,,,0,3,3,19,1,2,2,,,,,,,,,,,,,,,,,,,,,,,,,,,,,,,,,,,,,,,,,,,,,,,,,,,,,,,,,,,,,,,,,,,,,,,,,,,
,,,,,,,,,,stimuli/images/PICTURE_285.png,WRITER,5f03579ef3d5b3546f323d47,17/03/1950,2020-07-09_15h16.15.760,proactive,2020.1.2,MacIntel,60,5f073de81c76c3308c0e4fb3,5f076cd8d03a5413224f32cf,6,,,,,,carrot,,,,,,0,4,4,6,1,1,2,,,,,,,,,,,,,,,,,,,,,,,,,,,,,,,,,,,,,,,,,,,,,,,,,,,,,,,,,,,,,,,,,,,,,,,,,,,
,,,,,,,,,,stimuli/images/PICTURE_208.png,SPIRIT,5f03579ef3d5b3546f323d47,17/03/1950,2020-07-09_15h16.15.760,proactive,2020.1.2,MacIntel,60,5f073de81c76c3308c0e4fb3,5f076cd8d03a5413224f32cf,6,,,,,,microphone,,,,,,0,5,5,28,1,3,2,,,,,,,,,,,,,,,,,,,,,,,,,,,,,,,,,,,,,,,,,,,,,,,,,,,,,,,,,,,,,,,,,,,,,,,,,,,
,,,,,,,,,,stimuli/images/PICTURE_692.png,DUDE,5f03579ef3d5b3546f323d47,17/03/1950,2020-07-09_15h16.15.760,proactive,2020.1.2,MacIntel,60,5f073de81c76c3308c0e4fb3,5f076cd8d03a5413224f32cf,6,,,,,,cherry,,,,,,0,6,6,47,1,5,2,,,,,,,,,,,,,,,,,,,,,,,,,,,,,,,,,,,,,,,,,,,,,,,,,,,,,,,,,,,,,,,,,,,,,,,,,,,
,,,,,,,,,,stimuli/images/PICTURE_18.png,RIVER,5f03579ef3d5b3546f323d47,17/03/1950,2020-07-09_15h16.15.760,proactive,2020.1.2,MacIntel,60,5f073de81c76c3308c0e4fb3,5f076cd8d03a5413224f32cf,6,,,,,,planet,,,,,,0,7,7,22,1,3,2,,,,,,,,,,,,,,,,,,,,,,,,,,,,,,,,,,,,,,,,,,,,,,,,,,,,,,,,,,,,,,,,,,,,,,,,,,,
,,,,,,,,,,stimuli/images/PICTURE_123.png,SALE,5f03579ef3d5b3546f323d47,17/03/1950,2020-07-09_15h16.15.760,proactive,2020.1.2,MacIntel,60,5f073de81c76c3308c0e4fb3,5f076cd8d03a5413224f32cf,6,,,,,,dart,,,,,,0,8,8,8,1,1,2,,,,,,,,,,,,,,,,,,,,,,,,,,,,,,,,,,,,,,,,,,,,,,,,,,,,,,,,,,,,,,,,,,,,,,,,,,,
,,,,,,,,,,stimuli/images/PICTURE_356.png,CANDY,5f03579ef3d5b3546f323d47,17/03/1950,2020-07-09_15h16.15.760,proactive,2020.1.2,MacIntel,60,5f073de81c76c3308c0e4fb3,5f076cd8d03a5413224f32cf,6,,,,,,pawn,,,,,,0,9,9,46,1,5,2,,,,,,,,,,,,,,,,,,,,,,,,,,,,,,,,,,,,,,,,,,,,,,,,,,,,,,,,,,,,,,,,,,,,,,,,,,,
,,,,,,,,,,stimuli/images/PICTURE_32.png,LETTER,5f03579ef3d5b3546f323d47,17/03/1950,2020-07-09_15h16.15.760,proactive,2020.1.2,MacIntel,60,5f073de81c76c3308c0e4fb3,5f076cd8d03a5413224f32cf,6,,,,,,crown,,,,,,0,10,10,56,1,6,2,,,,,,,,,,,,,,,,,,,,,,,,,,,,,,,,,,,,,,,,,,,,,,,,,,,,,,,,,,,,,,,,,,,,,,,,,,,
,,,,,,,,,,stimuli/images/PICTURE_348.png,TOILET,5f03579ef3d5b3546f323d47,17/03/1950,2020-07-09_15h16.15.760,proactive,2020.1.2,MacIntel,60,5f073de81c76c3308c0e4fb3,5f076cd8d03a5413224f32cf,6,,,,,,pepper,,,,,,0,11,11,4,1,1,2,,,,,,,,,,,,,,,,,,,,,,,,,,,,,,,,,,,,,,,,,,,,,,,,,,,,,,,,,,,,,,,,,,,,,,,,,,,
,,,,,,,,,,stimuli/images/PICTURE_708.png,VALLEY,5f03579ef3d5b3546f323d47,17/03/1950,2020-07-09_15h16.15.760,proactive,2020.1.2,MacIntel,60,5f073de81c76c3308c0e4fb3,5f076cd8d03a5413224f32cf,6,,,,,,monkey,,,,,,0,12,12,45,1,5,2,,,,,,,,,,,,,,,,,,,,,,,,,,,,,,,,,,,,,,,,,,,,,,,,,,,,,,,,,,,,,,,,,,,,,,,,,,,
,,,,,,,,,,stimuli/images/PICTURE_654.png,COPS,5f03579ef3d5b3546f323d47,17/03/1950,2020-07-09_15h16.15.760,proactive,2020.1.2,MacIntel,60,5f073de81c76c3308c0e4fb3,5f076cd8d03a5413224f32cf,6,,,,,,pencil,,,,,,0,13,13,10,1,2,2,,,,,,,,,,,,,,,,,,,,,,,,,,,,,,,,,,,,,,,,,,,,,,,,,,,,,,,,,,,,,,,,,,,,,,,,,,,
,,,,,,,,,,stimuli/images/PICTURE_405.png,JUNGLE,5f03579ef3d5b3546f323d47,17/03/1950,2020-07-09_15h16.15.760,proactive,2020.1.2,MacIntel,60,5f073de81c76c3308c0e4fb3,5f076cd8d03a5413224f32cf,6,,,,,,anchor,,,,,,0,14,14,58,1,6,2,,,,,,,,,,,,,,,,,,,,,,,,,,,,,,,,,,,,,,,,,,,,,,,,,,,,,,,,,,,,,,,,,,,,,,,,,,,
,,,,,,,,,,stimuli/images/PICTURE_147.png,LEADER,5f03579ef3d5b3546f323d47,17/03/1950,2020-07-09_15h16.15.760,proactive,2020.1.2,MacIntel,60,5f073de81c76c3308c0e4fb3,5f076cd8d03a5413224f32cf,6,,,,,,hanger,,,,,,0,15,15,33,1,4,2,,,,,,,,,,,,,,,,,,,,,,,,,,,,,,,,,,,,,,,,,,,,,,,,,,,,,,,,,,,,,,,,,,,,,,,,,,,
,,,,,,,,,,stimuli/images/PICTURE_215.png,BOYS,5f03579ef3d5b3546f323d47,17/03/1950,2020-07-09_15h16.15.760,proactive,2020.1.2,MacIntel,60,5f073de81c76c3308c0e4fb3,5f076cd8d03a5413224f32cf,6,,,,,,boot,,,,,,0,16,16,24,1,3,2,,,,,,,,,,,,,,,,,,,,,,,,,,,,,,,,,,,,,,,,,,,,,,,,,,,,,,,,,,,,,,,,,,,,,,,,,,,
,,,,,,,,,,stimuli/images/PICTURE_57.png,CASINO,5f03579ef3d5b3546f323d47,17/03/1950,2020-07-09_15h16.15.760,proactive,2020.1.2,MacIntel,60,5f073de81c76c3308c0e4fb3,5f076cd8d03a5413224f32cf,6,,,,,,stamp,,,,,,0,17,17,12,1,2,2,,,,,,,,,,,,,,,,,,,,,,,,,,,,,,,,,,,,,,,,,,,,,,,,,,,,,,,,,,,,,,,,,,,,,,,,,,,
,,,,,,,,,,stimuli/images/PICTURE_57.png,NATION,5f03579ef3d5b3546f323d47,17/03/1950,2020-07-09_15h16.15.760,proactive,2020.1.2,MacIntel,60,5f073de81c76c3308c0e4fb3,5f076cd8d03a5413224f32cf,6,,,,,,stamp,,,,,,0,18,18,21,1,3,2,,,,,,,,,,,,,,,,,,,,,,,,,,,,,,,,,,,,,,,,,,,,,,,,,,,,,,,,,,,,,,,,,,,,,,,,,,,
,,,,,,,,,,stimuli/images/PICTURE_2.png,JUNGLE,5f03579ef3d5b3546f323d47,17/03/1950,2020-07-09_15h16.15.760,proactive,2020.1.2,MacIntel,60,5f073de81c76c3308c0e4fb3,5f076cd8d03a5413224f32cf,6,,,,,,tyre,,,,,,0,19,19,1,1,1,2,,,,,,,,,,,,,,,,,,,,,,,,,,,,,,,,,,,,,,,,,,,,,,,,,,,,,,,,,,,,,,,,,,,,,,,,,,,
,,,,,,,,,,stimuli/images/PICTURE_470.png,MOMENT,5f03579ef3d5b3546f323d47,17/03/1950,2020-07-09_15h16.15.760,proactive,2020.1.2,MacIntel,60,5f073de81c76c3308c0e4fb3,5f076cd8d03a5413224f32cf,6,,,,,,motorbike,,,,,,0,20,20,40,1,5,2,,,,,,,,,,,,,,,,,,,,,,,,,,,,,,,,,,,,,,,,,,,,,,,,,,,,,,,,,,,,,,,,,,,,,,,,,,,
,,,,,,,,,,stimuli/images/PICTURE_487.png,ROOF,5f03579ef3d5b3546f323d47,17/03/1950,2020-07-09_15h16.15.760,proactive,2020.1.2,MacIntel,60,5f073de81c76c3308c0e4fb3,5f076cd8d03a5413224f32cf,6,,,,,,basket,,,,,,0,21,21,50,1,6,2,,,,,,,,,,,,,,,,,,,,,,,,,,,,,,,,,,,,,,,,,,,,,,,,,,,,,,,,,,,,,,,,,,,,,,,,,,,
,,,,,,,,,,stimuli/images/PICTURE_509.png,BATH,5f03579ef3d5b3546f323d47,17/03/1950,2020-07-09_15h16.15.760,proactive,2020.1.2,MacIntel,60,5f073de81c76c3308c0e4fb3,5f076cd8d03a5413224f32cf,6,,,,,,telephone,,,,,,0,22,22,15,1,2,2,,,,,,,,,,,,,,,,,,,,,,,,,,,,,,,,,,,,,,,,,,,,,,,,,,,,,,,,,,,,,,,,,,,,,,,,,,,
,,,,,,,,,,stimuli/images/PICTURE_57.png,CANDY,5f03579ef3d5b3546f323d47,17/03/1950,2020-07-09_15h16.15.760,proactive,2020.1.2,MacIntel,60,5f073de81c76c3308c0e4fb3,5f076cd8d03a5413224f32cf,6,,,,,,stamp,,,,,,0,23,23,52,1,6,2,,,,,,,,,,,,,,,,,,,,,,,,,,,,,,,,,,,,,,,,,,,,,,,,,,,,,,,,,,,,,,,,,,,,,,,,,,,
,,,,,,,,,,stimuli/images/PICTURE_667.png,GLASS,5f03579ef3d5b3546f323d47,17/03/1950,2020-07-09_15h16.15.760,proactive,2020.1.2,MacIntel,60,5f073de81c76c3308c0e4fb3,5f076cd8d03a5413224f32cf,6,,,,,,daisy,,,,,,0,24,24,27,1,3,2,,,,,,,,,,,,,,,,,,,,,,,,,,,,,,,,,,,,,,,,,,,,,,,,,,,,,,,,,,,,,,,,,,,,,,,,,,,
,,,,,,,,,,stimuli/images/PICTURE_215.png,FOOD,5f03579ef3d5b3546f323d47,17/03/1950,2020-07-09_15h16.15.760,proactive,2020.1.2,MacIntel,60,5f073de81c76c3308c0e4fb3,5f076cd8d03a5413224f32cf,6,,,,,,boot,,,,,,0,25,25,5,1,1,2,,,,,,,,,,,,,,,,,,,,,,,,,,,,,,,,,,,,,,,,,,,,,,,,,,,,,,,,,,,,,,,,,,,,,,,,,,,
,,,,,,,,,,stimuli/images/PICTURE_215.png,LEADER,5f03579ef3d5b3546f323d47,17/03/1950,2020-07-09_15h16.15.760,proactive,2020.1.2,MacIntel,60,5f073de81c76c3308c0e4fb3,5f076cd8d03a5413224f32cf,6,,,,,,boot,,,,,,0,26,26,43,1,5,2,,,,,,,,,,,,,,,,,,,,,,,,,,,,,,,,,,,,,,,,,,,,,,,,,,,,,,,,,,,,,,,,,,,,,,,,,,,
,,,,,,,,,,stimuli/images/PICTURE_504.png,HOUSE,5f03579ef3d5b3546f323d47,17/03/1950,2020-07-09_15h16.15.760,proactive,2020.1.2,MacIntel,60,5f073de81c76c3308c0e4fb3,5f076cd8d03a5413224f32cf,6,,,,,,wheel,,,,,,0,27,27,36,1,4,2,,,,,,,,,,,,,,,,,,,,,,,,,,,,,,,,,,,,,,,,,,,,,,,,,,,,,,,,,,,,,,,,,,,,,,,,,,,
,,,,,,,,,,stimuli/images/PICTURE_564.png,PLENTY,5f03579ef3d5b3546f323d47,17/03/1950,2020-07-09_15h16.15.760,proactive,2020.1.2,MacIntel,60,5f073de81c76c3308c0e4fb3,5f076cd8d03a5413224f32cf,6,,,,,,spoon,,,,,,0,28,28,11,1,2,2,,,,,,,,,,,,,,,,,,,,,,,,,,,,,,,,,,,,,,,,,,,,,,,,,,,,,,,,,,,,,,,,,,,,,,,,,,,
,,,,,,,,,,stimuli/images/PICTURE_750.png,POLICY,5f03579ef3d5b3546f323d47,17/03/1950,2020-07-09_15h16.15.760,proactive,2020.1.2,MacIntel,60,5f073de81c76c3308c0e4fb3,5f076cd8d03a5413224f32cf,6,,,,,,kettle,,,,,,0,29,29,44,1,5,2,,,,,,,,,,,,,,,,,,,,,,,,,,,,,,,,,,,,,,,,,,,,,,,,,,,,,,,,,,,,,,,,,,,,,,,,,,,
,,,,,,,,,,stimuli/images/PICTURE_509.png,SHOTS,5f03579ef3d5b3546f323d47,17/03/1950,2020-07-09_15h16.15.760,proactive,2020.1.2,MacIntel,60,5f073de81c76c3308c0e4fb3,5f076cd8d03a5413224f32cf,6,,,,,,telephone,,,,,,0,30,30,7,1,1,2,,,,,,,,,,,,,,,,,,,,,,,,,,,,,,,,,,,,,,,,,,,,,,,,,,,,,,,,,,,,,,,,,,,,,,,,,,,
,,,,,,,,,,stimuli/images/PICTURE_285.png,PRINCE,5f03579ef3d5b3546f323d47,17/03/1950,2020-07-09_15h16.15.760,proactive,2020.1.2,MacIntel,60,5f073de81c76c3308c0e4fb3,5f076cd8d03a5413224f32cf,6,,,,,,carrot,,,,,,0,31,31,20,1,3,2,,,,,,,,,,,,,,,,,,,,,,,,,,,,,,,,,,,,,,,,,,,,,,,,,,,,,,,,,,,,,,,,,,,,,,,,,,,
,,,,,,,,,,stimuli/images/PICTURE_311.png,TOILET,5f03579ef3d5b3546f323d47,17/03/1950,2020-07-09_15h16.15.760,proactive,2020.1.2,MacIntel,60,5f073de81c76c3308c0e4fb3,5f076cd8d03a5413224f32cf,6,,,,,,razor,,,,,,0,32,32,54,1,6,2,,,,,,,,,,,,,,,,,,,,,,,,,,,,,,,,,,,,,,,,,,,,,,,,,,,,,,,,,,,,,,,,,,,,,,,,,,,
,,,,,,,,,,stimuli/images/PICTURE_68.png,KIND,5f03579ef3d5b3546f323d47,17/03/1950,2020-07-09_15h16.15.760,proactive,2020.1.2,MacIntel,60,5f073de81c76c3308c0e4fb3,5f076cd8d03a5413224f32cf,6,,,,,,candle,,,,,,0,33,33,23,1,3,2,,,,,,,,,,,,,,,,,,,,,,,,,,,,,,,,,,,,,,,,,,,,,,,,,,,,,,,,,,,,,,,,,,,,,,,,,,,
,,,,,,,,,,stimuli/images/PICTURE_2.png,AREA,5f03579ef3d5b3546f323d47,17/03/1950,2020-07-09_15h16.15.760,proactive,2020.1.2,MacIntel,60,5f073de81c76c3308c0e4fb3,5f076cd8d03a5413224f32cf,6,,,,,,tyre,,,,,,0,34,34,32,1,4,2,,,,,,,,,,,,,,,,,,,,,,,,,,,,,,,,,,,,,,,,,,,,,,,,,,,,,,,,,,,,,,,,,,,,,,,,,,,
,,,,,,,,,,stimuli/images/PICTURE_405.png,JUNGLE,5f03579ef3d5b3546f323d47,17/03/1950,2020-07-09_15h16.15.760,proactive,2020.1.2,MacIntel,60,5f073de81c76c3308c0e4fb3,5f076cd8d03a5413224f32cf,6,,,,,,anchor,,,,,,0,35,35,13,1,2,2,,,,,,,,,,,,,,,,,,,,,,,,,,,,,,,,,,,,,,,,,,,,,,,,,,,,,,,,,,,,,,,,,,,,,,,,,,,
,,,,,,,,,,stimuli/images/PICTURE_327.png,LEADER,5f03579ef3d5b3546f323d47,17/03/1950,2020-07-09_15h16.15.760,proactive,2020.1.2,MacIntel,60,5f073de81c76c3308c0e4fb3,5f076cd8d03a5413224f32cf,6,,,,,,helmet,,,,,,0,36,36,17,1,2,2,,,,,,,,,,,,,,,,,,,,,,,,,,,,,,,,,,,,,,,,,,,,,,,,,,,,,,,,,,,,,,,,,,,,,,,,,,,
,,,,,,,,,,stimuli/images/PICTURE_452.png,COPS,5f03579ef3d5b3546f323d47,17/03/1950,2020-07-09_15h16.15.760,proactive,2020.1.2,MacIntel,60,5f073de81c76c3308c0e4fb3,5f076cd8d03a5413224f32cf,6,,,,,,watch,,,,,,0,37,37,0,1,1,2,,,,,,,,,,,,,,,,,,,,,,,,,,,,,,,,,,,,,,,,,,,,,,,,,,,,,,,,,,,,,,,,,,,,,,,,,,,
,,,,,,,,,,stimuli/images/PICTURE_33.png,COPS,5f03579ef3d5b3546f323d47,17/03/1950,2020-07-09_15h16.15.760,proactive,2020.1.2,MacIntel,60,5f073de81c76c3308c0e4fb3,5f076cd8d03a5413224f32cf,6,,,,,,frame,,,,,,0,38,38,29,1,3,2,,,,,,,,,,,,,,,,,,,,,,,,,,,,,,,,,,,,,,,,,,,,,,,,,,,,,,,,,,,,,,,,,,,,,,,,,,,
,,,,,,,,,,stimuli/images/PICTURE_93.png,GIRL,5f03579ef3d5b3546f323d47,17/03/1950,2020-07-09_15h16.15.760,proactive,2020.1.2,MacIntel,60,5f073de81c76c3308c0e4fb3,5f076cd8d03a5413224f32cf,6,,,,,,skateboard,,,,,,0,39,39,31,1,4,2,,,,,,,,,,,,,,,,,,,,,,,,,,,,,,,,,,,,,,,,,,,,,,,,,,,,,,,,,,,,,,,,,,,,,,,,,,,
,,,,,,,,,,stimuli/images/PICTURE_160.png,HOTEL,5f03579ef3d5b3546f323d47,17/03/1950,2020-07-09_15h16.15.760,proactive,2020.1.2,MacIntel,60,5f073de81c76c3308c0e4fb3,5f076cd8d03a5413224f32cf,6,,,,,,wheelbarrow,,,,,,0,40,40,16,1,2,2,,,,,,,,,,,,,,,,,,,,,,,,,,,,,,,,,,,,,,,,,,,,,,,,,,,,,,,,,,,,,,,,,,,,,,,,,,,
,,,,,,,,,,stimuli/images/PICTURE_141.png,CLIENT,5f03579ef3d5b3546f323d47,17/03/1950,2020-07-09_15h16.15.760,proactive,2020.1.2,MacIntel,60,5f073de81c76c3308c0e4fb3,5f076cd8d03a5413224f32cf,6,,,,,,sunflower,,,,,,0,41,41,30,1,4,2,,,,,,,,,,,,,,,,,,,,,,,,,,,,,,,,,,,,,,,,,,,,,,,,,,,,,,,,,,,,,,,,,,,,,,,,,,,
,,,,,,,,,,stimuli/images/PICTURE_405.png,HOUSE,5f03579ef3d5b3546f323d47,17/03/1950,2020-07-09_15h16.15.760,proactive,2020.1.2,MacIntel,60,5f073de81c76c3308c0e4fb3,5f076cd8d03a5413224f32cf,6,,,,,,anchor,,,,,,0,42,42,2,1,1,2,,,,,,,,,,,,,,,,,,,,,,,,,,,,,,,,,,,,,,,,,,,,,,,,,,,,,,,,,,,,,,,,,,,,,,,,,,,
,,,,,,,,,,stimuli/images/PICTURE_688.png,CLOCK,5f03579ef3d5b3546f323d47,17/03/1950,2020-07-09_15h16.15.760,proactive,2020.1.2,MacIntel,60,5f073de81c76c3308c0e4fb3,5f076cd8d03a5413224f32cf,6,,,,,,runner,,,,,,0,43,43,42,1,5,2,,,,,,,,,,,,,,,,,,,,,,,,,,,,,,,,,,,,,,,,,,,,,,,,,,,,,,,,,,,,,,,,,,,,,,,,,,,
,,,,,,,,,,stimuli/images/PICTURE_491.png,SERIES,5f03579ef3d5b3546f323d47,17/03/1950,2020-07-09_15h16.15.760,proactive,2020.1.2,MacIntel,60,5f073de81c76c3308c0e4fb3,5f076cd8d03a5413224f32cf,6,,,,,,rug,,,,,,0,44,44,39,1,4,2,,,,,,,,,,,,,,,,,,,,,,,,,,,,,,,,,,,,,,,,,,,,,,,,,,,,,,,,,,,,,,,,,,,,,,,,,,,
,,,,,,,,,,stimuli/images/PICTURE_509.png,MILLER,5f03579ef3d5b3546f323d47,17/03/1950,2020-07-09_15h16.15.760,proactive,2020.1.2,MacIntel,60,5f073de81c76c3308c0e4fb3,5f076cd8d03a5413224f32cf,6,,,,,,telephone,,,,,,0,45,45,49,1,5,2,,,,,,,,,,,,,,,,,,,,,,,,,,,,,,,,,,,,,,,,,,,,,,,,,,,,,,,,,,,,,,,,,,,,,,,,,,,
,,,,,,,,,,stimuli/images/PICTURE_2.png,YARD,5f03579ef3d5b3546f323d47,17/03/1950,2020-07-09_15h16.15.760,proactive,2020.1.2,MacIntel,60,5f073de81c76c3308c0e4fb3,5f076cd8d03a5413224f32cf,6,,,,,,tyre,,,,,,0,46,46,55,1,6,2,,,,,,,,,,,,,,,,,,,,,,,,,,,,,,,,,,,,,,,,,,,,,,,,,,,,,,,,,,,,,,,,,,,,,,,,,,,
,,,,,,,,,,stimuli/images/PICTURE_296.png,CLOCK,5f03579ef3d5b3546f323d47,17/03/1950,2020-07-09_15h16.15.760,proactive,2020.1.2,MacIntel,60,5f073de81c76c3308c0e4fb3,5f076cd8d03a5413224f32cf,6,,,,,,bolt,,,,,,0,47,47,18,1,2,2,,,,,,,,,,,,,,,,,,,,,,,,,,,,,,,,,,,,,,,,,,,,,,,,,,,,,,,,,,,,,,,,,,,,,,,,,,,
,,,,,,,,,,stimuli/images/PICTURE_403.png,FAMILY,5f03579ef3d5b3546f323d47,17/03/1950,2020-07-09_15h16.15.760,proactive,2020.1.2,MacIntel,60,5f073de81c76c3308c0e4fb3,5f076cd8d03a5413224f32cf,6,,,,,,cathedral,,,,,,0,48,48,9,1,1,2,,,,,,,,,,,,,,,,,,,,,,,,,,,,,,,,,,,,,,,,,,,,,,,,,,,,,,,,,,,,,,,,,,,,,,,,,,,
,,,,,,,,,,stimuli/images/PICTURE_487.png,POLICY,5f03579ef3d5b3546f323d47,17/03/1950,2020-07-09_15h16.15.760,proactive,2020.1.2,MacIntel,60,5f073de81c76c3308c0e4fb3,5f076cd8d03a5413224f32cf,6,,,,,,basket,,,,,,0,49,49,34,1,4,2,,,,,,,,,,,,,,,,,,,,,,,,,,,,,,,,,,,,,,,,,,,,,,,,,,,,,,,,,,,,,,,,,,,,,,,,,,,
,,,,,,,,,,stimuli/images/PICTURE_314.png,SPEECH,5f03579ef3d5b3546f323d47,17/03/1950,2020-07-09_15h16.15.760,proactive,2020.1.2,MacIntel,60,5f073de81c76c3308c0e4fb3,5f076cd8d03a5413224f32cf,6,,,,,,perfume,,,,,,0,50,50,35,1,4,2,,,,,,,,,,,,,,,,,,,,,,,,,,,,,,,,,,,,,,,,,,,,,,,,,,,,,,,,,,,,,,,,,,,,,,,,,,,
,,,,,,,,,,stimuli/images/PICTURE_453.png,FAMILY,5f03579ef3d5b3546f323d47,17/03/1950,2020-07-09_15h16.15.760,proactive,2020.1.2,MacIntel,60,5f073de81c76c3308c0e4fb3,5f076cd8d03a5413224f32cf,6,,,,,,scissors,,,,,,0,51,51,48,1,5,2,,,,,,,,,,,,,,,,,,,,,,,,,,,,,,,,,,,,,,,,,,,,,,,,,,,,,,,,,,,,,,,,,,,,,,,,,,,
,,,,,,,,,,stimuli/images/PICTURE_297.png,BODY,5f03579ef3d5b3546f323d47,17/03/1950,2020-07-09_15h16.15.760,proactive,2020.1.2,MacIntel,60,5f073de81c76c3308c0e4fb3,5f076cd8d03a5413224f32cf,6,,,,,,aeroplane,,,,,,0,52,52,51,1,6,2,,,,,,,,,,,,,,,,,,,,,,,,,,,,,,,,,,,,,,,,,,,,,,,,,,,,,,,,,,,,,,,,,,,,,,,,,,,
,,,,,,,,,,stimuli/images/PICTURE_509.png,APPLE,5f03579ef3d5b3546f323d47,17/03/1950,2020-07-09_15h16.15.760,proactive,2020.1.2,MacIntel,60,5f073de81c76c3308c0e4fb3,5f076cd8d03a5413224f32cf,6,,,,,,telephone,,,,,,0,53,53,38,1,4,2,,,,,,,,,,,,,,,,,,,,,,,,,,,,,,,,,,,,,,,,,,,,,,,,,,,,,,,,,,,,,,,,,,,,,,,,,,,
,,,,,,,,,,stimuli/images/PICTURE_655.png,SALE,5f03579ef3d5b3546f323d47,17/03/1950,2020-07-09_15h16.15.760,proactive,2020.1.2,MacIntel,60,5f073de81c76c3308c0e4fb3,5f076cd8d03a5413224f32cf,6,,,,,,megaphone,,,,,,0,54,54,57,1,6,2,,,,,,,,,,,,,,,,,,,,,,,,,,,,,,,,,,,,,,,,,,,,,,,,,,,,,,,,,,,,,,,,,,,,,,,,,,,
,,,,,,,,,,stimuli/images/PICTURE_677.png,FAMILY,5f03579ef3d5b3546f323d47,17/03/1950,2020-07-09_15h16.15.760,proactive,2020.1.2,MacIntel,60,5f073de81c76c3308c0e4fb3,5f076cd8d03a5413224f32cf,6,,,,,,map,,,,,,0,55,55,53,1,6,2,,,,,,,,,,,,,,,,,,,,,,,,,,,,,,,,,,,,,,,,,,,,,,,,,,,,,,,,,,,,,,,,,,,,,,,,,,,
,,,,,,,,,,stimuli/images/PICTURE_177.png,HOUSE,5f03579ef3d5b3546f323d47,17/03/1950,2020-07-09_15h16.15.760,proactive,2020.1.2,MacIntel,60,5f073de81c76c3308c0e4fb3,5f076cd8d03a5413224f32cf,6,,,,,,mushroom,,,,,,0,56,56,25,1,3,2,,,,,,,,,,,,,,,,,,,,,,,,,,,,,,,,,,,,,,,,,,,,,,,,,,,,,,,,,,,,,,,,,,,,,,,,,,,
,,,,,,,,,,stimuli/images/PICTURE_95.png,NIGHT,5f03579ef3d5b3546f323d47,17/03/1950,2020-07-09_15h16.15.760,proactive,2020.1.2,MacIntel,60,5f073de81c76c3308c0e4fb3,5f076cd8d03a5413224f32cf,6,,,,,,suitcase,,,,,,0,57,57,37,1,4,2,,,,,,,,,,,,,,,,,,,,,,,,,,,,,,,,,,,,,,,,,,,,,,,,,,,,,,,,,,,,,,,,,,,,,,,,,,,
,,,,,,,,,,stimuli/images/PICTURE_677.png,PHOTO,5f03579ef3d5b3546f323d47,17/03/1950,2020-07-09_15h16.15.760,proactive,2020.1.2,MacIntel,60,5f073de81c76c3308c0e4fb3,5f076cd8d03a5413224f32cf,6,,,,,,map,,,,,,0,58,58,14,1,2,2,,,,,,,,,,,,,,,,,,,,,,,,,,,,,,,,,,,,,,,,,,,,,,,,,,,,,,,,,,,,,,,,,,,,,,,,,,,
,,?,0.000945,0,,,,,,stimuli/images/PICTURE_405.png,HOUSE,5f03579ef3d5b3546f323d47,17/03/1950,2020-07-09_15h16.15.760,proactive,2020.1.2,MacIntel,60,5f073de81c76c3308c0e4fb3,5f076cd8d03a5413224f32cf,6,,,,,,anchor,,,,,,,,,,,1,2,0,0,0,2,1,,,,,,,,,,,,,,,,,,,,,,,,,,,,,,,,,,,,,,,,,,,,,,,,,,,,,,,,,,,,,,,,,,,,,,
,,?,0.000705,0,,,,,,stimuli/images/PICTURE_141.png,CLIENT,5f03579ef3d5b3546f323d47,17/03/1950,2020-07-09_15h16.15.760,proactive,2020.1.2,MacIntel,60,5f073de81c76c3308c0e4fb3,5f076cd8d03a5413224f32cf,6,,,,,,sunflower,,,,,,,,,,,4,2,0,1,1,30,1,,,,,,,,,,,,,,,,,,,,,,,,,,,,,,,,,,,,,,,,,,,,,,,,,,,,,,,,,,,,,,,,,,,,,,
,,CANDY,2.73616,1,,,,,,stimuli/images/PICTURE_57.png,CANDY,5f03579ef3d5b3546f323d47,17/03/1950,2020-07-09_15h16.15.760,proactive,2020.1.2,MacIntel,60,5f073de81c76c3308c0e4fb3,5f076cd8d03a5413224f32cf,6,,,,,,stamp,,,,,,,,,,,6,2,0,2,2,52,1,,,,,,,,,,,,,,,,,,,,,,,,,,,,,,,,,,,,,,,,,,,,,,,,,,,,,,,,,,,,,,,,,,,,,,
,,?,0.00211,0,,,,,,stimuli/images/PICTURE_654.png,YEAR,5f03579ef3d5b3546f323d47,17/03/1950,2020-07-09_15h16.15.760,proactive,2020.1.2,MacIntel,60,5f073de81c76c3308c0e4fb3,5f076cd8d03a5413224f32cf,6,,,,,,pencil,,,,,,,,,,,5,2,0,3,3,41,1,,,,,,,,,,,,,,,,,,,,,,,,,,,,,,,,,,,,,,,,,,,,,,,,,,,,,,,,,,,,,,,,,,,,,,
,,YARD,2.42879,1,,,,,,stimuli/images/PICTURE_2.png,YARD,5f03579ef3d5b3546f323d47,17/03/1950,2020-07-09_15h16.15.760,proactive,2020.1.2,MacIntel,60,5f073de81c76c3308c0e4fb3,5f076cd8d03a5413224f32cf,6,,,,,,tyre,,,,,,,,,,,6,2,0,4,4,55,1,,,,,,,,,,,,,,,,,,,,,,,,,,,,,,,,,,,,,,,,,,,,,,,,,,,,,,,,,,,,,,,,,,,,,,
,,?,0.002155,0,,,,,,stimuli/images/PICTURE_509.png,APPLE,5f03579ef3d5b3546f323d47,17/03/1950,2020-07-09_15h16.15.760,proactive,2020.1.2,MacIntel,60,5f073de81c76c3308c0e4fb3,5f076cd8d03a5413224f32cf,6,,,,,,telephone,,,,,,,,,,,4,2,0,5,5,38,1,,,,,,,,,,,,,,,,,,,,,,,,,,,,,,,,,,,,,,,,,,,,,,,,,,,,,,,,,,,,,,,,,,,,,,
,,?,0.001025,0,,,,,,stimuli/images/PICTURE_255.png,PENNY,5f03579ef3d5b3546f323d47,17/03/1950,2020-07-09_15h16.15.760,proactive,2020.1.2,MacIntel,60,5f073de81c76c3308c0e4fb3,5f076cd8d03a5413224f32cf,6,,,,,,shovel,,,,,,,,,,,2,2,0,6,6,19,1,,,,,,,,,,,,,,,,,,,,,,,,,,,,,,,,,,,,,,,,,,,,,,,,,,,,,,,,,,,,,,,,,,,,,,
,,?,0.000925,0,,,,,,stimuli/images/PICTURE_285.png,WRITER,5f03579ef3d5b3546f323d47,17/03/1950,2020-07-09_15h16.15.760,proactive,2020.1.2,MacIntel,60,5f073de81c76c3308c0e4fb3,5f076cd8d03a5413224f32cf,6,,,,,,carrot,,,,,,,,,,,1,2,0,7,7,6,1,,,,,,,,,,,,,,,,,,,,,,,,,,,,,,,,,,,,,,,,,,,,,,,,,,,,,,,,,,,,,,,,,,,,,,
,,?,0.00095,0,,,,,,stimuli/images/PICTURE_215.png,FOOD,5f03579ef3d5b3546f323d47,17/03/1950,2020-07-09_15h16.15.760,proactive,2020.1.2,MacIntel,60,5f073de81c76c3308c0e4fb3,5f076cd8d03a5413224f32cf,6,,,,,,boot,,,,,,,,,,,1,2,0,8,8,5,1,,,,,,,,,,,,,,,,,,,,,,,,,,,,,,,,,,,,,,,,,,,,,,,,,,,,,,,,,,,,,,,,,,,,,,
,,?,0.000985,0,,,,,,stimuli/images/PICTURE_403.png,FAMILY,5f03579ef3d5b3546f323d47,17/03/1950,2020-07-09_15h16.15.760,proactive,2020.1.2,MacIntel,60,5f073de81c76c3308c0e4fb3,5f076cd8d03a5413224f32cf,6,,,,,,cathedral,,,,,,,,,,,1,2,0,9,9,9,1,,,,,,,,,,,,,,,,,,,,,,,,,,,,,,,,,,,,,,,,,,,,,,,,,,,,,,,,,,,,,,,,,,,,,,
,,?,0.00061,0,,,,,,stimuli/images/PICTURE_18.png,RIVER,5f03579ef3d5b3546f323d47,17/03/1950,2020-07-09_15h16.15.760,proactive,2020.1.2,MacIntel,60,5f073de81c76c3308c0e4fb3,5f076cd8d03a5413224f32cf,6,,,,,,planet,,,,,,,,,,,3,2,0,10,10,22,1,,,,,,,,,,,,,,,,,,,,,,,,,,,,,,,,,,,,,,,,,,,,,,,,,,,,,,,,,,,,,,,,,,,,,,
,,LETTER,2.285255,1,,,,,,stimuli/images/PICTURE_32.png,LETTER,5f03579ef3d5b3546f323d47,17/03/1950,2020-07-09_15h16.15.760,proactive,2020.1.2,MacIntel,60,5f073de81c76c3308c0e4fb3,5f076cd8d03a5413224f32cf,6,,,,,,crown,,,,,,,,,,,6,2,0,11,11,56,1,,,,,,,,,,,,,,,,,,,,,,,,,,,,,,,,,,,,,,,,,,,,,,,,,,,,,,,,,,,,,,,,,,,,,,
,,?,0.003025,0,,,,,,stimuli/images/PICTURE_215.png,BOYS,5f03579ef3d5b3546f323d47,17/03/1950,2020-07-09_15h16.15.760,proactive,2020.1.2,MacIntel,60,5f073de81c76c3308c0e4fb3,5f076cd8d03a5413224f32cf,6,,,,,,boot,,,,,,,,,,,3,2,0,12,12,24,1,,,,,,,,,,,,,,,,,,,,,,,,,,,,,,,,,,,,,,,,,,,,,,,,,,,,,,,,,,,,,,,,,,,,,,
,,?,0.001435,0,,,,,,stimuli/images/PICTURE_452.png,COPS,5f03579ef3d5b3546f323d47,17/03/1950,2020-07-09_15h16.15.760,proactive,2020.1.2,MacIntel,60,5f073de81c76c3308c0e4fb3,5f076cd8d03a5413224f32cf,6,,,,,,watch,,,,,,,,,,,1,2,0,13,13,0,1,,,,,,,,,,,,,,,,,,,,,,,,,,,,,,,,,,,,,,,,,,,,,,,,,,,,,,,,,,,,,,,,,,,,,,
,,?,0.000895,0,,,,,,stimuli/images/PICTURE_177.png,HOUSE,5f03579ef3d5b3546f323d47,17/03/1950,2020-07-09_15h16.15.760,proactive,2020.1.2,MacIntel,60,5f073de81c76c3308c0e4fb3,5f076cd8d03a5413224f32cf,6,,,,,,mushroom,,,,,,,,,,,3,2,0,14,14,25,1,,,,,,,,,,,,,,,,,,,,,,,,,,,,,,,,,,,,,,,,,,,,,,,,,,,,,,,,,,,,,,,,,,,,,,
,,?,0.000815,0,,,,,,stimuli/images/PICTURE_509.png,BATH,5f03579ef3d5b3546f323d47,17/03/1950,2020-07-09_15h16.15.760,proactive,2020.1.2,MacIntel,60,5f073de81c76c3308c0e4fb3,5f076cd8d03a5413224f32cf,6,,,,,,telephone,,,,,,,,,,,2,2,0,15,15,15,1,,,,,,,,,,,,,,,,,,,,,,,,,,,,,,,,,,,,,,,,,,,,,,,,,,,,,,,,,,,,,,,,,,,,,,
,,?,0.00065,0,,,,,,stimuli/images/PICTURE_470.png,BEAUTY,5f03579ef3d5b3546f323d47,17/03/1950,2020-07-09_15h16.15.760,proactive,2020.1.2,MacIntel,60,5f073de81c76c3308c0e4fb3,5f076cd8d03a5413224f32cf,6,,,,,,motorbike,,,,,,,,,,,3,2,0,16,16,26,1,,,,,,,,,,,,,,,,,,,,,,,,,,,,,,,,,,,,,,,,,,,,,,,,,,,,,,,,,,,,,,,,,,,,,,
,,?,0.00131,0,,,,,,stimuli/images/PICTURE_692.png,DUDE,5f03579ef3d5b3546f323d47,17/03/1950,2020-07-09_15h16.15.760,proactive,2020.1.2,MacIntel,60,5f073de81c76c3308c0e4fb3,5f076cd8d03a5413224f32cf,6,,,,,,cherry,,,,,,,,,,,5,2,0,17,17,47,1,,,,,,,,,,,,,,,,,,,,,,,,,,,,,,,,,,,,,,,,,,,,,,,,,,,,,,,,,,,,,,,,,,,,,,
,,?,0.000865,0,,,,,,stimuli/images/PICTURE_491.png,SERIES,5f03579ef3d5b3546f323d47,17/03/1950,2020-07-09_15h16.15.760,proactive,2020.1.2,MacIntel,60,5f073de81c76c3308c0e4fb3,5f076cd8d03a5413224f32cf,6,,,,,,rug,,,,,,,,,,,4,2,0,18,18,39,1,,,,,,,,,,,,,,,,,,,,,,,,,,,,,,,,,,,,,,,,,,,,,,,,,,,,,,,,,,,,,,,,,,,,,,
,,?,0.000795,0,,,,,,stimuli/images/PICTURE_93.png,GIRL,5f03579ef3d5b3546f323d47,17/03/1950,2020-07-09_15h16.15.760,proactive,2020.1.2,MacIntel,60,5f073de81c76c3308c0e4fb3,5f076cd8d03a5413224f32cf,6,,,,,,skateboard,,,,,,,,,,,4,2,0,19,19,31,1,,,,,,,,,,,,,,,,,,,,,,,,,,,,,,,,,,,,,,,,,,,,,,,,,,,,,,,,,,,,,,,,,,,,,,
,,?,0.000685,0,,,,,,stimuli/images/PICTURE_95.png,NIGHT,5f03579ef3d5b3546f323d47,17/03/1950,2020-07-09_15h16.15.760,proactive,2020.1.2,MacIntel,60,5f073de81c76c3308c0e4fb3,5f076cd8d03a5413224f32cf,6,,,,,,suitcase,,,,,,,,,,,4,2,0,20,20,37,1,,,,,,,,,,,,,,,,,,,,,,,,,,,,,,,,,,,,,,,,,,,,,,,,,,,,,,,,,,,,,,,,,,,,,,
,,?,0.00066,0,,,,,,stimuli/images/PICTURE_356.png,CANDY,5f03579ef3d5b3546f323d47,17/03/1950,2020-07-09_15h16.15.760,proactive,2020.1.2,MacIntel,60,5f073de81c76c3308c0e4fb3,5f076cd8d03a5413224f32cf,6,,,,,,pawn,,,,,,,,,,,5,2,0,21,21,46,1,,,,,,,,,,,,,,,,,,,,,,,,,,,,,,,,,,,,,,,,,,,,,,,,,,,,,,,,,,,,,,,,,,,,,,
,,?,0.000655,0,,,,,,stimuli/images/PICTURE_504.png,HOUSE,5f03579ef3d5b3546f323d47,17/03/1950,2020-07-09_15h16.15.760,proactive,2020.1.2,MacIntel,60,5f073de81c76c3308c0e4fb3,5f076cd8d03a5413224f32cf,6,,,,,,wheel,,,,,,,,,,,4,2,0,22,22,36,1,,,,,,,,,,,,,,,,,,,,,,,,,,,,,,,,,,,,,,,,,,,,,,,,,,,,,,,,,,,,,,,,,,,,,,
,,?,0.0006,0,,,,,,stimuli/images/PICTURE_654.png,COPS,5f03579ef3d5b3546f323d47,17/03/1950,2020-07-09_15h16.15.760,proactive,2020.1.2,MacIntel,60,5f073de81c76c3308c0e4fb3,5f076cd8d03a5413224f32cf,6,,,,,,pencil,,,,,,,,,,,2,2,0,23,23,10,1,,,,,,,,,,,,,,,,,,,,,,,,,,,,,,,,,,,,,,,,,,,,,,,,,,,,,,,,,,,,,,,,,,,,,,
,,?,0.000605,0,,,,,,stimuli/images/PICTURE_677.png,PHOTO,5f03579ef3d5b3546f323d47,17/03/1950,2020-07-09_15h16.15.760,proactive,2020.1.2,MacIntel,60,5f073de81c76c3308c0e4fb3,5f076cd8d03a5413224f32cf,6,,,,,,map,,,,,,,,,,,2,2,0,24,24,14,1,,,,,,,,,,,,,,,,,,,,,,,,,,,,,,,,,,,,,,,,,,,,,,,,,,,,,,,,,,,,,,,,,,,,,,
,,TOILET,2.352385,1,,,,,,stimuli/images/PICTURE_311.png,TOILET,5f03579ef3d5b3546f323d47,17/03/1950,2020-07-09_15h16.15.760,proactive,2020.1.2,MacIntel,60,5f073de81c76c3308c0e4fb3,5f076cd8d03a5413224f32cf,6,,,,,,razor,,,,,,,,,,,6,2,0,25,25,54,1,,,,,,,,,,,,,,,,,,,,,,,,,,,,,,,,,,,,,,,,,,,,,,,,,,,,,,,,,,,,,,,,,,,,,,
,,?,0.00149,0,,,,,,stimuli/images/PICTURE_509.png,SHOTS,5f03579ef3d5b3546f323d47,17/03/1950,2020-07-09_15h16.15.760,proactive,2020.1.2,MacIntel,60,5f073de81c76c3308c0e4fb3,5f076cd8d03a5413224f32cf,6,,,,,,telephone,,,,,,,,,,,1,2,0,26,26,7,1,,,,,,,,,,,,,,,,,,,,,,,,,,,,,,,,,,,,,,,,,,,,,,,,,,,,,,,,,,,,,,,,,,,,,,
,,?,0.001035,0,,,,,,stimuli/images/PICTURE_68.png,KIND,5f03579ef3d5b3546f323d47,17/03/1950,2020-07-09_15h16.15.760,proactive,2020.1.2,MacIntel,60,5f073de81c76c3308c0e4fb3,5f076cd8d03a5413224f32cf,6,,,,,,candle,,,,,,,,,,,3,2,0,27,27,23,1,,,,,,,,,,,,,,,,,,,,,,,,,,,,,,,,,,,,,,,,,,,,,,,,,,,,,,,,,,,,,,,,,,,,,,
,,?,0.00086,0,,,,,,stimuli/images/PICTURE_708.png,VALLEY,5f03579ef3d5b3546f323d47,17/03/1950,2020-07-09_15h16.15.760,proactive,2020.1.2,MacIntel,60,5f073de81c76c3308c0e4fb3,5f076cd8d03a5413224f32cf,6,,,,,,monkey,,,,,,,,,,,5,2,0,28,28,45,1,,,,,,,,,,,,,,,,,,,,,,,,,,,,,,,,,,,,,,,,,,,,,,,,,,,,,,,,,,,,,,,,,,,,,,
,,?,0.00085,0,,,,,,stimuli/images/PICTURE_453.png,FAMILY,5f03579ef3d5b3546f323d47,17/03/1950,2020-07-09_15h16.15.760,proactive,2020.1.2,MacIntel,60,5f073de81c76c3308c0e4fb3,5f076cd8d03a5413224f32cf,6,,,,,,scissors,,,,,,,,,,,5,2,0,29,29,48,1,,,,,,,,,,,,,,,,,,,,,,,,,,,,,,,,,,,,,,,,,,,,,,,,,,,,,,,,,,,,,,,,,,,,,,
,,?,0.00201,0,,,,,,stimuli/images/PICTURE_123.png,SALE,5f03579ef3d5b3546f323d47,17/03/1950,2020-07-09_15h16.15.760,proactive,2020.1.2,MacIntel,60,5f073de81c76c3308c0e4fb3,5f076cd8d03a5413224f32cf,6,,,,,,dart,,,,,,,,,,,1,2,0,30,30,8,1,,,,,,,,,,,,,,,,,,,,,,,,,,,,,,,,,,,,,,,,,,,,,,,,,,,,,,,,,,,,,,,,,,,,,,
,,SALE,2.13414,1,,,,,,stimuli/images/PICTURE_655.png,SALE,5f03579ef3d5b3546f323d47,17/03/1950,2020-07-09_15h16.15.760,proactive,2020.1.2,MacIntel,60,5f073de81c76c3308c0e4fb3,5f076cd8d03a5413224f32cf,6,,,,,,megaphone,,,,,,,,,,,6,2,0,31,31,57,1,,,,,,,,,,,,,,,,,,,,,,,,,,,,,,,,,,,,,,,,,,,,,,,,,,,,,,,,,,,,,,,,,,,,,,
,,?,0.002115,0,,,,,,stimuli/images/PICTURE_348.png,TOILET,5f03579ef3d5b3546f323d47,17/03/1950,2020-07-09_15h16.15.760,proactive,2020.1.2,MacIntel,60,5f073de81c76c3308c0e4fb3,5f076cd8d03a5413224f32cf,6,,,,,,pepper,,,,,,,,,,,1,2,0,32,32,4,1,,,,,,,,,,,,,,,,,,,,,,,,,,,,,,,,,,,,,,,,,,,,,,,,,,,,,,,,,,,,,,,,,,,,,,
,,?,0.003295,0,,,,,,stimuli/images/PICTURE_564.png,PLENTY,5f03579ef3d5b3546f323d47,17/03/1950,2020-07-09_15h16.15.760,proactive,2020.1.2,MacIntel,60,5f073de81c76c3308c0e4fb3,5f076cd8d03a5413224f32cf,6,,,,,,spoon,,,,,,,,,,,2,2,0,33,33,11,1,,,,,,,,,,,,,,,,,,,,,,,,,,,,,,,,,,,,,,,,,,,,,,,,,,,,,,,,,,,,,,,,,,,,,,
,,?,0.00098,0,,,,,,stimuli/images/PICTURE_33.png,COPS,5f03579ef3d5b3546f323d47,17/03/1950,2020-07-09_15h16.15.760,proactive,2020.1.2,MacIntel,60,5f073de81c76c3308c0e4fb3,5f076cd8d03a5413224f32cf,6,,,,,,frame,,,,,,,,,,,3,2,0,34,34,29,1,,,,,,,,,,,,,,,,,,,,,,,,,,,,,,,,,,,,,,,,,,,,,,,,,,,,,,,,,,,,,,,,,,,,,,
,,?,0.00084,0,,,,,,stimuli/images/PICTURE_57.png,NATION,5f03579ef3d5b3546f323d47,17/03/1950,2020-07-09_15h16.15.760,proactive,2020.1.2,MacIntel,60,5f073de81c76c3308c0e4fb3,5f076cd8d03a5413224f32cf,6,,,,,,stamp,,,,,,,,,,,3,2,0,35,35,21,1,,,,,,,,,,,,,,,,,,,,,,,,,,,,,,,,,,,,,,,,,,,,,,,,,,,,,,,,,,,,,,,,,,,,,,
,,?,0.000855,0,,,,,,stimuli/images/PICTURE_2.png,AREA,5f03579ef3d5b3546f323d47,17/03/1950,2020-07-09_15h16.15.760,proactive,2020.1.2,MacIntel,60,5f073de81c76c3308c0e4fb3,5f076cd8d03a5413224f32cf,6,,,,,,tyre,,,,,,,,,,,4,2,0,36,36,32,1,,,,,,,,,,,,,,,,,,,,,,,,,,,,,,,,,,,,,,,,,,,,,,,,,,,,,,,,,,,,,,,,,,,,,,
,,JUNGLE,3.985415,1,,,,,,stimuli/images/PICTURE_405.png,JUNGLE,5f03579ef3d5b3546f323d47,17/03/1950,2020-07-09_15h16.15.760,proactive,2020.1.2,MacIntel,60,5f073de81c76c3308c0e4fb3,5f076cd8d03a5413224f32cf,6,,,,,,anchor,,,,,,,,,,,6,2,0,37,37,58,1,,,,,,,,,,,,,,,,,,,,,,,,,,,,,,,,,,,,,,,,,,,,,,,,,,,,,,,,,,,,,,,,,,,,,,
,,?,0.00268,0,,,,,,stimuli/images/PICTURE_160.png,HOTEL,5f03579ef3d5b3546f323d47,17/03/1950,2020-07-09_15h16.15.760,proactive,2020.1.2,MacIntel,60,5f073de81c76c3308c0e4fb3,5f076cd8d03a5413224f32cf,6,,,,,,wheelbarrow,,,,,,,,,,,2,2,0,38,38,16,1,,,,,,,,,,,,,,,,,,,,,,,,,,,,,,,,,,,,,,,,,,,,,,,,,,,,,,,,,,,,,,,,,,,,,,
,,?,0.000925,0,,,,,,stimuli/images/PICTURE_311.png,FLESH,5f03579ef3d5b3546f323d47,17/03/1950,2020-07-09_15h16.15.760,proactive,2020.1.2,MacIntel,60,5f073de81c76c3308c0e4fb3,5f076cd8d03a5413224f32cf,6,,,,,,razor,,,,,,,,,,,1,2,0,39,39,3,1,,,,,,,,,,,,,,,,,,,,,,,,,,,,,,,,,,,,,,,,,,,,,,,,,,,,,,,,,,,,,,,,,,,,,,
,,?,0.000915,0,,,,,,stimuli/images/PICTURE_667.png,GLASS,5f03579ef3d5b3546f323d47,17/03/1950,2020-07-09_15h16.15.760,proactive,2020.1.2,MacIntel,60,5f073de81c76c3308c0e4fb3,5f076cd8d03a5413224f32cf,6,,,,,,daisy,,,,,,,,,,,3,2,0,40,40,27,1,,,,,,,,,,,,,,,,,,,,,,,,,,,,,,,,,,,,,,,,,,,,,,,,,,,,,,,,,,,,,,,,,,,,,,
,,?,0.00086,0,,,,,,stimuli/images/PICTURE_405.png,JUNGLE,5f03579ef3d5b3546f323d47,17/03/1950,2020-07-09_15h16.15.760,proactive,2020.1.2,MacIntel,60,5f073de81c76c3308c0e4fb3,5f076cd8d03a5413224f32cf,6,,,,,,anchor,,,,,,,,,,,2,2,0,41,41,13,1,,,,,,,,,,,,,,,,,,,,,,,,,,,,,,,,,,,,,,,,,,,,,,,,,,,,,,,,,,,,,,,,,,,,,,
,,?,0.0007,0,,,,,,stimuli/images/PICTURE_2.png,JUNGLE,5f03579ef3d5b3546f323d47,17/03/1950,2020-07-09_15h16.15.760,proactive,2020.1.2,MacIntel,60,5f073de81c76c3308c0e4fb3,5f076cd8d03a5413224f32cf,6,,,,,,tyre,,,,,,,,,,,1,2,0,42,42,1,1,,,,,,,,,,,,,,,,,,,,,,,,,,,,,,,,,,,,,,,,,,,,,,,,,,,,,,,,,,,,,,,,,,,,,,
,,?,0.00083,0,,,,,,stimuli/images/PICTURE_147.png,LEADER,5f03579ef3d5b3546f323d47,17/03/1950,2020-07-09_15h16.15.760,proactive,2020.1.2,MacIntel,60,5f073de81c76c3308c0e4fb3,5f076cd8d03a5413224f32cf,6,,,,,,hanger,,,,,,,,,,,4,2,0,43,43,33,1,,,,,,,,,,,,,,,,,,,,,,,,,,,,,,,,,,,,,,,,,,,,,,,,,,,,,,,,,,,,,,,,,,,,,,
,,?,0.000755,0,,,,,,stimuli/images/PICTURE_509.png,MILLER,5f03579ef3d5b3546f323d47,17/03/1950,2020-07-09_15h16.15.760,proactive,2020.1.2,MacIntel,60,5f073de81c76c3308c0e4fb3,5f076cd8d03a5413224f32cf,6,,,,,,telephone,,,,,,,,,,,5,2,0,44,44,49,1,,,,,,,,,,,,,,,,,,,,,,,,,,,,,,,,,,,,,,,,,,,,,,,,,,,,,,,,,,,,,,,,,,,,,,
,,?,0.000765,0,,,,,,stimuli/images/PICTURE_215.png,LEADER,5f03579ef3d5b3546f323d47,17/03/1950,2020-07-09_15h16.15.760,proactive,2020.1.2,MacIntel,60,5f073de81c76c3308c0e4fb3,5f076cd8d03a5413224f32cf,6,,,,,,boot,,,,,,,,,,,5,2,0,45,45,43,1,,,,,,,,,,,,,,,,,,,,,,,,,,,,,,,,,,,,,,,,,,,,,,,,,,,,,,,,,,,,,,,,,,,,,,
,,?,0.000965,0,,,,,,stimuli/images/PICTURE_285.png,PRINCE,5f03579ef3d5b3546f323d47,17/03/1950,2020-07-09_15h16.15.760,proactive,2020.1.2,MacIntel,60,5f073de81c76c3308c0e4fb3,5f076cd8d03a5413224f32cf,6,,,,,,carrot,,,,,,,,,,,3,2,0,46,46,20,1,,,,,,,,,,,,,,,,,,,,,,,,,,,,,,,,,,,,,,,,,,,,,,,,,,,,,,,,,,,,,,,,,,,,,,
,,?,0.001975,0,,,,,,stimuli/images/PICTURE_688.png,CLOCK,5f03579ef3d5b3546f323d47,17/03/1950,2020-07-09_15h16.15.760,proactive,2020.1.2,MacIntel,60,5f073de81c76c3308c0e4fb3,5f076cd8d03a5413224f32cf,6,,,,,,runner,,,,,,,,,,,5,2,0,47,47,42,1,,,,,,,,,,,,,,,,,,,,,,,,,,,,,,,,,,,,,,,,,,,,,,,,,,,,,,,,,,,,,,,,,,,,,,
,,?,0.000645,0,,,,,,stimuli/images/PICTURE_208.png,SPIRIT,5f03579ef3d5b3546f323d47,17/03/1950,2020-07-09_15h16.15.760,proactive,2020.1.2,MacIntel,60,5f073de81c76c3308c0e4fb3,5f076cd8d03a5413224f32cf,6,,,,,,microphone,,,,,,,,,,,3,2,0,48,48,28,1,,,,,,,,,,,,,,,,,,,,,,,,,,,,,,,,,,,,,,,,,,,,,,,,,,,,,,,,,,,,,,,,,,,,,,
,,CEILING,3.420535,0,,,,,,stimuli/images/PICTURE_487.png,ROOF,5f03579ef3d5b3546f323d47,17/03/1950,2020-07-09_15h16.15.760,proactive,2020.1.2,MacIntel,60,5f073de81c76c3308c0e4fb3,5f076cd8d03a5413224f32cf,6,,,,,,basket,,,,,,,,,,,6,2,0,49,49,50,1,,,,,,,,,,,,,,,,,,,,,,,,,,,,,,,,,,,,,,,,,,,,,,,,,,,,,,,,,,,,,,,,,,,,,,
,,BODY,2.997085,1,,,,,,stimuli/images/PICTURE_297.png,BODY,5f03579ef3d5b3546f323d47,17/03/1950,2020-07-09_15h16.15.760,proactive,2020.1.2,MacIntel,60,5f073de81c76c3308c0e4fb3,5f076cd8d03a5413224f32cf,6,,,,,,aeroplane,,,,,,,,,,,6,2,0,50,50,51,1,,,,,,,,,,,,,,,,,,,,,,,,,,,,,,,,,,,,,,,,,,,,,,,,,,,,,,,,,,,,,,,,,,,,,,
,,?,0.00227,0,,,,,,stimuli/images/PICTURE_470.png,MOMENT,5f03579ef3d5b3546f323d47,17/03/1950,2020-07-09_15h16.15.760,proactive,2020.1.2,MacIntel,60,5f073de81c76c3308c0e4fb3,5f076cd8d03a5413224f32cf,6,,,,,,motorbike,,,,,,,,,,,5,2,0,51,51,40,1,,,,,,,,,,,,,,,,,,,,,,,,,,,,,,,,,,,,,,,,,,,,,,,,,,,,,,,,,,,,,,,,,,,,,,
,,?,0.001025,0,,,,,,stimuli/images/PICTURE_327.png,LEADER,5f03579ef3d5b3546f323d47,17/03/1950,2020-07-09_15h16.15.760,proactive,2020.1.2,MacIntel,60,5f073de81c76c3308c0e4fb3,5f076cd8d03a5413224f32cf,6,,,,,,helmet,,,,,,,,,,,2,2,0,52,52,17,1,,,,,,,,,,,,,,,,,,,,,,,,,,,,,,,,,,,,,,,,,,,,,,,,,,,,,,,,,,,,,,,,,,,,,,
,,DUDE,2.760955,1,,,,,,stimuli/images/PICTURE_348.png,DUDE,5f03579ef3d5b3546f323d47,17/03/1950,2020-07-09_15h16.15.760,proactive,2020.1.2,MacIntel,60,5f073de81c76c3308c0e4fb3,5f076cd8d03a5413224f32cf,6,,,,,,pepper,,,,,,,,,,,6,2,0,53,53,59,1,,,,,,,,,,,,,,,,,,,,,,,,,,,,,,,,,,,,,,,,,,,,,,,,,,,,,,,,,,,,,,,,,,,,,,
,,?,0.00198,0,,,,,,stimuli/images/PICTURE_57.png,CASINO,5f03579ef3d5b3546f323d47,17/03/1950,2020-07-09_15h16.15.760,proactive,2020.1.2,MacIntel,60,5f073de81c76c3308c0e4fb3,5f076cd8d03a5413224f32cf,6,,,,,,stamp,,,,,,,,,,,2,2,0,54,54,12,1,,,,,,,,,,,,,,,,,,,,,,,,,,,,,,,,,,,,,,,,,,,,,,,,,,,,,,,,,,,,,,,,,,,,,,
,,?,0.00154,0,,,,,,stimuli/images/PICTURE_296.png,CLOCK,5f03579ef3d5b3546f323d47,17/03/1950,2020-07-09_15h16.15.760,proactive,2020.1.2,MacIntel,60,5f073de81c76c3308c0e4fb3,5f076cd8d03a5413224f32cf,6,,,,,,bolt,,,,,,,,,,,2,2,0,55,55,18,1,,,,,,,,,,,,,,,,,,,,,,,,,,,,,,,,,,,,,,,,,,,,,,,,,,,,,,,,,,,,,,,,,,,,,,
,,FAMILY,2.97362,1,,,,,,stimuli/images/PICTURE_677.png,FAMILY,5f03579ef3d5b3546f323d47,17/03/1950,2020-07-09_15h16.15.760,proactive,2020.1.2,MacIntel,60,5f073de81c76c3308c0e4fb3,5f076cd8d03a5413224f32cf,6,,,,,,map,,,,,,,,,,,6,2,0,56,56,53,1,,,,,,,,,,,,,,,,,,,,,,,,,,,,,,,,,,,,,,,,,,,,,,,,,,,,,,,,,,,,,,,,,,,,,,
,,?,0.00226,0,,,,,,stimuli/images/PICTURE_487.png,POLICY,5f03579ef3d5b3546f323d47,17/03/1950,2020-07-09_15h16.15.760,proactive,2020.1.2,MacIntel,60,5f073de81c76c3308c0e4fb3,5f076cd8d03a5413224f32cf,6,,,,,,basket,,,,,,,,,,,4,2,0,57,57,34,1,,,,,,,,,,,,,,,,,,,,,,,,,,,,,,,,,,,,,,,,,,,,,,,,,,,,,,,,,,,,,,,,,,,,,,
,,?,0.000945,0,,,,,,stimuli/images/PICTURE_314.png,SPEECH,5f03579ef3d5b3546f323d47,17/03/1950,2020-07-09_15h16.15.760,proactive,2020.1.2,MacIntel,60,5f073de81c76c3308c0e4fb3,5f076cd8d03a5413224f32cf,6,,,,,,perfume,,,,,,,,,,,4,2,0,58,58,35,1,,,,,,,,,,,,,,,,,,,,,,,,,,,,,,,,,,,,,,,,,,,,,,,,,,,,,,,,,,,,,,,,,,,,,,
,,?,0.000875,0,,,,,,stimuli/images/PICTURE_750.png,POLICY,5f03579ef3d5b3546f323d47,17/03/1950,2020-07-09_15h16.15.760,proactive,2020.1.2,MacIntel,60,5f073de81c76c3308c0e4fb3,5f076cd8d03a5413224f32cf,6,,,,,,kettle,,,,,,,,,,,5,2,0,59,59,44,1,,,,,,,,,,,,,,,,,,,,,,,,,,,,,,,,,,,,,,,,,,,,,,,,,,,,,,,,,,,,,,,,,,,,,,
,,,,,,,,,,,,5f03579ef3d5b3546f323d47,17/03/1950,2020-07-09_15h16.15.760,proactive,2020.1.2,MacIntel,60,5f073de81c76c3308c0e4fb3,5f076cd8d03a5413224f32cf,6,,,,,,,,,,,,,,,,,,,,,,,,0,1,1,2,1,stimuli/learn-block3.csv,,,,,,,,,,,,,,,,,,,,,,,,,,,,,,,,,,,,,,,,,,,,,,,,,,,,,,,,,,,,,,,,
,,,,,,,,,,stimuli/images/PICTURE_491.png,GLASS,5f03579ef3d5b3546f323d47,17/03/1950,2020-07-09_15h16.15.760,proactive,2020.1.2,MacIntel,60,5f073de81c76c3308c0e4fb3,5f076cd8d03a5413224f32cf,6,,,,,,rug,,,,,,0,0,0,14,1,2,1,,,,,,,,,,,,,,,,,,,,,,,,,,,,,,,,,,,,,,,,,,,,,,,,,,,,,,,,,,,,,,,,,,,,,,,,,,,
,,,,,,,,,,stimuli/images/PICTURE_308.png,FAMILY,5f03579ef3d5b3546f323d47,17/03/1950,2020-07-09_15h16.15.760,proactive,2020.1.2,MacIntel,60,5f073de81c76c3308c0e4fb3,5f076cd8d03a5413224f32cf,6,,,,,,dice,,,,,,0,1,1,36,1,4,1,,,,,,,,,,,,,,,,,,,,,,,,,,,,,,,,,,,,,,,,,,,,,,,,,,,,,,,,,,,,,,,,,,,,,,,,,,,
,,,,,,,,,,stimuli/images/PICTURE_57.png,MOMENT,5f03579ef3d5b3546f323d47,17/03/1950,2020-07-09_15h16.15.760,proactive,2020.1.2,MacIntel,60,5f073de81c76c3308c0e4fb3,5f076cd8d03a5413224f32cf,6,,,,,,stamp,,,,,,0,2,2,37,1,4,1,,,,,,,,,,,,,,,,,,,,,,,,,,,,,,,,,,,,,,,,,,,,,,,,,,,,,,,,,,,,,,,,,,,,,,,,,,,
,,,,,,,,,,stimuli/images/PICTURE_68.png,ROOF,5f03579ef3d5b3546f323d47,17/03/1950,2020-07-09_15h16.15.760,proactive,2020.1.2,MacIntel,60,5f073de81c76c3308c0e4fb3,5f076cd8d03a5413224f32cf,6,,,,,,candle,,,,,,0,3,3,38,1,4,1,,,,,,,,,,,,,,,,,,,,,,,,,,,,,,,,,,,,,,,,,,,,,,,,,,,,,,,,,,,,,,,,,,,,,,,,,,,
,,,,,,,,,,stimuli/images/PICTURE_177.png,WRITER,5f03579ef3d5b3546f323d47,17/03/1950,2020-07-09_15h16.15.760,proactive,2020.1.2,MacIntel,60,5f073de81c76c3308c0e4fb3,5f076cd8d03a5413224f32cf,6,,,,,,mushroom,,,,,,0,4,4,41,1,5,1,,,,,,,,,,,,,,,,,,,,,,,,,,,,,,,,,,,,,,,,,,,,,,,,,,,,,,,,,,,,,,,,,,,,,,,,,,,
,,,,,,,,,,stimuli/images/PICTURE_33.png,FRIEND,5f03579ef3d5b3546f323d47,17/03/1950,2020-07-09_15h16.15.760,proactive,2020.1.2,MacIntel,60,5f073de81c76c3308c0e4fb3,5f076cd8d03a5413224f32cf,6,,,,,,frame,,,,,,0,5,5,8,1,1,1,,,,,,,,,,,,,,,,,,,,,,,,,,,,,,,,,,,,,,,,,,,,,,,,,,,,,,,,,,,,,,,,,,,,,,,,,,,
,,,,,,,,,,stimuli/images/PICTURE_403.png,TOILET,5f03579ef3d5b3546f323d47,17/03/1950,2020-07-09_15h16.15.760,proactive,2020.1.2,MacIntel,60,5f073de81c76c3308c0e4fb3,5f076cd8d03a5413224f32cf,6,,,,,,cathedral,,,,,,0,6,6,25,1,3,1,,,,,,,,,,,,,,,,,,,,,,,,,,,,,,,,,,,,,,,,,,,,,,,,,,,,,,,,,,,,,,,,,,,,,,,,,,,
,,,,,,,,,,stimuli/images/PICTURE_708.png,RECORD,5f03579ef3d5b3546f323d47,17/03/1950,2020-07-09_15h16.15.760,proactive,2020.1.2,MacIntel,60,5f073de81c76c3308c0e4fb3,5f076cd8d03a5413224f32cf,6,,,,,,monkey,,,,,,0,7,7,58,1,6,1,,,,,,,,,,,,,,,,,,,,,,,,,,,,,,,,,,,,,,,,,,,,,,,,,,,,,,,,,,,,,,,,,,,,,,,,,,,
,,,,,,,,,,stimuli/images/PICTURE_380.png,CANDY,5f03579ef3d5b3546f323d47,17/03/1950,2020-07-09_15h16.15.760,proactive,2020.1.2,MacIntel,60,5f073de81c76c3308c0e4fb3,5f076cd8d03a5413224f32cf,6,,,,,,gorilla,,,,,,0,8,8,0,1,1,1,,,,,,,,,,,,,,,,,,,,,,,,,,,,,,,,,,,,,,,,,,,,,,,,,,,,,,,,,,,,,,,,,,,,,,,,,,,
,,,,,,,,,,stimuli/images/PICTURE_203.png,GODS,5f03579ef3d5b3546f323d47,17/03/1950,2020-07-09_15h16.15.760,proactive,2020.1.2,MacIntel,60,5f073de81c76c3308c0e4fb3,5f076cd8d03a5413224f32cf,6,,,,,,cap,,,,,,0,9,9,30,1,4,1,,,,,,,,,,,,,,,,,,,,,,,,,,,,,,,,,,,,,,,,,,,,,,,,,,,,,,,,,,,,,,,,,,,,,,,,,,,
,,,,,,,,,,stimuli/images/PICTURE_147.png,WOMEN,5f03579ef3d5b3546f323d47,17/03/1950,2020-07-09_15h16.15.760,proactive,2020.1.2,MacIntel,60,5f073de81c76c3308c0e4fb3,5f076cd8d03a5413224f32cf,6,,,,,,hanger,,,,,,0,10,10,7,1,1,1,,,,,,,,,,,,,,,,,,,,,,,,,,,,,,,,,,,,,,,,,,,,,,,,,,,,,,,,,,,,,,,,,,,,,,,,,,,
,,,,,,,,,,stimuli/images/PICTURE_654.png,MONTH,5f03579ef3d5b3546f323d47,17/03/1950,2020-07-09_15h16.15.760,proactive,2020.1.2,MacIntel,60,5f073de81c76c3308c0e4fb3,5f076cd8d03a5413224f32cf,6,,,,,,pencil,,,,,,0,11,11,29,1,3,1,,,,,,,,,,,,,,,,,,,,,,,,,,,,,,,,,,,,,,,,,,,,,,,,,,,,,,,,,,,,,,,,,,,,,,,,,,,
,,,,,,,,,,stimuli/images/PICTURE_95.png,BOYS,5f03579ef3d5b3546f323d47,17/03/1950,2020-07-09_15h16.15.760,proactive,2020.1.2,MacIntel,60,5f073de81c76c3308c0e4fb3,5f076cd8d03a5413224f32cf,6,,,,,,suitcase,,,,,,0,12,12,1,1,1,1,,,,,,,,,,,,,,,,,,,,,,,,,,,,,,,,,,,,,,,,,,,,,,,,,,,,,,,,,,,,,,,,,,,,,,,,,,,
,,,,,,,,,,stimuli/images/PICTURE_327.png,SERIES,5f03579ef3d5b3546f323d47,17/03/1950,2020-07-09_15h16.15.760,proactive,2020.1.2,MacIntel,60,5f073de81c76c3308c0e4fb3,5f076cd8d03a5413224f32cf,6,,,,,,helmet,,,,,,0,13,13,3,1,1,1,,,,,,,,,,,,,,,,,,,,,,,,,,,,,,,,,,,,,,,,,,,,,,,,,,,,,,,,,,,,,,,,,,,,,,,,,,,
,,,,,,,,,,stimuli/images/PICTURE_108.png,FLIGHT,5f03579ef3d5b3546f323d47,17/03/1950,2020-07-09_15h16.15.760,proactive,2020.1.2,MacIntel,60,5f073de81c76c3308c0e4fb3,5f076cd8d03a5413224f32cf,6,,,,,,calendar,,,,,,0,14,14,59,1,6,1,,,,,,,,,,,,,,,,,,,,,,,,,,,,,,,,,,,,,,,,,,,,,,,,,,,,,,,,,,,,,,,,,,,,,,,,,,,
,,,,,,,,,,stimuli/images/PICTURE_340.png,VALLEY,5f03579ef3d5b3546f323d47,17/03/1950,2020-07-09_15h16.15.760,proactive,2020.1.2,MacIntel,60,5f073de81c76c3308c0e4fb3,5f076cd8d03a5413224f32cf,6,,,,,,mirror,,,,,,0,15,15,54,1,6,1,,,,,,,,,,,,,,,,,,,,,,,,,,,,,,,,,,,,,,,,,,,,,,,,,,,,,,,,,,,,,,,,,,,,,,,,,,,
,,,,,,,,,,stimuli/images/PICTURE_405.png,YEAR,5f03579ef3d5b3546f323d47,17/03/1950,2020-07-09_15h16.15.760,proactive,2020.1.2,MacIntel,60,5f073de81c76c3308c0e4fb3,5f076cd8d03a5413224f32cf,6,,,,,,anchor,,,,,,0,16,16,34,1,4,1,,,,,,,,,,,,,,,,,,,,,,,,,,,,,,,,,,,,,,,,,,,,,,,,,,,,,,,,,,,,,,,,,,,,,,,,,,,
,,,,,,,,,,stimuli/images/PICTURE_383.png,SERIES,5f03579ef3d5b3546f323d47,17/03/1950,2020-07-09_15h16.15.760,proactive,2020.1.2,MacIntel,60,5f073de81c76c3308c0e4fb3,5f076cd8d03a5413224f32cf,6,,,,,,coin,,,,,,0,17,17,46,1,5,1,,,,,,,,,,,,,,,,,,,,,,,,,,,,,,,,,,,,,,,,,,,,,,,,,,,,,,,,,,,,,,,,,,,,,,,,,,,
,,,,,,,,,,stimuli/images/PICTURE_68.png,MILE,5f03579ef3d5b3546f323d47,17/03/1950,2020-07-09_15h16.15.760,proactive,2020.1.2,MacIntel,60,5f073de81c76c3308c0e4fb3,5f076cd8d03a5413224f32cf,6,,,,,,candle,,,,,,0,18,18,51,1,6,1,,,,,,,,,,,,,,,,,,,,,,,,,,,,,,,,,,,,,,,,,,,,,,,,,,,,,,,,,,,,,,,,,,,,,,,,,,,
,,,,,,,,,,stimuli/images/PICTURE_327.png,CASINO,5f03579ef3d5b3546f323d47,17/03/1950,2020-07-09_15h16.15.760,proactive,2020.1.2,MacIntel,60,5f073de81c76c3308c0e4fb3,5f076cd8d03a5413224f32cf,6,,,,,,helmet,,,,,,0,19,19,20,1,3,1,,,,,,,,,,,,,,,,,,,,,,,,,,,,,,,,,,,,,,,,,,,,,,,,,,,,,,,,,,,,,,,,,,,,,,,,,,,
,,,,,,,,,,stimuli/images/PICTURE_487.png,GIRL,5f03579ef3d5b3546f323d47,17/03/1950,2020-07-09_15h16.15.760,proactive,2020.1.2,MacIntel,60,5f073de81c76c3308c0e4fb3,5f076cd8d03a5413224f32cf,6,,,,,,basket,,,,,,0,20,20,45,1,5,1,,,,,,,,,,,,,,,,,,,,,,,,,,,,,,,,,,,,,,,,,,,,,,,,,,,,,,,,,,,,,,,,,,,,,,,,,,,
,,,,,,,,,,stimuli/images/PICTURE_32.png,PILLS,5f03579ef3d5b3546f323d47,17/03/1950,2020-07-09_15h16.15.760,proactive,2020.1.2,MacIntel,60,5f073de81c76c3308c0e4fb3,5f076cd8d03a5413224f32cf,6,,,,,,crown,,,,,,0,21,21,18,1,2,1,,,,,,,,,,,,,,,,,,,,,,,,,,,,,,,,,,,,,,,,,,,,,,,,,,,,,,,,,,,,,,,,,,,,,,,,,,,
,,,,,,,,,,stimuli/images/PICTURE_491.png,RIVER,5f03579ef3d5b3546f323d47,17/03/1950,2020-07-09_15h16.15.760,proactive,2020.1.2,MacIntel,60,5f073de81c76c3308c0e4fb3,5f076cd8d03a5413224f32cf,6,,,,,,rug,,,,,,0,22,22,6,1,1,1,,,,,,,,,,,,,,,,,,,,,,,,,,,,,,,,,,,,,,,,,,,,,,,,,,,,,,,,,,,,,,,,,,,,,,,,,,,
,,,,,,,,,,stimuli/images/PICTURE_85.png,NATION,5f03579ef3d5b3546f323d47,17/03/1950,2020-07-09_15h16.15.760,proactive,2020.1.2,MacIntel,60,5f073de81c76c3308c0e4fb3,5f076cd8d03a5413224f32cf,6,,,,,,diamond,,,,,,0,23,23,5,1,1,1,,,,,,,,,,,,,,,,,,,,,,,,,,,,,,,,,,,,,,,,,,,,,,,,,,,,,,,,,,,,,,,,,,,,,,,,,,,
,,,,,,,,,,stimuli/images/PICTURE_95.png,HONEY,5f03579ef3d5b3546f323d47,17/03/1950,2020-07-09_15h16.15.760,proactive,2020.1.2,MacIntel,60,5f073de81c76c3308c0e4fb3,5f076cd8d03a5413224f32cf,6,,,,,,suitcase,,,,,,0,24,24,44,1,5,1,,,,,,,,,,,,,,,,,,,,,,,,,,,,,,,,,,,,,,,,,,,,,,,,,,,,,,,,,,,,,,,,,,,,,,,,,,,
,,,,,,,,,,stimuli/images/PICTURE_85.png,TOILET,5f03579ef3d5b3546f323d47,17/03/1950,2020-07-09_15h16.15.760,proactive,2020.1.2,MacIntel,60,5f073de81c76c3308c0e4fb3,5f076cd8d03a5413224f32cf,6,,,,,,diamond,,,,,,0,25,25,48,1,5,1,,,,,,,,,,,,,,,,,,,,,,,,,,,,,,,,,,,,,,,,,,,,,,,,,,,,,,,,,,,,,,,,,,,,,,,,,,,
,,,,,,,,,,stimuli/images/PICTURE_467.png,POLICY,5f03579ef3d5b3546f323d47,17/03/1950,2020-07-09_15h16.15.760,proactive,2020.1.2,MacIntel,60,5f073de81c76c3308c0e4fb3,5f076cd8d03a5413224f32cf,6,,,,,,peg,,,,,,0,26,26,53,1,6,1,,,,,,,,,,,,,,,,,,,,,,,,,,,,,,,,,,,,,,,,,,,,,,,,,,,,,,,,,,,,,,,,,,,,,,,,,,,
,,,,,,,,,,stimuli/images/PICTURE_677.png,APPLE,5f03579ef3d5b3546f323d47,17/03/1950,2020-07-09_15h16.15.760,proactive,2020.1.2,MacIntel,60,5f073de81c76c3308c0e4fb3,5f076cd8d03a5413224f32cf,6,,,,,,map,,,,,,0,27,27,43,1,5,1,,,,,,,,,,,,,,,,,,,,,,,,,,,,,,,,,,,,,,,,,,,,,,,,,,,,,,,,,,,,,,,,,,,,,,,,,,,
,,,,,,,,,,stimuli/images/PICTURE_504.png,YEAR,5f03579ef3d5b3546f323d47,17/03/1950,2020-07-09_15h16.15.760,proactive,2020.1.2,MacIntel,60,5f073de81c76c3308c0e4fb3,5f076cd8d03a5413224f32cf,6,,,,,,wheel,,,,,,0,28,28,13,1,2,1,,,,,,,,,,,,,,,,,,,,,,,,,,,,,,,,,,,,,,,,,,,,,,,,,,,,,,,,,,,,,,,,,,,,,,,,,,,
,,,,,,,,,,stimuli/images/PICTURE_147.png,YEAR,5f03579ef3d5b3546f323d47,17/03/1950,2020-07-09_15h16.15.760,proactive,2020.1.2,MacIntel,60,5f073de81c76c3308c0e4fb3,5f076cd8d03a5413224f32cf,6,,,,,,hanger,,,,,,0,29,29,21,1,3,1,,,,,,,,,,,,,,,,,,,,,,,,,,,,,,,,,,,,,,,,,,,,,,,,,,,,,,,,,,,,,,,,,,,,,,,,,,,
,,,,,,,,,,stimuli/images/PICTURE_340.png,LETTER,5f03579ef3d5b3546f323d47,17/03/1950,2020-07-09_15h16.15.760,proactive,2020.1.2,MacIntel,60,5f073de81c76c3308c0e4fb3,5f076cd8d03a5413224f32cf,6,,,,,,mirror,,,,,,0,30,30,24,1,3,1,,,,,,,,,,,,,,,,,,,,,,,,,,,,,,,,,,,,,,,,,,,,,,,,,,,,,,,,,,,,,,,,,,,,,,,,,,,
,,,,,,,,,,stimuli/images/PICTURE_667.png,RIVER,5f03579ef3d5b3546f323d47,17/03/1950,2020-07-09_15h16.15.760,proactive,2020.1.2,MacIntel,60,5f073de81c76c3308c0e4fb3,5f076cd8d03a5413224f32cf,6,,,,,,daisy,,,,,,0,31,31,10,1,2,1,,,,,,,,,,,,,,,,,,,,,,,,,,,,,,,,,,,,,,,,,,,,,,,,,,,,,,,,,,,,,,,,,,,,,,,,,,,
,,,,,,,,,,stimuli/images/PICTURE_203.png,NIGHT,5f03579ef3d5b3546f323d47,17/03/1950,2020-07-09_15h16.15.760,proactive,2020.1.2,MacIntel,60,5f073de81c76c3308c0e4fb3,5f076cd8d03a5413224f32cf,6,,,,,,cap,,,,,,0,32,32,2,1,1,1,,,,,,,,,,,,,,,,,,,,,,,,,,,,,,,,,,,,,,,,,,,,,,,,,,,,,,,,,,,,,,,,,,,,,,,,,,,
,,,,,,,,,,stimuli/images/PICTURE_383.png,WRITER,5f03579ef3d5b3546f323d47,17/03/1950,2020-07-09_15h16.15.760,proactive,2020.1.2,MacIntel,60,5f073de81c76c3308c0e4fb3,5f076cd8d03a5413224f32cf,6,,,,,,coin,,,,,,0,33,33,28,1,3,1,,,,,,,,,,,,,,,,,,,,,,,,,,,,,,,,,,,,,,,,,,,,,,,,,,,,,,,,,,,,,,,,,,,,,,,,,,,
,,,,,,,,,,stimuli/images/PICTURE_380.png,HONEY,5f03579ef3d5b3546f323d47,17/03/1950,2020-07-09_15h16.15.760,proactive,2020.1.2,MacIntel,60,5f073de81c76c3308c0e4fb3,5f076cd8d03a5413224f32cf,6,,,,,,gorilla,,,,,,0,34,34,19,1,2,1,,,,,,,,,,,,,,,,,,,,,,,,,,,,,,,,,,,,,,,,,,,,,,,,,,,,,,,,,,,,,,,,,,,,,,,,,,,
,,,,,,,,,,stimuli/images/PICTURE_2.png,FLIGHT,5f03579ef3d5b3546f323d47,17/03/1950,2020-07-09_15h16.15.760,proactive,2020.1.2,MacIntel,60,5f073de81c76c3308c0e4fb3,5f076cd8d03a5413224f32cf,6,,,,,,tyre,,,,,,0,35,35,15,1,2,1,,,,,,,,,,,,,,,,,,,,,,,,,,,,,,,,,,,,,,,,,,,,,,,,,,,,,,,,,,,,,,,,,,,,,,,,,,,
,,,,,,,,,,stimuli/images/PICTURE_296.png,LOTS,5f03579ef3d5b3546f323d47,17/03/1950,2020-07-09_15h16.15.760,proactive,2020.1.2,MacIntel,60,5f073de81c76c3308c0e4fb3,5f076cd8d03a5413224f32cf,6,,,,,,bolt,,,,,,0,36,36,9,1,1,1,,,,,,,,,,,,,,,,,,,,,,,,,,,,,,,,,,,,,,,,,,,,,,,,,,,,,,,,,,,,,,,,,,,,,,,,,,,
,,,,,,,,,,stimuli/images/PICTURE_233.png,LOTS,5f03579ef3d5b3546f323d47,17/03/1950,2020-07-09_15h16.15.760,proactive,2020.1.2,MacIntel,60,5f073de81c76c3308c0e4fb3,5f076cd8d03a5413224f32cf,6,,,,,,salt,,,,,,0,37,37,42,1,5,1,,,,,,,,,,,,,,,,,,,,,,,,,,,,,,,,,,,,,,,,,,,,,,,,,,,,,,,,,,,,,,,,,,,,,,,,,,,
,,,,,,,,,,stimuli/images/PICTURE_750.png,HOTEL,5f03579ef3d5b3546f323d47,17/03/1950,2020-07-09_15h16.15.760,proactive,2020.1.2,MacIntel,60,5f073de81c76c3308c0e4fb3,5f076cd8d03a5413224f32cf,6,,,,,,kettle,,,,,,0,38,38,27,1,3,1,,,,,,,,,,,,,,,,,,,,,,,,,,,,,,,,,,,,,,,,,,,,,,,,,,,,,,,,,,,,,,,,,,,,,,,,,,,
,,,,,,,,,,stimuli/images/PICTURE_285.png,LIFE,5f03579ef3d5b3546f323d47,17/03/1950,2020-07-09_15h16.15.760,proactive,2020.1.2,MacIntel,60,5f073de81c76c3308c0e4fb3,5f076cd8d03a5413224f32cf,6,,,,,,carrot,,,,,,0,39,39,33,1,4,1,,,,,,,,,,,,,,,,,,,,,,,,,,,,,,,,,,,,,,,,,,,,,,,,,,,,,,,,,,,,,,,,,,,,,,,,,,,
,,,,,,,,,,stimuli/images/PICTURE_449.png,DUDE,5f03579ef3d5b3546f323d47,17/03/1950,2020-07-09_15h16.15.760,proactive,2020.1.2,MacIntel,60,5f073de81c76c3308c0e4fb3,5f076cd8d03a5413224f32cf,6,,,,,,bench,,,,,,0,40,40,17,1,2,1,,,,,,,,,,,,,,,,,,,,,,,,,,,,,,,,,,,,,,,,,,,,,,,,,,,,,,,,,,,,,,,,,,,,,,,,,,,
,,,,,,,,,,stimuli/images/PICTURE_95.png,MILLER,5f03579ef3d5b3546f323d47,17/03/1950,2020-07-09_15h16.15.760,proactive,2020.1.2,MacIntel,60,5f073de81c76c3308c0e4fb3,5f076cd8d03a5413224f32cf,6,,,,,,suitcase,,,,,,0,41,41,56,1,6,1,,,,,,,,,,,,,,,,,,,,,,,,,,,,,,,,,,,,,,,,,,,,,,,,,,,,,,,,,,,,,,,,,,,,,,,,,,,
,,,,,,,,,,stimuli/images/PICTURE_108.png,POLICY,5f03579ef3d5b3546f323d47,17/03/1950,2020-07-09_15h16.15.760,proactive,2020.1.2,MacIntel,60,5f073de81c76c3308c0e4fb3,5f076cd8d03a5413224f32cf,6,,,,,,calendar,,,,,,0,42,42,22,1,3,1,,,,,,,,,,,,,,,,,,,,,,,,,,,,,,,,,,,,,,,,,,,,,,,,,,,,,,,,,,,,,,,,,,,,,,,,,,,
,,,,,,,,,,stimuli/images/PICTURE_403.png,WRITER,5f03579ef3d5b3546f323d47,17/03/1950,2020-07-09_15h16.15.760,proactive,2020.1.2,MacIntel,60,5f073de81c76c3308c0e4fb3,5f076cd8d03a5413224f32cf,6,,,,,,cathedral,,,,,,0,43,43,31,1,4,1,,,,,,,,,,,,,,,,,,,,,,,,,,,,,,,,,,,,,,,,,,,,,,,,,,,,,,,,,,,,,,,,,,,,,,,,,,,
,,,,,,,,,,stimuli/images/PICTURE_32.png,KIND,5f03579ef3d5b3546f323d47,17/03/1950,2020-07-09_15h16.15.760,proactive,2020.1.2,MacIntel,60,5f073de81c76c3308c0e4fb3,5f076cd8d03a5413224f32cf,6,,,,,,crown,,,,,,0,44,44,35,1,4,1,,,,,,,,,,,,,,,,,,,,,,,,,,,,,,,,,,,,,,,,,,,,,,,,,,,,,,,,,,,,,,,,,,,,,,,,,,,
,,,,,,,,,,stimuli/images/PICTURE_339.png,CLIENT,5f03579ef3d5b3546f323d47,17/03/1950,2020-07-09_15h16.15.760,proactive,2020.1.2,MacIntel,60,5f073de81c76c3308c0e4fb3,5f076cd8d03a5413224f32cf,6,,,,,,backpack,,,,,,0,45,45,11,1,2,1,,,,,,,,,,,,,,,,,,,,,,,,,,,,,,,,,,,,,,,,,,,,,,,,,,,,,,,,,,,,,,,,,,,,,,,,,,,
,,,,,,,,,,stimuli/images/PICTURE_297.png,RIVER,5f03579ef3d5b3546f323d47,17/03/1950,2020-07-09_15h16.15.760,proactive,2020.1.2,MacIntel,60,5f073de81c76c3308c0e4fb3,5f076cd8d03a5413224f32cf,6,,,,,,aeroplane,,,,,,0,46,46,39,1,4,1,,,,,,,,,,,,,,,,,,,,,,,,,,,,,,,,,,,,,,,,,,,,,,,,,,,,,,,,,,,,,,,,,,,,,,,,,,,
,,,,,,,,,,stimuli/images/PICTURE_403.png,RIVER,5f03579ef3d5b3546f323d47,17/03/1950,2020-07-09_15h16.15.760,proactive,2020.1.2,MacIntel,60,5f073de81c76c3308c0e4fb3,5f076cd8d03a5413224f32cf,6,,,,,,cathedral,,,,,,0,47,47,40,1,5,1,,,,,,,,,,,,,,,,,,,,,,,,,,,,,,,,,,,,,,,,,,,,,,,,,,,,,,,,,,,,,,,,,,,,,,,,,,,
,,,,,,,,,,stimuli/images/PICTURE_675.png,SALE,5f03579ef3d5b3546f323d47,17/03/1950,2020-07-09_15h16.15.760,proactive,2020.1.2,MacIntel,60,5f073de81c76c3308c0e4fb3,5f076cd8d03a5413224f32cf,6,,,,,,windmill,,,,,,0,48,48,47,1,5,1,,,,,,,,,,,,,,,,,,,,,,,,,,,,,,,,,,,,,,,,,,,,,,,,,,,,,,,,,,,,,,,,,,,,,,,,,,,
,,,,,,,,,,stimuli/images/PICTURE_208.png,SYSTEM,5f03579ef3d5b3546f323d47,17/03/1950,2020-07-09_15h16.15.760,proactive,2020.1.2,MacIntel,60,5f073de81c76c3308c0e4fb3,5f076cd8d03a5413224f32cf,6,,,,,,microphone,,,,,,0,49,49,32,1,4,1,,,,,,,,,,,,,,,,,,,,,,,,,,,,,,,,,,,,,,,,,,,,,,,,,,,,,,,,,,,,,,,,,,,,,,,,,,,
,,,,,,,,,,stimuli/images/PICTURE_42.png,BOYS,5f03579ef3d5b3546f323d47,17/03/1950,2020-07-09_15h16.15.760,proactive,2020.1.2,MacIntel,60,5f073de81c76c3308c0e4fb3,5f076cd8d03a5413224f32cf,6,,,,,,pear,,,,,,0,50,50,55,1,6,1,,,,,,,,,,,,,,,,,,,,,,,,,,,,,,,,,,,,,,,,,,,,,,,,,,,,,,,,,,,,,,,,,,,,,,,,,,,
,,,,,,,,,,stimuli/images/PICTURE_469.png,AGENT,5f03579ef3d5b3546f323d47,17/03/1950,2020-07-09_15h16.15.760,proactive,2020.1.2,MacIntel,60,5f073de81c76c3308c0e4fb3,5f076cd8d03a5413224f32cf,6,,,,,,stool,,,,,,0,51,51,16,1,2,1,,,,,,,,,,,,,,,,,,,,,,,,,,,,,,,,,,,,,,,,,,,,,,,,,,,,,,,,,,,,,,,,,,,,,,,,,,,
,,,,,,,,,,stimuli/images/PICTURE_655.png,TOILET,5f03579ef3d5b3546f323d47,17/03/1950,2020-07-09_15h16.15.760,proactive,2020.1.2,MacIntel,60,5f073de81c76c3308c0e4fb3,5f076cd8d03a5413224f32cf,6,,,,,,megaphone,,,,,,0,52,52,12,1,2,1,,,,,,,,,,,,,,,,,,,,,,,,,,,,,,,,,,,,,,,,,,,,,,,,,,,,,,,,,,,,,,,,,,,,,,,,,,,
,,,,,,,,,,stimuli/images/PICTURE_296.png,LIFE,5f03579ef3d5b3546f323d47,17/03/1950,2020-07-09_15h16.15.760,proactive,2020.1.2,MacIntel,60,5f073de81c76c3308c0e4fb3,5f076cd8d03a5413224f32cf,6,,,,,,bolt,,,,,,0,53,53,57,1,6,1,,,,,,,,,,,,,,,,,,,,,,,,,,,,,,,,,,,,,,,,,,,,,,,,,,,,,,,,,,,,,,,,,,,,,,,,,,,
,,,,,,,,,,stimuli/images/PICTURE_504.png,ARTIST,5f03579ef3d5b3546f323d47,17/03/1950,2020-07-09_15h16.15.760,proactive,2020.1.2,MacIntel,60,5f073de81c76c3308c0e4fb3,5f076cd8d03a5413224f32cf,6,,,,,,wheel,,,,,,0,54,54,49,1,5,1,,,,,,,,,,,,,,,,,,,,,,,,,,,,,,,,,,,,,,,,,,,,,,,,,,,,,,,,,,,,,,,,,,,,,,,,,,,
,,,,,,,,,,stimuli/images/PICTURE_685.png,PENNY,5f03579ef3d5b3546f323d47,17/03/1950,2020-07-09_15h16.15.760,proactive,2020.1.2,MacIntel,60,5f073de81c76c3308c0e4fb3,5f076cd8d03a5413224f32cf,6,,,,,,goose,,,,,,0,55,55,4,1,1,1,,,,,,,,,,,,,,,,,,,,,,,,,,,,,,,,,,,,,,,,,,,,,,,,,,,,,,,,,,,,,,,,,,,,,,,,,,,
,,,,,,,,,,stimuli/images/PICTURE_405.png,PLENTY,5f03579ef3d5b3546f323d47,17/03/1950,2020-07-09_15h16.15.760,proactive,2020.1.2,MacIntel,60,5f073de81c76c3308c0e4fb3,5f076cd8d03a5413224f32cf,6,,,,,,anchor,,,,,,0,56,56,23,1,3,1,,,,,,,,,,,,,,,,,,,,,,,,,,,,,,,,,,,,,,,,,,,,,,,,,,,,,,,,,,,,,,,,,,,,,,,,,,,
,,,,,,,,,,stimuli/images/PICTURE_744.png,WEAPON,5f03579ef3d5b3546f323d47,17/03/1950,2020-07-09_15h16.15.760,proactive,2020.1.2,MacIntel,60,5f073de81c76c3308c0e4fb3,5f076cd8d03a5413224f32cf,6,,,,,,ring,,,,,,0,57,57,50,1,6,1,,,,,,,,,,,,,,,,,,,,,,,,,,,,,,,,,,,,,,,,,,,,,,,,,,,,,,,,,,,,,,,,,,,,,,,,,,,
,,,,,,,,,,stimuli/images/PICTURE_504.png,COPS,5f03579ef3d5b3546f323d47,17/03/1950,2020-07-09_15h16.15.760,proactive,2020.1.2,MacIntel,60,5f073de81c76c3308c0e4fb3,5f076cd8d03a5413224f32cf,6,,,,,,wheel,,,,,,0,58,58,52,1,6,1,,,,,,,,,,,,,,,,,,,,,,,,,,,,,,,,,,,,,,,,,,,,,,,,,,,,,,,,,,,,,,,,,,,,,,,,,,,
,,?,0.000995,0,,,,,,stimuli/images/PICTURE_380.png,HONEY,5f03579ef3d5b3546f323d47,17/03/1950,2020-07-09_15h16.15.760,proactive,2020.1.2,MacIntel,60,5f073de81c76c3308c0e4fb3,5f076cd8d03a5413224f32cf,6,,,,,,gorilla,,,,,,,,,,,2,1,0,0,0,19,1,,,,,,,,,,,,,,,,,,,,,,,,,,,,,,,,,,,,,,,,,,,,,,,,,,,,,,,,,,,,,,,,,,,,,,
,,?,0.00078,0,,,,,,stimuli/images/PICTURE_208.png,SYSTEM,5f03579ef3d5b3546f323d47,17/03/1950,2020-07-09_15h16.15.760,proactive,2020.1.2,MacIntel,60,5f073de81c76c3308c0e4fb3,5f076cd8d03a5413224f32cf,6,,,,,,microphone,,,,,,,,,,,4,1,0,1,1,32,1,,,,,,,,,,,,,,,,,,,,,,,,,,,,,,,,,,,,,,,,,,,,,,,,,,,,,,,,,,,,,,,,,,,,,,
,,?,0.00095,0,,,,,,stimuli/images/PICTURE_57.png,MOMENT,5f03579ef3d5b3546f323d47,17/03/1950,2020-07-09_15h16.15.760,proactive,2020.1.2,MacIntel,60,5f073de81c76c3308c0e4fb3,5f076cd8d03a5413224f32cf,6,,,,,,stamp,,,,,,,,,,,4,1,0,2,2,37,1,,,,,,,,,,,,,,,,,,,,,,,,,,,,,,,,,,,,,,,,,,,,,,,,,,,,,,,,,,,,,,,,,,,,,,
,,?,0.000795,0,,,,,,stimuli/images/PICTURE_504.png,ARTIST,5f03579ef3d5b3546f323d47,17/03/1950,2020-07-09_15h16.15.760,proactive,2020.1.2,MacIntel,60,5f073de81c76c3308c0e4fb3,5f076cd8d03a5413224f32cf,6,,,,,,wheel,,,,,,,,,,,5,1,0,3,3,49,1,,,,,,,,,,,,,,,,,,,,,,,,,,,,,,,,,,,,,,,,,,,,,,,,,,,,,,,,,,,,,,,,,,,,,,
,,?,0.001495,0,,,,,,stimuli/images/PICTURE_504.png,YEAR,5f03579ef3d5b3546f323d47,17/03/1950,2020-07-09_15h16.15.760,proactive,2020.1.2,MacIntel,60,5f073de81c76c3308c0e4fb3,5f076cd8d03a5413224f32cf,6,,,,,,wheel,,,,,,,,,,,2,1,0,4,4,13,1,,,,,,,,,,,,,,,,,,,,,,,,,,,,,,,,,,,,,,,,,,,,,,,,,,,,,,,,,,,,,,,,,,,,,,
,,?,0.0009,0,,,,,,stimuli/images/PICTURE_147.png,YEAR,5f03579ef3d5b3546f323d47,17/03/1950,2020-07-09_15h16.15.760,proactive,2020.1.2,MacIntel,60,5f073de81c76c3308c0e4fb3,5f076cd8d03a5413224f32cf,6,,,,,,hanger,,,,,,,,,,,3,1,0,5,5,21,1,,,,,,,,,,,,,,,,,,,,,,,,,,,,,,,,,,,,,,,,,,,,,,,,,,,,,,,,,,,,,,,,,,,,,,
,,?,0.000655,0,,,,,,stimuli/images/PICTURE_32.png,KIND,5f03579ef3d5b3546f323d47,17/03/1950,2020-07-09_15h16.15.760,proactive,2020.1.2,MacIntel,60,5f073de81c76c3308c0e4fb3,5f076cd8d03a5413224f32cf,6,,,,,,crown,,,,,,,,,,,4,1,0,6,6,35,1,,,,,,,,,,,,,,,,,,,,,,,,,,,,,,,,,,,,,,,,,,,,,,,,,,,,,,,,,,,,,,,,,,,,,,
,,COPS,5.30595,1,,,,,,stimuli/images/PICTURE_504.png,COPS,5f03579ef3d5b3546f323d47,17/03/1950,2020-07-09_15h16.15.760,proactive,2020.1.2,MacIntel,60,5f073de81c76c3308c0e4fb3,5f076cd8d03a5413224f32cf,6,,,,,,wheel,,,,,,,,,,,6,1,0,7,7,52,1,,,,,,,,,,,,,,,,,,,,,,,,,,,,,,,,,,,,,,,,,,,,,,,,,,,,,,,,,,,,,,,,,,,,,,
,,?,0.00128,0,,,,,,stimuli/images/PICTURE_203.png,NIGHT,5f03579ef3d5b3546f323d47,17/03/1950,2020-07-09_15h16.15.760,proactive,2020.1.2,MacIntel,60,5f073de81c76c3308c0e4fb3,5f076cd8d03a5413224f32cf,6,,,,,,cap,,,,,,,,,,,1,1,0,8,8,2,1,,,,,,,,,,,,,,,,,,,,,,,,,,,,,,,,,,,,,,,,,,,,,,,,,,,,,,,,,,,,,,,,,,,,,,
,,?,0.00078,0,,,,,,stimuli/images/PICTURE_491.png,GLASS,5f03579ef3d5b3546f323d47,17/03/1950,2020-07-09_15h16.15.760,proactive,2020.1.2,MacIntel,60,5f073de81c76c3308c0e4fb3,5f076cd8d03a5413224f32cf,6,,,,,,rug,,,,,,,,,,,2,1,0,9,9,14,1,,,,,,,,,,,,,,,,,,,,,,,,,,,,,,,,,,,,,,,,,,,,,,,,,,,,,,,,,,,,,,,,,,,,,,
,,?,0.000805,0,,,,,,stimuli/images/PICTURE_655.png,TOILET,5f03579ef3d5b3546f323d47,17/03/1950,2020-07-09_15h16.15.760,proactive,2020.1.2,MacIntel,60,5f073de81c76c3308c0e4fb3,5f076cd8d03a5413224f32cf,6,,,,,,megaphone,,,,,,,,,,,2,1,0,10,10,12,1,,,,,,,,,,,,,,,,,,,,,,,,,,,,,,,,,,,,,,,,,,,,,,,,,,,,,,,,,,,,,,,,,,,,,,
,,?,0.00085,0,,,,,,stimuli/images/PICTURE_405.png,PLENTY,5f03579ef3d5b3546f323d47,17/03/1950,2020-07-09_15h16.15.760,proactive,2020.1.2,MacIntel,60,5f073de81c76c3308c0e4fb3,5f076cd8d03a5413224f32cf,6,,,,,,anchor,,,,,,,,,,,3,1,0,11,11,23,1,,,,,,,,,,,,,,,,,,,,,,,,,,,,,,,,,,,,,,,,,,,,,,,,,,,,,,,,,,,,,,,,,,,,,,
,,?,0.00069,0,,,,,,stimuli/images/PICTURE_233.png,LOTS,5f03579ef3d5b3546f323d47,17/03/1950,2020-07-09_15h16.15.760,proactive,2020.1.2,MacIntel,60,5f073de81c76c3308c0e4fb3,5f076cd8d03a5413224f32cf,6,,,,,,salt,,,,,,,,,,,5,1,0,12,12,42,1,,,,,,,,,,,,,,,,,,,,,,,,,,,,,,,,,,,,,,,,,,,,,,,,,,,,,,,,,,,,,,,,,,,,,,
,,?,0.000865,0,,,,,,stimuli/images/PICTURE_564.png,BATH,5f03579ef3d5b3546f323d47,17/03/1950,2020-07-09_15h16.15.760,proactive,2020.1.2,MacIntel,60,5f073de81c76c3308c0e4fb3,5f076cd8d03a5413224f32cf,6,,,,,,spoon,,,,,,,,,,,3,1,0,13,13,26,1,,,,,,,,,,,,,,,,,,,,,,,,,,,,,,,,,,,,,,,,,,,,,,,,,,,,,,,,,,,,,,,,,,,,,,
